"success","timeout","failed_images","failed_audio","failed_video","trial_type","trial_index","time_elapsed","internal_node_id","prolific_id","prolific_study_id","prolific_session_id","rt","stimulus","response","view_history","trial","character_choice","stimulus_dict","accuracy","correct_response","ball_pos","ego_ball_visible","ego_can_infer","alter_ball_visible","alter_can_infer","collective_ball_visible","collective_can_infer","search_locations","alter_occluders","ego_occluders","accuracy_bool","feedback","age","ethnicity","gender","race","overall_accuracy","bonus"
"true","false","[]","[]","[]","preload","0","3656","0.0-0.0","5c209d9b10677f0001da5e38","665500ab8938657b03fbdba8","665792a0cf3a5161175719a2","","","","","","","","","","","","","","","","","","","","","","","","","","",""
"true","","","","","fullscreen","1","8726","0.0-1.0","5c209d9b10677f0001da5e38","665500ab8938657b03fbdba8","665792a0cf3a5161175719a2","","","","","","","","","","","","","","","","","","","","","","","","","","",""
"","","","","","html-button-response","2","30731","0.0-2.0","5c209d9b10677f0001da5e38","665500ab8938657b03fbdba8","665792a0cf3a5161175719a2","22003","<p><b>Consent Form</b></p> <div style=""text-align:left;background-color:lightgrey; padding:20px; max-width:900px;""><p>Please consider this information carefully before deciding whether to participate in this research.</p> <p>The purpose of this research is to examine which factors influence social judgment and decision-making. You will be asked to make judgements about individuals and actions in social scenarios. We are simply interested in your judgement. The study will take less than 1 hour to complete, and you will receive less than $20 on Prolific. Your compensation and time commitment are specified in the study description. There are no anticipated risks associated with participating in this study. The effects of participating should be comparable to those you would ordinarily experience from viewing a computer monitor and using a mouse or keyboard for a similar amount of time. At the end of the study, we will provide an explanation of the questions that motivate this line of research and will describe the potential implications. </p><p> Your participation in this study is completely voluntary and you may refuse to participate or you may choose to withdraw at any time without penalty or loss of benefits to you which are otherwise entitled. Your participation in this study will remain confidential. No personally identifiable information will be associated with your data. Also, all analyses of the data will be averaged across all the participants, so your individual responses will never be specifically analyzed. </p><p> If you have questions or concerns about your participation or payment, or want to request a summary of research findings, please contact Dr. Jonathan Phillips at Jonathan.S.Phillips@dartmouth.edu. </p><p> Please save a copy of this form for your records. </p><p><b>Agreement: </b>The nature and purpose of this research have been sufficiently explained and I agree to participate in this study. I understand that I am free to withdraw at any time without incurring any penalty. Please consent by clicking the button below to continue. Otherwise, please exit the study at any time. </p>","0","","","","","","","","","","","","","","","","","","","","","","","",""
"","","","","","instructions","3","102630","0.0-3.0-0.0","5c209d9b10677f0001da5e38","665500ab8938657b03fbdba8","665792a0cf3a5161175719a2","71898","","","[{""page_index"":0,""viewing_time"":2398},{""page_index"":1,""viewing_time"":2484},{""page_index"":2,""viewing_time"":3688},{""page_index"":3,""viewing_time"":6568},{""page_index"":4,""viewing_time"":2396},{""page_index"":5,""viewing_time"":2760},{""page_index"":6,""viewing_time"":4092},{""page_index"":7,""viewing_time"":4921},{""page_index"":8,""viewing_time"":4519},{""page_index"":9,""viewing_time"":2701},{""page_index"":10,""viewing_time"":16871},{""page_index"":11,""viewing_time"":9516},{""page_index"":12,""viewing_time"":6492},{""page_index"":13,""viewing_time"":2492}]","intro","","","","","","","","","","","","","","","","","","","","","",""
"","","","","","image-keyboard-response","4","106869","0.0-3.0-1.0","5c209d9b10677f0001da5e38","665500ab8938657b03fbdba8","665792a0cf3a5161175719a2","4238","stimuli/2111001.jpg","2","","prediction_practice","1","{""filepath"":""stimuli/2111001.jpg"",""ball_pos"":2,""ego_ball_visible"":false,""ego_can_infer"":true,""alter_ball_visible"":false,""alter_can_infer"":false,""collective_ball_visible"":false,""collective_can_infer"":false,""search_locations"":[0,1,2],""alter_occluders"":""111"",""ego_occluders"":""001""}","false","","","","","","","","","","","","","","","","","","",""
"","","","","","image-keyboard-response","5","112812","0.0-3.0-2.0","5c209d9b10677f0001da5e38","665500ab8938657b03fbdba8","665792a0cf3a5161175719a2","5941","stimuli/21110011.jpg"," ","","practrice_feedback","0","","","","","","","","","","","","","","","","","","","","",""
"","","","","","image-keyboard-response","6","115443","0.0-3.0-3.0","5c209d9b10677f0001da5e38","665500ab8938657b03fbdba8","665792a0cf3a5161175719a2","2629","stimuli/1000011.jpg","0","","prediction_practice","1","{""filepath"":""stimuli/1000011.jpg"",""ball_pos"":1,""ego_ball_visible"":false,""ego_can_infer"":false,""alter_ball_visible"":true,""alter_can_infer"":true,""collective_ball_visible"":false,""collective_can_infer"":false,""search_locations"":[1],""alter_occluders"":""000"",""ego_occluders"":""011""}","false","","","","","","","","","","","","","","","","","","",""
"","","","","","image-keyboard-response","7","119315","0.0-3.0-4.0","5c209d9b10677f0001da5e38","665500ab8938657b03fbdba8","665792a0cf3a5161175719a2","3872","stimuli/10000111.jpg"," ","","practrice_feedback","1","","","","","","","","","","","","","","","","","","","","",""
"","","","","","image-keyboard-response","8","121651","0.0-3.0-5.0","5c209d9b10677f0001da5e38","665500ab8938657b03fbdba8","665792a0cf3a5161175719a2","2335","stimuli/2111011.jpg","1","","prediction_practice","0","{""filepath"":""stimuli/2111011.jpg"",""ball_pos"":2,""ego_ball_visible"":false,""ego_can_infer"":false,""alter_ball_visible"":false,""alter_can_infer"":false,""collective_ball_visible"":false,""collective_can_infer"":false,""search_locations"":[1,0,2],""alter_occluders"":""111"",""ego_occluders"":""011""}","false","","","","","","","","","","","","","","","","","","",""
"","","","","","image-keyboard-response","9","122884","0.0-3.0-6.0","5c209d9b10677f0001da5e38","665500ab8938657b03fbdba8","665792a0cf3a5161175719a2","1232","stimuli/21110110.jpg"," ","","practrice_feedback","1","","","","","","","","","","","","","","","","","","","","",""
"","","","","","image-keyboard-response","10","125148","0.0-3.0-7.0","5c209d9b10677f0001da5e38","665500ab8938657b03fbdba8","665792a0cf3a5161175719a2","2262","stimuli/2011101.jpg","2","","prediction_practice","2","{""filepath"":""stimuli/2011101.jpg"",""ball_pos"":2,""ego_ball_visible"":false,""ego_can_infer"":false,""alter_ball_visible"":false,""alter_can_infer"":false,""collective_ball_visible"":false,""collective_can_infer"":false,""search_locations"":[2,1],""alter_occluders"":""011"",""ego_occluders"":""101""}","true","","","","","","","","","","","","","","","","","","",""
"","","","","","image-keyboard-response","11","126380","0.0-3.0-8.0","5c209d9b10677f0001da5e38","665500ab8938657b03fbdba8","665792a0cf3a5161175719a2","1232","stimuli/20111012.jpg"," ","","practrice_feedback","2","","","","","","","","","","","","","","","","","","","","",""
"","","","","","image-keyboard-response","12","127724","0.0-3.0-9.0","5c209d9b10677f0001da5e38","665500ab8938657b03fbdba8","665792a0cf3a5161175719a2","1343","stimuli/2000101.jpg","0","","prediction_practice","2","{""filepath"":""stimuli/2000101.jpg"",""ball_pos"":2,""ego_ball_visible"":false,""ego_can_infer"":false,""alter_ball_visible"":true,""alter_can_infer"":true,""collective_ball_visible"":false,""collective_can_infer"":false,""search_locations"":[2],""alter_occluders"":""000"",""ego_occluders"":""101""}","false","","","","","","","","","","","","","","","","","","",""
"","","","","","image-keyboard-response","13","128627","0.0-3.0-10.0","5c209d9b10677f0001da5e38","665500ab8938657b03fbdba8","665792a0cf3a5161175719a2","902","stimuli/20001012.jpg"," ","","practrice_feedback","2","","","","","","","","","","","","","","","","","","","","",""
"","","","","","image-keyboard-response","14","130347","0.0-3.0-11.0","5c209d9b10677f0001da5e38","665500ab8938657b03fbdba8","665792a0cf3a5161175719a2","1720","stimuli/0100101.jpg","0","","prediction_practice","0","{""filepath"":""stimuli/0100101.jpg"",""ball_pos"":0,""ego_ball_visible"":false,""ego_can_infer"":false,""alter_ball_visible"":false,""alter_can_infer"":true,""collective_ball_visible"":false,""collective_can_infer"":false,""search_locations"":[0],""alter_occluders"":""100"",""ego_occluders"":""101""}","true","","","","","","","","","","","","","","","","","","",""
"","","","","","image-keyboard-response","15","131140","0.0-3.0-12.0","5c209d9b10677f0001da5e38","665500ab8938657b03fbdba8","665792a0cf3a5161175719a2","791","stimuli/01001010.jpg"," ","","practrice_feedback","0","","","","","","","","","","","","","","","","","","","","",""
"","","","","","image-keyboard-response","16","132779","0.0-3.0-13.0","5c209d9b10677f0001da5e38","665500ab8938657b03fbdba8","665792a0cf3a5161175719a2","1638","stimuli/0111011.jpg","0","","prediction_practice","2","{""filepath"":""stimuli/0111011.jpg"",""ball_pos"":0,""ego_ball_visible"":true,""ego_can_infer"":true,""alter_ball_visible"":false,""alter_can_infer"":false,""collective_ball_visible"":false,""collective_can_infer"":false,""search_locations"":[0,2,1],""alter_occluders"":""111"",""ego_occluders"":""011""}","false","","","","","","","","","","","","","","","","","","",""
"","","","","","image-keyboard-response","17","136788","0.0-3.0-14.0","5c209d9b10677f0001da5e38","665500ab8938657b03fbdba8","665792a0cf3a5161175719a2","4008","stimuli/01110112.jpg"," ","","practrice_feedback","0","","","","","","","","","","","","","","","","","","","","",""
"","","","","","image-keyboard-response","18","143450","0.0-3.0-15.0","5c209d9b10677f0001da5e38","665500ab8938657b03fbdba8","665792a0cf3a5161175719a2","6661","stimuli/2101100.jpg","2","","prediction_practice","0","{""filepath"":""stimuli/2101100.jpg"",""ball_pos"":2,""ego_ball_visible"":true,""ego_can_infer"":true,""alter_ball_visible"":false,""alter_can_infer"":false,""collective_ball_visible"":false,""collective_can_infer"":false,""search_locations"":[2,0],""alter_occluders"":""101"",""ego_occluders"":""100""}","false","","","","","","","","","","","","","","","","","","",""
"","","","","","image-keyboard-response","19","144788","0.0-3.0-16.0","5c209d9b10677f0001da5e38","665500ab8938657b03fbdba8","665792a0cf3a5161175719a2","1336","stimuli/21011000.jpg"," ","","practrice_feedback","2","","","","","","","","","","","","","","","","","","","","",""
"","","","","","image-keyboard-response","20","146612","0.0-3.0-17.0","5c209d9b10677f0001da5e38","665500ab8938657b03fbdba8","665792a0cf3a5161175719a2","1823","stimuli/1111001.jpg","2","","prediction_practice","0","{""filepath"":""stimuli/1111001.jpg"",""ball_pos"":1,""ego_ball_visible"":true,""ego_can_infer"":true,""alter_ball_visible"":false,""alter_can_infer"":false,""collective_ball_visible"":false,""collective_can_infer"":false,""search_locations"":[1,0,2],""alter_occluders"":""111"",""ego_occluders"":""001""}","false","","","","","","","","","","","","","","","","","","",""
"","","","","","image-keyboard-response","21","147754","0.0-3.0-18.0","5c209d9b10677f0001da5e38","665500ab8938657b03fbdba8","665792a0cf3a5161175719a2","1141","stimuli/11110010.jpg"," ","","practrice_feedback","1","","","","","","","","","","","","","","","","","","","","",""
"","","","","","image-keyboard-response","22","154971","0.0-3.0-19.0","5c209d9b10677f0001da5e38","665500ab8938657b03fbdba8","665792a0cf3a5161175719a2","7217","stimuli/1010011.jpg","1","","prediction_practice","1","{""filepath"":""stimuli/1010011.jpg"",""ball_pos"":1,""ego_ball_visible"":false,""ego_can_infer"":false,""alter_ball_visible"":false,""alter_can_infer"":true,""collective_ball_visible"":false,""collective_can_infer"":false,""search_locations"":[1],""alter_occluders"":""010"",""ego_occluders"":""011""}","true","","","","","","","","","","","","","","","","","","",""
"","","","","","image-keyboard-response","23","155788","0.0-3.0-20.0","5c209d9b10677f0001da5e38","665500ab8938657b03fbdba8","665792a0cf3a5161175719a2","815","stimuli/10100111.jpg"," ","","practrice_feedback","1","","","","","","","","","","","","","","","","","","","","",""
"","","","","","html-button-response","24","165035","0.0-3.0-21.0","5c209d9b10677f0001da5e38","665500ab8938657b03fbdba8","665792a0cf3a5161175719a2","9246","Now that you've had some practice, you'll be tested with a couple of easy trials. If you correctly predict Sam's choice, you'll move on to complete the experiment!","0","","","","","","","","","","","","","","","","","","","","","","","",""
"","","","","","image-keyboard-response","25","168092","0.0-3.0-22.0-0.0","5c209d9b10677f0001da5e38","665500ab8938657b03fbdba8","665792a0cf3a5161175719a2","3057","stimuli/0000011.jpg","arrowleft","","comprehension_quiz","","","true","arrowleft","","","","","","","","","","","","","","","","","",""
"","","","","","image-keyboard-response","26","169156","0.0-3.0-22.0-1.0","5c209d9b10677f0001da5e38","665500ab8938657b03fbdba8","665792a0cf3a5161175719a2","1063","stimuli/00000110.jpg"," ","","comprehension_quiz","","","true"," ","","","","","","","","","","","","","","","","","",""
"","","","","","image-keyboard-response","27","171547","0.0-3.0-22.0-2.0","5c209d9b10677f0001da5e38","665500ab8938657b03fbdba8","665792a0cf3a5161175719a2","2391","stimuli/1010010.jpg","arrowdown","","comprehension_quiz","","","true","arrowdown","","","","","","","","","","","","","","","","","",""
"","","","","","image-keyboard-response","28","172476","0.0-3.0-22.0-3.0","5c209d9b10677f0001da5e38","665500ab8938657b03fbdba8","665792a0cf3a5161175719a2","928","stimuli/10100101.jpg"," ","","comprehension_quiz","","","true"," ","","","","","","","","","","","","","","","","","",""
"","","","","","html-button-response","29","176309","0.0-4.0","5c209d9b10677f0001da5e38","665500ab8938657b03fbdba8","665792a0cf3a5161175719a2","3831","The experiment will now begin.","0","","","","","","","","","","","","","","","","","","","","","","","",""
"","","","","","image-keyboard-response","30","178099","0.0-5.0","5c209d9b10677f0001da5e38","665500ab8938657b03fbdba8","665792a0cf3a5161175719a2","1788","stimuli/1001100.jpg","1","","prediction_trial","1","","true","","1","true","true","true","true","true","true","[1]","001","100","1","","","","","","",""
"","","","","","image-keyboard-response","31","179179","0.0-6.0","5c209d9b10677f0001da5e38","665500ab8938657b03fbdba8","665792a0cf3a5161175719a2","1079","stimuli/10011001.jpg"," ","","feedback_trial","1","","","","","","","","","","","","","","","","","","","","",""
"","","","","","image-keyboard-response","32","184515","0.0-7.0","5c209d9b10677f0001da5e38","665500ab8938657b03fbdba8","665792a0cf3a5161175719a2","5335","stimuli/1010011.jpg","1","","prediction_trial","1","","true","","1","false","false","false","true","false","false","[1]","010","011","1","","","","","","",""
"","","","","","image-keyboard-response","33","185325","0.0-8.0","5c209d9b10677f0001da5e38","665500ab8938657b03fbdba8","665792a0cf3a5161175719a2","808","stimuli/10100111.jpg"," ","","feedback_trial","1","","","","","","","","","","","","","","","","","","","","",""
"","","","","","image-keyboard-response","34","188931","0.0-9.0","5c209d9b10677f0001da5e38","665500ab8938657b03fbdba8","665792a0cf3a5161175719a2","3606","stimuli/2111001.jpg","2","","prediction_trial","0","","false","","2","false","true","false","false","false","false","[0,1,2]","111","001","0","","","","","","",""
"","","","","","image-keyboard-response","35","189965","0.0-10.0","5c209d9b10677f0001da5e38","665500ab8938657b03fbdba8","665792a0cf3a5161175719a2","1033","stimuli/21110010.jpg"," ","","feedback_trial","0","","","","","","","","","","","","","","","","","","","","",""
"","","","","","image-keyboard-response","36","192788","0.0-11.0","5c209d9b10677f0001da5e38","665500ab8938657b03fbdba8","665792a0cf3a5161175719a2","2823","stimuli/2111000.jpg","1","","prediction_trial","2","","false","","2","true","true","false","false","false","false","[0,2,1]","111","000","0","","","","","","",""
"","","","","","image-keyboard-response","37","193836","0.0-12.0","5c209d9b10677f0001da5e38","665500ab8938657b03fbdba8","665792a0cf3a5161175719a2","1047","stimuli/21110002.jpg"," ","","feedback_trial","0","","","","","","","","","","","","","","","","","","","","",""
"","","","","","image-keyboard-response","38","198437","0.0-13.0","5c209d9b10677f0001da5e38","665500ab8938657b03fbdba8","665792a0cf3a5161175719a2","4600","stimuli/2101100.jpg","2","","prediction_trial","0","","false","","2","true","true","false","false","false","false","[2,0]","101","100","0","","","","","","",""
"","","","","","image-keyboard-response","39","199260","0.0-14.0","5c209d9b10677f0001da5e38","665500ab8938657b03fbdba8","665792a0cf3a5161175719a2","822","stimuli/21011000.jpg"," ","","feedback_trial","2","","","","","","","","","","","","","","","","","","","","",""
"","","","","","image-keyboard-response","40","200868","0.0-15.0","5c209d9b10677f0001da5e38","665500ab8938657b03fbdba8","665792a0cf3a5161175719a2","1607","stimuli/1000101.jpg","1","","prediction_trial","1","","true","","1","true","true","true","true","true","true","[1]","000","101","1","","","","","","",""
"","","","","","image-keyboard-response","41","201461","0.0-16.0","5c209d9b10677f0001da5e38","665500ab8938657b03fbdba8","665792a0cf3a5161175719a2","591","stimuli/10001011.jpg"," ","","feedback_trial","1","","","","","","","","","","","","","","","","","","","","",""
"","","","","","image-keyboard-response","42","205516","0.0-17.0","5c209d9b10677f0001da5e38","665500ab8938657b03fbdba8","665792a0cf3a5161175719a2","4054","stimuli/2011111.jpg","1","","prediction_trial","1","","true","","2","false","false","false","false","false","false","[1,2]","011","111","1","","","","","","",""
"","","","","","image-keyboard-response","43","206140","0.0-18.0","5c209d9b10677f0001da5e38","665500ab8938657b03fbdba8","665792a0cf3a5161175719a2","622","stimuli/20111111.jpg"," ","","feedback_trial","1","","","","","","","","","","","","","","","","","","","","",""
"","","","","","image-keyboard-response","44","217277","0.0-19.0","5c209d9b10677f0001da5e38","665500ab8938657b03fbdba8","665792a0cf3a5161175719a2","11137","stimuli/0100111.jpg","0","","prediction_trial","0","","true","","0","false","false","false","true","false","false","[0]","100","111","1","","","","","","",""
"","","","","","image-keyboard-response","45","217892","0.0-20.0","5c209d9b10677f0001da5e38","665500ab8938657b03fbdba8","665792a0cf3a5161175719a2","614","stimuli/01001110.jpg"," ","","feedback_trial","0","","","","","","","","","","","","","","","","","","","","",""
"","","","","","image-keyboard-response","46","221349","0.0-21.0","5c209d9b10677f0001da5e38","665500ab8938657b03fbdba8","665792a0cf3a5161175719a2","3456","stimuli/0000101.jpg","2","","prediction_trial","0","","false","","0","false","false","true","true","false","false","[0]","000","101","0","","","","","","",""
"","","","","","image-keyboard-response","47","221884","0.0-22.0","5c209d9b10677f0001da5e38","665500ab8938657b03fbdba8","665792a0cf3a5161175719a2","535","stimuli/00001010.jpg"," ","","feedback_trial","0","","","","","","","","","","","","","","","","","","","","",""
"","","","","","image-keyboard-response","48","225356","0.0-23.0","5c209d9b10677f0001da5e38","665500ab8938657b03fbdba8","665792a0cf3a5161175719a2","3471","stimuli/2001111.jpg","2","","prediction_trial","2","","true","","2","false","false","false","true","false","false","[2]","001","111","1","","","","","","",""
"","","","","","image-keyboard-response","49","225935","0.0-24.0","5c209d9b10677f0001da5e38","665500ab8938657b03fbdba8","665792a0cf3a5161175719a2","578","stimuli/20011112.jpg"," ","","feedback_trial","2","","","","","","","","","","","","","","","","","","","","",""
"","","","","","image-keyboard-response","50","227676","0.0-25.0","5c209d9b10677f0001da5e38","665500ab8938657b03fbdba8","665792a0cf3a5161175719a2","1740","stimuli/1011011.jpg","2","","prediction_trial","2","","true","","1","false","false","false","false","false","false","[2,1]","011","011","1","","","","","","",""
"","","","","","image-keyboard-response","51","228237","0.0-26.0","5c209d9b10677f0001da5e38","665500ab8938657b03fbdba8","665792a0cf3a5161175719a2","560","stimuli/10110112.jpg"," ","","feedback_trial","2","","","","","","","","","","","","","","","","","","","","",""
"","","","","","image-keyboard-response","52","231779","0.0-27.0","5c209d9b10677f0001da5e38","665500ab8938657b03fbdba8","665792a0cf3a5161175719a2","3541","stimuli/1101110.jpg","0","","prediction_trial","1","","false","","1","false","false","true","true","false","false","[1]","101","110","0","","","","","","",""
"","","","","","image-keyboard-response","53","232595","0.0-28.0","5c209d9b10677f0001da5e38","665500ab8938657b03fbdba8","665792a0cf3a5161175719a2","816","stimuli/11011101.jpg"," ","","feedback_trial","1","","","","","","","","","","","","","","","","","","","","",""
"","","","","","image-keyboard-response","54","235756","0.0-29.0","5c209d9b10677f0001da5e38","665500ab8938657b03fbdba8","665792a0cf3a5161175719a2","3160","stimuli/1000011.jpg","1","","prediction_trial","1","","true","","1","false","false","true","true","false","false","[1]","000","011","1","","","","","","",""
"","","","","","image-keyboard-response","55","236380","0.0-30.0","5c209d9b10677f0001da5e38","665500ab8938657b03fbdba8","665792a0cf3a5161175719a2","623","stimuli/10000111.jpg"," ","","feedback_trial","1","","","","","","","","","","","","","","","","","","","","",""
"","","","","","image-keyboard-response","56","238140","0.0-31.0","5c209d9b10677f0001da5e38","665500ab8938657b03fbdba8","665792a0cf3a5161175719a2","1758","stimuli/2100110.jpg","2","","prediction_trial","2","","true","","2","true","true","true","true","true","true","[2]","100","110","1","","","","","","",""
"","","","","","image-keyboard-response","57","238748","0.0-32.0","5c209d9b10677f0001da5e38","665500ab8938657b03fbdba8","665792a0cf3a5161175719a2","607","stimuli/21001102.jpg"," ","","feedback_trial","2","","","","","","","","","","","","","","","","","","","","",""
"","","","","","image-keyboard-response","58","240380","0.0-33.0","5c209d9b10677f0001da5e38","665500ab8938657b03fbdba8","665792a0cf3a5161175719a2","1631","stimuli/2111101.jpg","2","","prediction_trial","1","","false","","2","false","false","false","false","false","false","[0,1,2]","111","101","0","","","","","","",""
"","","","","","image-keyboard-response","59","240956","0.0-34.0","5c209d9b10677f0001da5e38","665500ab8938657b03fbdba8","665792a0cf3a5161175719a2","575","stimuli/21111011.jpg"," ","","feedback_trial","0","","","","","","","","","","","","","","","","","","","","",""
"","","","","","image-keyboard-response","60","244684","0.0-35.0","5c209d9b10677f0001da5e38","665500ab8938657b03fbdba8","665792a0cf3a5161175719a2","3727","stimuli/2100011.jpg","1","","prediction_trial","2","","false","","2","false","false","true","true","false","false","[2]","100","011","0","","","","","","",""
"","","","","","image-keyboard-response","61","245380","0.0-36.0","5c209d9b10677f0001da5e38","665500ab8938657b03fbdba8","665792a0cf3a5161175719a2","695","stimuli/21000112.jpg"," ","","feedback_trial","2","","","","","","","","","","","","","","","","","","","","",""
"","","","","","image-keyboard-response","62","248107","0.0-37.0","5c209d9b10677f0001da5e38","665500ab8938657b03fbdba8","665792a0cf3a5161175719a2","2725","stimuli/2101000.jpg","0","","prediction_trial","2","","false","","2","true","true","false","false","false","false","[0,2]","101","000","0","","","","","","",""
"","","","","","image-keyboard-response","63","249109","0.0-38.0","5c209d9b10677f0001da5e38","665500ab8938657b03fbdba8","665792a0cf3a5161175719a2","1001","stimuli/21010002.jpg"," ","","feedback_trial","0","","","","","","","","","","","","","","","","","","","","",""
"","","","","","image-keyboard-response","64","253236","0.0-39.0","5c209d9b10677f0001da5e38","665500ab8938657b03fbdba8","665792a0cf3a5161175719a2","4126","stimuli/0110010.jpg","0","","prediction_trial","0","","true","","0","true","true","false","false","false","false","[1,0]","110","010","1","","","","","","",""
"","","","","","image-keyboard-response","65","253876","0.0-40.0","5c209d9b10677f0001da5e38","665500ab8938657b03fbdba8","665792a0cf3a5161175719a2","639","stimuli/01100100.jpg"," ","","feedback_trial","1","","","","","","","","","","","","","","","","","","","","",""
"","","","","","image-keyboard-response","66","257092","0.0-41.0","5c209d9b10677f0001da5e38","665500ab8938657b03fbdba8","665792a0cf3a5161175719a2","3215","stimuli/1010111.jpg","1","","prediction_trial","1","","true","","1","false","false","false","true","false","false","[1]","010","111","1","","","","","","",""
"","","","","","image-keyboard-response","67","257851","0.0-42.0","5c209d9b10677f0001da5e38","665500ab8938657b03fbdba8","665792a0cf3a5161175719a2","758","stimuli/10101111.jpg"," ","","feedback_trial","1","","","","","","","","","","","","","","","","","","","","",""
"","","","","","image-keyboard-response","68","260037","0.0-43.0","5c209d9b10677f0001da5e38","665500ab8938657b03fbdba8","665792a0cf3a5161175719a2","2185","stimuli/1000111.jpg","1","","prediction_trial","1","","true","","1","false","false","true","true","false","false","[1]","000","111","1","","","","","","",""
"","","","","","image-keyboard-response","69","260692","0.0-44.0","5c209d9b10677f0001da5e38","665500ab8938657b03fbdba8","665792a0cf3a5161175719a2","654","stimuli/10001111.jpg"," ","","feedback_trial","1","","","","","","","","","","","","","","","","","","","","",""
"","","","","","image-keyboard-response","70","263588","0.0-45.0","5c209d9b10677f0001da5e38","665500ab8938657b03fbdba8","665792a0cf3a5161175719a2","2895","stimuli/0110000.jpg","0","","prediction_trial","0","","true","","0","true","true","false","false","false","false","[1,0]","110","000","1","","","","","","",""
"","","","","","image-keyboard-response","71","264251","0.0-46.0","5c209d9b10677f0001da5e38","665500ab8938657b03fbdba8","665792a0cf3a5161175719a2","661","stimuli/01100000.jpg"," ","","feedback_trial","1","","","","","","","","","","","","","","","","","","","","",""
"","","","","","image-keyboard-response","72","266299","0.0-47.0","5c209d9b10677f0001da5e38","665500ab8938657b03fbdba8","665792a0cf3a5161175719a2","2047","stimuli/0000110.jpg","1","","prediction_trial","0","","false","","0","false","false","true","true","false","false","[0]","000","110","0","","","","","","",""
"","","","","","image-keyboard-response","73","266932","0.0-48.0","5c209d9b10677f0001da5e38","665500ab8938657b03fbdba8","665792a0cf3a5161175719a2","633","stimuli/00001100.jpg"," ","","feedback_trial","0","","","","","","","","","","","","","","","","","","","","",""
"","","","","","image-keyboard-response","74","268578","0.0-49.0","5c209d9b10677f0001da5e38","665500ab8938657b03fbdba8","665792a0cf3a5161175719a2","1645","stimuli/0101111.jpg","2","","prediction_trial","2","","true","","0","false","false","false","false","false","false","[0,2]","101","111","1","","","","","","",""
"","","","","","image-keyboard-response","75","269162","0.0-50.0","5c209d9b10677f0001da5e38","665500ab8938657b03fbdba8","665792a0cf3a5161175719a2","583","stimuli/01011112.jpg"," ","","feedback_trial","0","","","","","","","","","","","","","","","","","","","","",""
"","","","","","image-keyboard-response","76","272499","0.0-51.0","5c209d9b10677f0001da5e38","665500ab8938657b03fbdba8","665792a0cf3a5161175719a2","3337","stimuli/1100011.jpg","1","","prediction_trial","1","","true","","1","false","false","true","true","false","false","[1]","100","011","1","","","","","","",""
"","","","","","image-keyboard-response","77","273100","0.0-52.0","5c209d9b10677f0001da5e38","665500ab8938657b03fbdba8","665792a0cf3a5161175719a2","600","stimuli/11000111.jpg"," ","","feedback_trial","1","","","","","","","","","","","","","","","","","","","","",""
"","","","","","image-keyboard-response","78","274876","0.0-53.0","5c209d9b10677f0001da5e38","665500ab8938657b03fbdba8","665792a0cf3a5161175719a2","1774","stimuli/0001011.jpg","0","","prediction_trial","0","","true","","0","true","true","true","true","true","true","[0]","001","011","1","","","","","","",""
"","","","","","image-keyboard-response","79","275492","0.0-54.0","5c209d9b10677f0001da5e38","665500ab8938657b03fbdba8","665792a0cf3a5161175719a2","615","stimuli/00010110.jpg"," ","","feedback_trial","0","","","","","","","","","","","","","","","","","","","","",""
"","","","","","image-keyboard-response","80","278972","0.0-55.0","5c209d9b10677f0001da5e38","665500ab8938657b03fbdba8","665792a0cf3a5161175719a2","3479","stimuli/2001010.jpg","2","","prediction_trial","2","","true","","2","true","true","false","true","false","true","[2]","001","010","1","","","","","","",""
"","","","","","image-keyboard-response","81","279484","0.0-56.0","5c209d9b10677f0001da5e38","665500ab8938657b03fbdba8","665792a0cf3a5161175719a2","511","stimuli/20010102.jpg"," ","","feedback_trial","2","","","","","","","","","","","","","","","","","","","","",""
"","","","","","image-keyboard-response","82","281284","0.0-57.0","5c209d9b10677f0001da5e38","665500ab8938657b03fbdba8","665792a0cf3a5161175719a2","1799","stimuli/1101000.jpg","1","","prediction_trial","1","","true","","1","true","true","true","true","true","true","[1]","101","000","1","","","","","","",""
"","","","","","image-keyboard-response","83","281804","0.0-58.0","5c209d9b10677f0001da5e38","665500ab8938657b03fbdba8","665792a0cf3a5161175719a2","519","stimuli/11010001.jpg"," ","","feedback_trial","1","","","","","","","","","","","","","","","","","","","","",""
"","","","","","image-keyboard-response","84","284820","0.0-59.0","5c209d9b10677f0001da5e38","665500ab8938657b03fbdba8","665792a0cf3a5161175719a2","3015","stimuli/1011101.jpg","1","","prediction_trial","1","","true","","1","true","true","false","false","false","false","[1,2]","011","101","1","","","","","","",""
"","","","","","image-keyboard-response","85","285380","0.0-60.0","5c209d9b10677f0001da5e38","665500ab8938657b03fbdba8","665792a0cf3a5161175719a2","559","stimuli/10111011.jpg"," ","","feedback_trial","1","","","","","","","","","","","","","","","","","","","","",""
"","","","","","image-keyboard-response","86","287340","0.0-61.0","5c209d9b10677f0001da5e38","665500ab8938657b03fbdba8","665792a0cf3a5161175719a2","1959","stimuli/1110000.jpg","1","","prediction_trial","1","","true","","1","true","true","false","false","false","false","[1,0]","110","000","1","","","","","","",""
"","","","","","image-keyboard-response","87","287900","0.0-62.0","5c209d9b10677f0001da5e38","665500ab8938657b03fbdba8","665792a0cf3a5161175719a2","559","stimuli/11100001.jpg"," ","","feedback_trial","1","","","","","","","","","","","","","","","","","","","","",""
"","","","","","image-keyboard-response","88","290163","0.0-63.0","5c209d9b10677f0001da5e38","665500ab8938657b03fbdba8","665792a0cf3a5161175719a2","2262","stimuli/1101010.jpg","2","","prediction_trial","1","","false","","1","false","true","true","true","false","true","[1]","101","010","0","","","","","","",""
"","","","","","image-keyboard-response","89","291628","0.0-64.0","5c209d9b10677f0001da5e38","665500ab8938657b03fbdba8","665792a0cf3a5161175719a2","1464","stimuli/11010101.jpg"," ","","feedback_trial","1","","","","","","","","","","","","","","","","","","","","",""
"","","","","","image-keyboard-response","90","293260","0.0-65.0","5c209d9b10677f0001da5e38","665500ab8938657b03fbdba8","665792a0cf3a5161175719a2","1632","stimuli/0000001.jpg","0","","prediction_trial","0","","true","","0","true","true","true","true","true","true","[0]","000","001","1","","","","","","",""
"","","","","","image-keyboard-response","91","293740","0.0-66.0","5c209d9b10677f0001da5e38","665500ab8938657b03fbdba8","665792a0cf3a5161175719a2","479","stimuli/00000010.jpg"," ","","feedback_trial","0","","","","","","","","","","","","","","","","","","","","",""
"","","","","","image-keyboard-response","92","295404","0.0-67.0","5c209d9b10677f0001da5e38","665500ab8938657b03fbdba8","665792a0cf3a5161175719a2","1663","stimuli/2010110.jpg","2","","prediction_trial","2","","true","","2","true","true","true","true","true","true","[2]","010","110","1","","","","","","",""
"","","","","","image-keyboard-response","93","295964","0.0-68.0","5c209d9b10677f0001da5e38","665500ab8938657b03fbdba8","665792a0cf3a5161175719a2","559","stimuli/20101102.jpg"," ","","feedback_trial","2","","","","","","","","","","","","","","","","","","","","",""
"","","","","","image-keyboard-response","94","297613","0.0-69.0","5c209d9b10677f0001da5e38","665500ab8938657b03fbdba8","665792a0cf3a5161175719a2","1647","stimuli/1010010.jpg","1","","prediction_trial","1","","true","","1","false","true","false","true","false","true","[1]","010","010","1","","","","","","",""
"","","","","","image-keyboard-response","95","298156","0.0-70.0","5c209d9b10677f0001da5e38","665500ab8938657b03fbdba8","665792a0cf3a5161175719a2","543","stimuli/10100101.jpg"," ","","feedback_trial","1","","","","","","","","","","","","","","","","","","","","",""
"","","","","","image-keyboard-response","96","299276","0.0-71.0","5c209d9b10677f0001da5e38","665500ab8938657b03fbdba8","665792a0cf3a5161175719a2","1119","stimuli/2100010.jpg","2","","prediction_trial","2","","true","","2","true","true","true","true","true","true","[2]","100","010","1","","","","","","",""
"","","","","","image-keyboard-response","97","299819","0.0-72.0","5c209d9b10677f0001da5e38","665500ab8938657b03fbdba8","665792a0cf3a5161175719a2","541","stimuli/21000102.jpg"," ","","feedback_trial","2","","","","","","","","","","","","","","","","","","","","",""
"","","","","","image-keyboard-response","98","300797","0.0-73.0","5c209d9b10677f0001da5e38","665500ab8938657b03fbdba8","665792a0cf3a5161175719a2","977","stimuli/2100000.jpg","2","","prediction_trial","2","","true","","2","true","true","true","true","true","true","[2]","100","000","1","","","","","","",""
"","","","","","image-keyboard-response","99","301388","0.0-74.0","5c209d9b10677f0001da5e38","665500ab8938657b03fbdba8","665792a0cf3a5161175719a2","590","stimuli/21000002.jpg"," ","","feedback_trial","2","","","","","","","","","","","","","","","","","","","","",""
"","","","","","image-keyboard-response","100","302860","0.0-75.0","5c209d9b10677f0001da5e38","665500ab8938657b03fbdba8","665792a0cf3a5161175719a2","1472","stimuli/2000001.jpg","2","","prediction_trial","2","","true","","2","false","true","true","true","false","true","[2]","000","001","1","","","","","","",""
"","","","","","image-keyboard-response","101","303476","0.0-76.0","5c209d9b10677f0001da5e38","665500ab8938657b03fbdba8","665792a0cf3a5161175719a2","615","stimuli/20000012.jpg"," ","","feedback_trial","2","","","","","","","","","","","","","","","","","","","","",""
"","","","","","image-keyboard-response","102","305533","0.0-77.0","5c209d9b10677f0001da5e38","665500ab8938657b03fbdba8","665792a0cf3a5161175719a2","2055","stimuli/2000101.jpg","2","","prediction_trial","2","","true","","2","false","false","true","true","false","false","[2]","000","101","1","","","","","","",""
"","","","","","image-keyboard-response","103","306133","0.0-78.0","5c209d9b10677f0001da5e38","665500ab8938657b03fbdba8","665792a0cf3a5161175719a2","599","stimuli/20001012.jpg"," ","","feedback_trial","2","","","","","","","","","","","","","","","","","","","","",""
"","","","","","image-keyboard-response","104","307452","0.0-79.0","5c209d9b10677f0001da5e38","665500ab8938657b03fbdba8","665792a0cf3a5161175719a2","1318","stimuli/0011010.jpg","0","","prediction_trial","0","","true","","0","true","true","true","true","true","true","[0]","011","010","1","","","","","","",""
"","","","","","image-keyboard-response","105","307989","0.0-80.0","5c209d9b10677f0001da5e38","665500ab8938657b03fbdba8","665792a0cf3a5161175719a2","536","stimuli/00110100.jpg"," ","","feedback_trial","0","","","","","","","","","","","","","","","","","","","","",""
"","","","","","image-keyboard-response","106","310571","0.0-81.0","5c209d9b10677f0001da5e38","665500ab8938657b03fbdba8","665792a0cf3a5161175719a2","2582","stimuli/0001100.jpg","0","","prediction_trial","0","","true","","0","false","true","true","true","false","true","[0]","001","100","1","","","","","","",""
"","","","","","image-keyboard-response","107","311141","0.0-82.0","5c209d9b10677f0001da5e38","665500ab8938657b03fbdba8","665792a0cf3a5161175719a2","569","stimuli/00011000.jpg"," ","","feedback_trial","0","","","","","","","","","","","","","","","","","","","","",""
"","","","","","image-keyboard-response","108","312420","0.0-83.0","5c209d9b10677f0001da5e38","665500ab8938657b03fbdba8","665792a0cf3a5161175719a2","1278","stimuli/2010100.jpg","2","","prediction_trial","2","","true","","2","true","true","true","true","true","true","[2]","010","100","1","","","","","","",""
"","","","","","image-keyboard-response","109","312933","0.0-84.0","5c209d9b10677f0001da5e38","665500ab8938657b03fbdba8","665792a0cf3a5161175719a2","511","stimuli/20101002.jpg"," ","","feedback_trial","2","","","","","","","","","","","","","","","","","","","","",""
"","","","","","image-keyboard-response","110","315171","0.0-85.0","5c209d9b10677f0001da5e38","665500ab8938657b03fbdba8","665792a0cf3a5161175719a2","2238","stimuli/0111101.jpg","2","","prediction_trial","1","","false","","0","false","false","false","false","false","false","[1,0,2]","111","101","0","","","","","","",""
"","","","","","image-keyboard-response","111","315805","0.0-86.0","5c209d9b10677f0001da5e38","665500ab8938657b03fbdba8","665792a0cf3a5161175719a2","633","stimuli/01111011.jpg"," ","","feedback_trial","1","","","","","","","","","","","","","","","","","","","","",""
"","","","","","image-keyboard-response","112","317013","0.0-87.0","5c209d9b10677f0001da5e38","665500ab8938657b03fbdba8","665792a0cf3a5161175719a2","1207","stimuli/2110000.jpg","2","","prediction_trial","2","","true","","2","true","true","true","true","true","true","[2]","110","000","1","","","","","","",""
"","","","","","image-keyboard-response","113","317628","0.0-88.0","5c209d9b10677f0001da5e38","665500ab8938657b03fbdba8","665792a0cf3a5161175719a2","615","stimuli/21100002.jpg"," ","","feedback_trial","2","","","","","","","","","","","","","","","","","","","","",""
"","","","","","image-keyboard-response","114","320085","0.0-89.0","5c209d9b10677f0001da5e38","665500ab8938657b03fbdba8","665792a0cf3a5161175719a2","2455","stimuli/1111000.jpg","2","","prediction_trial","2","","true","","1","true","true","false","false","false","false","[2,0,1]","111","000","1","","","","","","",""
"","","","","","image-keyboard-response","115","320668","0.0-90.0","5c209d9b10677f0001da5e38","665500ab8938657b03fbdba8","665792a0cf3a5161175719a2","582","stimuli/11110002.jpg"," ","","feedback_trial","2","","","","","","","","","","","","","","","","","","","","",""
"","","","","","image-keyboard-response","116","322677","0.0-91.0","5c209d9b10677f0001da5e38","665500ab8938657b03fbdba8","665792a0cf3a5161175719a2","2007","stimuli/0011100.jpg","0","","prediction_trial","0","","true","","0","false","true","true","true","false","true","[0]","011","100","1","","","","","","",""
"","","","","","image-keyboard-response","117","323205","0.0-92.0","5c209d9b10677f0001da5e38","665500ab8938657b03fbdba8","665792a0cf3a5161175719a2","527","stimuli/00111000.jpg"," ","","feedback_trial","0","","","","","","","","","","","","","","","","","","","","",""
"","","","","","image-keyboard-response","118","325484","0.0-93.0","5c209d9b10677f0001da5e38","665500ab8938657b03fbdba8","665792a0cf3a5161175719a2","2278","stimuli/2011010.jpg","2","","prediction_trial","2","","true","","2","true","true","false","false","false","false","[2,1]","011","010","1","","","","","","",""
"","","","","","image-keyboard-response","119","326045","0.0-94.0","5c209d9b10677f0001da5e38","665500ab8938657b03fbdba8","665792a0cf3a5161175719a2","560","stimuli/20110102.jpg"," ","","feedback_trial","2","","","","","","","","","","","","","","","","","","","","",""
"","","","","","image-keyboard-response","120","328290","0.0-95.0","5c209d9b10677f0001da5e38","665500ab8938657b03fbdba8","665792a0cf3a5161175719a2","2245","stimuli/2110111.jpg","1","","prediction_trial","2","","false","","2","false","false","true","true","false","false","[2]","110","111","0","","","","","","",""
"","","","","","image-keyboard-response","121","329156","0.0-96.0","5c209d9b10677f0001da5e38","665500ab8938657b03fbdba8","665792a0cf3a5161175719a2","865","stimuli/21101112.jpg"," ","","feedback_trial","2","","","","","","","","","","","","","","","","","","","","",""
"","","","","","image-keyboard-response","122","331533","0.0-97.0","5c209d9b10677f0001da5e38","665500ab8938657b03fbdba8","665792a0cf3a5161175719a2","2376","stimuli/2001001.jpg","2","","prediction_trial","2","","true","","2","false","true","false","true","false","true","[2]","001","001","1","","","","","","",""
"","","","","","image-keyboard-response","123","332285","0.0-98.0","5c209d9b10677f0001da5e38","665500ab8938657b03fbdba8","665792a0cf3a5161175719a2","751","stimuli/20010012.jpg"," ","","feedback_trial","2","","","","","","","","","","","","","","","","","","","","",""
"","","","","","image-keyboard-response","124","335869","0.0-99.0","5c209d9b10677f0001da5e38","665500ab8938657b03fbdba8","665792a0cf3a5161175719a2","3582","stimuli/2011011.jpg","2","","prediction_trial","1","","false","","2","false","false","false","false","false","false","[1,2]","011","011","0","","","","","","",""
"","","","","","image-keyboard-response","125","336780","0.0-100.0","5c209d9b10677f0001da5e38","665500ab8938657b03fbdba8","665792a0cf3a5161175719a2","911","stimuli/20110111.jpg"," ","","feedback_trial","1","","","","","","","","","","","","","","","","","","","","",""
"","","","","","image-keyboard-response","126","340100","0.0-101.0","5c209d9b10677f0001da5e38","665500ab8938657b03fbdba8","665792a0cf3a5161175719a2","3319","stimuli/0110110.jpg","1","","prediction_trial","1","","true","","0","false","false","false","false","false","false","[0,1]","110","110","1","","","","","","",""
"","","","","","image-keyboard-response","127","340700","0.0-102.0","5c209d9b10677f0001da5e38","665500ab8938657b03fbdba8","665792a0cf3a5161175719a2","599","stimuli/01101101.jpg"," ","","feedback_trial","0","","","","","","","","","","","","","","","","","","","","",""
"","","","","","image-keyboard-response","128","341661","0.0-103.0","5c209d9b10677f0001da5e38","665500ab8938657b03fbdba8","665792a0cf3a5161175719a2","959","stimuli/1101001.jpg","1","","prediction_trial","1","","true","","1","true","true","true","true","true","true","[1]","101","001","1","","","","","","",""
"","","","","","image-keyboard-response","129","342333","0.0-104.0","5c209d9b10677f0001da5e38","665500ab8938657b03fbdba8","665792a0cf3a5161175719a2","671","stimuli/11010011.jpg"," ","","feedback_trial","1","","","","","","","","","","","","","","","","","","","","",""
"","","","","","image-keyboard-response","130","344900","0.0-105.0","5c209d9b10677f0001da5e38","665500ab8938657b03fbdba8","665792a0cf3a5161175719a2","2567","stimuli/1101011.jpg","1","","prediction_trial","1","","true","","1","false","false","true","true","false","false","[1]","101","011","1","","","","","","",""
"","","","","","image-keyboard-response","131","345468","0.0-106.0","5c209d9b10677f0001da5e38","665500ab8938657b03fbdba8","665792a0cf3a5161175719a2","567","stimuli/11010111.jpg"," ","","feedback_trial","1","","","","","","","","","","","","","","","","","","","","",""
"","","","","","image-keyboard-response","132","347309","0.0-107.0","5c209d9b10677f0001da5e38","665500ab8938657b03fbdba8","665792a0cf3a5161175719a2","1839","stimuli/0001111.jpg","1","","prediction_trial","0","","false","","0","false","false","true","true","false","false","[0]","001","111","0","","","","","","",""
"","","","","","image-keyboard-response","133","348034","0.0-108.0","5c209d9b10677f0001da5e38","665500ab8938657b03fbdba8","665792a0cf3a5161175719a2","724","stimuli/00011110.jpg"," ","","feedback_trial","0","","","","","","","","","","","","","","","","","","","","",""
"","","","","","image-keyboard-response","134","350333","0.0-109.0","5c209d9b10677f0001da5e38","665500ab8938657b03fbdba8","665792a0cf3a5161175719a2","2298","stimuli/0011110.jpg","1","","prediction_trial","0","","false","","0","false","false","true","true","false","false","[0]","011","110","0","","","","","","",""
"","","","","","image-keyboard-response","135","351036","0.0-110.0","5c209d9b10677f0001da5e38","665500ab8938657b03fbdba8","665792a0cf3a5161175719a2","702","stimuli/00111100.jpg"," ","","feedback_trial","0","","","","","","","","","","","","","","","","","","","","",""
"","","","","","image-keyboard-response","136","353164","0.0-111.0","5c209d9b10677f0001da5e38","665500ab8938657b03fbdba8","665792a0cf3a5161175719a2","2126","stimuli/0100010.jpg","0","","prediction_trial","0","","true","","0","true","true","false","true","false","true","[0]","100","010","1","","","","","","",""
"","","","","","image-keyboard-response","137","353772","0.0-112.0","5c209d9b10677f0001da5e38","665500ab8938657b03fbdba8","665792a0cf3a5161175719a2","607","stimuli/01000100.jpg"," ","","feedback_trial","0","","","","","","","","","","","","","","","","","","","","",""
"","","","","","image-keyboard-response","138","356524","0.0-113.0","5c209d9b10677f0001da5e38","665500ab8938657b03fbdba8","665792a0cf3a5161175719a2","2752","stimuli/2101101.jpg","2","","prediction_trial","0","","false","","2","false","false","false","false","false","false","[2,0]","101","101","0","","","","","","",""
"","","","","","image-keyboard-response","139","358093","0.0-114.0","5c209d9b10677f0001da5e38","665500ab8938657b03fbdba8","665792a0cf3a5161175719a2","1569","stimuli/21011010.jpg"," ","","feedback_trial","2","","","","","","","","","","","","","","","","","","","","",""
"","","","","","image-keyboard-response","140","359643","0.0-115.0","5c209d9b10677f0001da5e38","665500ab8938657b03fbdba8","665792a0cf3a5161175719a2","1550","stimuli/2001000.jpg","2","","prediction_trial","2","","true","","2","true","true","false","true","false","true","[2]","001","000","1","","","","","","",""
"","","","","","image-keyboard-response","141","360556","0.0-116.0","5c209d9b10677f0001da5e38","665500ab8938657b03fbdba8","665792a0cf3a5161175719a2","913","stimuli/20010002.jpg"," ","","feedback_trial","2","","","","","","","","","","","","","","","","","","","","",""
"","","","","","image-keyboard-response","142","362981","0.0-117.0","5c209d9b10677f0001da5e38","665500ab8938657b03fbdba8","665792a0cf3a5161175719a2","2424","stimuli/1011110.jpg","0","","prediction_trial","1","","false","","1","false","false","false","false","false","false","[1,2]","011","110","0","","","","","","",""
"","","","","","image-keyboard-response","143","363748","0.0-118.0","5c209d9b10677f0001da5e38","665500ab8938657b03fbdba8","665792a0cf3a5161175719a2","766","stimuli/10111101.jpg"," ","","feedback_trial","1","","","","","","","","","","","","","","","","","","","","",""
"","","","","","image-keyboard-response","144","368035","0.0-119.0","5c209d9b10677f0001da5e38","665500ab8938657b03fbdba8","665792a0cf3a5161175719a2","4286","stimuli/2100101.jpg","2","","prediction_trial","2","","true","","2","false","false","true","true","false","false","[2]","100","101","1","","","","","","",""
"","","","","","image-keyboard-response","145","368620","0.0-120.0","5c209d9b10677f0001da5e38","665500ab8938657b03fbdba8","665792a0cf3a5161175719a2","584","stimuli/21001012.jpg"," ","","feedback_trial","2","","","","","","","","","","","","","","","","","","","","",""
"","","","","","image-keyboard-response","146","371547","0.0-121.0","5c209d9b10677f0001da5e38","665500ab8938657b03fbdba8","665792a0cf3a5161175719a2","2926","stimuli/0111010.jpg","0","","prediction_trial","0","","true","","0","true","true","false","false","false","false","[0,1,2]","111","010","1","","","","","","",""
"","","","","","image-keyboard-response","147","372172","0.0-122.0","5c209d9b10677f0001da5e38","665500ab8938657b03fbdba8","665792a0cf3a5161175719a2","624","stimuli/01110100.jpg"," ","","feedback_trial","0","","","","","","","","","","","","","","","","","","","","",""
"","","","","","image-keyboard-response","148","373916","0.0-123.0","5c209d9b10677f0001da5e38","665500ab8938657b03fbdba8","665792a0cf3a5161175719a2","1744","stimuli/1110101.jpg","1","","prediction_trial","0","","false","","1","true","true","false","false","false","false","[1,0]","110","101","0","","","","","","",""
"","","","","","image-keyboard-response","149","374532","0.0-124.0","5c209d9b10677f0001da5e38","665500ab8938657b03fbdba8","665792a0cf3a5161175719a2","615","stimuli/11101010.jpg"," ","","feedback_trial","1","","","","","","","","","","","","","","","","","","","","",""
"","","","","","image-keyboard-response","150","376405","0.0-125.0","5c209d9b10677f0001da5e38","665500ab8938657b03fbdba8","665792a0cf3a5161175719a2","1871","stimuli/1100111.jpg","0","","prediction_trial","1","","false","","1","false","false","true","true","false","false","[1]","100","111","0","","","","","","",""
"","","","","","image-keyboard-response","151","378332","0.0-126.0","5c209d9b10677f0001da5e38","665500ab8938657b03fbdba8","665792a0cf3a5161175719a2","1926","stimuli/11001111.jpg"," ","","feedback_trial","1","","","","","","","","","","","","","","","","","","","","",""
"","","","","","image-keyboard-response","152","379797","0.0-127.0","5c209d9b10677f0001da5e38","665500ab8938657b03fbdba8","665792a0cf3a5161175719a2","1464","stimuli/2110010.jpg","2","","prediction_trial","2","","true","","2","true","true","true","true","true","true","[2]","110","010","1","","","","","","",""
"","","","","","image-keyboard-response","153","380373","0.0-128.0","5c209d9b10677f0001da5e38","665500ab8938657b03fbdba8","665792a0cf3a5161175719a2","574","stimuli/21100102.jpg"," ","","feedback_trial","2","","","","","","","","","","","","","","","","","","","","",""
"","","","","","image-keyboard-response","154","381765","0.0-129.0","5c209d9b10677f0001da5e38","665500ab8938657b03fbdba8","665792a0cf3a5161175719a2","1391","stimuli/2010010.jpg","2","","prediction_trial","2","","true","","2","true","true","true","true","true","true","[2]","010","010","1","","","","","","",""
"","","","","","image-keyboard-response","155","382317","0.0-130.0","5c209d9b10677f0001da5e38","665500ab8938657b03fbdba8","665792a0cf3a5161175719a2","551","stimuli/20100102.jpg"," ","","feedback_trial","2","","","","","","","","","","","","","","","","","","","","",""
"","","","","","image-keyboard-response","156","383740","0.0-131.0","5c209d9b10677f0001da5e38","665500ab8938657b03fbdba8","665792a0cf3a5161175719a2","1422","stimuli/0010001.jpg","0","","prediction_trial","0","","true","","0","true","true","true","true","true","true","[0]","010","001","1","","","","","","",""
"","","","","","image-keyboard-response","157","384250","0.0-132.0","5c209d9b10677f0001da5e38","665500ab8938657b03fbdba8","665792a0cf3a5161175719a2","509","stimuli/00100010.jpg"," ","","feedback_trial","0","","","","","","","","","","","","","","","","","","","","",""
"","","","","","image-keyboard-response","158","386428","0.0-133.0","5c209d9b10677f0001da5e38","665500ab8938657b03fbdba8","665792a0cf3a5161175719a2","2177","stimuli/0011111.jpg","1","","prediction_trial","0","","false","","0","false","false","true","true","false","false","[0]","011","111","0","","","","","","",""
"","","","","","image-keyboard-response","159","387260","0.0-134.0","5c209d9b10677f0001da5e38","665500ab8938657b03fbdba8","665792a0cf3a5161175719a2","831","stimuli/00111110.jpg"," ","","feedback_trial","0","","","","","","","","","","","","","","","","","","","","",""
"","","","","","image-keyboard-response","160","391332","0.0-135.0","5c209d9b10677f0001da5e38","665500ab8938657b03fbdba8","665792a0cf3a5161175719a2","4071","stimuli/1001010.jpg","1","","prediction_trial","1","","true","","1","false","true","true","true","false","true","[1]","001","010","1","","","","","","",""
"","","","","","image-keyboard-response","161","391940","0.0-136.0","5c209d9b10677f0001da5e38","665500ab8938657b03fbdba8","665792a0cf3a5161175719a2","607","stimuli/10010101.jpg"," ","","feedback_trial","1","","","","","","","","","","","","","","","","","","","","",""
"","","","","","image-keyboard-response","162","394125","0.0-137.0","5c209d9b10677f0001da5e38","665500ab8938657b03fbdba8","665792a0cf3a5161175719a2","2183","stimuli/1011100.jpg","1","","prediction_trial","2","","false","","1","true","true","false","false","false","false","[1,2]","011","100","0","","","","","","",""
"","","","","","image-keyboard-response","163","394758","0.0-138.0","5c209d9b10677f0001da5e38","665500ab8938657b03fbdba8","665792a0cf3a5161175719a2","634","stimuli/10111002.jpg"," ","","feedback_trial","1","","","","","","","","","","","","","","","","","","","","",""
"","","","","","image-keyboard-response","164","395756","0.0-139.0","5c209d9b10677f0001da5e38","665500ab8938657b03fbdba8","665792a0cf3a5161175719a2","997","stimuli/1100000.jpg","1","","prediction_trial","1","","true","","1","true","true","true","true","true","true","[1]","100","000","1","","","","","","",""
"","","","","","image-keyboard-response","165","396211","0.0-140.0","5c209d9b10677f0001da5e38","665500ab8938657b03fbdba8","665792a0cf3a5161175719a2","454","stimuli/11000001.jpg"," ","","feedback_trial","1","","","","","","","","","","","","","","","","","","","","",""
"","","","","","image-keyboard-response","166","397228","0.0-141.0","5c209d9b10677f0001da5e38","665500ab8938657b03fbdba8","665792a0cf3a5161175719a2","1016","stimuli/0000011.jpg","0","","prediction_trial","0","","true","","0","true","true","true","true","true","true","[0]","000","011","1","","","","","","",""
"","","","","","image-keyboard-response","167","397763","0.0-142.0","5c209d9b10677f0001da5e38","665500ab8938657b03fbdba8","665792a0cf3a5161175719a2","533","stimuli/00000110.jpg"," ","","feedback_trial","0","","","","","","","","","","","","","","","","","","","","",""
"","","","","","image-keyboard-response","168","399012","0.0-143.0","5c209d9b10677f0001da5e38","665500ab8938657b03fbdba8","665792a0cf3a5161175719a2","1249","stimuli/0101100.jpg","0","","prediction_trial","0","","true","","0","false","true","false","false","false","false","[2,0]","101","100","1","","","","","","",""
"","","","","","image-keyboard-response","169","399653","0.0-144.0","5c209d9b10677f0001da5e38","665500ab8938657b03fbdba8","665792a0cf3a5161175719a2","639","stimuli/01011000.jpg"," ","","feedback_trial","2","","","","","","","","","","","","","","","","","","","","",""
"","","","","","image-keyboard-response","170","401637","0.0-145.0","5c209d9b10677f0001da5e38","665500ab8938657b03fbdba8","665792a0cf3a5161175719a2","1983","stimuli/1001011.jpg","1","","prediction_trial","1","","true","","1","false","false","true","true","false","false","[1]","001","011","1","","","","","","",""
"","","","","","image-keyboard-response","171","402171","0.0-146.0","5c209d9b10677f0001da5e38","665500ab8938657b03fbdba8","665792a0cf3a5161175719a2","533","stimuli/10010111.jpg"," ","","feedback_trial","1","","","","","","","","","","","","","","","","","","","","",""
"","","","","","image-keyboard-response","172","404835","0.0-147.0","5c209d9b10677f0001da5e38","665500ab8938657b03fbdba8","665792a0cf3a5161175719a2","2664","stimuli/1110011.jpg","2","","prediction_trial","0","","false","","1","false","false","false","false","false","false","[0,1]","110","011","0","","","","","","",""
"","","","","","image-keyboard-response","173","405349","0.0-148.0","5c209d9b10677f0001da5e38","665500ab8938657b03fbdba8","665792a0cf3a5161175719a2","512","stimuli/11100110.jpg"," ","","feedback_trial","0","","","","","","","","","","","","","","","","","","","","",""
"","","","","","image-keyboard-response","174","409396","0.0-149.0","5c209d9b10677f0001da5e38","665500ab8938657b03fbdba8","665792a0cf3a5161175719a2","4047","stimuli/0011101.jpg","2","","prediction_trial","0","","false","","0","false","false","true","true","false","false","[0]","011","101","0","","","","","","",""
"","","","","","image-keyboard-response","175","410325","0.0-150.0","5c209d9b10677f0001da5e38","665500ab8938657b03fbdba8","665792a0cf3a5161175719a2","927","stimuli/00111010.jpg"," ","","feedback_trial","0","","","","","","","","","","","","","","","","","","","","",""
"","","","","","image-keyboard-response","176","412700","0.0-151.0","5c209d9b10677f0001da5e38","665500ab8938657b03fbdba8","665792a0cf3a5161175719a2","2374","stimuli/1111010.jpg","1","","prediction_trial","1","","true","","1","false","true","false","false","false","false","[2,1,0]","111","010","1","","","","","","",""
"","","","","","image-keyboard-response","177","413340","0.0-152.0","5c209d9b10677f0001da5e38","665500ab8938657b03fbdba8","665792a0cf3a5161175719a2","639","stimuli/11110101.jpg"," ","","feedback_trial","2","","","","","","","","","","","","","","","","","","","","",""
"","","","","","image-keyboard-response","178","415372","0.0-153.0","5c209d9b10677f0001da5e38","665500ab8938657b03fbdba8","665792a0cf3a5161175719a2","2031","stimuli/1001111.jpg","1","","prediction_trial","1","","true","","1","false","false","true","true","false","false","[1]","001","111","1","","","","","","",""
"","","","","","image-keyboard-response","179","416061","0.0-154.0","5c209d9b10677f0001da5e38","665500ab8938657b03fbdba8","665792a0cf3a5161175719a2","688","stimuli/10011111.jpg"," ","","feedback_trial","1","","","","","","","","","","","","","","","","","","","","",""
"","","","","","image-keyboard-response","180","417595","0.0-155.0","5c209d9b10677f0001da5e38","665500ab8938657b03fbdba8","665792a0cf3a5161175719a2","1533","stimuli/0110001.jpg","0","","prediction_trial","0","","true","","0","true","true","false","false","false","false","[1,0]","110","001","1","","","","","","",""
"","","","","","image-keyboard-response","181","418660","0.0-156.0","5c209d9b10677f0001da5e38","665500ab8938657b03fbdba8","665792a0cf3a5161175719a2","1065","stimuli/01100010.jpg"," ","","feedback_trial","1","","","","","","","","","","","","","","","","","","","","",""
"","","","","","image-keyboard-response","182","420972","0.0-157.0","5c209d9b10677f0001da5e38","665500ab8938657b03fbdba8","665792a0cf3a5161175719a2","2310","stimuli/2100111.jpg","0","","prediction_trial","2","","false","","2","false","false","true","true","false","false","[2]","100","111","0","","","","","","",""
"","","","","","image-keyboard-response","183","422370","0.0-158.0","5c209d9b10677f0001da5e38","665500ab8938657b03fbdba8","665792a0cf3a5161175719a2","1398","stimuli/21001112.jpg"," ","","feedback_trial","2","","","","","","","","","","","","","","","","","","","","",""
"","","","","","image-keyboard-response","184","424436","0.0-159.0","5c209d9b10677f0001da5e38","665500ab8938657b03fbdba8","665792a0cf3a5161175719a2","2065","stimuli/0111100.jpg","0","","prediction_trial","1","","false","","0","false","true","false","false","false","false","[2,1,0]","111","100","0","","","","","","",""
"","","","","","image-keyboard-response","185","425604","0.0-160.0","5c209d9b10677f0001da5e38","665500ab8938657b03fbdba8","665792a0cf3a5161175719a2","1166","stimuli/01111001.jpg"," ","","feedback_trial","2","","","","","","","","","","","","","","","","","","","","",""
"","","","","","image-keyboard-response","186","428346","0.0-161.0","5c209d9b10677f0001da5e38","665500ab8938657b03fbdba8","665792a0cf3a5161175719a2","2741","stimuli/1101111.jpg","2","","prediction_trial","1","","false","","1","false","false","true","true","false","false","[1]","101","111","0","","","","","","",""
"","","","","","image-keyboard-response","187","429372","0.0-162.0","5c209d9b10677f0001da5e38","665500ab8938657b03fbdba8","665792a0cf3a5161175719a2","1025","stimuli/11011111.jpg"," ","","feedback_trial","1","","","","","","","","","","","","","","","","","","","","",""
"","","","","","image-keyboard-response","188","432276","0.0-163.0","5c209d9b10677f0001da5e38","665500ab8938657b03fbdba8","665792a0cf3a5161175719a2","2903","stimuli/1010101.jpg","1","","prediction_trial","1","","true","","1","true","true","false","true","false","true","[1]","010","101","1","","","","","","",""
"","","","","","image-keyboard-response","189","432868","0.0-164.0","5c209d9b10677f0001da5e38","665500ab8938657b03fbdba8","665792a0cf3a5161175719a2","591","stimuli/10101011.jpg"," ","","feedback_trial","1","","","","","","","","","","","","","","","","","","","","",""
"","","","","","image-keyboard-response","190","433883","0.0-165.0","5c209d9b10677f0001da5e38","665500ab8938657b03fbdba8","665792a0cf3a5161175719a2","1014","stimuli/0011001.jpg","0","","prediction_trial","0","","true","","0","true","true","true","true","true","true","[0]","011","001","1","","","","","","",""
"","","","","","image-keyboard-response","191","434452","0.0-166.0","5c209d9b10677f0001da5e38","665500ab8938657b03fbdba8","665792a0cf3a5161175719a2","568","stimuli/00110010.jpg"," ","","feedback_trial","0","","","","","","","","","","","","","","","","","","","","",""
"","","","","","image-keyboard-response","192","435651","0.0-167.0","5c209d9b10677f0001da5e38","665500ab8938657b03fbdba8","665792a0cf3a5161175719a2","1198","stimuli/0001001.jpg","0","","prediction_trial","0","","true","","0","true","true","true","true","true","true","[0]","001","001","1","","","","","","",""
"","","","","","image-keyboard-response","193","436197","0.0-168.0","5c209d9b10677f0001da5e38","665500ab8938657b03fbdba8","665792a0cf3a5161175719a2","544","stimuli/00010010.jpg"," ","","feedback_trial","0","","","","","","","","","","","","","","","","","","","","",""
"","","","","","image-keyboard-response","194","437355","0.0-169.0","5c209d9b10677f0001da5e38","665500ab8938657b03fbdba8","665792a0cf3a5161175719a2","1156","stimuli/2110110.jpg","2","","prediction_trial","2","","true","","2","true","true","true","true","true","true","[2]","110","110","1","","","","","","",""
"","","","","","image-keyboard-response","195","437908","0.0-170.0","5c209d9b10677f0001da5e38","665500ab8938657b03fbdba8","665792a0cf3a5161175719a2","552","stimuli/21101102.jpg"," ","","feedback_trial","2","","","","","","","","","","","","","","","","","","","","",""
"","","","","","image-keyboard-response","196","439436","0.0-171.0","5c209d9b10677f0001da5e38","665500ab8938657b03fbdba8","665792a0cf3a5161175719a2","1527","stimuli/2110001.jpg","2","","prediction_trial","2","","true","","2","false","true","true","true","false","true","[2]","110","001","1","","","","","","",""
"","","","","","image-keyboard-response","197","439987","0.0-172.0","5c209d9b10677f0001da5e38","665500ab8938657b03fbdba8","665792a0cf3a5161175719a2","550","stimuli/21100012.jpg"," ","","feedback_trial","2","","","","","","","","","","","","","","","","","","","","",""
"","","","","","image-keyboard-response","198","443706","0.0-173.0","5c209d9b10677f0001da5e38","665500ab8938657b03fbdba8","665792a0cf3a5161175719a2","3718","stimuli/0110101.jpg","2","","prediction_trial","1","","false","","0","false","false","false","false","false","false","[0,1]","110","101","0","","","","","","",""
"","","","","","image-keyboard-response","199","445140","0.0-174.0","5c209d9b10677f0001da5e38","665500ab8938657b03fbdba8","665792a0cf3a5161175719a2","1433","stimuli/01101011.jpg"," ","","feedback_trial","0","","","","","","","","","","","","","","","","","","","","",""
"","","","","","image-keyboard-response","200","448345","0.0-175.0","5c209d9b10677f0001da5e38","665500ab8938657b03fbdba8","665792a0cf3a5161175719a2","3204","stimuli/0101000.jpg","0","","prediction_trial","2","","false","","0","true","true","false","false","false","false","[0,2]","101","000","0","","","","","","",""
"","","","","","image-keyboard-response","201","449412","0.0-176.0","5c209d9b10677f0001da5e38","665500ab8938657b03fbdba8","665792a0cf3a5161175719a2","1066","stimuli/01010002.jpg"," ","","feedback_trial","0","","","","","","","","","","","","","","","","","","","","",""
"","","","","","image-keyboard-response","202","450515","0.0-177.0","5c209d9b10677f0001da5e38","665500ab8938657b03fbdba8","665792a0cf3a5161175719a2","1103","stimuli/0000010.jpg","0","","prediction_trial","0","","true","","0","true","true","true","true","true","true","[0]","000","010","1","","","","","","",""
"","","","","","image-keyboard-response","203","451204","0.0-178.0","5c209d9b10677f0001da5e38","665500ab8938657b03fbdba8","665792a0cf3a5161175719a2","687","stimuli/00000100.jpg"," ","","feedback_trial","0","","","","","","","","","","","","","","","","","","","","",""
"","","","","","image-keyboard-response","204","453076","0.0-179.0","5c209d9b10677f0001da5e38","665500ab8938657b03fbdba8","665792a0cf3a5161175719a2","1872","stimuli/0100001.jpg","0","","prediction_trial","0","","true","","0","true","true","false","true","false","true","[0]","100","001","1","","","","","","",""
"","","","","","image-keyboard-response","205","453618","0.0-180.0","5c209d9b10677f0001da5e38","665500ab8938657b03fbdba8","665792a0cf3a5161175719a2","541","stimuli/01000010.jpg"," ","","feedback_trial","0","","","","","","","","","","","","","","","","","","","","",""
"","","","","","image-keyboard-response","206","455739","0.0-181.0","5c209d9b10677f0001da5e38","665500ab8938657b03fbdba8","665792a0cf3a5161175719a2","2120","stimuli/0101011.jpg","0","","prediction_trial","2","","false","","0","true","true","false","false","false","false","[2,0]","101","011","0","","","","","","",""
"","","","","","image-keyboard-response","207","456612","0.0-182.0","5c209d9b10677f0001da5e38","665500ab8938657b03fbdba8","665792a0cf3a5161175719a2","872","stimuli/01010112.jpg"," ","","feedback_trial","2","","","","","","","","","","","","","","","","","","","","",""
"","","","","","image-keyboard-response","208","457811","0.0-183.0","5c209d9b10677f0001da5e38","665500ab8938657b03fbdba8","665792a0cf3a5161175719a2","1198","stimuli/1100101.jpg","1","","prediction_trial","1","","true","","1","true","true","true","true","true","true","[1]","100","101","1","","","","","","",""
"","","","","","image-keyboard-response","209","458394","0.0-184.0","5c209d9b10677f0001da5e38","665500ab8938657b03fbdba8","665792a0cf3a5161175719a2","583","stimuli/11001011.jpg"," ","","feedback_trial","1","","","","","","","","","","","","","","","","","","","","",""
"","","","","","image-keyboard-response","210","459932","0.0-185.0","5c209d9b10677f0001da5e38","665500ab8938657b03fbdba8","665792a0cf3a5161175719a2","1537","stimuli/2101011.jpg","1","","prediction_trial","0","","false","","2","false","false","false","false","false","false","[2,0]","101","011","0","","","","","","",""
"","","","","","image-keyboard-response","211","460772","0.0-186.0","5c209d9b10677f0001da5e38","665500ab8938657b03fbdba8","665792a0cf3a5161175719a2","839","stimuli/21010110.jpg"," ","","feedback_trial","2","","","","","","","","","","","","","","","","","","","","",""
"","","","","","image-keyboard-response","212","462436","0.0-187.0","5c209d9b10677f0001da5e38","665500ab8938657b03fbdba8","665792a0cf3a5161175719a2","1663","stimuli/1000110.jpg","1","","prediction_trial","1","","true","","1","false","false","true","true","false","false","[1]","000","110","1","","","","","","",""
"","","","","","image-keyboard-response","213","463060","0.0-188.0","5c209d9b10677f0001da5e38","665500ab8938657b03fbdba8","665792a0cf3a5161175719a2","623","stimuli/10001101.jpg"," ","","feedback_trial","1","","","","","","","","","","","","","","","","","","","","",""
"","","","","","image-keyboard-response","214","464940","0.0-189.0","5c209d9b10677f0001da5e38","665500ab8938657b03fbdba8","665792a0cf3a5161175719a2","1879","stimuli/0110011.jpg","1","","prediction_trial","0","","false","","0","true","true","false","false","false","false","[0,1]","110","011","0","","","","","","",""
"","","","","","image-keyboard-response","215","465844","0.0-190.0","5c209d9b10677f0001da5e38","665500ab8938657b03fbdba8","665792a0cf3a5161175719a2","903","stimuli/01100110.jpg"," ","","feedback_trial","0","","","","","","","","","","","","","","","","","","","","",""
"","","","","","image-keyboard-response","216","467227","0.0-191.0","5c209d9b10677f0001da5e38","665500ab8938657b03fbdba8","665792a0cf3a5161175719a2","1382","stimuli/0010100.jpg","0","","prediction_trial","0","","true","","0","false","true","true","true","false","true","[0]","010","100","1","","","","","","",""
"","","","","","image-keyboard-response","217","467948","0.0-192.0","5c209d9b10677f0001da5e38","665500ab8938657b03fbdba8","665792a0cf3a5161175719a2","721","stimuli/00101000.jpg"," ","","feedback_trial","0","","","","","","","","","","","","","","","","","","","","",""
"","","","","","image-keyboard-response","218","469228","0.0-193.0","5c209d9b10677f0001da5e38","665500ab8938657b03fbdba8","665792a0cf3a5161175719a2","1278","stimuli/2110100.jpg","2","","prediction_trial","2","","true","","2","true","true","true","true","true","true","[2]","110","100","1","","","","","","",""
"","","","","","image-keyboard-response","219","469786","0.0-194.0","5c209d9b10677f0001da5e38","665500ab8938657b03fbdba8","665792a0cf3a5161175719a2","558","stimuli/21101002.jpg"," ","","feedback_trial","2","","","","","","","","","","","","","","","","","","","","",""
"","","","","","image-keyboard-response","220","471348","0.0-195.0","5c209d9b10677f0001da5e38","665500ab8938657b03fbdba8","665792a0cf3a5161175719a2","1561","stimuli/2011100.jpg","2","","prediction_trial","1","","false","","2","true","true","false","false","false","false","[2,1]","011","100","0","","","","","","",""
"","","","","","image-keyboard-response","221","471964","0.0-196.0","5c209d9b10677f0001da5e38","665500ab8938657b03fbdba8","665792a0cf3a5161175719a2","615","stimuli/20111001.jpg"," ","","feedback_trial","2","","","","","","","","","","","","","","","","","","","","",""
"","","","","","image-keyboard-response","222","473348","0.0-197.0","5c209d9b10677f0001da5e38","665500ab8938657b03fbdba8","665792a0cf3a5161175719a2","1384","stimuli/2111010.jpg","2","","prediction_trial","0","","false","","2","true","true","false","false","false","false","[1,2,0]","111","010","0","","","","","","",""
"","","","","","image-keyboard-response","223","474738","0.0-198.0","5c209d9b10677f0001da5e38","665500ab8938657b03fbdba8","665792a0cf3a5161175719a2","1389","stimuli/21110100.jpg"," ","","feedback_trial","1","","","","","","","","","","","","","","","","","","","","",""
"","","","","","image-keyboard-response","224","475731","0.0-199.0","5c209d9b10677f0001da5e38","665500ab8938657b03fbdba8","665792a0cf3a5161175719a2","993","stimuli/1001001.jpg","1","","prediction_trial","1","","true","","1","true","true","true","true","true","true","[1]","001","001","1","","","","","","",""
"","","","","","image-keyboard-response","225","476212","0.0-200.0","5c209d9b10677f0001da5e38","665500ab8938657b03fbdba8","665792a0cf3a5161175719a2","480","stimuli/10010011.jpg"," ","","feedback_trial","1","","","","","","","","","","","","","","","","","","","","",""
"","","","","","image-keyboard-response","226","478243","0.0-201.0","5c209d9b10677f0001da5e38","665500ab8938657b03fbdba8","665792a0cf3a5161175719a2","2030","stimuli/2011110.jpg","1","","prediction_trial","1","","true","","2","true","true","false","false","false","false","[2,1]","011","110","1","","","","","","",""
"","","","","","image-keyboard-response","227","478883","0.0-202.0","5c209d9b10677f0001da5e38","665500ab8938657b03fbdba8","665792a0cf3a5161175719a2","639","stimuli/20111101.jpg"," ","","feedback_trial","2","","","","","","","","","","","","","","","","","","","","",""
"","","","","","image-keyboard-response","228","481028","0.0-203.0","5c209d9b10677f0001da5e38","665500ab8938657b03fbdba8","665792a0cf3a5161175719a2","2145","stimuli/2011001.jpg","2","","prediction_trial","2","","true","","2","false","true","false","false","false","false","[1,2]","011","001","1","","","","","","",""
"","","","","","image-keyboard-response","229","481612","0.0-204.0","5c209d9b10677f0001da5e38","665500ab8938657b03fbdba8","665792a0cf3a5161175719a2","582","stimuli/20110012.jpg"," ","","feedback_trial","1","","","","","","","","","","","","","","","","","","","","",""
"","","","","","image-keyboard-response","230","483083","0.0-205.0","5c209d9b10677f0001da5e38","665500ab8938657b03fbdba8","665792a0cf3a5161175719a2","1469","stimuli/1111011.jpg","2","","prediction_trial","1","","false","","1","false","false","false","false","false","false","[2,1,0]","111","011","0","","","","","","",""
"","","","","","image-keyboard-response","231","483770","0.0-206.0","5c209d9b10677f0001da5e38","665500ab8938657b03fbdba8","665792a0cf3a5161175719a2","687","stimuli/11110111.jpg"," ","","feedback_trial","2","","","","","","","","","","","","","","","","","","","","",""
"","","","","","image-keyboard-response","232","486044","0.0-207.0","5c209d9b10677f0001da5e38","665500ab8938657b03fbdba8","665792a0cf3a5161175719a2","2274","stimuli/1011001.jpg","1","","prediction_trial","1","","true","","1","true","true","false","false","false","false","[2,1]","011","001","1","","","","","","",""
"","","","","","image-keyboard-response","233","486612","0.0-208.0","5c209d9b10677f0001da5e38","665500ab8938657b03fbdba8","665792a0cf3a5161175719a2","567","stimuli/10110011.jpg"," ","","feedback_trial","2","","","","","","","","","","","","","","","","","","","","",""
"","","","","","image-keyboard-response","234","488204","0.0-209.0","5c209d9b10677f0001da5e38","665500ab8938657b03fbdba8","665792a0cf3a5161175719a2","1591","stimuli/0101010.jpg","0","","prediction_trial","0","","true","","0","true","true","false","false","false","false","[0,2]","101","010","1","","","","","","",""
"","","","","","image-keyboard-response","235","488804","0.0-210.0","5c209d9b10677f0001da5e38","665500ab8938657b03fbdba8","665792a0cf3a5161175719a2","599","stimuli/01010100.jpg"," ","","feedback_trial","0","","","","","","","","","","","","","","","","","","","","",""
"","","","","","image-keyboard-response","236","491044","0.0-211.0","5c209d9b10677f0001da5e38","665500ab8938657b03fbdba8","665792a0cf3a5161175719a2","2239","stimuli/1000010.jpg","1","","prediction_trial","1","","true","","1","false","true","true","true","false","true","[1]","000","010","1","","","","","","",""
"","","","","","image-keyboard-response","237","491564","0.0-212.0","5c209d9b10677f0001da5e38","665500ab8938657b03fbdba8","665792a0cf3a5161175719a2","519","stimuli/10000101.jpg"," ","","feedback_trial","1","","","","","","","","","","","","","","","","","","","","",""
"","","","","","image-keyboard-response","238","492675","0.0-213.0","5c209d9b10677f0001da5e38","665500ab8938657b03fbdba8","665792a0cf3a5161175719a2","1110","stimuli/0011011.jpg","0","","prediction_trial","0","","true","","0","true","true","true","true","true","true","[0]","011","011","1","","","","","","",""
"","","","","","image-keyboard-response","239","493227","0.0-214.0","5c209d9b10677f0001da5e38","665500ab8938657b03fbdba8","665792a0cf3a5161175719a2","551","stimuli/00110110.jpg"," ","","feedback_trial","0","","","","","","","","","","","","","","","","","","","","",""
"","","","","","image-keyboard-response","240","494764","0.0-215.0","5c209d9b10677f0001da5e38","665500ab8938657b03fbdba8","665792a0cf3a5161175719a2","1537","stimuli/0110111.jpg","2","","prediction_trial","1","","false","","0","false","false","false","false","false","false","[1,0]","110","111","0","","","","","","",""
"","","","","","image-keyboard-response","241","495445","0.0-216.0","5c209d9b10677f0001da5e38","665500ab8938657b03fbdba8","665792a0cf3a5161175719a2","679","stimuli/01101111.jpg"," ","","feedback_trial","1","","","","","","","","","","","","","","","","","","","","",""
"","","","","","image-keyboard-response","242","498516","0.0-217.0","5c209d9b10677f0001da5e38","665500ab8938657b03fbdba8","665792a0cf3a5161175719a2","3070","stimuli/2001011.jpg","2","","prediction_trial","2","","true","","2","false","false","false","true","false","false","[2]","001","011","1","","","","","","",""
"","","","","","image-keyboard-response","243","499116","0.0-218.0","5c209d9b10677f0001da5e38","665500ab8938657b03fbdba8","665792a0cf3a5161175719a2","599","stimuli/20010112.jpg"," ","","feedback_trial","2","","","","","","","","","","","","","","","","","","","","",""
"","","","","","image-keyboard-response","244","500228","0.0-219.0","5c209d9b10677f0001da5e38","665500ab8938657b03fbdba8","665792a0cf3a5161175719a2","1110","stimuli/1001101.jpg","1","","prediction_trial","1","","true","","1","true","true","true","true","true","true","[1]","001","101","1","","","","","","",""
"","","","","","image-keyboard-response","245","500795","0.0-220.0","5c209d9b10677f0001da5e38","665500ab8938657b03fbdba8","665792a0cf3a5161175719a2","566","stimuli/10011011.jpg"," ","","feedback_trial","1","","","","","","","","","","","","","","","","","","","","",""
"","","","","","image-keyboard-response","246","501876","0.0-221.0","5c209d9b10677f0001da5e38","665500ab8938657b03fbdba8","665792a0cf3a5161175719a2","1081","stimuli/1111111.jpg","1","","prediction_trial","1","","true","","1","false","false","false","false","false","false","[0,2,1]","111","111","1","","","","","","",""
"","","","","","image-keyboard-response","247","502436","0.0-222.0","5c209d9b10677f0001da5e38","665500ab8938657b03fbdba8","665792a0cf3a5161175719a2","559","stimuli/11111111.jpg"," ","","feedback_trial","0","","","","","","","","","","","","","","","","","","","","",""
"","","","","","image-keyboard-response","248","503684","0.0-223.0","5c209d9b10677f0001da5e38","665500ab8938657b03fbdba8","665792a0cf3a5161175719a2","1247","stimuli/1010001.jpg","1","","prediction_trial","1","","true","","1","true","true","false","true","false","true","[1]","010","001","1","","","","","","",""
"","","","","","image-keyboard-response","249","504277","0.0-224.0","5c209d9b10677f0001da5e38","665500ab8938657b03fbdba8","665792a0cf3a5161175719a2","591","stimuli/10100011.jpg"," ","","feedback_trial","1","","","","","","","","","","","","","","","","","","","","",""
"","","","","","image-keyboard-response","250","505637","0.0-225.0","5c209d9b10677f0001da5e38","665500ab8938657b03fbdba8","665792a0cf3a5161175719a2","1358","stimuli/2010101.jpg","2","","prediction_trial","2","","true","","2","false","false","true","true","false","false","[2]","010","101","1","","","","","","",""
"","","","","","image-keyboard-response","251","506216","0.0-226.0","5c209d9b10677f0001da5e38","665500ab8938657b03fbdba8","665792a0cf3a5161175719a2","578","stimuli/20101012.jpg"," ","","feedback_trial","2","","","","","","","","","","","","","","","","","","","","",""
"","","","","","image-keyboard-response","252","507818","0.0-227.0","5c209d9b10677f0001da5e38","665500ab8938657b03fbdba8","665792a0cf3a5161175719a2","1602","stimuli/2000111.jpg","2","","prediction_trial","2","","true","","2","false","false","true","true","false","false","[2]","000","111","1","","","","","","",""
"","","","","","image-keyboard-response","253","508418","0.0-228.0","5c209d9b10677f0001da5e38","665500ab8938657b03fbdba8","665792a0cf3a5161175719a2","599","stimuli/20001112.jpg"," ","","feedback_trial","2","","","","","","","","","","","","","","","","","","","","",""
"","","","","","image-keyboard-response","254","510228","0.0-229.0","5c209d9b10677f0001da5e38","665500ab8938657b03fbdba8","665792a0cf3a5161175719a2","1810","stimuli/0100000.jpg","0","","prediction_trial","0","","true","","0","true","true","false","true","false","true","[0]","100","000","1","","","","","","",""
"","","","","","image-keyboard-response","255","510764","0.0-230.0","5c209d9b10677f0001da5e38","665500ab8938657b03fbdba8","665792a0cf3a5161175719a2","535","stimuli/01000000.jpg"," ","","feedback_trial","0","","","","","","","","","","","","","","","","","","","","",""
"","","","","","image-keyboard-response","256","512819","0.0-231.0","5c209d9b10677f0001da5e38","665500ab8938657b03fbdba8","665792a0cf3a5161175719a2","2055","stimuli/2100001.jpg","2","","prediction_trial","2","","true","","2","false","true","true","true","false","true","[2]","100","001","1","","","","","","",""
"","","","","","image-keyboard-response","257","513348","0.0-232.0","5c209d9b10677f0001da5e38","665500ab8938657b03fbdba8","665792a0cf3a5161175719a2","528","stimuli/21000012.jpg"," ","","feedback_trial","2","","","","","","","","","","","","","","","","","","","","",""
"","","","","","image-keyboard-response","258","514860","0.0-233.0","5c209d9b10677f0001da5e38","665500ab8938657b03fbdba8","665792a0cf3a5161175719a2","1511","stimuli/1010000.jpg","1","","prediction_trial","1","","true","","1","true","true","false","true","false","true","[1]","010","000","1","","","","","","",""
"","","","","","image-keyboard-response","259","515788","0.0-234.0","5c209d9b10677f0001da5e38","665500ab8938657b03fbdba8","665792a0cf3a5161175719a2","927","stimuli/10100001.jpg"," ","","feedback_trial","1","","","","","","","","","","","","","","","","","","","","",""
"","","","","","image-keyboard-response","260","516812","0.0-235.0","5c209d9b10677f0001da5e38","665500ab8938657b03fbdba8","665792a0cf3a5161175719a2","1022","stimuli/0000000.jpg","0","","prediction_trial","0","","true","","0","true","true","true","true","true","true","[0]","000","000","1","","","","","","",""
"","","","","","image-keyboard-response","261","517412","0.0-236.0","5c209d9b10677f0001da5e38","665500ab8938657b03fbdba8","665792a0cf3a5161175719a2","600","stimuli/00000000.jpg"," ","","feedback_trial","0","","","","","","","","","","","","","","","","","","","","",""
"","","","","","image-keyboard-response","262","518236","0.0-237.0","5c209d9b10677f0001da5e38","665500ab8938657b03fbdba8","665792a0cf3a5161175719a2","822","stimuli/0010011.jpg","0","","prediction_trial","0","","true","","0","true","true","true","true","true","true","[0]","010","011","1","","","","","","",""
"","","","","","image-keyboard-response","263","518788","0.0-238.0","5c209d9b10677f0001da5e38","665500ab8938657b03fbdba8","665792a0cf3a5161175719a2","551","stimuli/00100110.jpg"," ","","feedback_trial","0","","","","","","","","","","","","","","","","","","","","",""
"","","","","","image-keyboard-response","264","521052","0.0-239.0","5c209d9b10677f0001da5e38","665500ab8938657b03fbdba8","665792a0cf3a5161175719a2","2264","stimuli/1100010.jpg","1","","prediction_trial","1","","true","","1","false","true","true","true","false","true","[1]","100","010","1","","","","","","",""
"","","","","","image-keyboard-response","265","521588","0.0-240.0","5c209d9b10677f0001da5e38","665500ab8938657b03fbdba8","665792a0cf3a5161175719a2","535","stimuli/11000101.jpg"," ","","feedback_trial","1","","","","","","","","","","","","","","","","","","","","",""
"","","","","","image-keyboard-response","266","522508","0.0-241.0","5c209d9b10677f0001da5e38","665500ab8938657b03fbdba8","665792a0cf3a5161175719a2","919","stimuli/0011000.jpg","0","","prediction_trial","0","","true","","0","true","true","true","true","true","true","[0]","011","000","1","","","","","","",""
"","","","","","image-keyboard-response","267","523100","0.0-242.0","5c209d9b10677f0001da5e38","665500ab8938657b03fbdba8","665792a0cf3a5161175719a2","590","stimuli/00110000.jpg"," ","","feedback_trial","0","","","","","","","","","","","","","","","","","","","","",""
"","","","","","image-keyboard-response","268","526180","0.0-243.0","5c209d9b10677f0001da5e38","665500ab8938657b03fbdba8","665792a0cf3a5161175719a2","3078","stimuli/1011010.jpg","1","","prediction_trial","2","","false","","1","false","true","false","false","false","false","[2,1]","011","010","0","","","","","","",""
"","","","","","image-keyboard-response","269","526940","0.0-244.0","5c209d9b10677f0001da5e38","665500ab8938657b03fbdba8","665792a0cf3a5161175719a2","760","stimuli/10110102.jpg"," ","","feedback_trial","2","","","","","","","","","","","","","","","","","","","","",""
"","","","","","image-keyboard-response","270","527796","0.0-245.0","5c209d9b10677f0001da5e38","665500ab8938657b03fbdba8","665792a0cf3a5161175719a2","855","stimuli/1100001.jpg","1","","prediction_trial","1","","true","","1","true","true","true","true","true","true","[1]","100","001","1","","","","","","",""
"","","","","","image-keyboard-response","271","528460","0.0-246.0","5c209d9b10677f0001da5e38","665500ab8938657b03fbdba8","665792a0cf3a5161175719a2","663","stimuli/11000011.jpg"," ","","feedback_trial","1","","","","","","","","","","","","","","","","","","","","",""
"","","","","","image-keyboard-response","272","529540","0.0-247.0","5c209d9b10677f0001da5e38","665500ab8938657b03fbdba8","665792a0cf3a5161175719a2","1079","stimuli/1000100.jpg","1","","prediction_trial","1","","true","","1","true","true","true","true","true","true","[1]","000","100","1","","","","","","",""
"","","","","","image-keyboard-response","273","530188","0.0-248.0","5c209d9b10677f0001da5e38","665500ab8938657b03fbdba8","665792a0cf3a5161175719a2","647","stimuli/10001001.jpg"," ","","feedback_trial","1","","","","","","","","","","","","","","","","","","","","",""
"","","","","","image-keyboard-response","274","532093","0.0-249.0","5c209d9b10677f0001da5e38","665500ab8938657b03fbdba8","665792a0cf3a5161175719a2","1903","stimuli/0101001.jpg","0","","prediction_trial","2","","false","","0","true","true","false","false","false","false","[0,2]","101","001","0","","","","","","",""
"","","","","","image-keyboard-response","275","532980","0.0-250.0","5c209d9b10677f0001da5e38","665500ab8938657b03fbdba8","665792a0cf3a5161175719a2","886","stimuli/01010012.jpg"," ","","feedback_trial","0","","","","","","","","","","","","","","","","","","","","",""
"","","","","","image-keyboard-response","276","535676","0.0-251.0","5c209d9b10677f0001da5e38","665500ab8938657b03fbdba8","665792a0cf3a5161175719a2","2695","stimuli/2001101.jpg","2","","prediction_trial","2","","true","","2","false","false","false","true","false","false","[2]","001","101","1","","","","","","",""
"","","","","","image-keyboard-response","277","536324","0.0-252.0","5c209d9b10677f0001da5e38","665500ab8938657b03fbdba8","665792a0cf3a5161175719a2","647","stimuli/20011012.jpg"," ","","feedback_trial","2","","","","","","","","","","","","","","","","","","","","",""
"","","","","","image-keyboard-response","278","538348","0.0-253.0","5c209d9b10677f0001da5e38","665500ab8938657b03fbdba8","665792a0cf3a5161175719a2","2023","stimuli/0100101.jpg","2","","prediction_trial","0","","false","","0","false","false","false","true","false","false","[0]","100","101","0","","","","","","",""
"","","","","","image-keyboard-response","279","539100","0.0-254.0","5c209d9b10677f0001da5e38","665500ab8938657b03fbdba8","665792a0cf3a5161175719a2","751","stimuli/01001010.jpg"," ","","feedback_trial","0","","","","","","","","","","","","","","","","","","","","",""
"","","","","","image-keyboard-response","280","541576","0.0-255.0","5c209d9b10677f0001da5e38","665500ab8938657b03fbdba8","665792a0cf3a5161175719a2","2475","stimuli/2101001.jpg","2","","prediction_trial","0","","false","","2","false","true","false","false","false","false","[0,2]","101","001","0","","","","","","",""
"","","","","","image-keyboard-response","281","542571","0.0-256.0","5c209d9b10677f0001da5e38","665500ab8938657b03fbdba8","665792a0cf3a5161175719a2","994","stimuli/21010010.jpg"," ","","feedback_trial","0","","","","","","","","","","","","","","","","","","","","",""
"","","","","","image-keyboard-response","282","545084","0.0-257.0","5c209d9b10677f0001da5e38","665500ab8938657b03fbdba8","665792a0cf3a5161175719a2","2513","stimuli/0101101.jpg","2","","prediction_trial","2","","true","","0","false","false","false","false","false","false","[0,2]","101","101","1","","","","","","",""
"","","","","","image-keyboard-response","283","545724","0.0-258.0","5c209d9b10677f0001da5e38","665500ab8938657b03fbdba8","665792a0cf3a5161175719a2","639","stimuli/01011012.jpg"," ","","feedback_trial","0","","","","","","","","","","","","","","","","","","","","",""
"","","","","","image-keyboard-response","284","548683","0.0-259.0","5c209d9b10677f0001da5e38","665500ab8938657b03fbdba8","665792a0cf3a5161175719a2","2959","stimuli/1011111.jpg","1","","prediction_trial","2","","false","","1","false","false","false","false","false","false","[1,2]","011","111","0","","","","","","",""
"","","","","","image-keyboard-response","285","549365","0.0-260.0","5c209d9b10677f0001da5e38","665500ab8938657b03fbdba8","665792a0cf3a5161175719a2","681","stimuli/10111112.jpg"," ","","feedback_trial","1","","","","","","","","","","","","","","","","","","","","",""
"","","","","","image-keyboard-response","286","550523","0.0-261.0","5c209d9b10677f0001da5e38","665500ab8938657b03fbdba8","665792a0cf3a5161175719a2","1157","stimuli/1000000.jpg","1","","prediction_trial","1","","true","","1","true","true","true","true","true","true","[1]","000","000","1","","","","","","",""
"","","","","","image-keyboard-response","287","551125","0.0-262.0","5c209d9b10677f0001da5e38","665500ab8938657b03fbdba8","665792a0cf3a5161175719a2","602","stimuli/10000001.jpg"," ","","feedback_trial","1","","","","","","","","","","","","","","","","","","","","",""
"","","","","","image-keyboard-response","288","552204","0.0-263.0","5c209d9b10677f0001da5e38","665500ab8938657b03fbdba8","665792a0cf3a5161175719a2","1077","stimuli/0111111.jpg","1","","prediction_trial","2","","false","","0","false","false","false","false","false","false","[1,2,0]","111","111","0","","","","","","",""
"","","","","","image-keyboard-response","289","552916","0.0-264.0","5c209d9b10677f0001da5e38","665500ab8938657b03fbdba8","665792a0cf3a5161175719a2","712","stimuli/01111112.jpg"," ","","feedback_trial","1","","","","","","","","","","","","","","","","","","","","",""
"","","","","","image-keyboard-response","290","554757","0.0-265.0","5c209d9b10677f0001da5e38","665500ab8938657b03fbdba8","665792a0cf3a5161175719a2","1840","stimuli/0100011.jpg","0","","prediction_trial","0","","true","","0","true","true","false","true","false","true","[0]","100","011","1","","","","","","",""
"","","","","","image-keyboard-response","291","555405","0.0-266.0","5c209d9b10677f0001da5e38","665500ab8938657b03fbdba8","665792a0cf3a5161175719a2","646","stimuli/01000110.jpg"," ","","feedback_trial","0","","","","","","","","","","","","","","","","","","","","",""
"","","","","","image-keyboard-response","292","556707","0.0-267.0","5c209d9b10677f0001da5e38","665500ab8938657b03fbdba8","665792a0cf3a5161175719a2","1301","stimuli/2010000.jpg","2","","prediction_trial","2","","true","","2","true","true","true","true","true","true","[2]","010","000","1","","","","","","",""
"","","","","","image-keyboard-response","293","557252","0.0-268.0","5c209d9b10677f0001da5e38","665500ab8938657b03fbdba8","665792a0cf3a5161175719a2","544","stimuli/20100002.jpg"," ","","feedback_trial","2","","","","","","","","","","","","","","","","","","","","",""
"","","","","","image-keyboard-response","294","558810","0.0-269.0","5c209d9b10677f0001da5e38","665500ab8938657b03fbdba8","665792a0cf3a5161175719a2","1557","stimuli/0100100.jpg","0","","prediction_trial","0","","true","","0","false","true","false","true","false","true","[0]","100","100","1","","","","","","",""
"","","","","","image-keyboard-response","295","559388","0.0-270.0","5c209d9b10677f0001da5e38","665500ab8938657b03fbdba8","665792a0cf3a5161175719a2","577","stimuli/01001000.jpg"," ","","feedback_trial","0","","","","","","","","","","","","","","","","","","","","",""
"","","","","","image-keyboard-response","296","561804","0.0-271.0","5c209d9b10677f0001da5e38","665500ab8938657b03fbdba8","665792a0cf3a5161175719a2","2415","stimuli/1111100.jpg","1","","prediction_trial","1","","true","","1","true","true","false","false","false","false","[0,1,2]","111","100","1","","","","","","",""
"","","","","","image-keyboard-response","297","562387","0.0-272.0","5c209d9b10677f0001da5e38","665500ab8938657b03fbdba8","665792a0cf3a5161175719a2","582","stimuli/11111001.jpg"," ","","feedback_trial","0","","","","","","","","","","","","","","","","","","","","",""
"","","","","","image-keyboard-response","298","564395","0.0-273.0","5c209d9b10677f0001da5e38","665500ab8938657b03fbdba8","665792a0cf3a5161175719a2","2007","stimuli/2110011.jpg","1","","prediction_trial","2","","false","","2","false","false","true","true","false","false","[2]","110","011","0","","","","","","",""
"","","","","","image-keyboard-response","299","565634","0.0-274.0","5c209d9b10677f0001da5e38","665500ab8938657b03fbdba8","665792a0cf3a5161175719a2","1238","stimuli/21100112.jpg"," ","","feedback_trial","2","","","","","","","","","","","","","","","","","","","","",""
"","","","","","image-keyboard-response","300","567563","0.0-275.0","5c209d9b10677f0001da5e38","665500ab8938657b03fbdba8","665792a0cf3a5161175719a2","1929","stimuli/1111101.jpg","1","","prediction_trial","0","","false","","1","true","true","false","false","false","false","[2,0,1]","111","101","0","","","","","","",""
"","","","","","image-keyboard-response","301","568267","0.0-276.0","5c209d9b10677f0001da5e38","665500ab8938657b03fbdba8","665792a0cf3a5161175719a2","703","stimuli/11111010.jpg"," ","","feedback_trial","2","","","","","","","","","","","","","","","","","","","","",""
"","","","","","image-keyboard-response","302","570452","0.0-277.0","5c209d9b10677f0001da5e38","665500ab8938657b03fbdba8","665792a0cf3a5161175719a2","2184","stimuli/2101110.jpg","0","","prediction_trial","0","","true","","2","true","true","false","false","false","false","[2,0]","101","110","1","","","","","","",""
"","","","","","image-keyboard-response","303","571012","0.0-278.0","5c209d9b10677f0001da5e38","665500ab8938657b03fbdba8","665792a0cf3a5161175719a2","558","stimuli/21011100.jpg"," ","","feedback_trial","2","","","","","","","","","","","","","","","","","","","","",""
"","","","","","image-keyboard-response","304","572916","0.0-279.0","5c209d9b10677f0001da5e38","665500ab8938657b03fbdba8","665792a0cf3a5161175719a2","1904","stimuli/2010001.jpg","2","","prediction_trial","2","","true","","2","false","true","true","true","false","true","[2]","010","001","1","","","","","","",""
"","","","","","image-keyboard-response","305","573453","0.0-280.0","5c209d9b10677f0001da5e38","665500ab8938657b03fbdba8","665792a0cf3a5161175719a2","535","stimuli/20100012.jpg"," ","","feedback_trial","2","","","","","","","","","","","","","","","","","","","","",""
"","","","","","image-keyboard-response","306","574396","0.0-281.0","5c209d9b10677f0001da5e38","665500ab8938657b03fbdba8","665792a0cf3a5161175719a2","942","stimuli/2000000.jpg","2","","prediction_trial","2","","true","","2","true","true","true","true","true","true","[2]","000","000","1","","","","","","",""
"","","","","","image-keyboard-response","307","574964","0.0-282.0","5c209d9b10677f0001da5e38","665500ab8938657b03fbdba8","665792a0cf3a5161175719a2","567","stimuli/20000002.jpg"," ","","feedback_trial","2","","","","","","","","","","","","","","","","","","","","",""
"","","","","","image-keyboard-response","308","576284","0.0-283.0","5c209d9b10677f0001da5e38","665500ab8938657b03fbdba8","665792a0cf3a5161175719a2","1319","stimuli/0001010.jpg","0","","prediction_trial","0","","true","","0","true","true","true","true","true","true","[0]","001","010","1","","","","","","",""
"","","","","","image-keyboard-response","309","576812","0.0-284.0","5c209d9b10677f0001da5e38","665500ab8938657b03fbdba8","665792a0cf3a5161175719a2","527","stimuli/00010100.jpg"," ","","feedback_trial","0","","","","","","","","","","","","","","","","","","","","",""
"","","","","","image-keyboard-response","310","579228","0.0-285.0","5c209d9b10677f0001da5e38","665500ab8938657b03fbdba8","665792a0cf3a5161175719a2","2415","stimuli/2010011.jpg","1","","prediction_trial","2","","false","","2","false","false","true","true","false","false","[2]","010","011","0","","","","","","",""
"","","","","","image-keyboard-response","311","579837","0.0-286.0","5c209d9b10677f0001da5e38","665500ab8938657b03fbdba8","665792a0cf3a5161175719a2","607","stimuli/20100112.jpg"," ","","feedback_trial","2","","","","","","","","","","","","","","","","","","","","",""
"","","","","","image-keyboard-response","312","581596","0.0-287.0","5c209d9b10677f0001da5e38","665500ab8938657b03fbdba8","665792a0cf3a5161175719a2","1759","stimuli/1110111.jpg","1","","prediction_trial","1","","true","","1","false","false","false","false","false","false","[0,1]","110","111","1","","","","","","",""
"","","","","","image-keyboard-response","313","582084","0.0-288.0","5c209d9b10677f0001da5e38","665500ab8938657b03fbdba8","665792a0cf3a5161175719a2","487","stimuli/11101111.jpg"," ","","feedback_trial","0","","","","","","","","","","","","","","","","","","","","",""
"","","","","","image-keyboard-response","314","583019","0.0-289.0","5c209d9b10677f0001da5e38","665500ab8938657b03fbdba8","665792a0cf3a5161175719a2","934","stimuli/2100100.jpg","2","","prediction_trial","2","","true","","2","true","true","true","true","true","true","[2]","100","100","1","","","","","","",""
"","","","","","image-keyboard-response","315","583524","0.0-290.0","5c209d9b10677f0001da5e38","665500ab8938657b03fbdba8","665792a0cf3a5161175719a2","504","stimuli/21001002.jpg"," ","","feedback_trial","2","","","","","","","","","","","","","","","","","","","","",""
"","","","","","image-keyboard-response","316","584980","0.0-291.0","5c209d9b10677f0001da5e38","665500ab8938657b03fbdba8","665792a0cf3a5161175719a2","1456","stimuli/1001000.jpg","1","","prediction_trial","1","","true","","1","true","true","true","true","true","true","[1]","001","000","1","","","","","","",""
"","","","","","image-keyboard-response","317","585596","0.0-292.0","5c209d9b10677f0001da5e38","665500ab8938657b03fbdba8","665792a0cf3a5161175719a2","615","stimuli/10010001.jpg"," ","","feedback_trial","1","","","","","","","","","","","","","","","","","","","","",""
"","","","","","survey-html-form","318","599024","0.0-293.0","5c209d9b10677f0001da5e38","665500ab8938657b03fbdba8","665792a0cf3a5161175719a2","13425","","{""feedback"":"""",""age"":""56"",""gender"":""Female"",""other_gender"":"""",""race"":""White"",""other_race"":"""",""ethnicity"":""Non-Hispanic""}","","exit_survey","","","","","","","","","","","","","","","","","56","Non-Hispanic","Female","White","0.6944444444444444","0.6944444444444444"
