"success","timeout","failed_images","failed_audio","failed_video","trial_type","trial_index","time_elapsed","internal_node_id","prolific_id","prolific_study_id","prolific_session_id","rt","stimulus","response","view_history","trial","character_choice","stimulus_dict","accuracy","correct_response","ball_pos","ego_ball_visible","ego_can_infer","alter_ball_visible","alter_can_infer","collective_ball_visible","collective_can_infer","search_locations","alter_occluders","ego_occluders","accuracy_bool","feedback","age","ethnicity","gender","race","overall_accuracy","bonus"
"true","false","[]","[]","[]","preload","0","2608","0.0-0.0","5b9dd322f074140001050095","665500ab8938657b03fbdba8","66579577cffc7b15f963d041","","","","","","","","","","","","","","","","","","","","","","","","","","",""
"true","","","","","fullscreen","1","12966","0.0-1.0","5b9dd322f074140001050095","665500ab8938657b03fbdba8","66579577cffc7b15f963d041","","","","","","","","","","","","","","","","","","","","","","","","","","",""
"","","","","","html-button-response","2","23110","0.0-2.0","5b9dd322f074140001050095","665500ab8938657b03fbdba8","66579577cffc7b15f963d041","10140","<p><b>Consent Form</b></p> <div style=""text-align:left;background-color:lightgrey; padding:20px; max-width:900px;""><p>Please consider this information carefully before deciding whether to participate in this research.</p> <p>The purpose of this research is to examine which factors influence social judgment and decision-making. You will be asked to make judgements about individuals and actions in social scenarios. We are simply interested in your judgement. The study will take less than 1 hour to complete, and you will receive less than $20 on Prolific. Your compensation and time commitment are specified in the study description. There are no anticipated risks associated with participating in this study. The effects of participating should be comparable to those you would ordinarily experience from viewing a computer monitor and using a mouse or keyboard for a similar amount of time. At the end of the study, we will provide an explanation of the questions that motivate this line of research and will describe the potential implications. </p><p> Your participation in this study is completely voluntary and you may refuse to participate or you may choose to withdraw at any time without penalty or loss of benefits to you which are otherwise entitled. Your participation in this study will remain confidential. No personally identifiable information will be associated with your data. Also, all analyses of the data will be averaged across all the participants, so your individual responses will never be specifically analyzed. </p><p> If you have questions or concerns about your participation or payment, or want to request a summary of research findings, please contact Dr. Jonathan Phillips at Jonathan.S.Phillips@dartmouth.edu. </p><p> Please save a copy of this form for your records. </p><p><b>Agreement: </b>The nature and purpose of this research have been sufficiently explained and I agree to participate in this study. I understand that I am free to withdraw at any time without incurring any penalty. Please consent by clicking the button below to continue. Otherwise, please exit the study at any time. </p>","0","","","","","","","","","","","","","","","","","","","","","","","",""
"","","","","","instructions","3","90554","0.0-3.0-0.0","5b9dd322f074140001050095","665500ab8938657b03fbdba8","66579577cffc7b15f963d041","67445","","","[{""page_index"":0,""viewing_time"":3372},{""page_index"":1,""viewing_time"":2400},{""page_index"":2,""viewing_time"":2980},{""page_index"":3,""viewing_time"":4415},{""page_index"":4,""viewing_time"":3389},{""page_index"":5,""viewing_time"":4680},{""page_index"":6,""viewing_time"":5212},{""page_index"":7,""viewing_time"":6173},{""page_index"":8,""viewing_time"":5130},{""page_index"":9,""viewing_time"":3698},{""page_index"":10,""viewing_time"":11040},{""page_index"":11,""viewing_time"":7717},{""page_index"":12,""viewing_time"":4972},{""page_index"":13,""viewing_time"":2266}]","intro","","","","","","","","","","","","","","","","","","","","","",""
"","","","","","image-keyboard-response","4","92694","0.0-3.0-1.0","5b9dd322f074140001050095","665500ab8938657b03fbdba8","66579577cffc7b15f963d041","2137","stimuli/1101010.jpg","1","","prediction_practice","1","{""filepath"":""stimuli/1101010.jpg"",""ball_pos"":1,""ego_ball_visible"":false,""ego_can_infer"":true,""alter_ball_visible"":true,""alter_can_infer"":true,""collective_ball_visible"":false,""collective_can_infer"":true,""search_locations"":[1],""alter_occluders"":""101"",""ego_occluders"":""010""}","true","","","","","","","","","","","","","","","","","","",""
"","","","","","image-keyboard-response","5","93954","0.0-3.0-2.0","5b9dd322f074140001050095","665500ab8938657b03fbdba8","66579577cffc7b15f963d041","1258","stimuli/11010101.jpg"," ","","practrice_feedback","1","","","","","","","","","","","","","","","","","","","","",""
"","","","","","image-keyboard-response","6","95099","0.0-3.0-3.0","5b9dd322f074140001050095","665500ab8938657b03fbdba8","66579577cffc7b15f963d041","1144","stimuli/0010101.jpg","2","","prediction_practice","0","{""filepath"":""stimuli/0010101.jpg"",""ball_pos"":0,""ego_ball_visible"":false,""ego_can_infer"":false,""alter_ball_visible"":true,""alter_can_infer"":true,""collective_ball_visible"":false,""collective_can_infer"":false,""search_locations"":[0],""alter_occluders"":""010"",""ego_occluders"":""101""}","false","","","","","","","","","","","","","","","","","","",""
"","","","","","image-keyboard-response","7","96429","0.0-3.0-4.0","5b9dd322f074140001050095","665500ab8938657b03fbdba8","66579577cffc7b15f963d041","1330","stimuli/00101010.jpg"," ","","practrice_feedback","0","","","","","","","","","","","","","","","","","","","","",""
"","","","","","image-keyboard-response","8","97388","0.0-3.0-5.0","5b9dd322f074140001050095","665500ab8938657b03fbdba8","66579577cffc7b15f963d041","958","stimuli/0011101.jpg","0","","prediction_practice","0","{""filepath"":""stimuli/0011101.jpg"",""ball_pos"":0,""ego_ball_visible"":false,""ego_can_infer"":false,""alter_ball_visible"":true,""alter_can_infer"":true,""collective_ball_visible"":false,""collective_can_infer"":false,""search_locations"":[0],""alter_occluders"":""011"",""ego_occluders"":""101""}","true","","","","","","","","","","","","","","","","","","",""
"","","","","","image-keyboard-response","9","98322","0.0-3.0-6.0","5b9dd322f074140001050095","665500ab8938657b03fbdba8","66579577cffc7b15f963d041","934","stimuli/00111010.jpg"," ","","practrice_feedback","0","","","","","","","","","","","","","","","","","","","","",""
"","","","","","image-keyboard-response","10","99833","0.0-3.0-7.0","5b9dd322f074140001050095","665500ab8938657b03fbdba8","66579577cffc7b15f963d041","1510","stimuli/0111100.jpg","0","","prediction_practice","1","{""filepath"":""stimuli/0111100.jpg"",""ball_pos"":0,""ego_ball_visible"":false,""ego_can_infer"":true,""alter_ball_visible"":false,""alter_can_infer"":false,""collective_ball_visible"":false,""collective_can_infer"":false,""search_locations"":[2,0,1],""alter_occluders"":""111"",""ego_occluders"":""100""}","false","","","","","","","","","","","","","","","","","","",""
"","","","","","image-keyboard-response","11","100887","0.0-3.0-8.0","5b9dd322f074140001050095","665500ab8938657b03fbdba8","66579577cffc7b15f963d041","1054","stimuli/01111001.jpg"," ","","practrice_feedback","2","","","","","","","","","","","","","","","","","","","","",""
"","","","","","image-keyboard-response","12","102116","0.0-3.0-9.0","5b9dd322f074140001050095","665500ab8938657b03fbdba8","66579577cffc7b15f963d041","1227","stimuli/1100001.jpg","1","","prediction_practice","1","{""filepath"":""stimuli/1100001.jpg"",""ball_pos"":1,""ego_ball_visible"":true,""ego_can_infer"":true,""alter_ball_visible"":true,""alter_can_infer"":true,""collective_ball_visible"":true,""collective_can_infer"":true,""search_locations"":[1],""alter_occluders"":""100"",""ego_occluders"":""001""}","true","","","","","","","","","","","","","","","","","","",""
"","","","","","image-keyboard-response","13","103073","0.0-3.0-10.0","5b9dd322f074140001050095","665500ab8938657b03fbdba8","66579577cffc7b15f963d041","956","stimuli/11000011.jpg"," ","","practrice_feedback","1","","","","","","","","","","","","","","","","","","","","",""
"","","","","","image-keyboard-response","14","103901","0.0-3.0-11.0","5b9dd322f074140001050095","665500ab8938657b03fbdba8","66579577cffc7b15f963d041","828","stimuli/0110111.jpg","2","","prediction_practice","0","{""filepath"":""stimuli/0110111.jpg"",""ball_pos"":0,""ego_ball_visible"":false,""ego_can_infer"":false,""alter_ball_visible"":false,""alter_can_infer"":false,""collective_ball_visible"":false,""collective_can_infer"":false,""search_locations"":[0,1],""alter_occluders"":""110"",""ego_occluders"":""111""}","false","","","","","","","","","","","","","","","","","","",""
"","","","","","image-keyboard-response","15","106447","0.0-3.0-12.0","5b9dd322f074140001050095","665500ab8938657b03fbdba8","66579577cffc7b15f963d041","2546","stimuli/01101110.jpg"," ","","practrice_feedback","0","","","","","","","","","","","","","","","","","","","","",""
"","","","","","image-keyboard-response","16","107603","0.0-3.0-13.0","5b9dd322f074140001050095","665500ab8938657b03fbdba8","66579577cffc7b15f963d041","1155","stimuli/0010110.jpg","0","","prediction_practice","0","{""filepath"":""stimuli/0010110.jpg"",""ball_pos"":0,""ego_ball_visible"":false,""ego_can_infer"":false,""alter_ball_visible"":true,""alter_can_infer"":true,""collective_ball_visible"":false,""collective_can_infer"":false,""search_locations"":[0],""alter_occluders"":""010"",""ego_occluders"":""110""}","true","","","","","","","","","","","","","","","","","","",""
"","","","","","image-keyboard-response","17","109208","0.0-3.0-14.0","5b9dd322f074140001050095","665500ab8938657b03fbdba8","66579577cffc7b15f963d041","1605","stimuli/00101100.jpg"," ","","practrice_feedback","0","","","","","","","","","","","","","","","","","","","","",""
"","","","","","image-keyboard-response","18","110018","0.0-3.0-15.0","5b9dd322f074140001050095","665500ab8938657b03fbdba8","66579577cffc7b15f963d041","809","stimuli/1101000.jpg","1","","prediction_practice","1","{""filepath"":""stimuli/1101000.jpg"",""ball_pos"":1,""ego_ball_visible"":true,""ego_can_infer"":true,""alter_ball_visible"":true,""alter_can_infer"":true,""collective_ball_visible"":true,""collective_can_infer"":true,""search_locations"":[1],""alter_occluders"":""101"",""ego_occluders"":""000""}","true","","","","","","","","","","","","","","","","","","",""
"","","","","","image-keyboard-response","19","111026","0.0-3.0-16.0","5b9dd322f074140001050095","665500ab8938657b03fbdba8","66579577cffc7b15f963d041","1007","stimuli/11010001.jpg"," ","","practrice_feedback","1","","","","","","","","","","","","","","","","","","","","",""
"","","","","","image-keyboard-response","20","113542","0.0-3.0-17.0","5b9dd322f074140001050095","665500ab8938657b03fbdba8","66579577cffc7b15f963d041","2516","stimuli/0101011.jpg","1","","prediction_practice","2","{""filepath"":""stimuli/0101011.jpg"",""ball_pos"":0,""ego_ball_visible"":true,""ego_can_infer"":true,""alter_ball_visible"":false,""alter_can_infer"":false,""collective_ball_visible"":false,""collective_can_infer"":false,""search_locations"":[2,0],""alter_occluders"":""101"",""ego_occluders"":""011""}","false","","","","","","","","","","","","","","","","","","",""
"","","","","","image-keyboard-response","21","114967","0.0-3.0-18.0","5b9dd322f074140001050095","665500ab8938657b03fbdba8","66579577cffc7b15f963d041","1425","stimuli/01010112.jpg"," ","","practrice_feedback","2","","","","","","","","","","","","","","","","","","","","",""
"","","","","","image-keyboard-response","22","116843","0.0-3.0-19.0","5b9dd322f074140001050095","665500ab8938657b03fbdba8","66579577cffc7b15f963d041","1875","stimuli/2000001.jpg","2","","prediction_practice","2","{""filepath"":""stimuli/2000001.jpg"",""ball_pos"":2,""ego_ball_visible"":false,""ego_can_infer"":true,""alter_ball_visible"":true,""alter_can_infer"":true,""collective_ball_visible"":false,""collective_can_infer"":true,""search_locations"":[2],""alter_occluders"":""000"",""ego_occluders"":""001""}","true","","","","","","","","","","","","","","","","","","",""
"","","","","","image-keyboard-response","23","117653","0.0-3.0-20.0","5b9dd322f074140001050095","665500ab8938657b03fbdba8","66579577cffc7b15f963d041","810","stimuli/20000012.jpg"," ","","practrice_feedback","2","","","","","","","","","","","","","","","","","","","","",""
"","","","","","html-button-response","24","120325","0.0-3.0-21.0","5b9dd322f074140001050095","665500ab8938657b03fbdba8","66579577cffc7b15f963d041","2671","Now that you've had some practice, you'll be tested with a couple of easy trials. If you correctly predict Sam's choice, you'll move on to complete the experiment!","0","","","","","","","","","","","","","","","","","","","","","","","",""
"","","","","","image-keyboard-response","25","121477","0.0-3.0-22.0-0.0","5b9dd322f074140001050095","665500ab8938657b03fbdba8","66579577cffc7b15f963d041","1152","stimuli/0000011.jpg","arrowleft","","comprehension_quiz","","","true","arrowleft","","","","","","","","","","","","","","","","","",""
"","","","","","image-keyboard-response","26","122410","0.0-3.0-22.0-1.0","5b9dd322f074140001050095","665500ab8938657b03fbdba8","66579577cffc7b15f963d041","932","stimuli/00000110.jpg"," ","","comprehension_quiz","","","true"," ","","","","","","","","","","","","","","","","","",""
"","","","","","image-keyboard-response","27","123989","0.0-3.0-22.0-2.0","5b9dd322f074140001050095","665500ab8938657b03fbdba8","66579577cffc7b15f963d041","1577","stimuli/1010010.jpg","arrowdown","","comprehension_quiz","","","true","arrowdown","","","","","","","","","","","","","","","","","",""
"","","","","","image-keyboard-response","28","124716","0.0-3.0-22.0-3.0","5b9dd322f074140001050095","665500ab8938657b03fbdba8","66579577cffc7b15f963d041","727","stimuli/10100101.jpg"," ","","comprehension_quiz","","","true"," ","","","","","","","","","","","","","","","","","",""
"","","","","","html-button-response","29","126257","0.0-4.0","5b9dd322f074140001050095","665500ab8938657b03fbdba8","66579577cffc7b15f963d041","1539","The experiment will now begin.","0","","","","","","","","","","","","","","","","","","","","","","","",""
"","","","","","image-keyboard-response","30","128602","0.0-5.0","5b9dd322f074140001050095","665500ab8938657b03fbdba8","66579577cffc7b15f963d041","2344","stimuli/2011000.jpg","2","","prediction_trial","1","","false","","2","true","true","false","false","false","false","[2,1]","011","000","0","","","","","","",""
"","","","","","image-keyboard-response","31","129488","0.0-6.0","5b9dd322f074140001050095","665500ab8938657b03fbdba8","66579577cffc7b15f963d041","885","stimuli/20110001.jpg"," ","","feedback_trial","2","","","","","","","","","","","","","","","","","","","","",""
"","","","","","image-keyboard-response","32","130927","0.0-7.0","5b9dd322f074140001050095","665500ab8938657b03fbdba8","66579577cffc7b15f963d041","1438","stimuli/2001000.jpg","2","","prediction_trial","2","","true","","2","true","true","false","true","false","true","[2]","001","000","1","","","","","","",""
"","","","","","image-keyboard-response","33","132156","0.0-8.0","5b9dd322f074140001050095","665500ab8938657b03fbdba8","66579577cffc7b15f963d041","1228","stimuli/20010002.jpg"," ","","feedback_trial","2","","","","","","","","","","","","","","","","","","","","",""
"","","","","","image-keyboard-response","34","133627","0.0-9.0","5b9dd322f074140001050095","665500ab8938657b03fbdba8","66579577cffc7b15f963d041","1471","stimuli/2010011.jpg","1","","prediction_trial","2","","false","","2","false","false","true","true","false","false","[2]","010","011","0","","","","","","",""
"","","","","","image-keyboard-response","35","134765","0.0-10.0","5b9dd322f074140001050095","665500ab8938657b03fbdba8","66579577cffc7b15f963d041","1138","stimuli/20100112.jpg"," ","","feedback_trial","2","","","","","","","","","","","","","","","","","","","","",""
"","","","","","image-keyboard-response","36","136206","0.0-11.0","5b9dd322f074140001050095","665500ab8938657b03fbdba8","66579577cffc7b15f963d041","1440","stimuli/1110111.jpg","0","","prediction_trial","0","","true","","1","false","false","false","false","false","false","[1,0]","110","111","1","","","","","","",""
"","","","","","image-keyboard-response","37","137137","0.0-12.0","5b9dd322f074140001050095","665500ab8938657b03fbdba8","66579577cffc7b15f963d041","930","stimuli/11101110.jpg"," ","","feedback_trial","1","","","","","","","","","","","","","","","","","","","","",""
"","","","","","image-keyboard-response","38","139116","0.0-13.0","5b9dd322f074140001050095","665500ab8938657b03fbdba8","66579577cffc7b15f963d041","1979","stimuli/0000110.jpg","0","","prediction_trial","0","","true","","0","false","false","true","true","false","false","[0]","000","110","1","","","","","","",""
"","","","","","image-keyboard-response","39","140031","0.0-14.0","5b9dd322f074140001050095","665500ab8938657b03fbdba8","66579577cffc7b15f963d041","914","stimuli/00001100.jpg"," ","","feedback_trial","0","","","","","","","","","","","","","","","","","","","","",""
"","","","","","image-keyboard-response","40","141427","0.0-15.0","5b9dd322f074140001050095","665500ab8938657b03fbdba8","66579577cffc7b15f963d041","1396","stimuli/2101101.jpg","2","","prediction_trial","2","","true","","2","false","false","false","false","false","false","[0,2]","101","101","1","","","","","","",""
"","","","","","image-keyboard-response","41","142296","0.0-16.0","5b9dd322f074140001050095","665500ab8938657b03fbdba8","66579577cffc7b15f963d041","868","stimuli/21011012.jpg"," ","","feedback_trial","0","","","","","","","","","","","","","","","","","","","","",""
"","","","","","image-keyboard-response","42","143521","0.0-17.0","5b9dd322f074140001050095","665500ab8938657b03fbdba8","66579577cffc7b15f963d041","1224","stimuli/0110110.jpg","1","","prediction_trial","0","","false","","0","false","false","false","false","false","false","[1,0]","110","110","0","","","","","","",""
"","","","","","image-keyboard-response","43","144518","0.0-18.0","5b9dd322f074140001050095","665500ab8938657b03fbdba8","66579577cffc7b15f963d041","995","stimuli/01101100.jpg"," ","","feedback_trial","1","","","","","","","","","","","","","","","","","","","","",""
"","","","","","image-keyboard-response","44","145582","0.0-19.0","5b9dd322f074140001050095","665500ab8938657b03fbdba8","66579577cffc7b15f963d041","1064","stimuli/2110000.jpg","2","","prediction_trial","2","","true","","2","true","true","true","true","true","true","[2]","110","000","1","","","","","","",""
"","","","","","image-keyboard-response","45","146390","0.0-20.0","5b9dd322f074140001050095","665500ab8938657b03fbdba8","66579577cffc7b15f963d041","808","stimuli/21100002.jpg"," ","","feedback_trial","2","","","","","","","","","","","","","","","","","","","","",""
"","","","","","image-keyboard-response","46","147801","0.0-21.0","5b9dd322f074140001050095","665500ab8938657b03fbdba8","66579577cffc7b15f963d041","1411","stimuli/0000100.jpg","0","","prediction_trial","0","","true","","0","false","true","true","true","false","true","[0]","000","100","1","","","","","","",""
"","","","","","image-keyboard-response","47","148475","0.0-22.0","5b9dd322f074140001050095","665500ab8938657b03fbdba8","66579577cffc7b15f963d041","673","stimuli/00001000.jpg"," ","","feedback_trial","0","","","","","","","","","","","","","","","","","","","","",""
"","","","","","image-keyboard-response","48","150053","0.0-23.0","5b9dd322f074140001050095","665500ab8938657b03fbdba8","66579577cffc7b15f963d041","1578","stimuli/2000101.jpg","2","","prediction_trial","2","","true","","2","false","false","true","true","false","false","[2]","000","101","1","","","","","","",""
"","","","","","image-keyboard-response","49","150832","0.0-24.0","5b9dd322f074140001050095","665500ab8938657b03fbdba8","66579577cffc7b15f963d041","778","stimuli/20001012.jpg"," ","","feedback_trial","2","","","","","","","","","","","","","","","","","","","","",""
"","","","","","image-keyboard-response","50","153176","0.0-25.0","5b9dd322f074140001050095","665500ab8938657b03fbdba8","66579577cffc7b15f963d041","2343","stimuli/1110010.jpg","0","","prediction_trial","1","","false","","1","false","true","false","false","false","false","[0,1]","110","010","0","","","","","","",""
"","","","","","image-keyboard-response","51","153920","0.0-26.0","5b9dd322f074140001050095","665500ab8938657b03fbdba8","66579577cffc7b15f963d041","743","stimuli/11100101.jpg"," ","","feedback_trial","0","","","","","","","","","","","","","","","","","","","","",""
"","","","","","image-keyboard-response","52","154672","0.0-27.0","5b9dd322f074140001050095","665500ab8938657b03fbdba8","66579577cffc7b15f963d041","751","stimuli/1100100.jpg","1","","prediction_trial","1","","true","","1","true","true","true","true","true","true","[1]","100","100","1","","","","","","",""
"","","","","","image-keyboard-response","53","155315","0.0-28.0","5b9dd322f074140001050095","665500ab8938657b03fbdba8","66579577cffc7b15f963d041","643","stimuli/11001001.jpg"," ","","feedback_trial","1","","","","","","","","","","","","","","","","","","","","",""
"","","","","","image-keyboard-response","54","157041","0.0-29.0","5b9dd322f074140001050095","665500ab8938657b03fbdba8","66579577cffc7b15f963d041","1725","stimuli/0110111.jpg","1","","prediction_trial","1","","true","","0","false","false","false","false","false","false","[0,1]","110","111","1","","","","","","",""
"","","","","","image-keyboard-response","55","157778","0.0-30.0","5b9dd322f074140001050095","665500ab8938657b03fbdba8","66579577cffc7b15f963d041","737","stimuli/01101111.jpg"," ","","feedback_trial","0","","","","","","","","","","","","","","","","","","","","",""
"","","","","","image-keyboard-response","56","159125","0.0-31.0","5b9dd322f074140001050095","665500ab8938657b03fbdba8","66579577cffc7b15f963d041","1346","stimuli/1011011.jpg","2","","prediction_trial","1","","false","","1","false","false","false","false","false","false","[1,2]","011","011","0","","","","","","",""
"","","","","","image-keyboard-response","57","159965","0.0-32.0","5b9dd322f074140001050095","665500ab8938657b03fbdba8","66579577cffc7b15f963d041","839","stimuli/10110111.jpg"," ","","feedback_trial","1","","","","","","","","","","","","","","","","","","","","",""
"","","","","","image-keyboard-response","58","162277","0.0-33.0","5b9dd322f074140001050095","665500ab8938657b03fbdba8","66579577cffc7b15f963d041","2311","stimuli/2001101.jpg","2","","prediction_trial","2","","true","","2","false","false","false","true","false","false","[2]","001","101","1","","","","","","",""
"","","","","","image-keyboard-response","59","162966","0.0-34.0","5b9dd322f074140001050095","665500ab8938657b03fbdba8","66579577cffc7b15f963d041","689","stimuli/20011012.jpg"," ","","feedback_trial","2","","","","","","","","","","","","","","","","","","","","",""
"","","","","","image-keyboard-response","60","164785","0.0-35.0","5b9dd322f074140001050095","665500ab8938657b03fbdba8","66579577cffc7b15f963d041","1817","stimuli/2001110.jpg","2","","prediction_trial","2","","true","","2","true","true","false","true","false","true","[2]","001","110","1","","","","","","",""
"","","","","","image-keyboard-response","61","165439","0.0-36.0","5b9dd322f074140001050095","665500ab8938657b03fbdba8","66579577cffc7b15f963d041","654","stimuli/20011102.jpg"," ","","feedback_trial","2","","","","","","","","","","","","","","","","","","","","",""
"","","","","","image-keyboard-response","62","166295","0.0-37.0","5b9dd322f074140001050095","665500ab8938657b03fbdba8","66579577cffc7b15f963d041","855","stimuli/1000001.jpg","1","","prediction_trial","1","","true","","1","true","true","true","true","true","true","[1]","000","001","1","","","","","","",""
"","","","","","image-keyboard-response","63","166912","0.0-38.0","5b9dd322f074140001050095","665500ab8938657b03fbdba8","66579577cffc7b15f963d041","617","stimuli/10000011.jpg"," ","","feedback_trial","1","","","","","","","","","","","","","","","","","","","","",""
"","","","","","image-keyboard-response","64","169745","0.0-39.0","5b9dd322f074140001050095","665500ab8938657b03fbdba8","66579577cffc7b15f963d041","2832","stimuli/2011101.jpg","2","","prediction_trial","2","","true","","2","false","false","false","false","false","false","[2,1]","011","101","1","","","","","","",""
"","","","","","image-keyboard-response","65","170482","0.0-40.0","5b9dd322f074140001050095","665500ab8938657b03fbdba8","66579577cffc7b15f963d041","736","stimuli/20111012.jpg"," ","","feedback_trial","2","","","","","","","","","","","","","","","","","","","","",""
"","","","","","image-keyboard-response","66","173831","0.0-41.0","5b9dd322f074140001050095","665500ab8938657b03fbdba8","66579577cffc7b15f963d041","3348","stimuli/0001100.jpg","0","","prediction_trial","0","","true","","0","false","true","true","true","false","true","[0]","001","100","1","","","","","","",""
"","","","","","image-keyboard-response","67","174379","0.0-42.0","5b9dd322f074140001050095","665500ab8938657b03fbdba8","66579577cffc7b15f963d041","548","stimuli/00011000.jpg"," ","","feedback_trial","0","","","","","","","","","","","","","","","","","","","","",""
"","","","","","image-keyboard-response","68","175294","0.0-43.0","5b9dd322f074140001050095","665500ab8938657b03fbdba8","66579577cffc7b15f963d041","914","stimuli/0010011.jpg","0","","prediction_trial","0","","true","","0","true","true","true","true","true","true","[0]","010","011","1","","","","","","",""
"","","","","","image-keyboard-response","69","175760","0.0-44.0","5b9dd322f074140001050095","665500ab8938657b03fbdba8","66579577cffc7b15f963d041","466","stimuli/00100110.jpg"," ","","feedback_trial","0","","","","","","","","","","","","","","","","","","","","",""
"","","","","","image-keyboard-response","70","177365","0.0-45.0","5b9dd322f074140001050095","665500ab8938657b03fbdba8","66579577cffc7b15f963d041","1604","stimuli/2100011.jpg","1","","prediction_trial","2","","false","","2","false","false","true","true","false","false","[2]","100","011","0","","","","","","",""
"","","","","","image-keyboard-response","71","178070","0.0-46.0","5b9dd322f074140001050095","665500ab8938657b03fbdba8","66579577cffc7b15f963d041","705","stimuli/21000112.jpg"," ","","feedback_trial","2","","","","","","","","","","","","","","","","","","","","",""
"","","","","","image-keyboard-response","72","179727","0.0-47.0","5b9dd322f074140001050095","665500ab8938657b03fbdba8","66579577cffc7b15f963d041","1656","stimuli/1010011.jpg","2","","prediction_trial","1","","false","","1","false","false","false","true","false","false","[1]","010","011","0","","","","","","",""
"","","","","","image-keyboard-response","73","180456","0.0-48.0","5b9dd322f074140001050095","665500ab8938657b03fbdba8","66579577cffc7b15f963d041","728","stimuli/10100111.jpg"," ","","feedback_trial","1","","","","","","","","","","","","","","","","","","","","",""
"","","","","","image-keyboard-response","74","182345","0.0-49.0","5b9dd322f074140001050095","665500ab8938657b03fbdba8","66579577cffc7b15f963d041","1888","stimuli/0110001.jpg","0","","prediction_trial","0","","true","","0","true","true","false","false","false","false","[1,0]","110","001","1","","","","","","",""
"","","","","","image-keyboard-response","75","182928","0.0-50.0","5b9dd322f074140001050095","665500ab8938657b03fbdba8","66579577cffc7b15f963d041","583","stimuli/01100010.jpg"," ","","feedback_trial","1","","","","","","","","","","","","","","","","","","","","",""
"","","","","","image-keyboard-response","76","184099","0.0-51.0","5b9dd322f074140001050095","665500ab8938657b03fbdba8","66579577cffc7b15f963d041","1170","stimuli/0111000.jpg","0","","prediction_trial","0","","true","","0","true","true","false","false","false","false","[1,0,2]","111","000","1","","","","","","",""
"","","","","","image-keyboard-response","77","184698","0.0-52.0","5b9dd322f074140001050095","665500ab8938657b03fbdba8","66579577cffc7b15f963d041","600","stimuli/01110000.jpg"," ","","feedback_trial","1","","","","","","","","","","","","","","","","","","","","",""
"","","","","","image-keyboard-response","78","186411","0.0-53.0","5b9dd322f074140001050095","665500ab8938657b03fbdba8","66579577cffc7b15f963d041","1712","stimuli/1001010.jpg","1","","prediction_trial","1","","true","","1","false","true","true","true","false","true","[1]","001","010","1","","","","","","",""
"","","","","","image-keyboard-response","79","187023","0.0-54.0","5b9dd322f074140001050095","665500ab8938657b03fbdba8","66579577cffc7b15f963d041","612","stimuli/10010101.jpg"," ","","feedback_trial","1","","","","","","","","","","","","","","","","","","","","",""
"","","","","","image-keyboard-response","80","188437","0.0-55.0","5b9dd322f074140001050095","665500ab8938657b03fbdba8","66579577cffc7b15f963d041","1413","stimuli/0010101.jpg","0","","prediction_trial","0","","true","","0","false","false","true","true","false","false","[0]","010","101","1","","","","","","",""
"","","","","","image-keyboard-response","81","189003","0.0-56.0","5b9dd322f074140001050095","665500ab8938657b03fbdba8","66579577cffc7b15f963d041","566","stimuli/00101010.jpg"," ","","feedback_trial","0","","","","","","","","","","","","","","","","","","","","",""
"","","","","","image-keyboard-response","82","190460","0.0-57.0","5b9dd322f074140001050095","665500ab8938657b03fbdba8","66579577cffc7b15f963d041","1457","stimuli/1000110.jpg","1","","prediction_trial","1","","true","","1","false","false","true","true","false","false","[1]","000","110","1","","","","","","",""
"","","","","","image-keyboard-response","83","191088","0.0-58.0","5b9dd322f074140001050095","665500ab8938657b03fbdba8","66579577cffc7b15f963d041","627","stimuli/10001101.jpg"," ","","feedback_trial","1","","","","","","","","","","","","","","","","","","","","",""
"","","","","","image-keyboard-response","84","192349","0.0-59.0","5b9dd322f074140001050095","665500ab8938657b03fbdba8","66579577cffc7b15f963d041","1261","stimuli/0110000.jpg","0","","prediction_trial","1","","false","","0","true","true","false","false","false","false","[0,1]","110","000","0","","","","","","",""
"","","","","","image-keyboard-response","85","192921","0.0-60.0","5b9dd322f074140001050095","665500ab8938657b03fbdba8","66579577cffc7b15f963d041","571","stimuli/01100001.jpg"," ","","feedback_trial","0","","","","","","","","","","","","","","","","","","","","",""
"","","","","","image-keyboard-response","86","194000","0.0-61.0","5b9dd322f074140001050095","665500ab8938657b03fbdba8","66579577cffc7b15f963d041","1078","stimuli/2100010.jpg","2","","prediction_trial","2","","true","","2","true","true","true","true","true","true","[2]","100","010","1","","","","","","",""
"","","","","","image-keyboard-response","87","194478","0.0-62.0","5b9dd322f074140001050095","665500ab8938657b03fbdba8","66579577cffc7b15f963d041","477","stimuli/21000102.jpg"," ","","feedback_trial","2","","","","","","","","","","","","","","","","","","","","",""
"","","","","","image-keyboard-response","88","196144","0.0-63.0","5b9dd322f074140001050095","665500ab8938657b03fbdba8","66579577cffc7b15f963d041","1666","stimuli/2110101.jpg","2","","prediction_trial","2","","true","","2","false","false","true","true","false","false","[2]","110","101","1","","","","","","",""
"","","","","","image-keyboard-response","89","196669","0.0-64.0","5b9dd322f074140001050095","665500ab8938657b03fbdba8","66579577cffc7b15f963d041","525","stimuli/21101012.jpg"," ","","feedback_trial","2","","","","","","","","","","","","","","","","","","","","",""
"","","","","","image-keyboard-response","90","197961","0.0-65.0","5b9dd322f074140001050095","665500ab8938657b03fbdba8","66579577cffc7b15f963d041","1291","stimuli/1111100.jpg","1","","prediction_trial","2","","false","","1","true","true","false","false","false","false","[1,2,0]","111","100","0","","","","","","",""
"","","","","","image-keyboard-response","91","198558","0.0-66.0","5b9dd322f074140001050095","665500ab8938657b03fbdba8","66579577cffc7b15f963d041","596","stimuli/11111002.jpg"," ","","feedback_trial","1","","","","","","","","","","","","","","","","","","","","",""
"","","","","","image-keyboard-response","92","200021","0.0-67.0","5b9dd322f074140001050095","665500ab8938657b03fbdba8","66579577cffc7b15f963d041","1462","stimuli/0101101.jpg","0","","prediction_trial","0","","true","","0","false","false","false","false","false","false","[0,2]","101","101","1","","","","","","",""
"","","","","","image-keyboard-response","93","200897","0.0-68.0","5b9dd322f074140001050095","665500ab8938657b03fbdba8","66579577cffc7b15f963d041","876","stimuli/01011010.jpg"," ","","feedback_trial","0","","","","","","","","","","","","","","","","","","","","",""
"","","","","","image-keyboard-response","94","203268","0.0-69.0","5b9dd322f074140001050095","665500ab8938657b03fbdba8","66579577cffc7b15f963d041","2370","stimuli/1011010.jpg","1","","prediction_trial","2","","false","","1","false","true","false","false","false","false","[1,2]","011","010","0","","","","","","",""
"","","","","","image-keyboard-response","95","203913","0.0-70.0","5b9dd322f074140001050095","665500ab8938657b03fbdba8","66579577cffc7b15f963d041","645","stimuli/10110102.jpg"," ","","feedback_trial","1","","","","","","","","","","","","","","","","","","","","",""
"","","","","","image-keyboard-response","96","206349","0.0-71.0","5b9dd322f074140001050095","665500ab8938657b03fbdba8","66579577cffc7b15f963d041","2435","stimuli/1010111.jpg","1","","prediction_trial","1","","true","","1","false","false","false","true","false","false","[1]","010","111","1","","","","","","",""
"","","","","","image-keyboard-response","97","206973","0.0-72.0","5b9dd322f074140001050095","665500ab8938657b03fbdba8","66579577cffc7b15f963d041","623","stimuli/10101111.jpg"," ","","feedback_trial","1","","","","","","","","","","","","","","","","","","","","",""
"","","","","","image-keyboard-response","98","207922","0.0-73.0","5b9dd322f074140001050095","665500ab8938657b03fbdba8","66579577cffc7b15f963d041","949","stimuli/2101111.jpg","2","","prediction_trial","2","","true","","2","false","false","false","false","false","false","[0,2]","101","111","1","","","","","","",""
"","","","","","image-keyboard-response","99","208563","0.0-74.0","5b9dd322f074140001050095","665500ab8938657b03fbdba8","66579577cffc7b15f963d041","641","stimuli/21011112.jpg"," ","","feedback_trial","0","","","","","","","","","","","","","","","","","","","","",""
"","","","","","image-keyboard-response","100","210577","0.0-75.0","5b9dd322f074140001050095","665500ab8938657b03fbdba8","66579577cffc7b15f963d041","2013","stimuli/2100001.jpg","2","","prediction_trial","2","","true","","2","false","true","true","true","false","true","[2]","100","001","1","","","","","","",""
"","","","","","image-keyboard-response","101","211082","0.0-76.0","5b9dd322f074140001050095","665500ab8938657b03fbdba8","66579577cffc7b15f963d041","505","stimuli/21000012.jpg"," ","","feedback_trial","2","","","","","","","","","","","","","","","","","","","","",""
"","","","","","image-keyboard-response","102","212568","0.0-77.0","5b9dd322f074140001050095","665500ab8938657b03fbdba8","66579577cffc7b15f963d041","1486","stimuli/1010010.jpg","1","","prediction_trial","1","","true","","1","false","true","false","true","false","true","[1]","010","010","1","","","","","","",""
"","","","","","image-keyboard-response","103","213108","0.0-78.0","5b9dd322f074140001050095","665500ab8938657b03fbdba8","66579577cffc7b15f963d041","539","stimuli/10100101.jpg"," ","","feedback_trial","1","","","","","","","","","","","","","","","","","","","","",""
"","","","","","image-keyboard-response","104","213876","0.0-79.0","5b9dd322f074140001050095","665500ab8938657b03fbdba8","66579577cffc7b15f963d041","768","stimuli/1001000.jpg","1","","prediction_trial","1","","true","","1","true","true","true","true","true","true","[1]","001","000","1","","","","","","",""
"","","","","","image-keyboard-response","105","214322","0.0-80.0","5b9dd322f074140001050095","665500ab8938657b03fbdba8","66579577cffc7b15f963d041","445","stimuli/10010001.jpg"," ","","feedback_trial","1","","","","","","","","","","","","","","","","","","","","",""
"","","","","","image-keyboard-response","106","215889","0.0-81.0","5b9dd322f074140001050095","665500ab8938657b03fbdba8","66579577cffc7b15f963d041","1566","stimuli/1010101.jpg","1","","prediction_trial","1","","true","","1","true","true","false","true","false","true","[1]","010","101","1","","","","","","",""
"","","","","","image-keyboard-response","107","216317","0.0-82.0","5b9dd322f074140001050095","665500ab8938657b03fbdba8","66579577cffc7b15f963d041","427","stimuli/10101011.jpg"," ","","feedback_trial","1","","","","","","","","","","","","","","","","","","","","",""
"","","","","","image-keyboard-response","108","217989","0.0-83.0","5b9dd322f074140001050095","665500ab8938657b03fbdba8","66579577cffc7b15f963d041","1672","stimuli/2111011.jpg","2","","prediction_trial","1","","false","","2","false","false","false","false","false","false","[2,1,0]","111","011","0","","","","","","",""
"","","","","","image-keyboard-response","109","218568","0.0-84.0","5b9dd322f074140001050095","665500ab8938657b03fbdba8","66579577cffc7b15f963d041","578","stimuli/21110111.jpg"," ","","feedback_trial","2","","","","","","","","","","","","","","","","","","","","",""
"","","","","","image-keyboard-response","110","220420","0.0-85.0","5b9dd322f074140001050095","665500ab8938657b03fbdba8","66579577cffc7b15f963d041","1852","stimuli/2101011.jpg","2","","prediction_trial","2","","true","","2","false","false","false","false","false","false","[2,0]","101","011","1","","","","","","",""
"","","","","","image-keyboard-response","111","220982","0.0-86.0","5b9dd322f074140001050095","665500ab8938657b03fbdba8","66579577cffc7b15f963d041","559","stimuli/21010112.jpg"," ","","feedback_trial","2","","","","","","","","","","","","","","","","","","","","",""
"","","","","","image-keyboard-response","112","222963","0.0-87.0","5b9dd322f074140001050095","665500ab8938657b03fbdba8","66579577cffc7b15f963d041","1981","stimuli/0001111.jpg","2","","prediction_trial","0","","false","","0","false","false","true","true","false","false","[0]","001","111","0","","","","","","",""
"","","","","","image-keyboard-response","113","223593","0.0-88.0","5b9dd322f074140001050095","665500ab8938657b03fbdba8","66579577cffc7b15f963d041","630","stimuli/00011110.jpg"," ","","feedback_trial","0","","","","","","","","","","","","","","","","","","","","",""
"","","","","","image-keyboard-response","114","225305","0.0-89.0","5b9dd322f074140001050095","665500ab8938657b03fbdba8","66579577cffc7b15f963d041","1711","stimuli/1100110.jpg","1","","prediction_trial","1","","true","","1","false","false","true","true","false","false","[1]","100","110","1","","","","","","",""
"","","","","","image-keyboard-response","115","225851","0.0-90.0","5b9dd322f074140001050095","665500ab8938657b03fbdba8","66579577cffc7b15f963d041","545","stimuli/11001101.jpg"," ","","feedback_trial","1","","","","","","","","","","","","","","","","","","","","",""
"","","","","","image-keyboard-response","116","226727","0.0-91.0","5b9dd322f074140001050095","665500ab8938657b03fbdba8","66579577cffc7b15f963d041","875","stimuli/2100000.jpg","2","","prediction_trial","2","","true","","2","true","true","true","true","true","true","[2]","100","000","1","","","","","","",""
"","","","","","image-keyboard-response","117","227161","0.0-92.0","5b9dd322f074140001050095","665500ab8938657b03fbdba8","66579577cffc7b15f963d041","434","stimuli/21000002.jpg"," ","","feedback_trial","2","","","","","","","","","","","","","","","","","","","","",""
"","","","","","image-keyboard-response","118","228442","0.0-93.0","5b9dd322f074140001050095","665500ab8938657b03fbdba8","66579577cffc7b15f963d041","1280","stimuli/1001011.jpg","1","","prediction_trial","1","","true","","1","false","false","true","true","false","false","[1]","001","011","1","","","","","","",""
"","","","","","image-keyboard-response","119","228932","0.0-94.0","5b9dd322f074140001050095","665500ab8938657b03fbdba8","66579577cffc7b15f963d041","490","stimuli/10010111.jpg"," ","","feedback_trial","1","","","","","","","","","","","","","","","","","","","","",""
"","","","","","image-keyboard-response","120","229757","0.0-95.0","5b9dd322f074140001050095","665500ab8938657b03fbdba8","66579577cffc7b15f963d041","824","stimuli/1100000.jpg","1","","prediction_trial","1","","true","","1","true","true","true","true","true","true","[1]","100","000","1","","","","","","",""
"","","","","","image-keyboard-response","121","230194","0.0-96.0","5b9dd322f074140001050095","665500ab8938657b03fbdba8","66579577cffc7b15f963d041","437","stimuli/11000001.jpg"," ","","feedback_trial","1","","","","","","","","","","","","","","","","","","","","",""
"","","","","","image-keyboard-response","122","232205","0.0-97.0","5b9dd322f074140001050095","665500ab8938657b03fbdba8","66579577cffc7b15f963d041","2010","stimuli/0101110.jpg","0","","prediction_trial","0","","true","","0","false","false","false","false","false","false","[2,0]","101","110","1","","","","","","",""
"","","","","","image-keyboard-response","123","232726","0.0-98.0","5b9dd322f074140001050095","665500ab8938657b03fbdba8","66579577cffc7b15f963d041","520","stimuli/01011100.jpg"," ","","feedback_trial","2","","","","","","","","","","","","","","","","","","","","",""
"","","","","","image-keyboard-response","124","234767","0.0-99.0","5b9dd322f074140001050095","665500ab8938657b03fbdba8","66579577cffc7b15f963d041","2040","stimuli/0100101.jpg","0","","prediction_trial","0","","true","","0","false","false","false","true","false","false","[0]","100","101","1","","","","","","",""
"","","","","","image-keyboard-response","125","235261","0.0-100.0","5b9dd322f074140001050095","665500ab8938657b03fbdba8","66579577cffc7b15f963d041","494","stimuli/01001010.jpg"," ","","feedback_trial","0","","","","","","","","","","","","","","","","","","","","",""
"","","","","","image-keyboard-response","126","236416","0.0-101.0","5b9dd322f074140001050095","665500ab8938657b03fbdba8","66579577cffc7b15f963d041","1155","stimuli/0100111.jpg","0","","prediction_trial","0","","true","","0","false","false","false","true","false","false","[0]","100","111","1","","","","","","",""
"","","","","","image-keyboard-response","127","236911","0.0-102.0","5b9dd322f074140001050095","665500ab8938657b03fbdba8","66579577cffc7b15f963d041","495","stimuli/01001110.jpg"," ","","feedback_trial","0","","","","","","","","","","","","","","","","","","","","",""
"","","","","","image-keyboard-response","128","237976","0.0-103.0","5b9dd322f074140001050095","665500ab8938657b03fbdba8","66579577cffc7b15f963d041","1065","stimuli/1110101.jpg","1","","prediction_trial","0","","false","","1","true","true","false","false","false","false","[0,1]","110","101","0","","","","","","",""
"","","","","","image-keyboard-response","129","238547","0.0-104.0","5b9dd322f074140001050095","665500ab8938657b03fbdba8","66579577cffc7b15f963d041","570","stimuli/11101010.jpg"," ","","feedback_trial","0","","","","","","","","","","","","","","","","","","","","",""
"","","","","","image-keyboard-response","130","239556","0.0-105.0","5b9dd322f074140001050095","665500ab8938657b03fbdba8","66579577cffc7b15f963d041","1008","stimuli/1110001.jpg","1","","prediction_trial","0","","false","","1","true","true","false","false","false","false","[1,0]","110","001","0","","","","","","",""
"","","","","","image-keyboard-response","131","240051","0.0-106.0","5b9dd322f074140001050095","665500ab8938657b03fbdba8","66579577cffc7b15f963d041","495","stimuli/11100010.jpg"," ","","feedback_trial","1","","","","","","","","","","","","","","","","","","","","",""
"","","","","","image-keyboard-response","132","241054","0.0-107.0","5b9dd322f074140001050095","665500ab8938657b03fbdba8","66579577cffc7b15f963d041","1002","stimuli/0100000.jpg","0","","prediction_trial","0","","true","","0","true","true","false","true","false","true","[0]","100","000","1","","","","","","",""
"","","","","","image-keyboard-response","133","241486","0.0-108.0","5b9dd322f074140001050095","665500ab8938657b03fbdba8","66579577cffc7b15f963d041","431","stimuli/01000000.jpg"," ","","feedback_trial","0","","","","","","","","","","","","","","","","","","","","",""
"","","","","","image-keyboard-response","134","242582","0.0-109.0","5b9dd322f074140001050095","665500ab8938657b03fbdba8","66579577cffc7b15f963d041","1095","stimuli/2011100.jpg","2","","prediction_trial","1","","false","","2","true","true","false","false","false","false","[2,1]","011","100","0","","","","","","",""
"","","","","","image-keyboard-response","135","243136","0.0-110.0","5b9dd322f074140001050095","665500ab8938657b03fbdba8","66579577cffc7b15f963d041","554","stimuli/20111001.jpg"," ","","feedback_trial","2","","","","","","","","","","","","","","","","","","","","",""
"","","","","","image-keyboard-response","136","245222","0.0-111.0","5b9dd322f074140001050095","665500ab8938657b03fbdba8","66579577cffc7b15f963d041","2086","stimuli/0110101.jpg","1","","prediction_trial","1","","true","","0","false","false","false","false","false","false","[0,1]","110","101","1","","","","","","",""
"","","","","","image-keyboard-response","137","245775","0.0-112.0","5b9dd322f074140001050095","665500ab8938657b03fbdba8","66579577cffc7b15f963d041","553","stimuli/01101011.jpg"," ","","feedback_trial","0","","","","","","","","","","","","","","","","","","","","",""
"","","","","","image-keyboard-response","138","246908","0.0-113.0","5b9dd322f074140001050095","665500ab8938657b03fbdba8","66579577cffc7b15f963d041","1132","stimuli/2011110.jpg","2","","prediction_trial","2","","true","","2","true","true","false","false","false","false","[1,2]","011","110","1","","","","","","",""
"","","","","","image-keyboard-response","139","247695","0.0-114.0","5b9dd322f074140001050095","665500ab8938657b03fbdba8","66579577cffc7b15f963d041","786","stimuli/20111102.jpg"," ","","feedback_trial","1","","","","","","","","","","","","","","","","","","","","",""
"","","","","","image-keyboard-response","140","249226","0.0-115.0","5b9dd322f074140001050095","665500ab8938657b03fbdba8","66579577cffc7b15f963d041","1530","stimuli/2100101.jpg","0","","prediction_trial","2","","false","","2","false","false","true","true","false","false","[2]","100","101","0","","","","","","",""
"","","","","","image-keyboard-response","141","249845","0.0-116.0","5b9dd322f074140001050095","665500ab8938657b03fbdba8","66579577cffc7b15f963d041","619","stimuli/21001012.jpg"," ","","feedback_trial","2","","","","","","","","","","","","","","","","","","","","",""
"","","","","","image-keyboard-response","142","252003","0.0-117.0","5b9dd322f074140001050095","665500ab8938657b03fbdba8","66579577cffc7b15f963d041","2157","stimuli/1101110.jpg","1","","prediction_trial","1","","true","","1","false","false","true","true","false","false","[1]","101","110","1","","","","","","",""
"","","","","","image-keyboard-response","143","252525","0.0-118.0","5b9dd322f074140001050095","665500ab8938657b03fbdba8","66579577cffc7b15f963d041","521","stimuli/11011101.jpg"," ","","feedback_trial","1","","","","","","","","","","","","","","","","","","","","",""
"","","","","","image-keyboard-response","144","254190","0.0-119.0","5b9dd322f074140001050095","665500ab8938657b03fbdba8","66579577cffc7b15f963d041","1665","stimuli/1111101.jpg","1","","prediction_trial","0","","false","","1","true","true","false","false","false","false","[1,2,0]","111","101","0","","","","","","",""
"","","","","","image-keyboard-response","145","254760","0.0-120.0","5b9dd322f074140001050095","665500ab8938657b03fbdba8","66579577cffc7b15f963d041","570","stimuli/11111010.jpg"," ","","feedback_trial","1","","","","","","","","","","","","","","","","","","","","",""
"","","","","","image-keyboard-response","146","256396","0.0-121.0","5b9dd322f074140001050095","665500ab8938657b03fbdba8","66579577cffc7b15f963d041","1636","stimuli/1111010.jpg","0","","prediction_trial","0","","true","","1","false","true","false","false","false","false","[2,1,0]","111","010","1","","","","","","",""
"","","","","","image-keyboard-response","147","256950","0.0-122.0","5b9dd322f074140001050095","665500ab8938657b03fbdba8","66579577cffc7b15f963d041","553","stimuli/11110100.jpg"," ","","feedback_trial","2","","","","","","","","","","","","","","","","","","","","",""
"","","","","","image-keyboard-response","148","258054","0.0-123.0","5b9dd322f074140001050095","665500ab8938657b03fbdba8","66579577cffc7b15f963d041","1103","stimuli/0101001.jpg","0","","prediction_trial","2","","false","","0","true","true","false","false","false","false","[0,2]","101","001","0","","","","","","",""
"","","","","","image-keyboard-response","149","258934","0.0-124.0","5b9dd322f074140001050095","665500ab8938657b03fbdba8","66579577cffc7b15f963d041","879","stimuli/01010012.jpg"," ","","feedback_trial","0","","","","","","","","","","","","","","","","","","","","",""
"","","","","","image-keyboard-response","150","260132","0.0-125.0","5b9dd322f074140001050095","665500ab8938657b03fbdba8","66579577cffc7b15f963d041","1197","stimuli/0100100.jpg","0","","prediction_trial","0","","true","","0","false","true","false","true","false","true","[0]","100","100","1","","","","","","",""
"","","","","","image-keyboard-response","151","260640","0.0-126.0","5b9dd322f074140001050095","665500ab8938657b03fbdba8","66579577cffc7b15f963d041","508","stimuli/01001000.jpg"," ","","feedback_trial","0","","","","","","","","","","","","","","","","","","","","",""
"","","","","","image-keyboard-response","152","262641","0.0-127.0","5b9dd322f074140001050095","665500ab8938657b03fbdba8","66579577cffc7b15f963d041","2000","stimuli/1101011.jpg","1","","prediction_trial","1","","true","","1","false","false","true","true","false","false","[1]","101","011","1","","","","","","",""
"","","","","","image-keyboard-response","153","263145","0.0-128.0","5b9dd322f074140001050095","665500ab8938657b03fbdba8","66579577cffc7b15f963d041","504","stimuli/11010111.jpg"," ","","feedback_trial","1","","","","","","","","","","","","","","","","","","","","",""
"","","","","","image-keyboard-response","154","264030","0.0-129.0","5b9dd322f074140001050095","665500ab8938657b03fbdba8","66579577cffc7b15f963d041","885","stimuli/0010001.jpg","0","","prediction_trial","0","","true","","0","true","true","true","true","true","true","[0]","010","001","1","","","","","","",""
"","","","","","image-keyboard-response","155","264450","0.0-130.0","5b9dd322f074140001050095","665500ab8938657b03fbdba8","66579577cffc7b15f963d041","419","stimuli/00100010.jpg"," ","","feedback_trial","0","","","","","","","","","","","","","","","","","","","","",""
"","","","","","image-keyboard-response","156","265769","0.0-131.0","5b9dd322f074140001050095","665500ab8938657b03fbdba8","66579577cffc7b15f963d041","1319","stimuli/0000101.jpg","2","","prediction_trial","0","","false","","0","false","false","true","true","false","false","[0]","000","101","0","","","","","","",""
"","","","","","image-keyboard-response","157","268068","0.0-132.0","5b9dd322f074140001050095","665500ab8938657b03fbdba8","66579577cffc7b15f963d041","2299","stimuli/00001010.jpg"," ","","feedback_trial","0","","","","","","","","","","","","","","","","","","","","",""
"","","","","","image-keyboard-response","158","269431","0.0-133.0","5b9dd322f074140001050095","665500ab8938657b03fbdba8","66579577cffc7b15f963d041","1361","stimuli/1110110.jpg","1","","prediction_trial","0","","false","","1","false","false","false","false","false","false","[0,1]","110","110","0","","","","","","",""
"","","","","","image-keyboard-response","159","270751","0.0-134.0","5b9dd322f074140001050095","665500ab8938657b03fbdba8","66579577cffc7b15f963d041","1320","stimuli/11101100.jpg"," ","","feedback_trial","0","","","","","","","","","","","","","","","","","","","","",""
"","","","","","image-keyboard-response","160","272239","0.0-135.0","5b9dd322f074140001050095","665500ab8938657b03fbdba8","66579577cffc7b15f963d041","1488","stimuli/2000011.jpg","1","","prediction_trial","2","","false","","2","false","false","true","true","false","false","[2]","000","011","0","","","","","","",""
"","","","","","image-keyboard-response","161","272819","0.0-136.0","5b9dd322f074140001050095","665500ab8938657b03fbdba8","66579577cffc7b15f963d041","580","stimuli/20000112.jpg"," ","","feedback_trial","2","","","","","","","","","","","","","","","","","","","","",""
"","","","","","image-keyboard-response","162","273995","0.0-137.0","5b9dd322f074140001050095","665500ab8938657b03fbdba8","66579577cffc7b15f963d041","1174","stimuli/0011111.jpg","2","","prediction_trial","0","","false","","0","false","false","true","true","false","false","[0]","011","111","0","","","","","","",""
"","","","","","image-keyboard-response","163","274514","0.0-138.0","5b9dd322f074140001050095","665500ab8938657b03fbdba8","66579577cffc7b15f963d041","518","stimuli/00111110.jpg"," ","","feedback_trial","0","","","","","","","","","","","","","","","","","","","","",""
"","","","","","image-keyboard-response","164","275490","0.0-139.0","5b9dd322f074140001050095","665500ab8938657b03fbdba8","66579577cffc7b15f963d041","976","stimuli/0000010.jpg","0","","prediction_trial","0","","true","","0","true","true","true","true","true","true","[0]","000","010","1","","","","","","",""
"","","","","","image-keyboard-response","165","275910","0.0-140.0","5b9dd322f074140001050095","665500ab8938657b03fbdba8","66579577cffc7b15f963d041","419","stimuli/00000100.jpg"," ","","feedback_trial","0","","","","","","","","","","","","","","","","","","","","",""
"","","","","","image-keyboard-response","166","277280","0.0-141.0","5b9dd322f074140001050095","665500ab8938657b03fbdba8","66579577cffc7b15f963d041","1369","stimuli/0110100.jpg","0","","prediction_trial","0","","true","","0","false","true","false","false","false","false","[0,1]","110","100","1","","","","","","",""
"","","","","","image-keyboard-response","167","277860","0.0-142.0","5b9dd322f074140001050095","665500ab8938657b03fbdba8","66579577cffc7b15f963d041","579","stimuli/01101000.jpg"," ","","feedback_trial","0","","","","","","","","","","","","","","","","","","","","",""
"","","","","","image-keyboard-response","168","279573","0.0-143.0","5b9dd322f074140001050095","665500ab8938657b03fbdba8","66579577cffc7b15f963d041","1712","stimuli/2111001.jpg","1","","prediction_trial","1","","true","","2","false","true","false","false","false","false","[0,1,2]","111","001","1","","","","","","",""
"","","","","","image-keyboard-response","169","280049","0.0-144.0","5b9dd322f074140001050095","665500ab8938657b03fbdba8","66579577cffc7b15f963d041","476","stimuli/21110011.jpg"," ","","feedback_trial","0","","","","","","","","","","","","","","","","","","","","",""
"","","","","","image-keyboard-response","170","280950","0.0-145.0","5b9dd322f074140001050095","665500ab8938657b03fbdba8","66579577cffc7b15f963d041","900","stimuli/2111110.jpg","2","","prediction_trial","2","","true","","2","true","true","false","false","false","false","[0,1,2]","111","110","1","","","","","","",""
"","","","","","image-keyboard-response","171","281504","0.0-146.0","5b9dd322f074140001050095","665500ab8938657b03fbdba8","66579577cffc7b15f963d041","553","stimuli/21111102.jpg"," ","","feedback_trial","0","","","","","","","","","","","","","","","","","","","","",""
"","","","","","image-keyboard-response","172","282749","0.0-147.0","5b9dd322f074140001050095","665500ab8938657b03fbdba8","66579577cffc7b15f963d041","1245","stimuli/0001101.jpg","2","","prediction_trial","0","","false","","0","false","false","true","true","false","false","[0]","001","101","0","","","","","","",""
"","","","","","image-keyboard-response","173","283288","0.0-148.0","5b9dd322f074140001050095","665500ab8938657b03fbdba8","66579577cffc7b15f963d041","539","stimuli/00011010.jpg"," ","","feedback_trial","0","","","","","","","","","","","","","","","","","","","","",""
"","","","","","image-keyboard-response","174","284025","0.0-149.0","5b9dd322f074140001050095","665500ab8938657b03fbdba8","66579577cffc7b15f963d041","736","stimuli/2000000.jpg","2","","prediction_trial","2","","true","","2","true","true","true","true","true","true","[2]","000","000","1","","","","","","",""
"","","","","","image-keyboard-response","175","284519","0.0-150.0","5b9dd322f074140001050095","665500ab8938657b03fbdba8","66579577cffc7b15f963d041","494","stimuli/20000002.jpg"," ","","feedback_trial","2","","","","","","","","","","","","","","","","","","","","",""
"","","","","","image-keyboard-response","176","285734","0.0-151.0","5b9dd322f074140001050095","665500ab8938657b03fbdba8","66579577cffc7b15f963d041","1215","stimuli/1010100.jpg","1","","prediction_trial","1","","true","","1","true","true","false","true","false","true","[1]","010","100","1","","","","","","",""
"","","","","","image-keyboard-response","177","286202","0.0-152.0","5b9dd322f074140001050095","665500ab8938657b03fbdba8","66579577cffc7b15f963d041","468","stimuli/10101001.jpg"," ","","feedback_trial","1","","","","","","","","","","","","","","","","","","","","",""
"","","","","","image-keyboard-response","178","289339","0.0-153.0","5b9dd322f074140001050095","665500ab8938657b03fbdba8","66579577cffc7b15f963d041","3136","stimuli/0101100.jpg","0","","prediction_trial","0","","true","","0","false","true","false","false","false","false","[0,2]","101","100","1","","","","","","",""
"","","","","","image-keyboard-response","179","289814","0.0-154.0","5b9dd322f074140001050095","665500ab8938657b03fbdba8","66579577cffc7b15f963d041","474","stimuli/01011000.jpg"," ","","feedback_trial","0","","","","","","","","","","","","","","","","","","","","",""
"","","","","","image-keyboard-response","180","290834","0.0-155.0","5b9dd322f074140001050095","665500ab8938657b03fbdba8","66579577cffc7b15f963d041","1020","stimuli/0010111.jpg","1","","prediction_trial","0","","false","","0","false","false","true","true","false","false","[0]","010","111","0","","","","","","",""
"","","","","","image-keyboard-response","181","291434","0.0-156.0","5b9dd322f074140001050095","665500ab8938657b03fbdba8","66579577cffc7b15f963d041","599","stimuli/00101110.jpg"," ","","feedback_trial","0","","","","","","","","","","","","","","","","","","","","",""
"","","","","","image-keyboard-response","182","292094","0.0-157.0","5b9dd322f074140001050095","665500ab8938657b03fbdba8","66579577cffc7b15f963d041","660","stimuli/2110100.jpg","2","","prediction_trial","2","","true","","2","true","true","true","true","true","true","[2]","110","100","1","","","","","","",""
"","","","","","image-keyboard-response","183","292589","0.0-158.0","5b9dd322f074140001050095","665500ab8938657b03fbdba8","66579577cffc7b15f963d041","494","stimuli/21101002.jpg"," ","","feedback_trial","2","","","","","","","","","","","","","","","","","","","","",""
"","","","","","image-keyboard-response","184","293790","0.0-159.0","5b9dd322f074140001050095","665500ab8938657b03fbdba8","66579577cffc7b15f963d041","1201","stimuli/2101100.jpg","2","","prediction_trial","0","","false","","2","true","true","false","false","false","false","[2,0]","101","100","0","","","","","","",""
"","","","","","image-keyboard-response","185","294689","0.0-160.0","5b9dd322f074140001050095","665500ab8938657b03fbdba8","66579577cffc7b15f963d041","898","stimuli/21011000.jpg"," ","","feedback_trial","2","","","","","","","","","","","","","","","","","","","","",""
"","","","","","image-keyboard-response","186","296308","0.0-161.0","5b9dd322f074140001050095","665500ab8938657b03fbdba8","66579577cffc7b15f963d041","1619","stimuli/1100011.jpg","1","","prediction_trial","1","","true","","1","false","false","true","true","false","false","[1]","100","011","1","","","","","","",""
"","","","","","image-keyboard-response","187","296791","0.0-162.0","5b9dd322f074140001050095","665500ab8938657b03fbdba8","66579577cffc7b15f963d041","482","stimuli/11000111.jpg"," ","","feedback_trial","1","","","","","","","","","","","","","","","","","","","","",""
"","","","","","image-keyboard-response","188","298063","0.0-163.0","5b9dd322f074140001050095","665500ab8938657b03fbdba8","66579577cffc7b15f963d041","1271","stimuli/2111101.jpg","2","","prediction_trial","2","","true","","2","false","false","false","false","false","false","[2,0,1]","111","101","1","","","","","","",""
"","","","","","image-keyboard-response","189","298633","0.0-164.0","5b9dd322f074140001050095","665500ab8938657b03fbdba8","66579577cffc7b15f963d041","570","stimuli/21111012.jpg"," ","","feedback_trial","2","","","","","","","","","","","","","","","","","","","","",""
"","","","","","image-keyboard-response","190","299579","0.0-165.0","5b9dd322f074140001050095","665500ab8938657b03fbdba8","66579577cffc7b15f963d041","945","stimuli/2010100.jpg","2","","prediction_trial","2","","true","","2","true","true","true","true","true","true","[2]","010","100","1","","","","","","",""
"","","","","","image-keyboard-response","191","299954","0.0-166.0","5b9dd322f074140001050095","665500ab8938657b03fbdba8","66579577cffc7b15f963d041","375","stimuli/20101002.jpg"," ","","feedback_trial","2","","","","","","","","","","","","","","","","","","","","",""
"","","","","","image-keyboard-response","192","301769","0.0-167.0","5b9dd322f074140001050095","665500ab8938657b03fbdba8","66579577cffc7b15f963d041","1814","stimuli/1011100.jpg","1","","prediction_trial","2","","false","","1","true","true","false","false","false","false","[2,1]","011","100","0","","","","","","",""
"","","","","","image-keyboard-response","193","302234","0.0-168.0","5b9dd322f074140001050095","665500ab8938657b03fbdba8","66579577cffc7b15f963d041","465","stimuli/10111002.jpg"," ","","feedback_trial","2","","","","","","","","","","","","","","","","","","","","",""
"","","","","","image-keyboard-response","194","303327","0.0-169.0","5b9dd322f074140001050095","665500ab8938657b03fbdba8","66579577cffc7b15f963d041","1093","stimuli/2110010.jpg","2","","prediction_trial","2","","true","","2","true","true","true","true","true","true","[2]","110","010","1","","","","","","",""
"","","","","","image-keyboard-response","195","303703","0.0-170.0","5b9dd322f074140001050095","665500ab8938657b03fbdba8","66579577cffc7b15f963d041","375","stimuli/21100102.jpg"," ","","feedback_trial","2","","","","","","","","","","","","","","","","","","","","",""
"","","","","","image-keyboard-response","196","304693","0.0-171.0","5b9dd322f074140001050095","665500ab8938657b03fbdba8","66579577cffc7b15f963d041","989","stimuli/1011111.jpg","0","","prediction_trial","1","","false","","1","false","false","false","false","false","false","[1,2]","011","111","0","","","","","","",""
"","","","","","image-keyboard-response","197","305277","0.0-172.0","5b9dd322f074140001050095","665500ab8938657b03fbdba8","66579577cffc7b15f963d041","584","stimuli/10111111.jpg"," ","","feedback_trial","1","","","","","","","","","","","","","","","","","","","","",""
"","","","","","image-keyboard-response","198","306222","0.0-173.0","5b9dd322f074140001050095","665500ab8938657b03fbdba8","66579577cffc7b15f963d041","945","stimuli/0111111.jpg","1","","prediction_trial","1","","true","","0","false","false","false","false","false","false","[1,0,2]","111","111","1","","","","","","",""
"","","","","","image-keyboard-response","199","306764","0.0-174.0","5b9dd322f074140001050095","665500ab8938657b03fbdba8","66579577cffc7b15f963d041","540","stimuli/01111111.jpg"," ","","feedback_trial","1","","","","","","","","","","","","","","","","","","","","",""
"","","","","","image-keyboard-response","200","307573","0.0-175.0","5b9dd322f074140001050095","665500ab8938657b03fbdba8","66579577cffc7b15f963d041","808","stimuli/2010010.jpg","2","","prediction_trial","2","","true","","2","true","true","true","true","true","true","[2]","010","010","1","","","","","","",""
"","","","","","image-keyboard-response","201","308008","0.0-176.0","5b9dd322f074140001050095","665500ab8938657b03fbdba8","66579577cffc7b15f963d041","435","stimuli/20100102.jpg"," ","","feedback_trial","2","","","","","","","","","","","","","","","","","","","","",""
"","","","","","image-keyboard-response","202","308958","0.0-177.0","5b9dd322f074140001050095","665500ab8938657b03fbdba8","66579577cffc7b15f963d041","949","stimuli/2101010.jpg","2","","prediction_trial","0","","false","","2","true","true","false","false","false","false","[2,0]","101","010","0","","","","","","",""
"","","","","","image-keyboard-response","203","309522","0.0-178.0","5b9dd322f074140001050095","665500ab8938657b03fbdba8","66579577cffc7b15f963d041","563","stimuli/21010100.jpg"," ","","feedback_trial","2","","","","","","","","","","","","","","","","","","","","",""
"","","","","","image-keyboard-response","204","310846","0.0-179.0","5b9dd322f074140001050095","665500ab8938657b03fbdba8","66579577cffc7b15f963d041","1324","stimuli/2111010.jpg","1","","prediction_trial","0","","false","","2","true","true","false","false","false","false","[1,0,2]","111","010","0","","","","","","",""
"","","","","","image-keyboard-response","205","311472","0.0-180.0","5b9dd322f074140001050095","665500ab8938657b03fbdba8","66579577cffc7b15f963d041","625","stimuli/21110100.jpg"," ","","feedback_trial","1","","","","","","","","","","","","","","","","","","","","",""
"","","","","","image-keyboard-response","206","312913","0.0-181.0","5b9dd322f074140001050095","665500ab8938657b03fbdba8","66579577cffc7b15f963d041","1441","stimuli/0001110.jpg","1","","prediction_trial","0","","false","","0","false","false","true","true","false","false","[0]","001","110","0","","","","","","",""
"","","","","","image-keyboard-response","207","313482","0.0-182.0","5b9dd322f074140001050095","665500ab8938657b03fbdba8","66579577cffc7b15f963d041","569","stimuli/00011100.jpg"," ","","feedback_trial","0","","","","","","","","","","","","","","","","","","","","",""
"","","","","","image-keyboard-response","208","314547","0.0-183.0","5b9dd322f074140001050095","665500ab8938657b03fbdba8","66579577cffc7b15f963d041","1065","stimuli/2000111.jpg","0","","prediction_trial","2","","false","","2","false","false","true","true","false","false","[2]","000","111","0","","","","","","",""
"","","","","","image-keyboard-response","209","315402","0.0-184.0","5b9dd322f074140001050095","665500ab8938657b03fbdba8","66579577cffc7b15f963d041","855","stimuli/20001112.jpg"," ","","feedback_trial","2","","","","","","","","","","","","","","","","","","","","",""
"","","","","","image-keyboard-response","210","317008","0.0-185.0","5b9dd322f074140001050095","665500ab8938657b03fbdba8","66579577cffc7b15f963d041","1605","stimuli/1101010.jpg","1","","prediction_trial","1","","true","","1","false","true","true","true","false","true","[1]","101","010","1","","","","","","",""
"","","","","","image-keyboard-response","211","317337","0.0-186.0","5b9dd322f074140001050095","665500ab8938657b03fbdba8","66579577cffc7b15f963d041","329","stimuli/11010101.jpg"," ","","feedback_trial","1","","","","","","","","","","","","","","","","","","","","",""
"","","","","","image-keyboard-response","212","318106","0.0-187.0","5b9dd322f074140001050095","665500ab8938657b03fbdba8","66579577cffc7b15f963d041","769","stimuli/0001001.jpg","0","","prediction_trial","0","","true","","0","true","true","true","true","true","true","[0]","001","001","1","","","","","","",""
"","","","","","image-keyboard-response","213","318418","0.0-188.0","5b9dd322f074140001050095","665500ab8938657b03fbdba8","66579577cffc7b15f963d041","312","stimuli/00010010.jpg"," ","","feedback_trial","0","","","","","","","","","","","","","","","","","","","","",""
"","","","","","image-keyboard-response","214","319078","0.0-189.0","5b9dd322f074140001050095","665500ab8938657b03fbdba8","66579577cffc7b15f963d041","660","stimuli/0000000.jpg","0","","prediction_trial","0","","true","","0","true","true","true","true","true","true","[0]","000","000","1","","","","","","",""
"","","","","","image-keyboard-response","215","319347","0.0-190.0","5b9dd322f074140001050095","665500ab8938657b03fbdba8","66579577cffc7b15f963d041","269","stimuli/00000000.jpg"," ","","feedback_trial","0","","","","","","","","","","","","","","","","","","","","",""
"","","","","","image-keyboard-response","216","321092","0.0-191.0","5b9dd322f074140001050095","665500ab8938657b03fbdba8","66579577cffc7b15f963d041","1743","stimuli/1000011.jpg","1","","prediction_trial","1","","true","","1","false","false","true","true","false","false","[1]","000","011","1","","","","","","",""
"","","","","","image-keyboard-response","217","321582","0.0-192.0","5b9dd322f074140001050095","665500ab8938657b03fbdba8","66579577cffc7b15f963d041","488","stimuli/10000111.jpg"," ","","feedback_trial","1","","","","","","","","","","","","","","","","","","","","",""
"","","","","","image-keyboard-response","218","322347","0.0-193.0","5b9dd322f074140001050095","665500ab8938657b03fbdba8","66579577cffc7b15f963d041","765","stimuli/1101100.jpg","1","","prediction_trial","1","","true","","1","true","true","true","true","true","true","[1]","101","100","1","","","","","","",""
"","","","","","image-keyboard-response","219","322722","0.0-194.0","5b9dd322f074140001050095","665500ab8938657b03fbdba8","66579577cffc7b15f963d041","375","stimuli/11011001.jpg"," ","","feedback_trial","1","","","","","","","","","","","","","","","","","","","","",""
"","","","","","image-keyboard-response","220","323473","0.0-195.0","5b9dd322f074140001050095","665500ab8938657b03fbdba8","66579577cffc7b15f963d041","750","stimuli/0001000.jpg","0","","prediction_trial","0","","true","","0","true","true","true","true","true","true","[0]","001","000","1","","","","","","",""
"","","","","","image-keyboard-response","221","323774","0.0-196.0","5b9dd322f074140001050095","665500ab8938657b03fbdba8","66579577cffc7b15f963d041","300","stimuli/00010000.jpg"," ","","feedback_trial","0","","","","","","","","","","","","","","","","","","","","",""
"","","","","","image-keyboard-response","222","325557","0.0-197.0","5b9dd322f074140001050095","665500ab8938657b03fbdba8","66579577cffc7b15f963d041","1783","stimuli/1001110.jpg","1","","prediction_trial","1","","true","","1","false","false","true","true","false","false","[1]","001","110","1","","","","","","",""
"","","","","","image-keyboard-response","223","326066","0.0-198.0","5b9dd322f074140001050095","665500ab8938657b03fbdba8","66579577cffc7b15f963d041","509","stimuli/10011101.jpg"," ","","feedback_trial","1","","","","","","","","","","","","","","","","","","","","",""
"","","","","","image-keyboard-response","224","327643","0.0-199.0","5b9dd322f074140001050095","665500ab8938657b03fbdba8","66579577cffc7b15f963d041","1576","stimuli/2101000.jpg","2","","prediction_trial","2","","true","","2","true","true","false","false","false","false","[2,0]","101","000","1","","","","","","",""
"","","","","","image-keyboard-response","225","328152","0.0-200.0","5b9dd322f074140001050095","665500ab8938657b03fbdba8","66579577cffc7b15f963d041","509","stimuli/21010002.jpg"," ","","feedback_trial","2","","","","","","","","","","","","","","","","","","","","",""
"","","","","","image-keyboard-response","226","329628","0.0-201.0","5b9dd322f074140001050095","665500ab8938657b03fbdba8","66579577cffc7b15f963d041","1475","stimuli/2110001.jpg","2","","prediction_trial","2","","true","","2","false","true","true","true","false","true","[2]","110","001","1","","","","","","",""
"","","","","","image-keyboard-response","227","329996","0.0-202.0","5b9dd322f074140001050095","665500ab8938657b03fbdba8","66579577cffc7b15f963d041","367","stimuli/21100012.jpg"," ","","feedback_trial","2","","","","","","","","","","","","","","","","","","","","",""
"","","","","","image-keyboard-response","228","331287","0.0-203.0","5b9dd322f074140001050095","665500ab8938657b03fbdba8","66579577cffc7b15f963d041","1291","stimuli/2110111.jpg","2","","prediction_trial","2","","true","","2","false","false","true","true","false","false","[2]","110","111","1","","","","","","",""
"","","","","","image-keyboard-response","229","331739","0.0-204.0","5b9dd322f074140001050095","665500ab8938657b03fbdba8","66579577cffc7b15f963d041","450","stimuli/21101112.jpg"," ","","feedback_trial","2","","","","","","","","","","","","","","","","","","","","",""
"","","","","","image-keyboard-response","230","332788","0.0-205.0","5b9dd322f074140001050095","665500ab8938657b03fbdba8","66579577cffc7b15f963d041","1048","stimuli/2001011.jpg","1","","prediction_trial","2","","false","","2","false","false","false","true","false","false","[2]","001","011","0","","","","","","",""
"","","","","","image-keyboard-response","231","333452","0.0-206.0","5b9dd322f074140001050095","665500ab8938657b03fbdba8","66579577cffc7b15f963d041","664","stimuli/20010112.jpg"," ","","feedback_trial","2","","","","","","","","","","","","","","","","","","","","",""
"","","","","","image-keyboard-response","232","334242","0.0-207.0","5b9dd322f074140001050095","665500ab8938657b03fbdba8","66579577cffc7b15f963d041","790","stimuli/0100010.jpg","0","","prediction_trial","0","","true","","0","true","true","false","true","false","true","[0]","100","010","1","","","","","","",""
"","","","","","image-keyboard-response","233","334932","0.0-208.0","5b9dd322f074140001050095","665500ab8938657b03fbdba8","66579577cffc7b15f963d041","689","stimuli/01000100.jpg"," ","","feedback_trial","0","","","","","","","","","","","","","","","","","","","","",""
"","","","","","image-keyboard-response","234","336104","0.0-209.0","5b9dd322f074140001050095","665500ab8938657b03fbdba8","66579577cffc7b15f963d041","1173","stimuli/2000001.jpg","2","","prediction_trial","2","","true","","2","false","true","true","true","false","true","[2]","000","001","1","","","","","","",""
"","","","","","image-keyboard-response","235","336671","0.0-210.0","5b9dd322f074140001050095","665500ab8938657b03fbdba8","66579577cffc7b15f963d041","566","stimuli/20000012.jpg"," ","","feedback_trial","2","","","","","","","","","","","","","","","","","","","","",""
"","","","","","image-keyboard-response","236","338307","0.0-211.0","5b9dd322f074140001050095","665500ab8938657b03fbdba8","66579577cffc7b15f963d041","1628","stimuli/0011101.jpg","0","","prediction_trial","0","","true","","0","false","false","true","true","false","false","[0]","011","101","1","","","","","","",""
"","","","","","image-keyboard-response","237","339102","0.0-212.0","5b9dd322f074140001050095","665500ab8938657b03fbdba8","66579577cffc7b15f963d041","792","stimuli/00111010.jpg"," ","","feedback_trial","0","","","","","","","","","","","","","","","","","","","","",""
"","","","","","image-keyboard-response","238","339796","0.0-213.0","5b9dd322f074140001050095","665500ab8938657b03fbdba8","66579577cffc7b15f963d041","693","stimuli/0001011.jpg","0","","prediction_trial","0","","true","","0","true","true","true","true","true","true","[0]","001","011","1","","","","","","",""
"","","","","","image-keyboard-response","239","340256","0.0-214.0","5b9dd322f074140001050095","665500ab8938657b03fbdba8","66579577cffc7b15f963d041","460","stimuli/00010110.jpg"," ","","feedback_trial","0","","","","","","","","","","","","","","","","","","","","",""
"","","","","","image-keyboard-response","240","341576","0.0-215.0","5b9dd322f074140001050095","665500ab8938657b03fbdba8","66579577cffc7b15f963d041","1319","stimuli/2010110.jpg","2","","prediction_trial","2","","true","","2","true","true","true","true","true","true","[2]","010","110","1","","","","","","",""
"","","","","","image-keyboard-response","241","341966","0.0-216.0","5b9dd322f074140001050095","665500ab8938657b03fbdba8","66579577cffc7b15f963d041","390","stimuli/20101102.jpg"," ","","feedback_trial","2","","","","","","","","","","","","","","","","","","","","",""
"","","","","","image-keyboard-response","242","343662","0.0-217.0","5b9dd322f074140001050095","665500ab8938657b03fbdba8","66579577cffc7b15f963d041","1695","stimuli/0101011.jpg","0","","prediction_trial","0","","true","","0","true","true","false","false","false","false","[2,0]","101","011","1","","","","","","",""
"","","","","","image-keyboard-response","243","344126","0.0-218.0","5b9dd322f074140001050095","665500ab8938657b03fbdba8","66579577cffc7b15f963d041","464","stimuli/01010110.jpg"," ","","feedback_trial","2","","","","","","","","","","","","","","","","","","","","",""
"","","","","","image-keyboard-response","244","345403","0.0-219.0","5b9dd322f074140001050095","665500ab8938657b03fbdba8","66579577cffc7b15f963d041","1277","stimuli/1000010.jpg","1","","prediction_trial","1","","true","","1","false","true","true","true","false","true","[1]","000","010","1","","","","","","",""
"","","","","","image-keyboard-response","245","345791","0.0-220.0","5b9dd322f074140001050095","665500ab8938657b03fbdba8","66579577cffc7b15f963d041","387","stimuli/10000101.jpg"," ","","feedback_trial","1","","","","","","","","","","","","","","","","","","","","",""
"","","","","","image-keyboard-response","246","346631","0.0-221.0","5b9dd322f074140001050095","665500ab8938657b03fbdba8","66579577cffc7b15f963d041","840","stimuli/2100110.jpg","2","","prediction_trial","2","","true","","2","true","true","true","true","true","true","[2]","100","110","1","","","","","","",""
"","","","","","image-keyboard-response","247","347006","0.0-222.0","5b9dd322f074140001050095","665500ab8938657b03fbdba8","66579577cffc7b15f963d041","375","stimuli/21001102.jpg"," ","","feedback_trial","2","","","","","","","","","","","","","","","","","","","","",""
"","","","","","image-keyboard-response","248","348551","0.0-223.0","5b9dd322f074140001050095","665500ab8938657b03fbdba8","66579577cffc7b15f963d041","1544","stimuli/0110011.jpg","1","","prediction_trial","0","","false","","0","true","true","false","false","false","false","[1,0]","110","011","0","","","","","","",""
"","","","","","image-keyboard-response","249","349015","0.0-224.0","5b9dd322f074140001050095","665500ab8938657b03fbdba8","66579577cffc7b15f963d041","464","stimuli/01100110.jpg"," ","","feedback_trial","1","","","","","","","","","","","","","","","","","","","","",""
"","","","","","image-keyboard-response","250","349780","0.0-225.0","5b9dd322f074140001050095","665500ab8938657b03fbdba8","66579577cffc7b15f963d041","765","stimuli/0001010.jpg","0","","prediction_trial","0","","true","","0","true","true","true","true","true","true","[0]","001","010","1","","","","","","",""
"","","","","","image-keyboard-response","251","350155","0.0-226.0","5b9dd322f074140001050095","665500ab8938657b03fbdba8","66579577cffc7b15f963d041","375","stimuli/00010100.jpg"," ","","feedback_trial","0","","","","","","","","","","","","","","","","","","","","",""
"","","","","","image-keyboard-response","252","350996","0.0-227.0","5b9dd322f074140001050095","665500ab8938657b03fbdba8","66579577cffc7b15f963d041","840","stimuli/2100100.jpg","2","","prediction_trial","2","","true","","2","true","true","true","true","true","true","[2]","100","100","1","","","","","","",""
"","","","","","image-keyboard-response","253","351385","0.0-228.0","5b9dd322f074140001050095","665500ab8938657b03fbdba8","66579577cffc7b15f963d041","389","stimuli/21001002.jpg"," ","","feedback_trial","2","","","","","","","","","","","","","","","","","","","","",""
"","","","","","image-keyboard-response","254","352706","0.0-229.0","5b9dd322f074140001050095","665500ab8938657b03fbdba8","66579577cffc7b15f963d041","1320","stimuli/2001010.jpg","2","","prediction_trial","2","","true","","2","true","true","false","true","false","true","[2]","001","010","1","","","","","","",""
"","","","","","image-keyboard-response","255","353127","0.0-230.0","5b9dd322f074140001050095","665500ab8938657b03fbdba8","66579577cffc7b15f963d041","421","stimuli/20010102.jpg"," ","","feedback_trial","2","","","","","","","","","","","","","","","","","","","","",""
"","","","","","image-keyboard-response","256","354490","0.0-231.0","5b9dd322f074140001050095","665500ab8938657b03fbdba8","66579577cffc7b15f963d041","1362","stimuli/1100111.jpg","1","","prediction_trial","1","","true","","1","false","false","true","true","false","false","[1]","100","111","1","","","","","","",""
"","","","","","image-keyboard-response","257","355030","0.0-232.0","5b9dd322f074140001050095","665500ab8938657b03fbdba8","66579577cffc7b15f963d041","539","stimuli/11001111.jpg"," ","","feedback_trial","1","","","","","","","","","","","","","","","","","","","","",""
"","","","","","image-keyboard-response","258","356232","0.0-233.0","5b9dd322f074140001050095","665500ab8938657b03fbdba8","66579577cffc7b15f963d041","1201","stimuli/1101111.jpg","1","","prediction_trial","1","","true","","1","false","false","true","true","false","false","[1]","101","111","1","","","","","","",""
"","","","","","image-keyboard-response","259","356665","0.0-234.0","5b9dd322f074140001050095","665500ab8938657b03fbdba8","66579577cffc7b15f963d041","432","stimuli/11011111.jpg"," ","","feedback_trial","1","","","","","","","","","","","","","","","","","","","","",""
"","","","","","image-keyboard-response","260","358143","0.0-235.0","5b9dd322f074140001050095","665500ab8938657b03fbdba8","66579577cffc7b15f963d041","1477","stimuli/2001111.jpg","0","","prediction_trial","2","","false","","2","false","false","false","true","false","false","[2]","001","111","0","","","","","","",""
"","","","","","image-keyboard-response","261","358872","0.0-236.0","5b9dd322f074140001050095","665500ab8938657b03fbdba8","66579577cffc7b15f963d041","727","stimuli/20011112.jpg"," ","","feedback_trial","2","","","","","","","","","","","","","","","","","","","","",""
"","","","","","image-keyboard-response","262","359650","0.0-237.0","5b9dd322f074140001050095","665500ab8938657b03fbdba8","66579577cffc7b15f963d041","778","stimuli/0010000.jpg","0","","prediction_trial","0","","true","","0","true","true","true","true","true","true","[0]","010","000","1","","","","","","",""
"","","","","","image-keyboard-response","263","359979","0.0-238.0","5b9dd322f074140001050095","665500ab8938657b03fbdba8","66579577cffc7b15f963d041","329","stimuli/00100000.jpg"," ","","feedback_trial","0","","","","","","","","","","","","","","","","","","","","",""
"","","","","","image-keyboard-response","264","361091","0.0-239.0","5b9dd322f074140001050095","665500ab8938657b03fbdba8","66579577cffc7b15f963d041","1111","stimuli/2111100.jpg","2","","prediction_trial","1","","false","","2","true","true","false","false","false","false","[0,1,2]","111","100","0","","","","","","",""
"","","","","","image-keyboard-response","265","361916","0.0-240.0","5b9dd322f074140001050095","665500ab8938657b03fbdba8","66579577cffc7b15f963d041","825","stimuli/21111001.jpg"," ","","feedback_trial","0","","","","","","","","","","","","","","","","","","","","",""
"","","","","","image-keyboard-response","266","363865","0.0-241.0","5b9dd322f074140001050095","665500ab8938657b03fbdba8","66579577cffc7b15f963d041","1949","stimuli/0111101.jpg","0","","prediction_trial","0","","true","","0","false","false","false","false","false","false","[1,2,0]","111","101","1","","","","","","",""
"","","","","","image-keyboard-response","267","364302","0.0-242.0","5b9dd322f074140001050095","665500ab8938657b03fbdba8","66579577cffc7b15f963d041","437","stimuli/01111010.jpg"," ","","feedback_trial","1","","","","","","","","","","","","","","","","","","","","",""
"","","","","","image-keyboard-response","268","365891","0.0-243.0","5b9dd322f074140001050095","665500ab8938657b03fbdba8","66579577cffc7b15f963d041","1587","stimuli/2010101.jpg","0","","prediction_trial","2","","false","","2","false","false","true","true","false","false","[2]","010","101","0","","","","","","",""
"","","","","","image-keyboard-response","269","366493","0.0-244.0","5b9dd322f074140001050095","665500ab8938657b03fbdba8","66579577cffc7b15f963d041","602","stimuli/20101012.jpg"," ","","feedback_trial","2","","","","","","","","","","","","","","","","","","","","",""
"","","","","","image-keyboard-response","270","367494","0.0-245.0","5b9dd322f074140001050095","665500ab8938657b03fbdba8","66579577cffc7b15f963d041","1002","stimuli/1001111.jpg","1","","prediction_trial","1","","true","","1","false","false","true","true","false","false","[1]","001","111","1","","","","","","",""
"","","","","","image-keyboard-response","271","367976","0.0-246.0","5b9dd322f074140001050095","665500ab8938657b03fbdba8","66579577cffc7b15f963d041","482","stimuli/10011111.jpg"," ","","feedback_trial","1","","","","","","","","","","","","","","","","","","","","",""
"","","","","","image-keyboard-response","272","368650","0.0-247.0","5b9dd322f074140001050095","665500ab8938657b03fbdba8","66579577cffc7b15f963d041","673","stimuli/1000100.jpg","1","","prediction_trial","1","","true","","1","true","true","true","true","true","true","[1]","000","100","1","","","","","","",""
"","","","","","image-keyboard-response","273","369040","0.0-248.0","5b9dd322f074140001050095","665500ab8938657b03fbdba8","66579577cffc7b15f963d041","390","stimuli/10001001.jpg"," ","","feedback_trial","1","","","","","","","","","","","","","","","","","","","","",""
"","","","","","image-keyboard-response","274","370390","0.0-249.0","5b9dd322f074140001050095","665500ab8938657b03fbdba8","66579577cffc7b15f963d041","1349","stimuli/2011011.jpg","1","","prediction_trial","1","","true","","2","false","false","false","false","false","false","[2,1]","011","011","1","","","","","","",""
"","","","","","image-keyboard-response","275","370796","0.0-250.0","5b9dd322f074140001050095","665500ab8938657b03fbdba8","66579577cffc7b15f963d041","406","stimuli/20110111.jpg"," ","","feedback_trial","2","","","","","","","","","","","","","","","","","","","","",""
"","","","","","image-keyboard-response","276","371575","0.0-251.0","5b9dd322f074140001050095","665500ab8938657b03fbdba8","66579577cffc7b15f963d041","778","stimuli/0011001.jpg","0","","prediction_trial","0","","true","","0","true","true","true","true","true","true","[0]","011","001","1","","","","","","",""
"","","","","","image-keyboard-response","277","371919","0.0-252.0","5b9dd322f074140001050095","665500ab8938657b03fbdba8","66579577cffc7b15f963d041","344","stimuli/00110010.jpg"," ","","feedback_trial","0","","","","","","","","","","","","","","","","","","","","",""
"","","","","","image-keyboard-response","278","372640","0.0-253.0","5b9dd322f074140001050095","665500ab8938657b03fbdba8","66579577cffc7b15f963d041","721","stimuli/2000110.jpg","2","","prediction_trial","2","","true","","2","true","true","true","true","true","true","[2]","000","110","1","","","","","","",""
"","","","","","image-keyboard-response","279","372999","0.0-254.0","5b9dd322f074140001050095","665500ab8938657b03fbdba8","66579577cffc7b15f963d041","359","stimuli/20001102.jpg"," ","","feedback_trial","2","","","","","","","","","","","","","","","","","","","","",""
"","","","","","image-keyboard-response","280","374334","0.0-255.0","5b9dd322f074140001050095","665500ab8938657b03fbdba8","66579577cffc7b15f963d041","1335","stimuli/2010111.jpg","1","","prediction_trial","2","","false","","2","false","false","true","true","false","false","[2]","010","111","0","","","","","","",""
"","","","","","image-keyboard-response","281","375236","0.0-256.0","5b9dd322f074140001050095","665500ab8938657b03fbdba8","66579577cffc7b15f963d041","901","stimuli/20101112.jpg"," ","","feedback_trial","2","","","","","","","","","","","","","","","","","","","","",""
"","","","","","image-keyboard-response","282","375925","0.0-257.0","5b9dd322f074140001050095","665500ab8938657b03fbdba8","66579577cffc7b15f963d041","688","stimuli/0110010.jpg","0","","prediction_trial","0","","true","","0","true","true","false","false","false","false","[0,1]","110","010","1","","","","","","",""
"","","","","","image-keyboard-response","283","376539","0.0-258.0","5b9dd322f074140001050095","665500ab8938657b03fbdba8","66579577cffc7b15f963d041","614","stimuli/01100100.jpg"," ","","feedback_trial","0","","","","","","","","","","","","","","","","","","","","",""
"","","","","","image-keyboard-response","284","377715","0.0-259.0","5b9dd322f074140001050095","665500ab8938657b03fbdba8","66579577cffc7b15f963d041","1176","stimuli/0010100.jpg","0","","prediction_trial","0","","true","","0","false","true","true","true","false","true","[0]","010","100","1","","","","","","",""
"","","","","","image-keyboard-response","285","378310","0.0-260.0","5b9dd322f074140001050095","665500ab8938657b03fbdba8","66579577cffc7b15f963d041","593","stimuli/00101000.jpg"," ","","feedback_trial","0","","","","","","","","","","","","","","","","","","","","",""
"","","","","","image-keyboard-response","286","378985","0.0-261.0","5b9dd322f074140001050095","665500ab8938657b03fbdba8","66579577cffc7b15f963d041","674","stimuli/2000010.jpg","2","","prediction_trial","2","","true","","2","true","true","true","true","true","true","[2]","000","010","1","","","","","","",""
"","","","","","image-keyboard-response","287","379489","0.0-262.0","5b9dd322f074140001050095","665500ab8938657b03fbdba8","66579577cffc7b15f963d041","504","stimuli/20000102.jpg"," ","","feedback_trial","2","","","","","","","","","","","","","","","","","","","","",""
"","","","","","image-keyboard-response","288","380155","0.0-263.0","5b9dd322f074140001050095","665500ab8938657b03fbdba8","66579577cffc7b15f963d041","665","stimuli/0111011.jpg","0","","prediction_trial","1","","false","","0","true","true","false","false","false","false","[2,1,0]","111","011","0","","","","","","",""
"","","","","","image-keyboard-response","289","380754","0.0-264.0","5b9dd322f074140001050095","665500ab8938657b03fbdba8","66579577cffc7b15f963d041","599","stimuli/01110111.jpg"," ","","feedback_trial","2","","","","","","","","","","","","","","","","","","","","",""
"","","","","","image-keyboard-response","290","382194","0.0-265.0","5b9dd322f074140001050095","665500ab8938657b03fbdba8","66579577cffc7b15f963d041","1439","stimuli/2111000.jpg","1","","prediction_trial","2","","false","","2","true","true","false","false","false","false","[1,2,0]","111","000","0","","","","","","",""
"","","","","","image-keyboard-response","291","382839","0.0-266.0","5b9dd322f074140001050095","665500ab8938657b03fbdba8","66579577cffc7b15f963d041","645","stimuli/21110002.jpg"," ","","feedback_trial","1","","","","","","","","","","","","","","","","","","","","",""
"","","","","","image-keyboard-response","292","383694","0.0-267.0","5b9dd322f074140001050095","665500ab8938657b03fbdba8","66579577cffc7b15f963d041","855","stimuli/1001101.jpg","1","","prediction_trial","1","","true","","1","true","true","true","true","true","true","[1]","001","101","1","","","","","","",""
"","","","","","image-keyboard-response","293","384113","0.0-268.0","5b9dd322f074140001050095","665500ab8938657b03fbdba8","66579577cffc7b15f963d041","419","stimuli/10011011.jpg"," ","","feedback_trial","1","","","","","","","","","","","","","","","","","","","","",""
"","","","","","image-keyboard-response","294","386484","0.0-269.0","5b9dd322f074140001050095","665500ab8938657b03fbdba8","66579577cffc7b15f963d041","2370","stimuli/0010110.jpg","1","","prediction_trial","0","","false","","0","false","false","true","true","false","false","[0]","010","110","0","","","","","","",""
"","","","","","image-keyboard-response","295","387084","0.0-270.0","5b9dd322f074140001050095","665500ab8938657b03fbdba8","66579577cffc7b15f963d041","599","stimuli/00101100.jpg"," ","","feedback_trial","0","","","","","","","","","","","","","","","","","","","","",""
"","","","","","image-keyboard-response","296","387834","0.0-271.0","5b9dd322f074140001050095","665500ab8938657b03fbdba8","66579577cffc7b15f963d041","750","stimuli/1101000.jpg","1","","prediction_trial","1","","true","","1","true","true","true","true","true","true","[1]","101","000","1","","","","","","",""
"","","","","","image-keyboard-response","297","388330","0.0-272.0","5b9dd322f074140001050095","665500ab8938657b03fbdba8","66579577cffc7b15f963d041","496","stimuli/11010001.jpg"," ","","feedback_trial","1","","","","","","","","","","","","","","","","","","","","",""
"","","","","","image-keyboard-response","298","389036","0.0-273.0","5b9dd322f074140001050095","665500ab8938657b03fbdba8","66579577cffc7b15f963d041","706","stimuli/0010010.jpg","0","","prediction_trial","0","","true","","0","true","true","true","true","true","true","[0]","010","010","1","","","","","","",""
"","","","","","image-keyboard-response","299","389471","0.0-274.0","5b9dd322f074140001050095","665500ab8938657b03fbdba8","66579577cffc7b15f963d041","434","stimuli/00100100.jpg"," ","","feedback_trial","0","","","","","","","","","","","","","","","","","","","","",""
"","","","","","image-keyboard-response","300","390099","0.0-275.0","5b9dd322f074140001050095","665500ab8938657b03fbdba8","66579577cffc7b15f963d041","626","stimuli/0011011.jpg","0","","prediction_trial","0","","true","","0","true","true","true","true","true","true","[0]","011","011","1","","","","","","",""
"","","","","","image-keyboard-response","301","390549","0.0-276.0","5b9dd322f074140001050095","665500ab8938657b03fbdba8","66579577cffc7b15f963d041","450","stimuli/00110110.jpg"," ","","feedback_trial","0","","","","","","","","","","","","","","","","","","","","",""
"","","","","","image-keyboard-response","302","392141","0.0-277.0","5b9dd322f074140001050095","665500ab8938657b03fbdba8","66579577cffc7b15f963d041","1592","stimuli/1011110.jpg","0","","prediction_trial","1","","false","","1","false","false","false","false","false","false","[1,2]","011","110","0","","","","","","",""
"","","","","","image-keyboard-response","303","392680","0.0-278.0","5b9dd322f074140001050095","665500ab8938657b03fbdba8","66579577cffc7b15f963d041","538","stimuli/10111101.jpg"," ","","feedback_trial","1","","","","","","","","","","","","","","","","","","","","",""
"","","","","","image-keyboard-response","304","393612","0.0-279.0","5b9dd322f074140001050095","665500ab8938657b03fbdba8","66579577cffc7b15f963d041","932","stimuli/0000111.jpg","1","","prediction_trial","0","","false","","0","false","false","true","true","false","false","[0]","000","111","0","","","","","","",""
"","","","","","image-keyboard-response","305","394163","0.0-280.0","5b9dd322f074140001050095","665500ab8938657b03fbdba8","66579577cffc7b15f963d041","550","stimuli/00001110.jpg"," ","","feedback_trial","0","","","","","","","","","","","","","","","","","","","","",""
"","","","","","image-keyboard-response","306","394929","0.0-281.0","5b9dd322f074140001050095","665500ab8938657b03fbdba8","66579577cffc7b15f963d041","765","stimuli/1010000.jpg","1","","prediction_trial","1","","true","","1","true","true","false","true","false","true","[1]","010","000","1","","","","","","",""
"","","","","","image-keyboard-response","307","395468","0.0-282.0","5b9dd322f074140001050095","665500ab8938657b03fbdba8","66579577cffc7b15f963d041","538","stimuli/10100001.jpg"," ","","feedback_trial","1","","","","","","","","","","","","","","","","","","","","",""
"","","","","","image-keyboard-response","308","396518","0.0-283.0","5b9dd322f074140001050095","665500ab8938657b03fbdba8","66579577cffc7b15f963d041","1050","stimuli/0011100.jpg","0","","prediction_trial","0","","true","","0","false","true","true","true","false","true","[0]","011","100","1","","","","","","",""
"","","","","","image-keyboard-response","309","396952","0.0-284.0","5b9dd322f074140001050095","665500ab8938657b03fbdba8","66579577cffc7b15f963d041","434","stimuli/00111000.jpg"," ","","feedback_trial","0","","","","","","","","","","","","","","","","","","","","",""
"","","","","","image-keyboard-response","310","398131","0.0-285.0","5b9dd322f074140001050095","665500ab8938657b03fbdba8","66579577cffc7b15f963d041","1177","stimuli/0111010.jpg","0","","prediction_trial","2","","false","","0","true","true","false","false","false","false","[1,0,2]","111","010","0","","","","","","",""
"","","","","","image-keyboard-response","311","398588","0.0-286.0","5b9dd322f074140001050095","665500ab8938657b03fbdba8","66579577cffc7b15f963d041","456","stimuli/01110102.jpg"," ","","feedback_trial","1","","","","","","","","","","","","","","","","","","","","",""
"","","","","","image-keyboard-response","312","399469","0.0-287.0","5b9dd322f074140001050095","665500ab8938657b03fbdba8","66579577cffc7b15f963d041","881","stimuli/0000011.jpg","0","","prediction_trial","0","","true","","0","true","true","true","true","true","true","[0]","000","011","1","","","","","","",""
"","","","","","image-keyboard-response","313","399803","0.0-288.0","5b9dd322f074140001050095","665500ab8938657b03fbdba8","66579577cffc7b15f963d041","333","stimuli/00000110.jpg"," ","","feedback_trial","0","","","","","","","","","","","","","","","","","","","","",""
"","","","","","image-keyboard-response","314","400897","0.0-289.0","5b9dd322f074140001050095","665500ab8938657b03fbdba8","66579577cffc7b15f963d041","1095","stimuli/0100011.jpg","0","","prediction_trial","0","","true","","0","true","true","false","true","false","true","[0]","100","011","1","","","","","","",""
"","","","","","image-keyboard-response","315","401318","0.0-290.0","5b9dd322f074140001050095","665500ab8938657b03fbdba8","66579577cffc7b15f963d041","420","stimuli/01000110.jpg"," ","","feedback_trial","0","","","","","","","","","","","","","","","","","","","","",""
"","","","","","image-keyboard-response","316","402173","0.0-291.0","5b9dd322f074140001050095","665500ab8938657b03fbdba8","66579577cffc7b15f963d041","855","stimuli/1101001.jpg","1","","prediction_trial","1","","true","","1","true","true","true","true","true","true","[1]","101","001","1","","","","","","",""
"","","","","","image-keyboard-response","317","402552","0.0-292.0","5b9dd322f074140001050095","665500ab8938657b03fbdba8","66579577cffc7b15f963d041","378","stimuli/11010011.jpg"," ","","feedback_trial","1","","","","","","","","","","","","","","","","","","","","",""
"","","","","","survey-html-form","318","472608","0.0-293.0","5b9dd322f074140001050095","665500ab8938657b03fbdba8","66579577cffc7b15f963d041","70055","","{""feedback"":""When it was not visible to them I tried to just select the correct answer or use intuition to try to guess which one they would pick if it was not clear to me.\n\nNo specific comments but it was enjoyable."",""age"":""36"",""gender"":""Female"",""other_gender"":"""",""race"":""White"",""other_race"":"""",""ethnicity"":""Non-Hispanic""}","","exit_survey","","","","","","","","","","","","","","","","When it was not visible to them I tried to just select the correct answer or use intuition to try to guess which one they would pick if it was not clear to me.

No specific comments but it was enjoyable.","36","Non-Hispanic","Female","White","0.7013888888888888","0.7013888888888888"
