"success","timeout","failed_images","failed_audio","failed_video","trial_type","trial_index","time_elapsed","internal_node_id","prolific_id","prolific_study_id","prolific_session_id","rt","stimulus","response","view_history","trial","character_choice","stimulus_dict","accuracy","correct_response","ball_pos","ego_ball_visible","ego_can_infer","alter_ball_visible","alter_can_infer","collective_ball_visible","collective_can_infer","search_locations","alter_occluders","ego_occluders","accuracy_bool","feedback","age","ethnicity","gender","race","overall_accuracy","bonus"
"true","false","[]","[]","[]","preload","0","5575","0.0-0.0","641361951f32a46c07479b33","665500ab8938657b03fbdba8","6657926189971b4f6cbee2d1","","","","","","","","","","","","","","","","","","","","","","","","","","",""
"true","","","","","fullscreen","1","8233","0.0-1.0","641361951f32a46c07479b33","665500ab8938657b03fbdba8","6657926189971b4f6cbee2d1","","","","","","","","","","","","","","","","","","","","","","","","","","",""
"","","","","","html-button-response","2","221670","0.0-2.0","641361951f32a46c07479b33","665500ab8938657b03fbdba8","6657926189971b4f6cbee2d1","213423","<p><b>Consent Form</b></p> <div style=""text-align:left;background-color:lightgrey; padding:20px; max-width:900px;""><p>Please consider this information carefully before deciding whether to participate in this research.</p> <p>The purpose of this research is to examine which factors influence social judgment and decision-making. You will be asked to make judgements about individuals and actions in social scenarios. We are simply interested in your judgement. The study will take less than 1 hour to complete, and you will receive less than $20 on Prolific. Your compensation and time commitment are specified in the study description. There are no anticipated risks associated with participating in this study. The effects of participating should be comparable to those you would ordinarily experience from viewing a computer monitor and using a mouse or keyboard for a similar amount of time. At the end of the study, we will provide an explanation of the questions that motivate this line of research and will describe the potential implications. </p><p> Your participation in this study is completely voluntary and you may refuse to participate or you may choose to withdraw at any time without penalty or loss of benefits to you which are otherwise entitled. Your participation in this study will remain confidential. No personally identifiable information will be associated with your data. Also, all analyses of the data will be averaged across all the participants, so your individual responses will never be specifically analyzed. </p><p> If you have questions or concerns about your participation or payment, or want to request a summary of research findings, please contact Dr. Jonathan Phillips at Jonathan.S.Phillips@dartmouth.edu. </p><p> Please save a copy of this form for your records. </p><p><b>Agreement: </b>The nature and purpose of this research have been sufficiently explained and I agree to participate in this study. I understand that I am free to withdraw at any time without incurring any penalty. Please consent by clicking the button below to continue. Otherwise, please exit the study at any time. </p>","0","","","","","","","","","","","","","","","","","","","","","","","",""
"","","","","","instructions","3","252469","0.0-3.0-0.0","641361951f32a46c07479b33","665500ab8938657b03fbdba8","6657926189971b4f6cbee2d1","30784","","","[{""page_index"":0,""viewing_time"":1120},{""page_index"":1,""viewing_time"":2072},{""page_index"":2,""viewing_time"":944},{""page_index"":3,""viewing_time"":3328},{""page_index"":4,""viewing_time"":1737},{""page_index"":5,""viewing_time"":1313},{""page_index"":6,""viewing_time"":646},{""page_index"":7,""viewing_time"":2503},{""page_index"":8,""viewing_time"":1625},{""page_index"":9,""viewing_time"":679},{""page_index"":10,""viewing_time"":6908},{""page_index"":11,""viewing_time"":1505},{""page_index"":12,""viewing_time"":5195},{""page_index"":13,""viewing_time"":1208}]","intro","","","","","","","","","","","","","","","","","","","","","",""
"","","","","","image-keyboard-response","4","254432","0.0-3.0-1.0","641361951f32a46c07479b33","665500ab8938657b03fbdba8","6657926189971b4f6cbee2d1","1957","stimuli/1110101.jpg","1","","prediction_practice","1","{""filepath"":""stimuli/1110101.jpg"",""ball_pos"":1,""ego_ball_visible"":true,""ego_can_infer"":true,""alter_ball_visible"":false,""alter_can_infer"":false,""collective_ball_visible"":false,""collective_can_infer"":false,""search_locations"":[1,0],""alter_occluders"":""110"",""ego_occluders"":""101""}","true","","","","","","","","","","","","","","","","","","",""
"","","","","","image-keyboard-response","5","255801","0.0-3.0-2.0","641361951f32a46c07479b33","665500ab8938657b03fbdba8","6657926189971b4f6cbee2d1","1353","stimuli/11101011.jpg"," ","","practrice_feedback","1","","","","","","","","","","","","","","","","","","","","",""
"","","","","","image-keyboard-response","6","257405","0.0-3.0-3.0","641361951f32a46c07479b33","665500ab8938657b03fbdba8","6657926189971b4f6cbee2d1","1593","stimuli/2010100.jpg","2","","prediction_practice","2","{""filepath"":""stimuli/2010100.jpg"",""ball_pos"":2,""ego_ball_visible"":true,""ego_can_infer"":true,""alter_ball_visible"":true,""alter_can_infer"":true,""collective_ball_visible"":true,""collective_can_infer"":true,""search_locations"":[2],""alter_occluders"":""010"",""ego_occluders"":""100""}","true","","","","","","","","","","","","","","","","","","",""
"","","","","","image-keyboard-response","7","258149","0.0-3.0-4.0","641361951f32a46c07479b33","665500ab8938657b03fbdba8","6657926189971b4f6cbee2d1","740","stimuli/20101002.jpg"," ","","practrice_feedback","2","","","","","","","","","","","","","","","","","","","","",""
"","","","","","image-keyboard-response","8","259598","0.0-3.0-5.0","641361951f32a46c07479b33","665500ab8938657b03fbdba8","6657926189971b4f6cbee2d1","1445","stimuli/1000110.jpg","0","","prediction_practice","1","{""filepath"":""stimuli/1000110.jpg"",""ball_pos"":1,""ego_ball_visible"":false,""ego_can_infer"":false,""alter_ball_visible"":true,""alter_can_infer"":true,""collective_ball_visible"":false,""collective_can_infer"":false,""search_locations"":[1],""alter_occluders"":""000"",""ego_occluders"":""110""}","false","","","","","","","","","","","","","","","","","","",""
"","","","","","image-keyboard-response","9","260614","0.0-3.0-6.0","641361951f32a46c07479b33","665500ab8938657b03fbdba8","6657926189971b4f6cbee2d1","1011","stimuli/10001101.jpg"," ","","practrice_feedback","1","","","","","","","","","","","","","","","","","","","","",""
"","","","","","image-keyboard-response","10","261941","0.0-3.0-7.0","641361951f32a46c07479b33","665500ab8938657b03fbdba8","6657926189971b4f6cbee2d1","1314","stimuli/0011101.jpg","0","","prediction_practice","0","{""filepath"":""stimuli/0011101.jpg"",""ball_pos"":0,""ego_ball_visible"":false,""ego_can_infer"":false,""alter_ball_visible"":true,""alter_can_infer"":true,""collective_ball_visible"":false,""collective_can_infer"":false,""search_locations"":[0],""alter_occluders"":""011"",""ego_occluders"":""101""}","true","","","","","","","","","","","","","","","","","","",""
"","","","","","image-keyboard-response","11","263852","0.0-3.0-8.0","641361951f32a46c07479b33","665500ab8938657b03fbdba8","6657926189971b4f6cbee2d1","1905","stimuli/00111010.jpg"," ","","practrice_feedback","0","","","","","","","","","","","","","","","","","","","","",""
"","","","","","image-keyboard-response","12","264789","0.0-3.0-9.0","641361951f32a46c07479b33","665500ab8938657b03fbdba8","6657926189971b4f6cbee2d1","924","stimuli/0111010.jpg","0","","prediction_practice","0","{""filepath"":""stimuli/0111010.jpg"",""ball_pos"":0,""ego_ball_visible"":true,""ego_can_infer"":true,""alter_ball_visible"":false,""alter_can_infer"":false,""collective_ball_visible"":false,""collective_can_infer"":false,""search_locations"":[0,1,2],""alter_occluders"":""111"",""ego_occluders"":""010""}","true","","","","","","","","","","","","","","","","","","",""
"","","","","","image-keyboard-response","13","266079","0.0-3.0-10.0","641361951f32a46c07479b33","665500ab8938657b03fbdba8","6657926189971b4f6cbee2d1","1284","stimuli/01110100.jpg"," ","","practrice_feedback","0","","","","","","","","","","","","","","","","","","","","",""
"","","","","","image-keyboard-response","14","266971","0.0-3.0-11.0","641361951f32a46c07479b33","665500ab8938657b03fbdba8","6657926189971b4f6cbee2d1","888","stimuli/1101000.jpg","1","","prediction_practice","1","{""filepath"":""stimuli/1101000.jpg"",""ball_pos"":1,""ego_ball_visible"":true,""ego_can_infer"":true,""alter_ball_visible"":true,""alter_can_infer"":true,""collective_ball_visible"":true,""collective_can_infer"":true,""search_locations"":[1],""alter_occluders"":""101"",""ego_occluders"":""000""}","true","","","","","","","","","","","","","","","","","","",""
"","","","","","image-keyboard-response","15","267785","0.0-3.0-12.0","641361951f32a46c07479b33","665500ab8938657b03fbdba8","6657926189971b4f6cbee2d1","812","stimuli/11010001.jpg"," ","","practrice_feedback","1","","","","","","","","","","","","","","","","","","","","",""
"","","","","","image-keyboard-response","16","268754","0.0-3.0-13.0","641361951f32a46c07479b33","665500ab8938657b03fbdba8","6657926189971b4f6cbee2d1","961","stimuli/0000100.jpg","0","","prediction_practice","0","{""filepath"":""stimuli/0000100.jpg"",""ball_pos"":0,""ego_ball_visible"":false,""ego_can_infer"":true,""alter_ball_visible"":true,""alter_can_infer"":true,""collective_ball_visible"":false,""collective_can_infer"":true,""search_locations"":[0],""alter_occluders"":""000"",""ego_occluders"":""100""}","true","","","","","","","","","","","","","","","","","","",""
"","","","","","image-keyboard-response","17","269407","0.0-3.0-14.0","641361951f32a46c07479b33","665500ab8938657b03fbdba8","6657926189971b4f6cbee2d1","640","stimuli/00001000.jpg"," ","","practrice_feedback","0","","","","","","","","","","","","","","","","","","","","",""
"","","","","","image-keyboard-response","18","270207","0.0-3.0-15.0","641361951f32a46c07479b33","665500ab8938657b03fbdba8","6657926189971b4f6cbee2d1","793","stimuli/0001101.jpg","2","","prediction_practice","0","{""filepath"":""stimuli/0001101.jpg"",""ball_pos"":0,""ego_ball_visible"":false,""ego_can_infer"":false,""alter_ball_visible"":true,""alter_can_infer"":true,""collective_ball_visible"":false,""collective_can_infer"":false,""search_locations"":[0],""alter_occluders"":""001"",""ego_occluders"":""101""}","false","","","","","","","","","","","","","","","","","","",""
"","","","","","image-keyboard-response","19","271123","0.0-3.0-16.0","641361951f32a46c07479b33","665500ab8938657b03fbdba8","6657926189971b4f6cbee2d1","907","stimuli/00011010.jpg"," ","","practrice_feedback","0","","","","","","","","","","","","","","","","","","","","",""
"","","","","","image-keyboard-response","20","271800","0.0-3.0-17.0","641361951f32a46c07479b33","665500ab8938657b03fbdba8","6657926189971b4f6cbee2d1","658","stimuli/0101000.jpg","0","","prediction_practice","0","{""filepath"":""stimuli/0101000.jpg"",""ball_pos"":0,""ego_ball_visible"":true,""ego_can_infer"":true,""alter_ball_visible"":false,""alter_can_infer"":false,""collective_ball_visible"":false,""collective_can_infer"":false,""search_locations"":[0,2],""alter_occluders"":""101"",""ego_occluders"":""000""}","true","","","","","","","","","","","","","","","","","","",""
"","","","","","image-keyboard-response","21","272699","0.0-3.0-18.0","641361951f32a46c07479b33","665500ab8938657b03fbdba8","6657926189971b4f6cbee2d1","886","stimuli/01010000.jpg"," ","","practrice_feedback","0","","","","","","","","","","","","","","","","","","","","",""
"","","","","","image-keyboard-response","22","273628","0.0-3.0-19.0","641361951f32a46c07479b33","665500ab8938657b03fbdba8","6657926189971b4f6cbee2d1","914","stimuli/0011011.jpg","0","","prediction_practice","0","{""filepath"":""stimuli/0011011.jpg"",""ball_pos"":0,""ego_ball_visible"":true,""ego_can_infer"":true,""alter_ball_visible"":true,""alter_can_infer"":true,""collective_ball_visible"":true,""collective_can_infer"":true,""search_locations"":[0],""alter_occluders"":""011"",""ego_occluders"":""011""}","true","","","","","","","","","","","","","","","","","","",""
"","","","","","image-keyboard-response","23","274254","0.0-3.0-20.0","641361951f32a46c07479b33","665500ab8938657b03fbdba8","6657926189971b4f6cbee2d1","604","stimuli/00110110.jpg"," ","","practrice_feedback","0","","","","","","","","","","","","","","","","","","","","",""
"","","","","","html-button-response","24","276174","0.0-3.0-21.0","641361951f32a46c07479b33","665500ab8938657b03fbdba8","6657926189971b4f6cbee2d1","1919","Now that you've had some practice, you'll be tested with a couple of easy trials. If you correctly predict Sam's choice, you'll move on to complete the experiment!","0","","","","","","","","","","","","","","","","","","","","","","","",""
"","","","","","image-keyboard-response","25","277480","0.0-3.0-22.0-0.0","641361951f32a46c07479b33","665500ab8938657b03fbdba8","6657926189971b4f6cbee2d1","1299","stimuli/0000011.jpg","arrowleft","","comprehension_quiz","","","true","arrowleft","","","","","","","","","","","","","","","","","",""
"","","","","","image-keyboard-response","26","278226","0.0-3.0-22.0-1.0","641361951f32a46c07479b33","665500ab8938657b03fbdba8","6657926189971b4f6cbee2d1","726","stimuli/00000110.jpg"," ","","comprehension_quiz","","","true"," ","","","","","","","","","","","","","","","","","",""
"","","","","","image-keyboard-response","27","279419","0.0-3.0-22.0-2.0","641361951f32a46c07479b33","665500ab8938657b03fbdba8","6657926189971b4f6cbee2d1","1181","stimuli/1010010.jpg","arrowdown","","comprehension_quiz","","","true","arrowdown","","","","","","","","","","","","","","","","","",""
"","","","","","image-keyboard-response","28","279866","0.0-3.0-22.0-3.0","641361951f32a46c07479b33","665500ab8938657b03fbdba8","6657926189971b4f6cbee2d1","434","stimuli/10100101.jpg"," ","","comprehension_quiz","","","true"," ","","","","","","","","","","","","","","","","","",""
"","","","","","html-button-response","29","281297","0.0-4.0","641361951f32a46c07479b33","665500ab8938657b03fbdba8","6657926189971b4f6cbee2d1","1429","The experiment will now begin.","0","","","","","","","","","","","","","","","","","","","","","","","",""
"","","","","","image-keyboard-response","30","283986","0.0-5.0","641361951f32a46c07479b33","665500ab8938657b03fbdba8","6657926189971b4f6cbee2d1","2682","stimuli/1101011.jpg","1","","prediction_trial","1","","true","","1","false","false","true","true","false","false","[1]","101","011","1","","","","","","",""
"","","","","","image-keyboard-response","31","284793","0.0-6.0","641361951f32a46c07479b33","665500ab8938657b03fbdba8","6657926189971b4f6cbee2d1","792","stimuli/11010111.jpg"," ","","feedback_trial","1","","","","","","","","","","","","","","","","","","","","",""
"","","","","","image-keyboard-response","32","285970","0.0-7.0","641361951f32a46c07479b33","665500ab8938657b03fbdba8","6657926189971b4f6cbee2d1","1167","stimuli/2111111.jpg","0","","prediction_trial","1","","false","","2","false","false","false","false","false","false","[0,1,2]","111","111","0","","","","","","",""
"","","","","","image-keyboard-response","33","286649","0.0-8.0","641361951f32a46c07479b33","665500ab8938657b03fbdba8","6657926189971b4f6cbee2d1","666","stimuli/21111111.jpg"," ","","feedback_trial","0","","","","","","","","","","","","","","","","","","","","",""
"","","","","","image-keyboard-response","34","287518","0.0-9.0","641361951f32a46c07479b33","665500ab8938657b03fbdba8","6657926189971b4f6cbee2d1","866","stimuli/0001101.jpg","2","","prediction_trial","0","","false","","0","false","false","true","true","false","false","[0]","001","101","0","","","","","","",""
"","","","","","image-keyboard-response","35","288177","0.0-10.0","641361951f32a46c07479b33","665500ab8938657b03fbdba8","6657926189971b4f6cbee2d1","656","stimuli/00011010.jpg"," ","","feedback_trial","0","","","","","","","","","","","","","","","","","","","","",""
"","","","","","image-keyboard-response","36","289081","0.0-11.0","641361951f32a46c07479b33","665500ab8938657b03fbdba8","6657926189971b4f6cbee2d1","889","stimuli/1101100.jpg","1","","prediction_trial","1","","true","","1","true","true","true","true","true","true","[1]","101","100","1","","","","","","",""
"","","","","","image-keyboard-response","37","290242","0.0-12.0","641361951f32a46c07479b33","665500ab8938657b03fbdba8","6657926189971b4f6cbee2d1","1148","stimuli/11011001.jpg"," ","","feedback_trial","1","","","","","","","","","","","","","","","","","","","","",""
"","","","","","image-keyboard-response","38","291250","0.0-13.0","641361951f32a46c07479b33","665500ab8938657b03fbdba8","6657926189971b4f6cbee2d1","992","stimuli/2000011.jpg","1","","prediction_trial","2","","false","","2","false","false","true","true","false","false","[2]","000","011","0","","","","","","",""
"","","","","","image-keyboard-response","39","291937","0.0-14.0","641361951f32a46c07479b33","665500ab8938657b03fbdba8","6657926189971b4f6cbee2d1","674","stimuli/20000112.jpg"," ","","feedback_trial","2","","","","","","","","","","","","","","","","","","","","",""
"","","","","","image-keyboard-response","40","292541","0.0-15.0","641361951f32a46c07479b33","665500ab8938657b03fbdba8","6657926189971b4f6cbee2d1","591","stimuli/1000001.jpg","1","","prediction_trial","1","","true","","1","true","true","true","true","true","true","[1]","000","001","1","","","","","","",""
"","","","","","image-keyboard-response","41","293177","0.0-16.0","641361951f32a46c07479b33","665500ab8938657b03fbdba8","6657926189971b4f6cbee2d1","631","stimuli/10000011.jpg"," ","","feedback_trial","1","","","","","","","","","","","","","","","","","","","","",""
"","","","","","image-keyboard-response","42","293777","0.0-17.0","641361951f32a46c07479b33","665500ab8938657b03fbdba8","6657926189971b4f6cbee2d1","587","stimuli/2111000.jpg","2","","prediction_trial","2","","true","","2","true","true","false","false","false","false","[1,2,0]","111","000","1","","","","","","",""
"","","","","","image-keyboard-response","43","294337","0.0-18.0","641361951f32a46c07479b33","665500ab8938657b03fbdba8","6657926189971b4f6cbee2d1","542","stimuli/21110002.jpg"," ","","feedback_trial","1","","","","","","","","","","","","","","","","","","","","",""
"","","","","","image-keyboard-response","44","295178","0.0-19.0","641361951f32a46c07479b33","665500ab8938657b03fbdba8","6657926189971b4f6cbee2d1","826","stimuli/2111101.jpg","0","","prediction_trial","0","","true","","2","false","false","false","false","false","false","[0,1,2]","111","101","1","","","","","","",""
"","","","","","image-keyboard-response","45","295832","0.0-20.0","641361951f32a46c07479b33","665500ab8938657b03fbdba8","6657926189971b4f6cbee2d1","639","stimuli/21111010.jpg"," ","","feedback_trial","0","","","","","","","","","","","","","","","","","","","","",""
"","","","","","image-keyboard-response","46","296506","0.0-21.0","641361951f32a46c07479b33","665500ab8938657b03fbdba8","6657926189971b4f6cbee2d1","656","stimuli/2100101.jpg","0","","prediction_trial","2","","false","","2","false","false","true","true","false","false","[2]","100","101","0","","","","","","",""
"","","","","","image-keyboard-response","47","297090","0.0-22.0","641361951f32a46c07479b33","665500ab8938657b03fbdba8","6657926189971b4f6cbee2d1","568","stimuli/21001012.jpg"," ","","feedback_trial","2","","","","","","","","","","","","","","","","","","","","",""
"","","","","","image-keyboard-response","48","297916","0.0-23.0","641361951f32a46c07479b33","665500ab8938657b03fbdba8","6657926189971b4f6cbee2d1","816","stimuli/2011001.jpg","2","","prediction_trial","2","","true","","2","false","true","false","false","false","false","[1,2]","011","001","1","","","","","","",""
"","","","","","image-keyboard-response","49","299639","0.0-24.0","641361951f32a46c07479b33","665500ab8938657b03fbdba8","6657926189971b4f6cbee2d1","1719","stimuli/20110012.jpg"," ","","feedback_trial","1","","","","","","","","","","","","","","","","","","","","",""
"","","","","","image-keyboard-response","50","300377","0.0-25.0","641361951f32a46c07479b33","665500ab8938657b03fbdba8","6657926189971b4f6cbee2d1","729","stimuli/0001100.jpg","0","","prediction_trial","0","","true","","0","false","true","true","true","false","true","[0]","001","100","1","","","","","","",""
"","","","","","image-keyboard-response","51","301045","0.0-26.0","641361951f32a46c07479b33","665500ab8938657b03fbdba8","6657926189971b4f6cbee2d1","656","stimuli/00011000.jpg"," ","","feedback_trial","0","","","","","","","","","","","","","","","","","","","","",""
"","","","","","image-keyboard-response","52","301785","0.0-27.0","641361951f32a46c07479b33","665500ab8938657b03fbdba8","6657926189971b4f6cbee2d1","736","stimuli/0010100.jpg","0","","prediction_trial","0","","true","","0","false","true","true","true","false","true","[0]","010","100","1","","","","","","",""
"","","","","","image-keyboard-response","53","302254","0.0-28.0","641361951f32a46c07479b33","665500ab8938657b03fbdba8","6657926189971b4f6cbee2d1","457","stimuli/00101000.jpg"," ","","feedback_trial","0","","","","","","","","","","","","","","","","","","","","",""
"","","","","","image-keyboard-response","54","303229","0.0-29.0","641361951f32a46c07479b33","665500ab8938657b03fbdba8","6657926189971b4f6cbee2d1","970","stimuli/2011111.jpg","1","","prediction_trial","2","","false","","2","false","false","false","false","false","false","[1,2]","011","111","0","","","","","","",""
"","","","","","image-keyboard-response","55","303886","0.0-30.0","641361951f32a46c07479b33","665500ab8938657b03fbdba8","6657926189971b4f6cbee2d1","653","stimuli/20111112.jpg"," ","","feedback_trial","1","","","","","","","","","","","","","","","","","","","","",""
"","","","","","image-keyboard-response","56","304535","0.0-31.0","641361951f32a46c07479b33","665500ab8938657b03fbdba8","6657926189971b4f6cbee2d1","645","stimuli/1001000.jpg","1","","prediction_trial","1","","true","","1","true","true","true","true","true","true","[1]","001","000","1","","","","","","",""
"","","","","","image-keyboard-response","57","304813","0.0-32.0","641361951f32a46c07479b33","665500ab8938657b03fbdba8","6657926189971b4f6cbee2d1","269","stimuli/10010001.jpg"," ","","feedback_trial","1","","","","","","","","","","","","","","","","","","","","",""
"","","","","","image-keyboard-response","58","305407","0.0-33.0","641361951f32a46c07479b33","665500ab8938657b03fbdba8","6657926189971b4f6cbee2d1","568","stimuli/0110110.jpg","0","","prediction_trial","0","","true","","0","false","false","false","false","false","false","[0,1]","110","110","1","","","","","","",""
"","","","","","image-keyboard-response","59","306127","0.0-34.0","641361951f32a46c07479b33","665500ab8938657b03fbdba8","6657926189971b4f6cbee2d1","713","stimuli/01101100.jpg"," ","","feedback_trial","0","","","","","","","","","","","","","","","","","","","","",""
"","","","","","image-keyboard-response","60","306945","0.0-35.0","641361951f32a46c07479b33","665500ab8938657b03fbdba8","6657926189971b4f6cbee2d1","808","stimuli/2101101.jpg","0","","prediction_trial","2","","false","","2","false","false","false","false","false","false","[0,2]","101","101","0","","","","","","",""
"","","","","","image-keyboard-response","61","307430","0.0-36.0","641361951f32a46c07479b33","665500ab8938657b03fbdba8","6657926189971b4f6cbee2d1","471","stimuli/21011012.jpg"," ","","feedback_trial","0","","","","","","","","","","","","","","","","","","","","",""
"","","","","","image-keyboard-response","62","307952","0.0-37.0","641361951f32a46c07479b33","665500ab8938657b03fbdba8","6657926189971b4f6cbee2d1","518","stimuli/2010000.jpg","2","","prediction_trial","2","","true","","2","true","true","true","true","true","true","[2]","010","000","1","","","","","","",""
"","","","","","image-keyboard-response","63","308601","0.0-38.0","641361951f32a46c07479b33","665500ab8938657b03fbdba8","6657926189971b4f6cbee2d1","633","stimuli/20100002.jpg"," ","","feedback_trial","2","","","","","","","","","","","","","","","","","","","","",""
"","","","","","image-keyboard-response","64","309207","0.0-39.0","641361951f32a46c07479b33","665500ab8938657b03fbdba8","6657926189971b4f6cbee2d1","587","stimuli/2011100.jpg","2","","prediction_trial","2","","true","","2","true","true","false","false","false","false","[1,2]","011","100","1","","","","","","",""
"","","","","","image-keyboard-response","65","309577","0.0-40.0","641361951f32a46c07479b33","665500ab8938657b03fbdba8","6657926189971b4f6cbee2d1","348","stimuli/20111002.jpg"," ","","feedback_trial","1","","","","","","","","","","","","","","","","","","","","",""
"","","","","","image-keyboard-response","66","310274","0.0-41.0","641361951f32a46c07479b33","665500ab8938657b03fbdba8","6657926189971b4f6cbee2d1","682","stimuli/1100101.jpg","1","","prediction_trial","1","","true","","1","true","true","true","true","true","true","[1]","100","101","1","","","","","","",""
"","","","","","image-keyboard-response","67","310552","0.0-42.0","641361951f32a46c07479b33","665500ab8938657b03fbdba8","6657926189971b4f6cbee2d1","264","stimuli/11001011.jpg"," ","","feedback_trial","1","","","","","","","","","","","","","","","","","","","","",""
"","","","","","image-keyboard-response","68","311218","0.0-43.0","641361951f32a46c07479b33","665500ab8938657b03fbdba8","6657926189971b4f6cbee2d1","658","stimuli/2000001.jpg","2","","prediction_trial","2","","true","","2","false","true","true","true","false","true","[2]","000","001","1","","","","","","",""
"","","","","","image-keyboard-response","69","311795","0.0-44.0","641361951f32a46c07479b33","665500ab8938657b03fbdba8","6657926189971b4f6cbee2d1","563","stimuli/20000012.jpg"," ","","feedback_trial","2","","","","","","","","","","","","","","","","","","","","",""
"","","","","","image-keyboard-response","70","312488","0.0-45.0","641361951f32a46c07479b33","665500ab8938657b03fbdba8","6657926189971b4f6cbee2d1","682","stimuli/1111001.jpg","1","","prediction_trial","1","","true","","1","true","true","false","false","false","false","[0,1,2]","111","001","1","","","","","","",""
"","","","","","image-keyboard-response","71","312679","0.0-46.0","641361951f32a46c07479b33","665500ab8938657b03fbdba8","6657926189971b4f6cbee2d1","174","stimuli/11110011.jpg"," ","","feedback_trial","0","","","","","","","","","","","","","","","","","","","","",""
"","","","","","image-keyboard-response","72","313225","0.0-47.0","641361951f32a46c07479b33","665500ab8938657b03fbdba8","6657926189971b4f6cbee2d1","523","stimuli/2000010.jpg","2","","prediction_trial","2","","true","","2","true","true","true","true","true","true","[2]","000","010","1","","","","","","",""
"","","","","","image-keyboard-response","73","313458","0.0-48.0","641361951f32a46c07479b33","665500ab8938657b03fbdba8","6657926189971b4f6cbee2d1","218","stimuli/20000102.jpg"," ","","feedback_trial","2","","","","","","","","","","","","","","","","","","","","",""
"","","","","","image-keyboard-response","74","314289","0.0-49.0","641361951f32a46c07479b33","665500ab8938657b03fbdba8","6657926189971b4f6cbee2d1","818","stimuli/2010010.jpg","2","","prediction_trial","2","","true","","2","true","true","true","true","true","true","[2]","010","010","1","","","","","","",""
"","","","","","image-keyboard-response","75","314616","0.0-50.0","641361951f32a46c07479b33","665500ab8938657b03fbdba8","6657926189971b4f6cbee2d1","313","stimuli/20100102.jpg"," ","","feedback_trial","2","","","","","","","","","","","","","","","","","","","","",""
"","","","","","image-keyboard-response","76","315358","0.0-51.0","641361951f32a46c07479b33","665500ab8938657b03fbdba8","6657926189971b4f6cbee2d1","731","stimuli/1110010.jpg","0","","prediction_trial","0","","true","","1","false","true","false","false","false","false","[1,0]","110","010","1","","","","","","",""
"","","","","","image-keyboard-response","77","316961","0.0-52.0","641361951f32a46c07479b33","665500ab8938657b03fbdba8","6657926189971b4f6cbee2d1","1599","stimuli/11100100.jpg"," ","","feedback_trial","1","","","","","","","","","","","","","","","","","","","","",""
"","","","","","image-keyboard-response","78","317698","0.0-53.0","641361951f32a46c07479b33","665500ab8938657b03fbdba8","6657926189971b4f6cbee2d1","724","stimuli/0100011.jpg","0","","prediction_trial","0","","true","","0","true","true","false","true","false","true","[0]","100","011","1","","","","","","",""
"","","","","","image-keyboard-response","79","318098","0.0-54.0","641361951f32a46c07479b33","665500ab8938657b03fbdba8","6657926189971b4f6cbee2d1","385","stimuli/01000110.jpg"," ","","feedback_trial","0","","","","","","","","","","","","","","","","","","","","",""
"","","","","","image-keyboard-response","80","318677","0.0-55.0","641361951f32a46c07479b33","665500ab8938657b03fbdba8","6657926189971b4f6cbee2d1","567","stimuli/1001100.jpg","1","","prediction_trial","1","","true","","1","true","true","true","true","true","true","[1]","001","100","1","","","","","","",""
"","","","","","image-keyboard-response","81","318990","0.0-56.0","641361951f32a46c07479b33","665500ab8938657b03fbdba8","6657926189971b4f6cbee2d1","309","stimuli/10011001.jpg"," ","","feedback_trial","1","","","","","","","","","","","","","","","","","","","","",""
"","","","","","image-keyboard-response","82","319806","0.0-57.0","641361951f32a46c07479b33","665500ab8938657b03fbdba8","6657926189971b4f6cbee2d1","810","stimuli/1100000.jpg","1","","prediction_trial","1","","true","","1","true","true","true","true","true","true","[1]","100","000","1","","","","","","",""
"","","","","","image-keyboard-response","83","320233","0.0-58.0","641361951f32a46c07479b33","665500ab8938657b03fbdba8","6657926189971b4f6cbee2d1","422","stimuli/11000001.jpg"," ","","feedback_trial","1","","","","","","","","","","","","","","","","","","","","",""
"","","","","","image-keyboard-response","84","321048","0.0-59.0","641361951f32a46c07479b33","665500ab8938657b03fbdba8","6657926189971b4f6cbee2d1","802","stimuli/0111111.jpg","1","","prediction_trial","2","","false","","0","false","false","false","false","false","false","[2,1,0]","111","111","0","","","","","","",""
"","","","","","image-keyboard-response","85","321744","0.0-60.0","641361951f32a46c07479b33","665500ab8938657b03fbdba8","6657926189971b4f6cbee2d1","682","stimuli/01111112.jpg"," ","","feedback_trial","2","","","","","","","","","","","","","","","","","","","","",""
"","","","","","image-keyboard-response","86","322353","0.0-61.0","641361951f32a46c07479b33","665500ab8938657b03fbdba8","6657926189971b4f6cbee2d1","593","stimuli/2101100.jpg","2","","prediction_trial","2","","true","","2","true","true","false","false","false","false","[2,0]","101","100","1","","","","","","",""
"","","","","","image-keyboard-response","87","322964","0.0-62.0","641361951f32a46c07479b33","665500ab8938657b03fbdba8","6657926189971b4f6cbee2d1","598","stimuli/21011002.jpg"," ","","feedback_trial","2","","","","","","","","","","","","","","","","","","","","",""
"","","","","","image-keyboard-response","88","323492","0.0-63.0","641361951f32a46c07479b33","665500ab8938657b03fbdba8","6657926189971b4f6cbee2d1","513","stimuli/0100000.jpg","0","","prediction_trial","0","","true","","0","true","true","false","true","false","true","[0]","100","000","1","","","","","","",""
"","","","","","image-keyboard-response","89","323881","0.0-64.0","641361951f32a46c07479b33","665500ab8938657b03fbdba8","6657926189971b4f6cbee2d1","374","stimuli/01000000.jpg"," ","","feedback_trial","0","","","","","","","","","","","","","","","","","","","","",""
"","","","","","image-keyboard-response","90","324786","0.0-65.0","641361951f32a46c07479b33","665500ab8938657b03fbdba8","6657926189971b4f6cbee2d1","890","stimuli/1110100.jpg","1","","prediction_trial","0","","false","","1","true","true","false","false","false","false","[0,1]","110","100","0","","","","","","",""
"","","","","","image-keyboard-response","91","325612","0.0-66.0","641361951f32a46c07479b33","665500ab8938657b03fbdba8","6657926189971b4f6cbee2d1","813","stimuli/11101000.jpg"," ","","feedback_trial","0","","","","","","","","","","","","","","","","","","","","",""
"","","","","","image-keyboard-response","92","326266","0.0-67.0","641361951f32a46c07479b33","665500ab8938657b03fbdba8","6657926189971b4f6cbee2d1","640","stimuli/0000000.jpg","0","","prediction_trial","0","","true","","0","true","true","true","true","true","true","[0]","000","000","1","","","","","","",""
"","","","","","image-keyboard-response","93","326502","0.0-68.0","641361951f32a46c07479b33","665500ab8938657b03fbdba8","6657926189971b4f6cbee2d1","222","stimuli/00000000.jpg"," ","","feedback_trial","0","","","","","","","","","","","","","","","","","","","","",""
"","","","","","image-keyboard-response","94","327138","0.0-69.0","641361951f32a46c07479b33","665500ab8938657b03fbdba8","6657926189971b4f6cbee2d1","610","stimuli/0110011.jpg","0","","prediction_trial","1","","false","","0","true","true","false","false","false","false","[1,0]","110","011","0","","","","","","",""
"","","","","","image-keyboard-response","95","327363","0.0-70.0","641361951f32a46c07479b33","665500ab8938657b03fbdba8","6657926189971b4f6cbee2d1","210","stimuli/01100111.jpg"," ","","feedback_trial","1","","","","","","","","","","","","","","","","","","","","",""
"","","","","","image-keyboard-response","96","328002","0.0-71.0","641361951f32a46c07479b33","665500ab8938657b03fbdba8","6657926189971b4f6cbee2d1","626","stimuli/1100100.jpg","1","","prediction_trial","1","","true","","1","true","true","true","true","true","true","[1]","100","100","1","","","","","","",""
"","","","","","image-keyboard-response","97","328274","0.0-72.0","641361951f32a46c07479b33","665500ab8938657b03fbdba8","6657926189971b4f6cbee2d1","262","stimuli/11001001.jpg"," ","","feedback_trial","1","","","","","","","","","","","","","","","","","","","","",""
"","","","","","image-keyboard-response","98","328978","0.0-73.0","641361951f32a46c07479b33","665500ab8938657b03fbdba8","6657926189971b4f6cbee2d1","691","stimuli/0111100.jpg","0","","prediction_trial","1","","false","","0","false","true","false","false","false","false","[0,1,2]","111","100","0","","","","","","",""
"","","","","","image-keyboard-response","99","329181","0.0-74.0","641361951f32a46c07479b33","665500ab8938657b03fbdba8","6657926189971b4f6cbee2d1","187","stimuli/01111001.jpg"," ","","feedback_trial","0","","","","","","","","","","","","","","","","","","","","",""
"","","","","","image-keyboard-response","100","329921","0.0-75.0","641361951f32a46c07479b33","665500ab8938657b03fbdba8","6657926189971b4f6cbee2d1","734","stimuli/1101101.jpg","1","","prediction_trial","1","","true","","1","true","true","true","true","true","true","[1]","101","101","1","","","","","","",""
"","","","","","image-keyboard-response","101","330247","0.0-76.0","641361951f32a46c07479b33","665500ab8938657b03fbdba8","6657926189971b4f6cbee2d1","313","stimuli/11011011.jpg"," ","","feedback_trial","1","","","","","","","","","","","","","","","","","","","","",""
"","","","","","image-keyboard-response","102","330773","0.0-77.0","641361951f32a46c07479b33","665500ab8938657b03fbdba8","6657926189971b4f6cbee2d1","518","stimuli/2001000.jpg","2","","prediction_trial","2","","true","","2","true","true","false","true","false","true","[2]","001","000","1","","","","","","",""
"","","","","","image-keyboard-response","103","331269","0.0-78.0","641361951f32a46c07479b33","665500ab8938657b03fbdba8","6657926189971b4f6cbee2d1","469","stimuli/20010002.jpg"," ","","feedback_trial","2","","","","","","","","","","","","","","","","","","","","",""
"","","","","","image-keyboard-response","104","331834","0.0-79.0","641361951f32a46c07479b33","665500ab8938657b03fbdba8","6657926189971b4f6cbee2d1","560","stimuli/0011011.jpg","0","","prediction_trial","0","","true","","0","true","true","true","true","true","true","[0]","011","011","1","","","","","","",""
"","","","","","image-keyboard-response","105","332194","0.0-80.0","641361951f32a46c07479b33","665500ab8938657b03fbdba8","6657926189971b4f6cbee2d1","356","stimuli/00110110.jpg"," ","","feedback_trial","0","","","","","","","","","","","","","","","","","","","","",""
"","","","","","image-keyboard-response","106","332793","0.0-81.0","641361951f32a46c07479b33","665500ab8938657b03fbdba8","6657926189971b4f6cbee2d1","587","stimuli/1110000.jpg","1","","prediction_trial","1","","true","","1","true","true","false","false","false","false","[1,0]","110","000","1","","","","","","",""
"","","","","","image-keyboard-response","107","333041","0.0-82.0","641361951f32a46c07479b33","665500ab8938657b03fbdba8","6657926189971b4f6cbee2d1","235","stimuli/11100001.jpg"," ","","feedback_trial","1","","","","","","","","","","","","","","","","","","","","",""
"","","","","","image-keyboard-response","108","333737","0.0-83.0","641361951f32a46c07479b33","665500ab8938657b03fbdba8","6657926189971b4f6cbee2d1","679","stimuli/0000101.jpg","2","","prediction_trial","0","","false","","0","false","false","true","true","false","false","[0]","000","101","0","","","","","","",""
"","","","","","image-keyboard-response","109","334249","0.0-84.0","641361951f32a46c07479b33","665500ab8938657b03fbdba8","6657926189971b4f6cbee2d1","497","stimuli/00001010.jpg"," ","","feedback_trial","0","","","","","","","","","","","","","","","","","","","","",""
"","","","","","image-keyboard-response","110","334891","0.0-85.0","641361951f32a46c07479b33","665500ab8938657b03fbdba8","6657926189971b4f6cbee2d1","631","stimuli/2001110.jpg","2","","prediction_trial","2","","true","","2","true","true","false","true","false","true","[2]","001","110","1","","","","","","",""
"","","","","","image-keyboard-response","111","335241","0.0-86.0","641361951f32a46c07479b33","665500ab8938657b03fbdba8","6657926189971b4f6cbee2d1","338","stimuli/20011102.jpg"," ","","feedback_trial","2","","","","","","","","","","","","","","","","","","","","",""
"","","","","","image-keyboard-response","112","336018","0.0-87.0","641361951f32a46c07479b33","665500ab8938657b03fbdba8","6657926189971b4f6cbee2d1","765","stimuli/2101001.jpg","2","","prediction_trial","0","","false","","2","false","true","false","false","false","false","[0,2]","101","001","0","","","","","","",""
"","","","","","image-keyboard-response","113","336689","0.0-88.0","641361951f32a46c07479b33","665500ab8938657b03fbdba8","6657926189971b4f6cbee2d1","660","stimuli/21010010.jpg"," ","","feedback_trial","0","","","","","","","","","","","","","","","","","","","","",""
"","","","","","image-keyboard-response","114","337369","0.0-89.0","641361951f32a46c07479b33","665500ab8938657b03fbdba8","6657926189971b4f6cbee2d1","666","stimuli/0100100.jpg","0","","prediction_trial","0","","true","","0","false","true","false","true","false","true","[0]","100","100","1","","","","","","",""
"","","","","","image-keyboard-response","115","337672","0.0-90.0","641361951f32a46c07479b33","665500ab8938657b03fbdba8","6657926189971b4f6cbee2d1","291","stimuli/01001000.jpg"," ","","feedback_trial","0","","","","","","","","","","","","","","","","","","","","",""
"","","","","","image-keyboard-response","116","338224","0.0-91.0","641361951f32a46c07479b33","665500ab8938657b03fbdba8","6657926189971b4f6cbee2d1","538","stimuli/2100010.jpg","2","","prediction_trial","2","","true","","2","true","true","true","true","true","true","[2]","100","010","1","","","","","","",""
"","","","","","image-keyboard-response","117","338498","0.0-92.0","641361951f32a46c07479b33","665500ab8938657b03fbdba8","6657926189971b4f6cbee2d1","261","stimuli/21000102.jpg"," ","","feedback_trial","2","","","","","","","","","","","","","","","","","","","","",""
"","","","","","image-keyboard-response","118","339233","0.0-93.0","641361951f32a46c07479b33","665500ab8938657b03fbdba8","6657926189971b4f6cbee2d1","724","stimuli/1010101.jpg","1","","prediction_trial","1","","true","","1","true","true","false","true","false","true","[1]","010","101","1","","","","","","",""
"","","","","","image-keyboard-response","119","339392","0.0-94.0","641361951f32a46c07479b33","665500ab8938657b03fbdba8","6657926189971b4f6cbee2d1","148","stimuli/10101011.jpg"," ","","feedback_trial","1","","","","","","","","","","","","","","","","","","","","",""
"","","","","","image-keyboard-response","120","340352","0.0-95.0","641361951f32a46c07479b33","665500ab8938657b03fbdba8","6657926189971b4f6cbee2d1","947","stimuli/0010101.jpg","2","","prediction_trial","0","","false","","0","false","false","true","true","false","false","[0]","010","101","0","","","","","","",""
"","","","","","image-keyboard-response","121","340832","0.0-96.0","641361951f32a46c07479b33","665500ab8938657b03fbdba8","6657926189971b4f6cbee2d1","466","stimuli/00101010.jpg"," ","","feedback_trial","0","","","","","","","","","","","","","","","","","","","","",""
"","","","","","image-keyboard-response","122","341369","0.0-97.0","641361951f32a46c07479b33","665500ab8938657b03fbdba8","6657926189971b4f6cbee2d1","522","stimuli/2101000.jpg","2","","prediction_trial","0","","false","","2","true","true","false","false","false","false","[0,2]","101","000","0","","","","","","",""
"","","","","","image-keyboard-response","123","341585","0.0-98.0","641361951f32a46c07479b33","665500ab8938657b03fbdba8","6657926189971b4f6cbee2d1","203","stimuli/21010000.jpg"," ","","feedback_trial","0","","","","","","","","","","","","","","","","","","","","",""
"","","","","","image-keyboard-response","124","342464","0.0-99.0","641361951f32a46c07479b33","665500ab8938657b03fbdba8","6657926189971b4f6cbee2d1","868","stimuli/1001101.jpg","1","","prediction_trial","1","","true","","1","true","true","true","true","true","true","[1]","001","101","1","","","","","","",""
"","","","","","image-keyboard-response","125","342584","0.0-100.0","641361951f32a46c07479b33","665500ab8938657b03fbdba8","6657926189971b4f6cbee2d1","108","stimuli/10011011.jpg"," ","","feedback_trial","1","","","","","","","","","","","","","","","","","","","","",""
"","","","","","image-keyboard-response","126","343488","0.0-101.0","641361951f32a46c07479b33","665500ab8938657b03fbdba8","6657926189971b4f6cbee2d1","891","stimuli/0010111.jpg","1","","prediction_trial","0","","false","","0","false","false","true","true","false","false","[0]","010","111","0","","","","","","",""
"","","","","","image-keyboard-response","127","343729","0.0-102.0","641361951f32a46c07479b33","665500ab8938657b03fbdba8","6657926189971b4f6cbee2d1","229","stimuli/00101110.jpg"," ","","feedback_trial","0","","","","","","","","","","","","","","","","","","","","",""
"","","","","","image-keyboard-response","128","344352","0.0-103.0","641361951f32a46c07479b33","665500ab8938657b03fbdba8","6657926189971b4f6cbee2d1","611","stimuli/1011000.jpg","1","","prediction_trial","2","","false","","1","true","true","false","false","false","false","[2,1]","011","000","0","","","","","","",""
"","","","","","image-keyboard-response","129","344598","0.0-104.0","641361951f32a46c07479b33","665500ab8938657b03fbdba8","6657926189971b4f6cbee2d1","232","stimuli/10110002.jpg"," ","","feedback_trial","2","","","","","","","","","","","","","","","","","","","","",""
"","","","","","image-keyboard-response","130","345181","0.0-105.0","641361951f32a46c07479b33","665500ab8938657b03fbdba8","6657926189971b4f6cbee2d1","580","stimuli/0110001.jpg","0","","prediction_trial","0","","true","","0","true","true","false","false","false","false","[1,0]","110","001","1","","","","","","",""
"","","","","","image-keyboard-response","131","345414","0.0-106.0","641361951f32a46c07479b33","665500ab8938657b03fbdba8","6657926189971b4f6cbee2d1","224","stimuli/01100010.jpg"," ","","feedback_trial","1","","","","","","","","","","","","","","","","","","","","",""
"","","","","","image-keyboard-response","132","346446","0.0-107.0","641361951f32a46c07479b33","665500ab8938657b03fbdba8","6657926189971b4f6cbee2d1","1007","stimuli/1001110.jpg","1","","prediction_trial","1","","true","","1","false","false","true","true","false","false","[1]","001","110","1","","","","","","",""
"","","","","","image-keyboard-response","133","347133","0.0-108.0","641361951f32a46c07479b33","665500ab8938657b03fbdba8","6657926189971b4f6cbee2d1","681","stimuli/10011101.jpg"," ","","feedback_trial","1","","","","","","","","","","","","","","","","","","","","",""
"","","","","","image-keyboard-response","134","347874","0.0-109.0","641361951f32a46c07479b33","665500ab8938657b03fbdba8","6657926189971b4f6cbee2d1","725","stimuli/0110101.jpg","0","","prediction_trial","1","","false","","0","false","false","false","false","false","false","[0,1]","110","101","0","","","","","","",""
"","","","","","image-keyboard-response","135","348387","0.0-110.0","641361951f32a46c07479b33","665500ab8938657b03fbdba8","6657926189971b4f6cbee2d1","498","stimuli/01101011.jpg"," ","","feedback_trial","0","","","","","","","","","","","","","","","","","","","","",""
"","","","","","image-keyboard-response","136","349488","0.0-111.0","641361951f32a46c07479b33","665500ab8938657b03fbdba8","6657926189971b4f6cbee2d1","1084","stimuli/2100011.jpg","1","","prediction_trial","2","","false","","2","false","false","true","true","false","false","[2]","100","011","0","","","","","","",""
"","","","","","image-keyboard-response","137","350110","0.0-112.0","641361951f32a46c07479b33","665500ab8938657b03fbdba8","6657926189971b4f6cbee2d1","595","stimuli/21000112.jpg"," ","","feedback_trial","2","","","","","","","","","","","","","","","","","","","","",""
"","","","","","image-keyboard-response","138","350971","0.0-113.0","641361951f32a46c07479b33","665500ab8938657b03fbdba8","6657926189971b4f6cbee2d1","856","stimuli/1110110.jpg","0","","prediction_trial","1","","false","","1","false","false","false","false","false","false","[1,0]","110","110","0","","","","","","",""
"","","","","","image-keyboard-response","139","351457","0.0-114.0","641361951f32a46c07479b33","665500ab8938657b03fbdba8","6657926189971b4f6cbee2d1","470","stimuli/11101101.jpg"," ","","feedback_trial","1","","","","","","","","","","","","","","","","","","","","",""
"","","","","","image-keyboard-response","140","352138","0.0-115.0","641361951f32a46c07479b33","665500ab8938657b03fbdba8","6657926189971b4f6cbee2d1","666","stimuli/1101001.jpg","1","","prediction_trial","1","","true","","1","true","true","true","true","true","true","[1]","101","001","1","","","","","","",""
"","","","","","image-keyboard-response","141","352459","0.0-116.0","641361951f32a46c07479b33","665500ab8938657b03fbdba8","6657926189971b4f6cbee2d1","306","stimuli/11010011.jpg"," ","","feedback_trial","1","","","","","","","","","","","","","","","","","","","","",""
"","","","","","image-keyboard-response","142","353031","0.0-117.0","641361951f32a46c07479b33","665500ab8938657b03fbdba8","6657926189971b4f6cbee2d1","555","stimuli/0101010.jpg","0","","prediction_trial","0","","true","","0","true","true","false","false","false","false","[2,0]","101","010","1","","","","","","",""
"","","","","","image-keyboard-response","143","353258","0.0-118.0","641361951f32a46c07479b33","665500ab8938657b03fbdba8","6657926189971b4f6cbee2d1","219","stimuli/01010100.jpg"," ","","feedback_trial","2","","","","","","","","","","","","","","","","","","","","",""
"","","","","","image-keyboard-response","144","353841","0.0-119.0","641361951f32a46c07479b33","665500ab8938657b03fbdba8","6657926189971b4f6cbee2d1","573","stimuli/0111000.jpg","0","","prediction_trial","1","","false","","0","true","true","false","false","false","false","[2,1,0]","111","000","0","","","","","","",""
"","","","","","image-keyboard-response","145","354288","0.0-120.0","641361951f32a46c07479b33","665500ab8938657b03fbdba8","6657926189971b4f6cbee2d1","430","stimuli/01110001.jpg"," ","","feedback_trial","2","","","","","","","","","","","","","","","","","","","","",""
"","","","","","image-keyboard-response","146","354907","0.0-121.0","641361951f32a46c07479b33","665500ab8938657b03fbdba8","6657926189971b4f6cbee2d1","593","stimuli/2110100.jpg","2","","prediction_trial","2","","true","","2","true","true","true","true","true","true","[2]","110","100","1","","","","","","",""
"","","","","","image-keyboard-response","147","355242","0.0-122.0","641361951f32a46c07479b33","665500ab8938657b03fbdba8","6657926189971b4f6cbee2d1","323","stimuli/21101002.jpg"," ","","feedback_trial","2","","","","","","","","","","","","","","","","","","","","",""
"","","","","","image-keyboard-response","148","355698","0.0-123.0","641361951f32a46c07479b33","665500ab8938657b03fbdba8","6657926189971b4f6cbee2d1","444","stimuli/0010010.jpg","0","","prediction_trial","0","","true","","0","true","true","true","true","true","true","[0]","010","010","1","","","","","","",""
"","","","","","image-keyboard-response","149","355992","0.0-124.0","641361951f32a46c07479b33","665500ab8938657b03fbdba8","6657926189971b4f6cbee2d1","281","stimuli/00100100.jpg"," ","","feedback_trial","0","","","","","","","","","","","","","","","","","","","","",""
"","","","","","image-keyboard-response","150","356769","0.0-125.0","641361951f32a46c07479b33","665500ab8938657b03fbdba8","6657926189971b4f6cbee2d1","762","stimuli/0111101.jpg","2","","prediction_trial","2","","true","","0","false","false","false","false","false","false","[1,2,0]","111","101","1","","","","","","",""
"","","","","","image-keyboard-response","151","357127","0.0-126.0","641361951f32a46c07479b33","665500ab8938657b03fbdba8","6657926189971b4f6cbee2d1","345","stimuli/01111012.jpg"," ","","feedback_trial","1","","","","","","","","","","","","","","","","","","","","",""
"","","","","","image-keyboard-response","152","357659","0.0-127.0","641361951f32a46c07479b33","665500ab8938657b03fbdba8","6657926189971b4f6cbee2d1","523","stimuli/0100001.jpg","0","","prediction_trial","0","","true","","0","true","true","false","true","false","true","[0]","100","001","1","","","","","","",""
"","","","","","image-keyboard-response","153","357945","0.0-128.0","641361951f32a46c07479b33","665500ab8938657b03fbdba8","6657926189971b4f6cbee2d1","272","stimuli/01000010.jpg"," ","","feedback_trial","0","","","","","","","","","","","","","","","","","","","","",""
"","","","","","image-keyboard-response","154","358665","0.0-129.0","641361951f32a46c07479b33","665500ab8938657b03fbdba8","6657926189971b4f6cbee2d1","708","stimuli/2000101.jpg","0","","prediction_trial","2","","false","","2","false","false","true","true","false","false","[2]","000","101","0","","","","","","",""
"","","","","","image-keyboard-response","155","359900","0.0-130.0","641361951f32a46c07479b33","665500ab8938657b03fbdba8","6657926189971b4f6cbee2d1","1228","stimuli/20001012.jpg"," ","","feedback_trial","2","","","","","","","","","","","","","","","","","","","","",""
"","","","","","image-keyboard-response","156","360812","0.0-131.0","641361951f32a46c07479b33","665500ab8938657b03fbdba8","6657926189971b4f6cbee2d1","895","stimuli/2001101.jpg","2","","prediction_trial","2","","true","","2","false","false","false","true","false","false","[2]","001","101","1","","","","","","",""
"","","","","","image-keyboard-response","157","361216","0.0-132.0","641361951f32a46c07479b33","665500ab8938657b03fbdba8","6657926189971b4f6cbee2d1","394","stimuli/20011012.jpg"," ","","feedback_trial","2","","","","","","","","","","","","","","","","","","","","",""
"","","","","","image-keyboard-response","158","361800","0.0-133.0","641361951f32a46c07479b33","665500ab8938657b03fbdba8","6657926189971b4f6cbee2d1","569","stimuli/2110111.jpg","0","","prediction_trial","2","","false","","2","false","false","true","true","false","false","[2]","110","111","0","","","","","","",""
"","","","","","image-keyboard-response","159","362273","0.0-134.0","641361951f32a46c07479b33","665500ab8938657b03fbdba8","6657926189971b4f6cbee2d1","460","stimuli/21101112.jpg"," ","","feedback_trial","2","","","","","","","","","","","","","","","","","","","","",""
"","","","","","image-keyboard-response","160","363273","0.0-135.0","641361951f32a46c07479b33","665500ab8938657b03fbdba8","6657926189971b4f6cbee2d1","987","stimuli/2001111.jpg","1","","prediction_trial","2","","false","","2","false","false","false","true","false","false","[2]","001","111","0","","","","","","",""
"","","","","","image-keyboard-response","161","364001","0.0-136.0","641361951f32a46c07479b33","665500ab8938657b03fbdba8","6657926189971b4f6cbee2d1","713","stimuli/20011112.jpg"," ","","feedback_trial","2","","","","","","","","","","","","","","","","","","","","",""
"","","","","","image-keyboard-response","162","365289","0.0-137.0","641361951f32a46c07479b33","665500ab8938657b03fbdba8","6657926189971b4f6cbee2d1","1276","stimuli/1010111.jpg","1","","prediction_trial","1","","true","","1","false","false","false","true","false","false","[1]","010","111","1","","","","","","",""
"","","","","","image-keyboard-response","163","366014","0.0-138.0","641361951f32a46c07479b33","665500ab8938657b03fbdba8","6657926189971b4f6cbee2d1","713","stimuli/10101111.jpg"," ","","feedback_trial","1","","","","","","","","","","","","","","","","","","","","",""
"","","","","","image-keyboard-response","164","366593","0.0-139.0","641361951f32a46c07479b33","665500ab8938657b03fbdba8","6657926189971b4f6cbee2d1","575","stimuli/1011100.jpg","1","","prediction_trial","1","","true","","1","true","true","false","false","false","false","[2,1]","011","100","1","","","","","","",""
"","","","","","image-keyboard-response","165","366776","0.0-140.0","641361951f32a46c07479b33","665500ab8938657b03fbdba8","6657926189971b4f6cbee2d1","172","stimuli/10111001.jpg"," ","","feedback_trial","2","","","","","","","","","","","","","","","","","","","","",""
"","","","","","image-keyboard-response","166","367376","0.0-141.0","641361951f32a46c07479b33","665500ab8938657b03fbdba8","6657926189971b4f6cbee2d1","591","stimuli/2110001.jpg","2","","prediction_trial","2","","true","","2","false","true","true","true","false","true","[2]","110","001","1","","","","","","",""
"","","","","","image-keyboard-response","167","367618","0.0-142.0","641361951f32a46c07479b33","665500ab8938657b03fbdba8","6657926189971b4f6cbee2d1","218","stimuli/21100012.jpg"," ","","feedback_trial","2","","","","","","","","","","","","","","","","","","","","",""
"","","","","","image-keyboard-response","168","368302","0.0-143.0","641361951f32a46c07479b33","665500ab8938657b03fbdba8","6657926189971b4f6cbee2d1","670","stimuli/1100011.jpg","0","","prediction_trial","1","","false","","1","false","false","true","true","false","false","[1]","100","011","0","","","","","","",""
"","","","","","image-keyboard-response","169","368673","0.0-144.0","641361951f32a46c07479b33","665500ab8938657b03fbdba8","6657926189971b4f6cbee2d1","365","stimuli/11000111.jpg"," ","","feedback_trial","1","","","","","","","","","","","","","","","","","","","","",""
"","","","","","image-keyboard-response","170","369393","0.0-145.0","641361951f32a46c07479b33","665500ab8938657b03fbdba8","6657926189971b4f6cbee2d1","710","stimuli/1000100.jpg","1","","prediction_trial","1","","true","","1","true","true","true","true","true","true","[1]","000","100","1","","","","","","",""
"","","","","","image-keyboard-response","171","369811","0.0-146.0","641361951f32a46c07479b33","665500ab8938657b03fbdba8","6657926189971b4f6cbee2d1","404","stimuli/10001001.jpg"," ","","feedback_trial","1","","","","","","","","","","","","","","","","","","","","",""
"","","","","","image-keyboard-response","172","370902","0.0-147.0","641361951f32a46c07479b33","665500ab8938657b03fbdba8","6657926189971b4f6cbee2d1","1076","stimuli/1100110.jpg","0","","prediction_trial","1","","false","","1","false","false","true","true","false","false","[1]","100","110","0","","","","","","",""
"","","","","","image-keyboard-response","173","371376","0.0-148.0","641361951f32a46c07479b33","665500ab8938657b03fbdba8","6657926189971b4f6cbee2d1","468","stimuli/11001101.jpg"," ","","feedback_trial","1","","","","","","","","","","","","","","","","","","","","",""
"","","","","","image-keyboard-response","174","371841","0.0-149.0","641361951f32a46c07479b33","665500ab8938657b03fbdba8","6657926189971b4f6cbee2d1","441","stimuli/2111100.jpg","1","","prediction_trial","0","","false","","2","true","true","false","false","false","false","[2,1,0]","111","100","0","","","","","","",""
"","","","","","image-keyboard-response","175","372230","0.0-150.0","641361951f32a46c07479b33","665500ab8938657b03fbdba8","6657926189971b4f6cbee2d1","371","stimuli/21111000.jpg"," ","","feedback_trial","2","","","","","","","","","","","","","","","","","","","","",""
"","","","","","image-keyboard-response","176","373076","0.0-151.0","641361951f32a46c07479b33","665500ab8938657b03fbdba8","6657926189971b4f6cbee2d1","840","stimuli/2111011.jpg","1","","prediction_trial","0","","false","","2","false","false","false","false","false","false","[1,0,2]","111","011","0","","","","","","",""
"","","","","","image-keyboard-response","177","373721","0.0-152.0","641361951f32a46c07479b33","665500ab8938657b03fbdba8","6657926189971b4f6cbee2d1","631","stimuli/21110110.jpg"," ","","feedback_trial","1","","","","","","","","","","","","","","","","","","","","",""
"","","","","","image-keyboard-response","178","374370","0.0-153.0","641361951f32a46c07479b33","665500ab8938657b03fbdba8","6657926189971b4f6cbee2d1","635","stimuli/0010011.jpg","0","","prediction_trial","0","","true","","0","true","true","true","true","true","true","[0]","010","011","1","","","","","","",""
"","","","","","image-keyboard-response","179","374658","0.0-154.0","641361951f32a46c07479b33","665500ab8938657b03fbdba8","6657926189971b4f6cbee2d1","276","stimuli/00100110.jpg"," ","","feedback_trial","0","","","","","","","","","","","","","","","","","","","","",""
"","","","","","image-keyboard-response","180","375439","0.0-155.0","641361951f32a46c07479b33","665500ab8938657b03fbdba8","6657926189971b4f6cbee2d1","767","stimuli/1011010.jpg","1","","prediction_trial","1","","true","","1","false","true","false","false","false","false","[1,2]","011","010","1","","","","","","",""
"","","","","","image-keyboard-response","181","375770","0.0-156.0","641361951f32a46c07479b33","665500ab8938657b03fbdba8","6657926189971b4f6cbee2d1","307","stimuli/10110101.jpg"," ","","feedback_trial","1","","","","","","","","","","","","","","","","","","","","",""
"","","","","","image-keyboard-response","182","376377","0.0-157.0","641361951f32a46c07479b33","665500ab8938657b03fbdba8","6657926189971b4f6cbee2d1","590","stimuli/2111010.jpg","2","","prediction_trial","1","","false","","2","true","true","false","false","false","false","[2,1,0]","111","010","0","","","","","","",""
"","","","","","image-keyboard-response","183","376743","0.0-158.0","641361951f32a46c07479b33","665500ab8938657b03fbdba8","6657926189971b4f6cbee2d1","352","stimuli/21110101.jpg"," ","","feedback_trial","2","","","","","","","","","","","","","","","","","","","","",""
"","","","","","image-keyboard-response","184","377915","0.0-159.0","641361951f32a46c07479b33","665500ab8938657b03fbdba8","6657926189971b4f6cbee2d1","1166","stimuli/2001001.jpg","2","","prediction_trial","2","","true","","2","false","true","false","true","false","true","[2]","001","001","1","","","","","","",""
"","","","","","image-keyboard-response","185","378513","0.0-160.0","641361951f32a46c07479b33","665500ab8938657b03fbdba8","6657926189971b4f6cbee2d1","584","stimuli/20010012.jpg"," ","","feedback_trial","2","","","","","","","","","","","","","","","","","","","","",""
"","","","","","image-keyboard-response","186","379538","0.0-161.0","641361951f32a46c07479b33","665500ab8938657b03fbdba8","6657926189971b4f6cbee2d1","1011","stimuli/0011101.jpg","2","","prediction_trial","0","","false","","0","false","false","true","true","false","false","[0]","011","101","0","","","","","","",""
"","","","","","image-keyboard-response","187","380273","0.0-162.0","641361951f32a46c07479b33","665500ab8938657b03fbdba8","6657926189971b4f6cbee2d1","722","stimuli/00111010.jpg"," ","","feedback_trial","0","","","","","","","","","","","","","","","","","","","","",""
"","","","","","image-keyboard-response","188","381673","0.0-163.0","641361951f32a46c07479b33","665500ab8938657b03fbdba8","6657926189971b4f6cbee2d1","1385","stimuli/2110101.jpg","2","","prediction_trial","2","","true","","2","false","false","true","true","false","false","[2]","110","101","1","","","","","","",""
"","","","","","image-keyboard-response","189","382161","0.0-164.0","641361951f32a46c07479b33","665500ab8938657b03fbdba8","6657926189971b4f6cbee2d1","475","stimuli/21101012.jpg"," ","","feedback_trial","2","","","","","","","","","","","","","","","","","","","","",""
"","","","","","image-keyboard-response","190","384731","0.0-165.0","641361951f32a46c07479b33","665500ab8938657b03fbdba8","6657926189971b4f6cbee2d1","2556","stimuli/1100111.jpg","1","","prediction_trial","1","","true","","1","false","false","true","true","false","false","[1]","100","111","1","","","","","","",""
"","","","","","image-keyboard-response","191","385313","0.0-166.0","641361951f32a46c07479b33","665500ab8938657b03fbdba8","6657926189971b4f6cbee2d1","571","stimuli/11001111.jpg"," ","","feedback_trial","1","","","","","","","","","","","","","","","","","","","","",""
"","","","","","image-keyboard-response","192","387120","0.0-167.0","641361951f32a46c07479b33","665500ab8938657b03fbdba8","6657926189971b4f6cbee2d1","1794","stimuli/2101011.jpg","1","","prediction_trial","0","","false","","2","false","false","false","false","false","false","[0,2]","101","011","0","","","","","","",""
"","","","","","image-keyboard-response","193","387777","0.0-168.0","641361951f32a46c07479b33","665500ab8938657b03fbdba8","6657926189971b4f6cbee2d1","644","stimuli/21010110.jpg"," ","","feedback_trial","0","","","","","","","","","","","","","","","","","","","","",""
"","","","","","image-keyboard-response","194","389570","0.0-169.0","641361951f32a46c07479b33","665500ab8938657b03fbdba8","6657926189971b4f6cbee2d1","1779","stimuli/2110011.jpg","0","","prediction_trial","2","","false","","2","false","false","true","true","false","false","[2]","110","011","0","","","","","","",""
"","","","","","image-keyboard-response","195","390305","0.0-170.0","641361951f32a46c07479b33","665500ab8938657b03fbdba8","6657926189971b4f6cbee2d1","719","stimuli/21100112.jpg"," ","","feedback_trial","2","","","","","","","","","","","","","","","","","","","","",""
"","","","","","image-keyboard-response","196","391378","0.0-171.0","641361951f32a46c07479b33","665500ab8938657b03fbdba8","6657926189971b4f6cbee2d1","1060","stimuli/0101101.jpg","2","","prediction_trial","0","","false","","0","false","false","false","false","false","false","[2,0]","101","101","0","","","","","","",""
"","","","","","image-keyboard-response","197","391790","0.0-172.0","641361951f32a46c07479b33","665500ab8938657b03fbdba8","6657926189971b4f6cbee2d1","399","stimuli/01011010.jpg"," ","","feedback_trial","2","","","","","","","","","","","","","","","","","","","","",""
"","","","","","image-keyboard-response","198","392221","0.0-173.0","641361951f32a46c07479b33","665500ab8938657b03fbdba8","6657926189971b4f6cbee2d1","429","stimuli/2011000.jpg","1","","prediction_trial","1","","true","","2","true","true","false","false","false","false","[1,2]","011","000","1","","","","","","",""
"","","","","","image-keyboard-response","199","392600","0.0-174.0","641361951f32a46c07479b33","665500ab8938657b03fbdba8","6657926189971b4f6cbee2d1","375","stimuli/20110001.jpg"," ","","feedback_trial","1","","","","","","","","","","","","","","","","","","","","",""
"","","","","","image-keyboard-response","200","393192","0.0-175.0","641361951f32a46c07479b33","665500ab8938657b03fbdba8","6657926189971b4f6cbee2d1","579","stimuli/0001011.jpg","0","","prediction_trial","0","","true","","0","true","true","true","true","true","true","[0]","001","011","1","","","","","","",""
"","","","","","image-keyboard-response","201","393545","0.0-176.0","641361951f32a46c07479b33","665500ab8938657b03fbdba8","6657926189971b4f6cbee2d1","338","stimuli/00010110.jpg"," ","","feedback_trial","0","","","","","","","","","","","","","","","","","","","","",""
"","","","","","image-keyboard-response","202","394463","0.0-177.0","641361951f32a46c07479b33","665500ab8938657b03fbdba8","6657926189971b4f6cbee2d1","903","stimuli/1000110.jpg","1","","prediction_trial","1","","true","","1","false","false","true","true","false","false","[1]","000","110","1","","","","","","",""
"","","","","","image-keyboard-response","203","394762","0.0-178.0","641361951f32a46c07479b33","665500ab8938657b03fbdba8","6657926189971b4f6cbee2d1","276","stimuli/10001101.jpg"," ","","feedback_trial","1","","","","","","","","","","","","","","","","","","","","",""
"","","","","","image-keyboard-response","204","395545","0.0-179.0","641361951f32a46c07479b33","665500ab8938657b03fbdba8","6657926189971b4f6cbee2d1","766","stimuli/1000010.jpg","1","","prediction_trial","1","","true","","1","false","true","true","true","false","true","[1]","000","010","1","","","","","","",""
"","","","","","image-keyboard-response","205","395939","0.0-180.0","641361951f32a46c07479b33","665500ab8938657b03fbdba8","6657926189971b4f6cbee2d1","380","stimuli/10000101.jpg"," ","","feedback_trial","1","","","","","","","","","","","","","","","","","","","","",""
"","","","","","image-keyboard-response","206","397926","0.0-181.0","641361951f32a46c07479b33","665500ab8938657b03fbdba8","6657926189971b4f6cbee2d1","1975","stimuli/0101110.jpg","0","","prediction_trial","2","","false","","0","false","false","false","false","false","false","[0,2]","101","110","0","","","","","","",""
"","","","","","image-keyboard-response","207","398487","0.0-182.0","641361951f32a46c07479b33","665500ab8938657b03fbdba8","6657926189971b4f6cbee2d1","556","stimuli/01011102.jpg"," ","","feedback_trial","0","","","","","","","","","","","","","","","","","","","","",""
"","","","","","image-keyboard-response","208","399358","0.0-183.0","641361951f32a46c07479b33","665500ab8938657b03fbdba8","6657926189971b4f6cbee2d1","864","stimuli/1111101.jpg","1","","prediction_trial","0","","false","","1","true","true","false","false","false","false","[1,0,2]","111","101","0","","","","","","",""
"","","","","","image-keyboard-response","209","400296","0.0-184.0","641361951f32a46c07479b33","665500ab8938657b03fbdba8","6657926189971b4f6cbee2d1","934","stimuli/11111010.jpg"," ","","feedback_trial","1","","","","","","","","","","","","","","","","","","","","",""
"","","","","","image-keyboard-response","210","400849","0.0-185.0","641361951f32a46c07479b33","665500ab8938657b03fbdba8","6657926189971b4f6cbee2d1","544","stimuli/1001111.jpg","1","","prediction_trial","1","","true","","1","false","false","true","true","false","false","[1]","001","111","1","","","","","","",""
"","","","","","image-keyboard-response","211","401322","0.0-186.0","641361951f32a46c07479b33","665500ab8938657b03fbdba8","6657926189971b4f6cbee2d1","458","stimuli/10011111.jpg"," ","","feedback_trial","1","","","","","","","","","","","","","","","","","","","","",""
"","","","","","image-keyboard-response","212","401803","0.0-187.0","641361951f32a46c07479b33","665500ab8938657b03fbdba8","6657926189971b4f6cbee2d1","467","stimuli/0001010.jpg","0","","prediction_trial","0","","true","","0","true","true","true","true","true","true","[0]","001","010","1","","","","","","",""
"","","","","","image-keyboard-response","213","402110","0.0-188.0","641361951f32a46c07479b33","665500ab8938657b03fbdba8","6657926189971b4f6cbee2d1","289","stimuli/00010100.jpg"," ","","feedback_trial","0","","","","","","","","","","","","","","","","","","","","",""
"","","","","","image-keyboard-response","214","402832","0.0-189.0","641361951f32a46c07479b33","665500ab8938657b03fbdba8","6657926189971b4f6cbee2d1","719","stimuli/1111000.jpg","1","","prediction_trial","1","","true","","1","true","true","false","false","false","false","[1,0,2]","111","000","1","","","","","","",""
"","","","","","image-keyboard-response","215","403069","0.0-190.0","641361951f32a46c07479b33","665500ab8938657b03fbdba8","6657926189971b4f6cbee2d1","223","stimuli/11110001.jpg"," ","","feedback_trial","1","","","","","","","","","","","","","","","","","","","","",""
"","","","","","image-keyboard-response","216","403798","0.0-191.0","641361951f32a46c07479b33","665500ab8938657b03fbdba8","6657926189971b4f6cbee2d1","724","stimuli/1000111.jpg","0","","prediction_trial","1","","false","","1","false","false","true","true","false","false","[1]","000","111","0","","","","","","",""
"","","","","","image-keyboard-response","217","404146","0.0-192.0","641361951f32a46c07479b33","665500ab8938657b03fbdba8","6657926189971b4f6cbee2d1","326","stimuli/10001111.jpg"," ","","feedback_trial","1","","","","","","","","","","","","","","","","","","","","",""
"","","","","","image-keyboard-response","218","404729","0.0-193.0","641361951f32a46c07479b33","665500ab8938657b03fbdba8","6657926189971b4f6cbee2d1","568","stimuli/1100001.jpg","1","","prediction_trial","1","","true","","1","true","true","true","true","true","true","[1]","100","001","1","","","","","","",""
"","","","","","image-keyboard-response","219","404954","0.0-194.0","641361951f32a46c07479b33","665500ab8938657b03fbdba8","6657926189971b4f6cbee2d1","210","stimuli/11000011.jpg"," ","","feedback_trial","1","","","","","","","","","","","","","","","","","","","","",""
"","","","","","image-keyboard-response","220","405614","0.0-195.0","641361951f32a46c07479b33","665500ab8938657b03fbdba8","6657926189971b4f6cbee2d1","647","stimuli/1110111.jpg","1","","prediction_trial","0","","false","","1","false","false","false","false","false","false","[0,1]","110","111","0","","","","","","",""
"","","","","","image-keyboard-response","221","405874","0.0-196.0","641361951f32a46c07479b33","665500ab8938657b03fbdba8","6657926189971b4f6cbee2d1","254","stimuli/11101110.jpg"," ","","feedback_trial","0","","","","","","","","","","","","","","","","","","","","",""
"","","","","","image-keyboard-response","222","406506","0.0-197.0","641361951f32a46c07479b33","665500ab8938657b03fbdba8","6657926189971b4f6cbee2d1","617","stimuli/1101110.jpg","0","","prediction_trial","1","","false","","1","false","false","true","true","false","false","[1]","101","110","0","","","","","","",""
"","","","","","image-keyboard-response","223","406780","0.0-198.0","641361951f32a46c07479b33","665500ab8938657b03fbdba8","6657926189971b4f6cbee2d1","259","stimuli/11011101.jpg"," ","","feedback_trial","1","","","","","","","","","","","","","","","","","","","","",""
"","","","","","image-keyboard-response","224","407334","0.0-199.0","641361951f32a46c07479b33","665500ab8938657b03fbdba8","6657926189971b4f6cbee2d1","543","stimuli/2000100.jpg","2","","prediction_trial","2","","true","","2","true","true","true","true","true","true","[2]","000","100","1","","","","","","",""
"","","","","","image-keyboard-response","225","407615","0.0-200.0","641361951f32a46c07479b33","665500ab8938657b03fbdba8","6657926189971b4f6cbee2d1","275","stimuli/20001002.jpg"," ","","feedback_trial","2","","","","","","","","","","","","","","","","","","","","",""
"","","","","","image-keyboard-response","226","408355","0.0-201.0","641361951f32a46c07479b33","665500ab8938657b03fbdba8","6657926189971b4f6cbee2d1","715","stimuli/2010011.jpg","1","","prediction_trial","2","","false","","2","false","false","true","true","false","false","[2]","010","011","0","","","","","","",""
"","","","","","image-keyboard-response","227","408698","0.0-202.0","641361951f32a46c07479b33","665500ab8938657b03fbdba8","6657926189971b4f6cbee2d1","323","stimuli/20100112.jpg"," ","","feedback_trial","2","","","","","","","","","","","","","","","","","","","","",""
"","","","","","image-keyboard-response","228","409410","0.0-203.0","641361951f32a46c07479b33","665500ab8938657b03fbdba8","6657926189971b4f6cbee2d1","700","stimuli/1111111.jpg","1","","prediction_trial","1","","true","","1","false","false","false","false","false","false","[0,1,2]","111","111","1","","","","","","",""
"","","","","","image-keyboard-response","229","409627","0.0-204.0","641361951f32a46c07479b33","665500ab8938657b03fbdba8","6657926189971b4f6cbee2d1","204","stimuli/11111111.jpg"," ","","feedback_trial","0","","","","","","","","","","","","","","","","","","","","",""
"","","","","","image-keyboard-response","230","410113","0.0-205.0","641361951f32a46c07479b33","665500ab8938657b03fbdba8","6657926189971b4f6cbee2d1","475","stimuli/2000110.jpg","2","","prediction_trial","2","","true","","2","true","true","true","true","true","true","[2]","000","110","1","","","","","","",""
"","","","","","image-keyboard-response","231","410354","0.0-206.0","641361951f32a46c07479b33","665500ab8938657b03fbdba8","6657926189971b4f6cbee2d1","222","stimuli/20001102.jpg"," ","","feedback_trial","2","","","","","","","","","","","","","","","","","","","","",""
"","","","","","image-keyboard-response","232","410768","0.0-207.0","641361951f32a46c07479b33","665500ab8938657b03fbdba8","6657926189971b4f6cbee2d1","404","stimuli/1011101.jpg","1","","prediction_trial","1","","true","","1","true","true","false","false","false","false","[2,1]","011","101","1","","","","","","",""
"","","","","","image-keyboard-response","233","411032","0.0-208.0","641361951f32a46c07479b33","665500ab8938657b03fbdba8","6657926189971b4f6cbee2d1","254","stimuli/10111011.jpg"," ","","feedback_trial","2","","","","","","","","","","","","","","","","","","","","",""
"","","","","","image-keyboard-response","234","411737","0.0-209.0","641361951f32a46c07479b33","665500ab8938657b03fbdba8","6657926189971b4f6cbee2d1","698","stimuli/1010010.jpg","1","","prediction_trial","1","","true","","1","false","true","false","true","false","true","[1]","010","010","1","","","","","","",""
"","","","","","image-keyboard-response","235","411921","0.0-210.0","641361951f32a46c07479b33","665500ab8938657b03fbdba8","6657926189971b4f6cbee2d1","172","stimuli/10100101.jpg"," ","","feedback_trial","1","","","","","","","","","","","","","","","","","","","","",""
"","","","","","image-keyboard-response","236","412510","0.0-211.0","641361951f32a46c07479b33","665500ab8938657b03fbdba8","6657926189971b4f6cbee2d1","576","stimuli/0000011.jpg","0","","prediction_trial","0","","true","","0","true","true","true","true","true","true","[0]","000","011","1","","","","","","",""
"","","","","","image-keyboard-response","237","412686","0.0-212.0","641361951f32a46c07479b33","665500ab8938657b03fbdba8","6657926189971b4f6cbee2d1","174","stimuli/00000110.jpg"," ","","feedback_trial","0","","","","","","","","","","","","","","","","","","","","",""
"","","","","","image-keyboard-response","238","413120","0.0-213.0","641361951f32a46c07479b33","665500ab8938657b03fbdba8","6657926189971b4f6cbee2d1","430","stimuli/1010100.jpg","1","","prediction_trial","1","","true","","1","true","true","false","true","false","true","[1]","010","100","1","","","","","","",""
"","","","","","image-keyboard-response","239","413281","0.0-214.0","641361951f32a46c07479b33","665500ab8938657b03fbdba8","6657926189971b4f6cbee2d1","148","stimuli/10101001.jpg"," ","","feedback_trial","1","","","","","","","","","","","","","","","","","","","","",""
"","","","","","image-keyboard-response","240","413752","0.0-215.0","641361951f32a46c07479b33","665500ab8938657b03fbdba8","6657926189971b4f6cbee2d1","458","stimuli/2010110.jpg","2","","prediction_trial","2","","true","","2","true","true","true","true","true","true","[2]","010","110","1","","","","","","",""
"","","","","","image-keyboard-response","241","413938","0.0-216.0","641361951f32a46c07479b33","665500ab8938657b03fbdba8","6657926189971b4f6cbee2d1","173","stimuli/20101102.jpg"," ","","feedback_trial","2","","","","","","","","","","","","","","","","","","","","",""
"","","","","","image-keyboard-response","242","414593","0.0-217.0","641361951f32a46c07479b33","665500ab8938657b03fbdba8","6657926189971b4f6cbee2d1","644","stimuli/2001010.jpg","2","","prediction_trial","2","","true","","2","true","true","false","true","false","true","[2]","001","010","1","","","","","","",""
"","","","","","image-keyboard-response","243","414750","0.0-218.0","641361951f32a46c07479b33","665500ab8938657b03fbdba8","6657926189971b4f6cbee2d1","141","stimuli/20010102.jpg"," ","","feedback_trial","2","","","","","","","","","","","","","","","","","","","","",""
"","","","","","image-keyboard-response","244","415386","0.0-219.0","641361951f32a46c07479b33","665500ab8938657b03fbdba8","6657926189971b4f6cbee2d1","632","stimuli/2000000.jpg","2","","prediction_trial","2","","true","","2","true","true","true","true","true","true","[2]","000","000","1","","","","","","",""
"","","","","","image-keyboard-response","245","415577","0.0-220.0","641361951f32a46c07479b33","665500ab8938657b03fbdba8","6657926189971b4f6cbee2d1","180","stimuli/20000002.jpg"," ","","feedback_trial","2","","","","","","","","","","","","","","","","","","","","",""
"","","","","","image-keyboard-response","246","416258","0.0-221.0","641361951f32a46c07479b33","665500ab8938657b03fbdba8","6657926189971b4f6cbee2d1","669","stimuli/0110010.jpg","0","","prediction_trial","0","","true","","0","true","true","false","false","false","false","[0,1]","110","010","1","","","","","","",""
"","","","","","image-keyboard-response","247","416393","0.0-222.0","641361951f32a46c07479b33","665500ab8938657b03fbdba8","6657926189971b4f6cbee2d1","124","stimuli/01100100.jpg"," ","","feedback_trial","0","","","","","","","","","","","","","","","","","","","","",""
"","","","","","image-keyboard-response","248","416953","0.0-223.0","641361951f32a46c07479b33","665500ab8938657b03fbdba8","6657926189971b4f6cbee2d1","546","stimuli/2100000.jpg","2","","prediction_trial","2","","true","","2","true","true","true","true","true","true","[2]","100","000","1","","","","","","",""
"","","","","","image-keyboard-response","249","417129","0.0-224.0","641361951f32a46c07479b33","665500ab8938657b03fbdba8","6657926189971b4f6cbee2d1","165","stimuli/21000002.jpg"," ","","feedback_trial","2","","","","","","","","","","","","","","","","","","","","",""
"","","","","","image-keyboard-response","250","417976","0.0-225.0","641361951f32a46c07479b33","665500ab8938657b03fbdba8","6657926189971b4f6cbee2d1","834","stimuli/2010111.jpg","1","","prediction_trial","2","","false","","2","false","false","true","true","false","false","[2]","010","111","0","","","","","","",""
"","","","","","image-keyboard-response","251","418175","0.0-226.0","641361951f32a46c07479b33","665500ab8938657b03fbdba8","6657926189971b4f6cbee2d1","196","stimuli/20101112.jpg"," ","","feedback_trial","2","","","","","","","","","","","","","","","","","","","","",""
"","","","","","image-keyboard-response","252","418778","0.0-227.0","641361951f32a46c07479b33","665500ab8938657b03fbdba8","6657926189971b4f6cbee2d1","594","stimuli/1101000.jpg","1","","prediction_trial","1","","true","","1","true","true","true","true","true","true","[1]","101","000","1","","","","","","",""
"","","","","","image-keyboard-response","253","418953","0.0-228.0","641361951f32a46c07479b33","665500ab8938657b03fbdba8","6657926189971b4f6cbee2d1","163","stimuli/11010001.jpg"," ","","feedback_trial","1","","","","","","","","","","","","","","","","","","","","",""
"","","","","","image-keyboard-response","254","419738","0.0-229.0","641361951f32a46c07479b33","665500ab8938657b03fbdba8","6657926189971b4f6cbee2d1","768","stimuli/2011011.jpg","2","","prediction_trial","2","","true","","2","false","false","false","false","false","false","[1,2]","011","011","1","","","","","","",""
"","","","","","image-keyboard-response","255","419974","0.0-230.0","641361951f32a46c07479b33","665500ab8938657b03fbdba8","6657926189971b4f6cbee2d1","220","stimuli/20110112.jpg"," ","","feedback_trial","1","","","","","","","","","","","","","","","","","","","","",""
"","","","","","image-keyboard-response","256","420586","0.0-231.0","641361951f32a46c07479b33","665500ab8938657b03fbdba8","6657926189971b4f6cbee2d1","606","stimuli/2101110.jpg","2","","prediction_trial","2","","true","","2","true","true","false","false","false","false","[2,0]","101","110","1","","","","","","",""
"","","","","","image-keyboard-response","257","421491","0.0-232.0","641361951f32a46c07479b33","665500ab8938657b03fbdba8","6657926189971b4f6cbee2d1","892","stimuli/21011102.jpg"," ","","feedback_trial","2","","","","","","","","","","","","","","","","","","","","",""
"","","","","","image-keyboard-response","258","422507","0.0-233.0","641361951f32a46c07479b33","665500ab8938657b03fbdba8","6657926189971b4f6cbee2d1","1004","stimuli/1110011.jpg","1","","prediction_trial","0","","false","","1","false","false","false","false","false","false","[1,0]","110","011","0","","","","","","",""
"","","","","","image-keyboard-response","259","423098","0.0-234.0","641361951f32a46c07479b33","665500ab8938657b03fbdba8","6657926189971b4f6cbee2d1","579","stimuli/11100110.jpg"," ","","feedback_trial","1","","","","","","","","","","","","","","","","","","","","",""
"","","","","","image-keyboard-response","260","423879","0.0-235.0","641361951f32a46c07479b33","665500ab8938657b03fbdba8","6657926189971b4f6cbee2d1","765","stimuli/1011110.jpg","1","","prediction_trial","1","","true","","1","false","false","false","false","false","false","[2,1]","011","110","1","","","","","","",""
"","","","","","image-keyboard-response","261","424081","0.0-236.0","641361951f32a46c07479b33","665500ab8938657b03fbdba8","6657926189971b4f6cbee2d1","176","stimuli/10111101.jpg"," ","","feedback_trial","2","","","","","","","","","","","","","","","","","","","","",""
"","","","","","image-keyboard-response","262","424778","0.0-237.0","641361951f32a46c07479b33","665500ab8938657b03fbdba8","6657926189971b4f6cbee2d1","686","stimuli/0110000.jpg","0","","prediction_trial","0","","true","","0","true","true","false","false","false","false","[1,0]","110","000","1","","","","","","",""
"","","","","","image-keyboard-response","263","425070","0.0-238.0","641361951f32a46c07479b33","665500ab8938657b03fbdba8","6657926189971b4f6cbee2d1","280","stimuli/01100000.jpg"," ","","feedback_trial","1","","","","","","","","","","","","","","","","","","","","",""
"","","","","","image-keyboard-response","264","425533","0.0-239.0","641361951f32a46c07479b33","665500ab8938657b03fbdba8","6657926189971b4f6cbee2d1","456","stimuli/2011110.jpg","2","","prediction_trial","2","","true","","2","true","true","false","false","false","false","[1,2]","011","110","1","","","","","","",""
"","","","","","image-keyboard-response","265","425706","0.0-240.0","641361951f32a46c07479b33","665500ab8938657b03fbdba8","6657926189971b4f6cbee2d1","163","stimuli/20111102.jpg"," ","","feedback_trial","1","","","","","","","","","","","","","","","","","","","","",""
"","","","","","image-keyboard-response","266","426274","0.0-241.0","641361951f32a46c07479b33","665500ab8938657b03fbdba8","6657926189971b4f6cbee2d1","554","stimuli/2011010.jpg","2","","prediction_trial","1","","false","","2","true","true","false","false","false","false","[2,1]","011","010","0","","","","","","",""
"","","","","","image-keyboard-response","267","426481","0.0-242.0","641361951f32a46c07479b33","665500ab8938657b03fbdba8","6657926189971b4f6cbee2d1","195","stimuli/20110101.jpg"," ","","feedback_trial","2","","","","","","","","","","","","","","","","","","","","",""
"","","","","","image-keyboard-response","268","426983","0.0-243.0","641361951f32a46c07479b33","665500ab8938657b03fbdba8","6657926189971b4f6cbee2d1","489","stimuli/0111001.jpg","0","","prediction_trial","2","","false","","0","true","true","false","false","false","false","[0,2,1]","111","001","0","","","","","","",""
"","","","","","image-keyboard-response","269","427161","0.0-244.0","641361951f32a46c07479b33","665500ab8938657b03fbdba8","6657926189971b4f6cbee2d1","155","stimuli/01110012.jpg"," ","","feedback_trial","0","","","","","","","","","","","","","","","","","","","","",""
"","","","","","image-keyboard-response","270","427499","0.0-245.0","641361951f32a46c07479b33","665500ab8938657b03fbdba8","6657926189971b4f6cbee2d1","321","stimuli/0101011.jpg","2","","prediction_trial","2","","true","","0","true","true","false","false","false","false","[0,2]","101","011","1","","","","","","",""
"","","","","","image-keyboard-response","271","427878","0.0-246.0","641361951f32a46c07479b33","665500ab8938657b03fbdba8","6657926189971b4f6cbee2d1","366","stimuli/01010112.jpg"," ","","feedback_trial","0","","","","","","","","","","","","","","","","","","","","",""
"","","","","","image-keyboard-response","272","428209","0.0-247.0","641361951f32a46c07479b33","665500ab8938657b03fbdba8","6657926189971b4f6cbee2d1","328","stimuli/0101000.jpg","0","","prediction_trial","0","","true","","0","true","true","false","false","false","false","[0,2]","101","000","1","","","","","","",""
"","","","","","image-keyboard-response","273","428698","0.0-248.0","641361951f32a46c07479b33","665500ab8938657b03fbdba8","6657926189971b4f6cbee2d1","477","stimuli/01010000.jpg"," ","","feedback_trial","0","","","","","","","","","","","","","","","","","","","","",""
"","","","","","image-keyboard-response","274","429386","0.0-249.0","641361951f32a46c07479b33","665500ab8938657b03fbdba8","6657926189971b4f6cbee2d1","673","stimuli/1010000.jpg","1","","prediction_trial","1","","true","","1","true","true","false","true","false","true","[1]","010","000","1","","","","","","",""
"","","","","","image-keyboard-response","275","429569","0.0-250.0","641361951f32a46c07479b33","665500ab8938657b03fbdba8","6657926189971b4f6cbee2d1","169","stimuli/10100001.jpg"," ","","feedback_trial","1","","","","","","","","","","","","","","","","","","","","",""
"","","","","","image-keyboard-response","276","430031","0.0-251.0","641361951f32a46c07479b33","665500ab8938657b03fbdba8","6657926189971b4f6cbee2d1","448","stimuli/0100010.jpg","0","","prediction_trial","0","","true","","0","true","true","false","true","false","true","[0]","100","010","1","","","","","","",""
"","","","","","image-keyboard-response","277","430225","0.0-252.0","641361951f32a46c07479b33","665500ab8938657b03fbdba8","6657926189971b4f6cbee2d1","186","stimuli/01000100.jpg"," ","","feedback_trial","0","","","","","","","","","","","","","","","","","","","","",""
"","","","","","image-keyboard-response","278","430979","0.0-253.0","641361951f32a46c07479b33","665500ab8938657b03fbdba8","6657926189971b4f6cbee2d1","740","stimuli/0111011.jpg","0","","prediction_trial","0","","true","","0","true","true","false","false","false","false","[2,1,0]","111","011","1","","","","","","",""
"","","","","","image-keyboard-response","279","431167","0.0-254.0","641361951f32a46c07479b33","665500ab8938657b03fbdba8","6657926189971b4f6cbee2d1","174","stimuli/01110110.jpg"," ","","feedback_trial","2","","","","","","","","","","","","","","","","","","","","",""
"","","","","","image-keyboard-response","280","431631","0.0-255.0","641361951f32a46c07479b33","665500ab8938657b03fbdba8","6657926189971b4f6cbee2d1","458","stimuli/2100100.jpg","2","","prediction_trial","2","","true","","2","true","true","true","true","true","true","[2]","100","100","1","","","","","","",""
"","","","","","image-keyboard-response","281","431799","0.0-256.0","641361951f32a46c07479b33","665500ab8938657b03fbdba8","6657926189971b4f6cbee2d1","161","stimuli/21001002.jpg"," ","","feedback_trial","2","","","","","","","","","","","","","","","","","","","","",""
"","","","","","image-keyboard-response","282","432283","0.0-257.0","641361951f32a46c07479b33","665500ab8938657b03fbdba8","6657926189971b4f6cbee2d1","477","stimuli/0011001.jpg","0","","prediction_trial","0","","true","","0","true","true","true","true","true","true","[0]","011","001","1","","","","","","",""
"","","","","","image-keyboard-response","283","432425","0.0-258.0","641361951f32a46c07479b33","665500ab8938657b03fbdba8","6657926189971b4f6cbee2d1","131","stimuli/00110010.jpg"," ","","feedback_trial","0","","","","","","","","","","","","","","","","","","","","",""
"","","","","","image-keyboard-response","284","433198","0.0-259.0","641361951f32a46c07479b33","665500ab8938657b03fbdba8","6657926189971b4f6cbee2d1","759","stimuli/1001011.jpg","1","","prediction_trial","1","","true","","1","false","false","true","true","false","false","[1]","001","011","1","","","","","","",""
"","","","","","image-keyboard-response","285","433406","0.0-260.0","641361951f32a46c07479b33","665500ab8938657b03fbdba8","6657926189971b4f6cbee2d1","206","stimuli/10010111.jpg"," ","","feedback_trial","1","","","","","","","","","","","","","","","","","","","","",""
"","","","","","image-keyboard-response","286","434457","0.0-261.0","641361951f32a46c07479b33","665500ab8938657b03fbdba8","6657926189971b4f6cbee2d1","1048","stimuli/0010110.jpg","0","","prediction_trial","0","","true","","0","false","false","true","true","false","false","[0]","010","110","1","","","","","","",""
"","","","","","image-keyboard-response","287","434657","0.0-262.0","641361951f32a46c07479b33","665500ab8938657b03fbdba8","6657926189971b4f6cbee2d1","187","stimuli/00101100.jpg"," ","","feedback_trial","0","","","","","","","","","","","","","","","","","","","","",""
"","","","","","image-keyboard-response","288","435987","0.0-263.0","641361951f32a46c07479b33","665500ab8938657b03fbdba8","6657926189971b4f6cbee2d1","1316","stimuli/1000011.jpg","2","","prediction_trial","1","","false","","1","false","false","true","true","false","false","[1]","000","011","0","","","","","","",""
"","","","","","image-keyboard-response","289","436258","0.0-264.0","641361951f32a46c07479b33","665500ab8938657b03fbdba8","6657926189971b4f6cbee2d1","256","stimuli/10000111.jpg"," ","","feedback_trial","1","","","","","","","","","","","","","","","","","","","","",""
"","","","","","image-keyboard-response","290","437206","0.0-265.0","641361951f32a46c07479b33","665500ab8938657b03fbdba8","6657926189971b4f6cbee2d1","927","stimuli/0011111.jpg","1","","prediction_trial","0","","false","","0","false","false","true","true","false","false","[0]","011","111","0","","","","","","",""
"","","","","","image-keyboard-response","291","438417","0.0-266.0","641361951f32a46c07479b33","665500ab8938657b03fbdba8","6657926189971b4f6cbee2d1","1206","stimuli/00111110.jpg"," ","","feedback_trial","0","","","","","","","","","","","","","","","","","","","","",""
"","","","","","image-keyboard-response","292","439038","0.0-267.0","641361951f32a46c07479b33","665500ab8938657b03fbdba8","6657926189971b4f6cbee2d1","606","stimuli/1000101.jpg","1","","prediction_trial","1","","true","","1","true","true","true","true","true","true","[1]","000","101","1","","","","","","",""
"","","","","","image-keyboard-response","293","439167","0.0-268.0","641361951f32a46c07479b33","665500ab8938657b03fbdba8","6657926189971b4f6cbee2d1","125","stimuli/10001011.jpg"," ","","feedback_trial","1","","","","","","","","","","","","","","","","","","","","",""
"","","","","","image-keyboard-response","294","440307","0.0-269.0","641361951f32a46c07479b33","665500ab8938657b03fbdba8","6657926189971b4f6cbee2d1","1136","stimuli/0101111.jpg","1","","prediction_trial","0","","false","","0","false","false","false","false","false","false","[0,2]","101","111","0","","","","","","",""
"","","","","","image-keyboard-response","295","440503","0.0-270.0","641361951f32a46c07479b33","665500ab8938657b03fbdba8","6657926189971b4f6cbee2d1","181","stimuli/01011110.jpg"," ","","feedback_trial","0","","","","","","","","","","","","","","","","","","","","",""
"","","","","","image-keyboard-response","296","441226","0.0-271.0","641361951f32a46c07479b33","665500ab8938657b03fbdba8","6657926189971b4f6cbee2d1","698","stimuli/2111001.jpg","2","","prediction_trial","2","","true","","2","false","true","false","false","false","false","[1,2,0]","111","001","1","","","","","","",""
"","","","","","image-keyboard-response","297","441571","0.0-272.0","641361951f32a46c07479b33","665500ab8938657b03fbdba8","6657926189971b4f6cbee2d1","338","stimuli/21110012.jpg"," ","","feedback_trial","1","","","","","","","","","","","","","","","","","","","","",""
"","","","","","image-keyboard-response","298","442521","0.0-273.0","641361951f32a46c07479b33","665500ab8938657b03fbdba8","6657926189971b4f6cbee2d1","938","stimuli/0001110.jpg","0","","prediction_trial","0","","true","","0","false","false","true","true","false","false","[0]","001","110","1","","","","","","",""
"","","","","","image-keyboard-response","299","442812","0.0-274.0","641361951f32a46c07479b33","665500ab8938657b03fbdba8","6657926189971b4f6cbee2d1","277","stimuli/00011100.jpg"," ","","feedback_trial","0","","","","","","","","","","","","","","","","","","","","",""
"","","","","","image-keyboard-response","300","443669","0.0-275.0","641361951f32a46c07479b33","665500ab8938657b03fbdba8","6657926189971b4f6cbee2d1","843","stimuli/2100001.jpg","2","","prediction_trial","2","","true","","2","false","true","true","true","false","true","[2]","100","001","1","","","","","","",""
"","","","","","image-keyboard-response","301","444282","0.0-276.0","641361951f32a46c07479b33","665500ab8938657b03fbdba8","6657926189971b4f6cbee2d1","607","stimuli/21000012.jpg"," ","","feedback_trial","2","","","","","","","","","","","","","","","","","","","","",""
"","","","","","image-keyboard-response","302","445318","0.0-277.0","641361951f32a46c07479b33","665500ab8938657b03fbdba8","6657926189971b4f6cbee2d1","1024","stimuli/0011100.jpg","0","","prediction_trial","0","","true","","0","false","true","true","true","false","true","[0]","011","100","1","","","","","","",""
"","","","","","image-keyboard-response","303","445551","0.0-278.0","641361951f32a46c07479b33","665500ab8938657b03fbdba8","6657926189971b4f6cbee2d1","227","stimuli/00111000.jpg"," ","","feedback_trial","0","","","","","","","","","","","","","","","","","","","","",""
"","","","","","image-keyboard-response","304","446090","0.0-279.0","641361951f32a46c07479b33","665500ab8938657b03fbdba8","6657926189971b4f6cbee2d1","515","stimuli/2010100.jpg","2","","prediction_trial","2","","true","","2","true","true","true","true","true","true","[2]","010","100","1","","","","","","",""
"","","","","","image-keyboard-response","305","446393","0.0-280.0","641361951f32a46c07479b33","665500ab8938657b03fbdba8","6657926189971b4f6cbee2d1","288","stimuli/20101002.jpg"," ","","feedback_trial","2","","","","","","","","","","","","","","","","","","","","",""
"","","","","","image-keyboard-response","306","447103","0.0-281.0","641361951f32a46c07479b33","665500ab8938657b03fbdba8","6657926189971b4f6cbee2d1","696","stimuli/2111110.jpg","2","","prediction_trial","1","","false","","2","true","true","false","false","false","false","[1,0,2]","111","110","0","","","","","","",""
"","","","","","image-keyboard-response","307","447287","0.0-282.0","641361951f32a46c07479b33","665500ab8938657b03fbdba8","6657926189971b4f6cbee2d1","180","stimuli/21111101.jpg"," ","","feedback_trial","1","","","","","","","","","","","","","","","","","","","","",""
"","","","","","image-keyboard-response","308","447855","0.0-283.0","641361951f32a46c07479b33","665500ab8938657b03fbdba8","6657926189971b4f6cbee2d1","564","stimuli/0010001.jpg","0","","prediction_trial","0","","true","","0","true","true","true","true","true","true","[0]","010","001","1","","","","","","",""
"","","","","","image-keyboard-response","309","448038","0.0-284.0","641361951f32a46c07479b33","665500ab8938657b03fbdba8","6657926189971b4f6cbee2d1","179","stimuli/00100010.jpg"," ","","feedback_trial","0","","","","","","","","","","","","","","","","","","","","",""
"","","","","","image-keyboard-response","310","449185","0.0-285.0","641361951f32a46c07479b33","665500ab8938657b03fbdba8","6657926189971b4f6cbee2d1","1141","stimuli/2001011.jpg","1","","prediction_trial","2","","false","","2","false","false","false","true","false","false","[2]","001","011","0","","","","","","",""
"","","","","","image-keyboard-response","311","449490","0.0-286.0","641361951f32a46c07479b33","665500ab8938657b03fbdba8","6657926189971b4f6cbee2d1","291","stimuli/20010112.jpg"," ","","feedback_trial","2","","","","","","","","","","","","","","","","","","","","",""
"","","","","","image-keyboard-response","312","450304","0.0-287.0","641361951f32a46c07479b33","665500ab8938657b03fbdba8","6657926189971b4f6cbee2d1","800","stimuli/2011101.jpg","2","","prediction_trial","1","","false","","2","false","false","false","false","false","false","[1,2]","011","101","0","","","","","","",""
"","","","","","image-keyboard-response","313","450803","0.0-288.0","641361951f32a46c07479b33","665500ab8938657b03fbdba8","6657926189971b4f6cbee2d1","490","stimuli/20111011.jpg"," ","","feedback_trial","1","","","","","","","","","","","","","","","","","","","","",""
"","","","","","image-keyboard-response","314","451522","0.0-289.0","641361951f32a46c07479b33","665500ab8938657b03fbdba8","6657926189971b4f6cbee2d1","703","stimuli/1010001.jpg","1","","prediction_trial","1","","true","","1","true","true","false","true","false","true","[1]","010","001","1","","","","","","",""
"","","","","","image-keyboard-response","315","451711","0.0-290.0","641361951f32a46c07479b33","665500ab8938657b03fbdba8","6657926189971b4f6cbee2d1","178","stimuli/10100011.jpg"," ","","feedback_trial","1","","","","","","","","","","","","","","","","","","","","",""
"","","","","","image-keyboard-response","316","452370","0.0-291.0","641361951f32a46c07479b33","665500ab8938657b03fbdba8","6657926189971b4f6cbee2d1","652","stimuli/2010001.jpg","2","","prediction_trial","2","","true","","2","false","true","true","true","false","true","[2]","010","001","1","","","","","","",""
"","","","","","image-keyboard-response","317","452807","0.0-292.0","641361951f32a46c07479b33","665500ab8938657b03fbdba8","6657926189971b4f6cbee2d1","421","stimuli/20100012.jpg"," ","","feedback_trial","2","","","","","","","","","","","","","","","","","","","","",""
"","","","","","survey-html-form","318","468221","0.0-293.0","641361951f32a46c07479b33","665500ab8938657b03fbdba8","6657926189971b4f6cbee2d1","15410","","{""feedback"":""whether he could see it and whether or not i could see it"",""age"":""37"",""gender"":""Female"",""other_gender"":"""",""race"":""White"",""other_race"":"""",""ethnicity"":""Non-Hispanic""}","","exit_survey","","","","","","","","","","","","","","","","whether he could see it and whether or not i could see it","37","Non-Hispanic","Female","White","0.6666666666666666","0.6666666666666666"
