"success","timeout","failed_images","failed_audio","failed_video","trial_type","trial_index","time_elapsed","internal_node_id","prolific_id","prolific_study_id","prolific_session_id","rt","stimulus","response","view_history","trial","character_choice","stimulus_dict","accuracy","correct_response","ball_pos","ego_ball_visible","ego_can_infer","alter_ball_visible","alter_can_infer","collective_ball_visible","collective_can_infer","search_locations","alter_occluders","ego_occluders","accuracy_bool","feedback","age","ethnicity","gender","race","overall_accuracy","bonus"
"true","false","[]","[]","[]","preload","0","593","0.0-0.0","62959d1553cc14e98f4b8d78","665500ab8938657b03fbdba8","6657922a9d4a78e937890937","","","","","","","","","","","","","","","","","","","","","","","","","","",""
"true","","","","","fullscreen","1","2911","0.0-1.0","62959d1553cc14e98f4b8d78","665500ab8938657b03fbdba8","6657922a9d4a78e937890937","","","","","","","","","","","","","","","","","","","","","","","","","","",""
"","","","","","html-button-response","2","4021","0.0-2.0","62959d1553cc14e98f4b8d78","665500ab8938657b03fbdba8","6657922a9d4a78e937890937","1107","<p><b>Consent Form</b></p> <div style=""text-align:left;background-color:lightgrey; padding:20px; max-width:900px;""><p>Please consider this information carefully before deciding whether to participate in this research.</p> <p>The purpose of this research is to examine which factors influence social judgment and decision-making. You will be asked to make judgements about individuals and actions in social scenarios. We are simply interested in your judgement. The study will take less than 1 hour to complete, and you will receive less than $20 on Prolific. Your compensation and time commitment are specified in the study description. There are no anticipated risks associated with participating in this study. The effects of participating should be comparable to those you would ordinarily experience from viewing a computer monitor and using a mouse or keyboard for a similar amount of time. At the end of the study, we will provide an explanation of the questions that motivate this line of research and will describe the potential implications. </p><p> Your participation in this study is completely voluntary and you may refuse to participate or you may choose to withdraw at any time without penalty or loss of benefits to you which are otherwise entitled. Your participation in this study will remain confidential. No personally identifiable information will be associated with your data. Also, all analyses of the data will be averaged across all the participants, so your individual responses will never be specifically analyzed. </p><p> If you have questions or concerns about your participation or payment, or want to request a summary of research findings, please contact Dr. Jonathan Phillips at Jonathan.S.Phillips@dartmouth.edu. </p><p> Please save a copy of this form for your records. </p><p><b>Agreement: </b>The nature and purpose of this research have been sufficiently explained and I agree to participate in this study. I understand that I am free to withdraw at any time without incurring any penalty. Please consent by clicking the button below to continue. Otherwise, please exit the study at any time. </p>","0","","","","","","","","","","","","","","","","","","","","","","","",""
"","","","","","instructions","3","34221","0.0-3.0-0.0","62959d1553cc14e98f4b8d78","665500ab8938657b03fbdba8","6657922a9d4a78e937890937","30198","","","[{""page_index"":0,""viewing_time"":1166},{""page_index"":1,""viewing_time"":1233},{""page_index"":2,""viewing_time"":1034},{""page_index"":3,""viewing_time"":2587},{""page_index"":4,""viewing_time"":1501},{""page_index"":5,""viewing_time"":1497},{""page_index"":6,""viewing_time"":1443},{""page_index"":7,""viewing_time"":2277},{""page_index"":8,""viewing_time"":2812},{""page_index"":9,""viewing_time"":1087},{""page_index"":10,""viewing_time"":8904},{""page_index"":11,""viewing_time"":1685},{""page_index"":12,""viewing_time"":2232},{""page_index"":13,""viewing_time"":740}]","intro","","","","","","","","","","","","","","","","","","","","","",""
"","","","","","image-keyboard-response","4","36680","0.0-3.0-1.0","62959d1553cc14e98f4b8d78","665500ab8938657b03fbdba8","6657922a9d4a78e937890937","2451","stimuli/0010001.jpg","0","","prediction_practice","0","{""filepath"":""stimuli/0010001.jpg"",""ball_pos"":0,""ego_ball_visible"":true,""ego_can_infer"":true,""alter_ball_visible"":true,""alter_can_infer"":true,""collective_ball_visible"":true,""collective_can_infer"":true,""search_locations"":[0],""alter_occluders"":""010"",""ego_occluders"":""001""}","true","","","","","","","","","","","","","","","","","","",""
"","","","","","image-keyboard-response","5","39373","0.0-3.0-2.0","62959d1553cc14e98f4b8d78","665500ab8938657b03fbdba8","6657922a9d4a78e937890937","2690","stimuli/00100010.jpg"," ","","practrice_feedback","0","","","","","","","","","","","","","","","","","","","","",""
"","","","","","image-keyboard-response","6","40918","0.0-3.0-3.0","62959d1553cc14e98f4b8d78","665500ab8938657b03fbdba8","6657922a9d4a78e937890937","1543","stimuli/1101000.jpg","1","","prediction_practice","1","{""filepath"":""stimuli/1101000.jpg"",""ball_pos"":1,""ego_ball_visible"":true,""ego_can_infer"":true,""alter_ball_visible"":true,""alter_can_infer"":true,""collective_ball_visible"":true,""collective_can_infer"":true,""search_locations"":[1],""alter_occluders"":""101"",""ego_occluders"":""000""}","true","","","","","","","","","","","","","","","","","","",""
"","","","","","image-keyboard-response","7","41958","0.0-3.0-4.0","62959d1553cc14e98f4b8d78","665500ab8938657b03fbdba8","6657922a9d4a78e937890937","1039","stimuli/11010001.jpg"," ","","practrice_feedback","1","","","","","","","","","","","","","","","","","","","","",""
"","","","","","image-keyboard-response","8","42964","0.0-3.0-5.0","62959d1553cc14e98f4b8d78","665500ab8938657b03fbdba8","6657922a9d4a78e937890937","1003","stimuli/1011100.jpg","1","","prediction_practice","1","{""filepath"":""stimuli/1011100.jpg"",""ball_pos"":1,""ego_ball_visible"":true,""ego_can_infer"":true,""alter_ball_visible"":false,""alter_can_infer"":false,""collective_ball_visible"":false,""collective_can_infer"":false,""search_locations"":[2,1],""alter_occluders"":""011"",""ego_occluders"":""100""}","true","","","","","","","","","","","","","","","","","","",""
"","","","","","image-keyboard-response","9","44287","0.0-3.0-6.0","62959d1553cc14e98f4b8d78","665500ab8938657b03fbdba8","6657922a9d4a78e937890937","1306","stimuli/10111001.jpg"," ","","practrice_feedback","2","","","","","","","","","","","","","","","","","","","","",""
"","","","","","image-keyboard-response","10","47801","0.0-3.0-7.0","62959d1553cc14e98f4b8d78","665500ab8938657b03fbdba8","6657922a9d4a78e937890937","3512","stimuli/0011111.jpg","1","","prediction_practice","0","{""filepath"":""stimuli/0011111.jpg"",""ball_pos"":0,""ego_ball_visible"":false,""ego_can_infer"":false,""alter_ball_visible"":true,""alter_can_infer"":true,""collective_ball_visible"":false,""collective_can_infer"":false,""search_locations"":[0],""alter_occluders"":""011"",""ego_occluders"":""111""}","false","","","","","","","","","","","","","","","","","","",""
"","","","","","image-keyboard-response","11","49543","0.0-3.0-8.0","62959d1553cc14e98f4b8d78","665500ab8938657b03fbdba8","6657922a9d4a78e937890937","1737","stimuli/00111110.jpg"," ","","practrice_feedback","0","","","","","","","","","","","","","","","","","","","","",""
"","","","","","image-keyboard-response","12","51541","0.0-3.0-9.0","62959d1553cc14e98f4b8d78","665500ab8938657b03fbdba8","6657922a9d4a78e937890937","1996","stimuli/0011011.jpg","0","","prediction_practice","0","{""filepath"":""stimuli/0011011.jpg"",""ball_pos"":0,""ego_ball_visible"":true,""ego_can_infer"":true,""alter_ball_visible"":true,""alter_can_infer"":true,""collective_ball_visible"":true,""collective_can_infer"":true,""search_locations"":[0],""alter_occluders"":""011"",""ego_occluders"":""011""}","true","","","","","","","","","","","","","","","","","","",""
"","","","","","image-keyboard-response","13","52572","0.0-3.0-10.0","62959d1553cc14e98f4b8d78","665500ab8938657b03fbdba8","6657922a9d4a78e937890937","1028","stimuli/00110110.jpg"," ","","practrice_feedback","0","","","","","","","","","","","","","","","","","","","","",""
"","","","","","image-keyboard-response","14","56929","0.0-3.0-11.0","62959d1553cc14e98f4b8d78","665500ab8938657b03fbdba8","6657922a9d4a78e937890937","4356","stimuli/2101101.jpg","2","","prediction_practice","0","{""filepath"":""stimuli/2101101.jpg"",""ball_pos"":2,""ego_ball_visible"":false,""ego_can_infer"":false,""alter_ball_visible"":false,""alter_can_infer"":false,""collective_ball_visible"":false,""collective_can_infer"":false,""search_locations"":[2,0],""alter_occluders"":""101"",""ego_occluders"":""101""}","false","","","","","","","","","","","","","","","","","","",""
"","","","","","image-keyboard-response","15","58420","0.0-3.0-12.0","62959d1553cc14e98f4b8d78","665500ab8938657b03fbdba8","6657922a9d4a78e937890937","1478","stimuli/21011010.jpg"," ","","practrice_feedback","2","","","","","","","","","","","","","","","","","","","","",""
"","","","","","image-keyboard-response","16","61161","0.0-3.0-13.0","62959d1553cc14e98f4b8d78","665500ab8938657b03fbdba8","6657922a9d4a78e937890937","2739","stimuli/2100001.jpg","2","","prediction_practice","2","{""filepath"":""stimuli/2100001.jpg"",""ball_pos"":2,""ego_ball_visible"":false,""ego_can_infer"":true,""alter_ball_visible"":true,""alter_can_infer"":true,""collective_ball_visible"":false,""collective_can_infer"":true,""search_locations"":[2],""alter_occluders"":""100"",""ego_occluders"":""001""}","true","","","","","","","","","","","","","","","","","","",""
"","","","","","image-keyboard-response","17","62305","0.0-3.0-14.0","62959d1553cc14e98f4b8d78","665500ab8938657b03fbdba8","6657922a9d4a78e937890937","1142","stimuli/21000012.jpg"," ","","practrice_feedback","2","","","","","","","","","","","","","","","","","","","","",""
"","","","","","image-keyboard-response","18","64116","0.0-3.0-15.0","62959d1553cc14e98f4b8d78","665500ab8938657b03fbdba8","6657922a9d4a78e937890937","1808","stimuli/1000100.jpg","1","","prediction_practice","1","{""filepath"":""stimuli/1000100.jpg"",""ball_pos"":1,""ego_ball_visible"":true,""ego_can_infer"":true,""alter_ball_visible"":true,""alter_can_infer"":true,""collective_ball_visible"":true,""collective_can_infer"":true,""search_locations"":[1],""alter_occluders"":""000"",""ego_occluders"":""100""}","true","","","","","","","","","","","","","","","","","","",""
"","","","","","image-keyboard-response","19","64987","0.0-3.0-16.0","62959d1553cc14e98f4b8d78","665500ab8938657b03fbdba8","6657922a9d4a78e937890937","870","stimuli/10001001.jpg"," ","","practrice_feedback","1","","","","","","","","","","","","","","","","","","","","",""
"","","","","","image-keyboard-response","20","66829","0.0-3.0-17.0","62959d1553cc14e98f4b8d78","665500ab8938657b03fbdba8","6657922a9d4a78e937890937","1841","stimuli/0100100.jpg","0","","prediction_practice","0","{""filepath"":""stimuli/0100100.jpg"",""ball_pos"":0,""ego_ball_visible"":false,""ego_can_infer"":true,""alter_ball_visible"":false,""alter_can_infer"":true,""collective_ball_visible"":false,""collective_can_infer"":true,""search_locations"":[0],""alter_occluders"":""100"",""ego_occluders"":""100""}","true","","","","","","","","","","","","","","","","","","",""
"","","","","","image-keyboard-response","21","67546","0.0-3.0-18.0","62959d1553cc14e98f4b8d78","665500ab8938657b03fbdba8","6657922a9d4a78e937890937","698","stimuli/01001000.jpg"," ","","practrice_feedback","0","","","","","","","","","","","","","","","","","","","","",""
"","","","","","image-keyboard-response","22","68992","0.0-3.0-19.0","62959d1553cc14e98f4b8d78","665500ab8938657b03fbdba8","6657922a9d4a78e937890937","1445","stimuli/2111111.jpg","2","","prediction_practice","1","{""filepath"":""stimuli/2111111.jpg"",""ball_pos"":2,""ego_ball_visible"":false,""ego_can_infer"":false,""alter_ball_visible"":false,""alter_can_infer"":false,""collective_ball_visible"":false,""collective_can_infer"":false,""search_locations"":[0,1,2],""alter_occluders"":""111"",""ego_occluders"":""111""}","false","","","","","","","","","","","","","","","","","","",""
"","","","","","image-keyboard-response","23","70894","0.0-3.0-20.0","62959d1553cc14e98f4b8d78","665500ab8938657b03fbdba8","6657922a9d4a78e937890937","1900","stimuli/21111111.jpg"," ","","practrice_feedback","0","","","","","","","","","","","","","","","","","","","","",""
"","","","","","html-button-response","24","73875","0.0-3.0-21.0","62959d1553cc14e98f4b8d78","665500ab8938657b03fbdba8","6657922a9d4a78e937890937","2979","Now that you've had some practice, you'll be tested with a couple of easy trials. If you correctly predict Sam's choice, you'll move on to complete the experiment!","0","","","","","","","","","","","","","","","","","","","","","","","",""
"","","","","","image-keyboard-response","25","75680","0.0-3.0-22.0-0.0","62959d1553cc14e98f4b8d78","665500ab8938657b03fbdba8","6657922a9d4a78e937890937","1803","stimuli/0000011.jpg","arrowleft","","comprehension_quiz","","","true","arrowleft","","","","","","","","","","","","","","","","","",""
"","","","","","image-keyboard-response","26","76763","0.0-3.0-22.0-1.0","62959d1553cc14e98f4b8d78","665500ab8938657b03fbdba8","6657922a9d4a78e937890937","1079","stimuli/00000110.jpg"," ","","comprehension_quiz","","","true"," ","","","","","","","","","","","","","","","","","",""
"","","","","","image-keyboard-response","27","78634","0.0-3.0-22.0-2.0","62959d1553cc14e98f4b8d78","665500ab8938657b03fbdba8","6657922a9d4a78e937890937","1870","stimuli/1010010.jpg","arrowdown","","comprehension_quiz","","","true","arrowdown","","","","","","","","","","","","","","","","","",""
"","","","","","image-keyboard-response","28","79288","0.0-3.0-22.0-3.0","62959d1553cc14e98f4b8d78","665500ab8938657b03fbdba8","6657922a9d4a78e937890937","633","stimuli/10100101.jpg"," ","","comprehension_quiz","","","true"," ","","","","","","","","","","","","","","","","","",""
"","","","","","html-button-response","29","81955","0.0-4.0","62959d1553cc14e98f4b8d78","665500ab8938657b03fbdba8","6657922a9d4a78e937890937","2664","The experiment will now begin.","0","","","","","","","","","","","","","","","","","","","","","","","",""
"","","","","","image-keyboard-response","30","84721","0.0-5.0","62959d1553cc14e98f4b8d78","665500ab8938657b03fbdba8","6657922a9d4a78e937890937","2764","stimuli/0110100.jpg","0","","prediction_trial","0","","true","","0","false","true","false","false","false","false","[0,1]","110","100","1","","","","","","",""
"","","","","","image-keyboard-response","31","85828","0.0-6.0","62959d1553cc14e98f4b8d78","665500ab8938657b03fbdba8","6657922a9d4a78e937890937","1105","stimuli/01101000.jpg"," ","","feedback_trial","0","","","","","","","","","","","","","","","","","","","","",""
"","","","","","image-keyboard-response","32","86988","0.0-7.0","62959d1553cc14e98f4b8d78","665500ab8938657b03fbdba8","6657922a9d4a78e937890937","1157","stimuli/2110110.jpg","2","","prediction_trial","2","","true","","2","true","true","true","true","true","true","[2]","110","110","1","","","","","","",""
"","","","","","image-keyboard-response","33","87675","0.0-8.0","62959d1553cc14e98f4b8d78","665500ab8938657b03fbdba8","6657922a9d4a78e937890937","685","stimuli/21101102.jpg"," ","","feedback_trial","2","","","","","","","","","","","","","","","","","","","","",""
"","","","","","image-keyboard-response","34","91194","0.0-9.0","62959d1553cc14e98f4b8d78","665500ab8938657b03fbdba8","6657922a9d4a78e937890937","3517","stimuli/1010111.jpg","2","","prediction_trial","1","","false","","1","false","false","false","true","false","false","[1]","010","111","0","","","","","","",""
"","","","","","image-keyboard-response","35","92829","0.0-10.0","62959d1553cc14e98f4b8d78","665500ab8938657b03fbdba8","6657922a9d4a78e937890937","1621","stimuli/10101111.jpg"," ","","feedback_trial","1","","","","","","","","","","","","","","","","","","","","",""
"","","","","","image-keyboard-response","36","97261","0.0-11.0","62959d1553cc14e98f4b8d78","665500ab8938657b03fbdba8","6657922a9d4a78e937890937","4430","stimuli/1111010.jpg","1","","prediction_trial","2","","false","","1","false","true","false","false","false","false","[2,0,1]","111","010","0","","","","","","",""
"","","","","","image-keyboard-response","37","98538","0.0-12.0","62959d1553cc14e98f4b8d78","665500ab8938657b03fbdba8","6657922a9d4a78e937890937","1276","stimuli/11110102.jpg"," ","","feedback_trial","2","","","","","","","","","","","","","","","","","","","","",""
"","","","","","image-keyboard-response","38","99798","0.0-13.0","62959d1553cc14e98f4b8d78","665500ab8938657b03fbdba8","6657922a9d4a78e937890937","1259","stimuli/1100000.jpg","1","","prediction_trial","1","","true","","1","true","true","true","true","true","true","[1]","100","000","1","","","","","","",""
"","","","","","image-keyboard-response","39","100490","0.0-14.0","62959d1553cc14e98f4b8d78","665500ab8938657b03fbdba8","6657922a9d4a78e937890937","689","stimuli/11000001.jpg"," ","","feedback_trial","1","","","","","","","","","","","","","","","","","","","","",""
"","","","","","image-keyboard-response","40","101641","0.0-15.0","62959d1553cc14e98f4b8d78","665500ab8938657b03fbdba8","6657922a9d4a78e937890937","1150","stimuli/0000001.jpg","0","","prediction_trial","0","","true","","0","true","true","true","true","true","true","[0]","000","001","1","","","","","","",""
"","","","","","image-keyboard-response","41","102372","0.0-16.0","62959d1553cc14e98f4b8d78","665500ab8938657b03fbdba8","6657922a9d4a78e937890937","720","stimuli/00000010.jpg"," ","","feedback_trial","0","","","","","","","","","","","","","","","","","","","","",""
"","","","","","image-keyboard-response","42","104541","0.0-17.0","62959d1553cc14e98f4b8d78","665500ab8938657b03fbdba8","6657922a9d4a78e937890937","2167","stimuli/1010010.jpg","1","","prediction_trial","1","","true","","1","false","true","false","true","false","true","[1]","010","010","1","","","","","","",""
"","","","","","image-keyboard-response","43","105345","0.0-18.0","62959d1553cc14e98f4b8d78","665500ab8938657b03fbdba8","6657922a9d4a78e937890937","802","stimuli/10100101.jpg"," ","","feedback_trial","1","","","","","","","","","","","","","","","","","","","","",""
"","","","","","image-keyboard-response","44","106438","0.0-19.0","62959d1553cc14e98f4b8d78","665500ab8938657b03fbdba8","6657922a9d4a78e937890937","1091","stimuli/1000000.jpg","1","","prediction_trial","1","","true","","1","true","true","true","true","true","true","[1]","000","000","1","","","","","","",""
"","","","","","image-keyboard-response","45","107141","0.0-20.0","62959d1553cc14e98f4b8d78","665500ab8938657b03fbdba8","6657922a9d4a78e937890937","702","stimuli/10000001.jpg"," ","","feedback_trial","1","","","","","","","","","","","","","","","","","","","","",""
"","","","","","image-keyboard-response","46","109647","0.0-21.0","62959d1553cc14e98f4b8d78","665500ab8938657b03fbdba8","6657922a9d4a78e937890937","2503","stimuli/1111100.jpg","1","","prediction_trial","1","","true","","1","true","true","false","false","false","false","[1,0,2]","111","100","1","","","","","","",""
"","","","","","image-keyboard-response","47","110956","0.0-22.0","62959d1553cc14e98f4b8d78","665500ab8938657b03fbdba8","6657922a9d4a78e937890937","1297","stimuli/11111001.jpg"," ","","feedback_trial","1","","","","","","","","","","","","","","","","","","","","",""
"","","","","","image-keyboard-response","48","114681","0.0-23.0","62959d1553cc14e98f4b8d78","665500ab8938657b03fbdba8","6657922a9d4a78e937890937","3723","stimuli/1011000.jpg","1","","prediction_trial","1","","true","","1","true","true","false","false","false","false","[2,1]","011","000","1","","","","","","",""
"","","","","","image-keyboard-response","49","115677","0.0-24.0","62959d1553cc14e98f4b8d78","665500ab8938657b03fbdba8","6657922a9d4a78e937890937","994","stimuli/10110001.jpg"," ","","feedback_trial","2","","","","","","","","","","","","","","","","","","","","",""
"","","","","","image-keyboard-response","50","118366","0.0-25.0","62959d1553cc14e98f4b8d78","665500ab8938657b03fbdba8","6657922a9d4a78e937890937","2689","stimuli/0101010.jpg","0","","prediction_trial","0","","true","","0","true","true","false","false","false","false","[0,2]","101","010","1","","","","","","",""
"","","","","","image-keyboard-response","51","120424","0.0-26.0","62959d1553cc14e98f4b8d78","665500ab8938657b03fbdba8","6657922a9d4a78e937890937","2056","stimuli/01010100.jpg"," ","","feedback_trial","0","","","","","","","","","","","","","","","","","","","","",""
"","","","","","image-keyboard-response","52","124866","0.0-27.0","62959d1553cc14e98f4b8d78","665500ab8938657b03fbdba8","6657922a9d4a78e937890937","4442","stimuli/0101110.jpg","0","","prediction_trial","2","","false","","0","false","false","false","false","false","false","[0,2]","101","110","0","","","","","","",""
"","","","","","image-keyboard-response","53","126331","0.0-28.0","62959d1553cc14e98f4b8d78","665500ab8938657b03fbdba8","6657922a9d4a78e937890937","1450","stimuli/01011102.jpg"," ","","feedback_trial","0","","","","","","","","","","","","","","","","","","","","",""
"","","","","","image-keyboard-response","54","127348","0.0-29.0","62959d1553cc14e98f4b8d78","665500ab8938657b03fbdba8","6657922a9d4a78e937890937","1016","stimuli/1101100.jpg","1","","prediction_trial","1","","true","","1","true","true","true","true","true","true","[1]","101","100","1","","","","","","",""
"","","","","","image-keyboard-response","55","128033","0.0-30.0","62959d1553cc14e98f4b8d78","665500ab8938657b03fbdba8","6657922a9d4a78e937890937","684","stimuli/11011001.jpg"," ","","feedback_trial","1","","","","","","","","","","","","","","","","","","","","",""
"","","","","","image-keyboard-response","56","130188","0.0-31.0","62959d1553cc14e98f4b8d78","665500ab8938657b03fbdba8","6657922a9d4a78e937890937","2153","stimuli/2001110.jpg","2","","prediction_trial","2","","true","","2","true","true","false","true","false","true","[2]","001","110","1","","","","","","",""
"","","","","","image-keyboard-response","57","131007","0.0-32.0","62959d1553cc14e98f4b8d78","665500ab8938657b03fbdba8","6657922a9d4a78e937890937","818","stimuli/20011102.jpg"," ","","feedback_trial","2","","","","","","","","","","","","","","","","","","","","",""
"","","","","","image-keyboard-response","58","134133","0.0-33.0","62959d1553cc14e98f4b8d78","665500ab8938657b03fbdba8","6657922a9d4a78e937890937","3124","stimuli/0100001.jpg","0","","prediction_trial","0","","true","","0","true","true","false","true","false","true","[0]","100","001","1","","","","","","",""
"","","","","","image-keyboard-response","59","134772","0.0-34.0","62959d1553cc14e98f4b8d78","665500ab8938657b03fbdba8","6657922a9d4a78e937890937","626","stimuli/01000010.jpg"," ","","feedback_trial","0","","","","","","","","","","","","","","","","","","","","",""
"","","","","","image-keyboard-response","60","138620","0.0-35.0","62959d1553cc14e98f4b8d78","665500ab8938657b03fbdba8","6657922a9d4a78e937890937","3848","stimuli/2101110.jpg","2","","prediction_trial","2","","true","","2","true","true","false","false","false","false","[2,0]","101","110","1","","","","","","",""
"","","","","","image-keyboard-response","61","139425","0.0-36.0","62959d1553cc14e98f4b8d78","665500ab8938657b03fbdba8","6657922a9d4a78e937890937","804","stimuli/21011102.jpg"," ","","feedback_trial","2","","","","","","","","","","","","","","","","","","","","",""
"","","","","","image-keyboard-response","62","141389","0.0-37.0","62959d1553cc14e98f4b8d78","665500ab8938657b03fbdba8","6657922a9d4a78e937890937","1962","stimuli/2110111.jpg","2","","prediction_trial","2","","true","","2","false","false","true","true","false","false","[2]","110","111","1","","","","","","",""
"","","","","","image-keyboard-response","63","142338","0.0-38.0","62959d1553cc14e98f4b8d78","665500ab8938657b03fbdba8","6657922a9d4a78e937890937","948","stimuli/21101112.jpg"," ","","feedback_trial","2","","","","","","","","","","","","","","","","","","","","",""
"","","","","","image-keyboard-response","64","143716","0.0-39.0","62959d1553cc14e98f4b8d78","665500ab8938657b03fbdba8","6657922a9d4a78e937890937","1377","stimuli/2010100.jpg","2","","prediction_trial","2","","true","","2","true","true","true","true","true","true","[2]","010","100","1","","","","","","",""
"","","","","","image-keyboard-response","65","144483","0.0-40.0","62959d1553cc14e98f4b8d78","665500ab8938657b03fbdba8","6657922a9d4a78e937890937","755","stimuli/20101002.jpg"," ","","feedback_trial","2","","","","","","","","","","","","","","","","","","","","",""
"","","","","","image-keyboard-response","66","146371","0.0-41.0","62959d1553cc14e98f4b8d78","665500ab8938657b03fbdba8","6657922a9d4a78e937890937","1886","stimuli/2111110.jpg","2","","prediction_trial","1","","false","","2","true","true","false","false","false","false","[1,0,2]","111","110","0","","","","","","",""
"","","","","","image-keyboard-response","67","147256","0.0-42.0","62959d1553cc14e98f4b8d78","665500ab8938657b03fbdba8","6657922a9d4a78e937890937","884","stimuli/21111101.jpg"," ","","feedback_trial","1","","","","","","","","","","","","","","","","","","","","",""
"","","","","","image-keyboard-response","68","149699","0.0-43.0","62959d1553cc14e98f4b8d78","665500ab8938657b03fbdba8","6657922a9d4a78e937890937","2441","stimuli/2101000.jpg","2","","prediction_trial","0","","false","","2","true","true","false","false","false","false","[2,0]","101","000","0","","","","","","",""
"","","","","","image-keyboard-response","69","150508","0.0-44.0","62959d1553cc14e98f4b8d78","665500ab8938657b03fbdba8","6657922a9d4a78e937890937","808","stimuli/21010000.jpg"," ","","feedback_trial","2","","","","","","","","","","","","","","","","","","","","",""
"","","","","","image-keyboard-response","70","151908","0.0-45.0","62959d1553cc14e98f4b8d78","665500ab8938657b03fbdba8","6657922a9d4a78e937890937","1398","stimuli/0111111.jpg","1","","prediction_trial","2","","false","","0","false","false","false","false","false","false","[1,2,0]","111","111","0","","","","","","",""
"","","","","","image-keyboard-response","71","152938","0.0-46.0","62959d1553cc14e98f4b8d78","665500ab8938657b03fbdba8","6657922a9d4a78e937890937","1018","stimuli/01111112.jpg"," ","","feedback_trial","1","","","","","","","","","","","","","","","","","","","","",""
"","","","","","image-keyboard-response","72","154427","0.0-47.0","62959d1553cc14e98f4b8d78","665500ab8938657b03fbdba8","6657922a9d4a78e937890937","1486","stimuli/0011100.jpg","0","","prediction_trial","0","","true","","0","false","true","true","true","false","true","[0]","011","100","1","","","","","","",""
"","","","","","image-keyboard-response","73","155113","0.0-48.0","62959d1553cc14e98f4b8d78","665500ab8938657b03fbdba8","6657922a9d4a78e937890937","684","stimuli/00111000.jpg"," ","","feedback_trial","0","","","","","","","","","","","","","","","","","","","","",""
"","","","","","image-keyboard-response","74","157121","0.0-49.0","62959d1553cc14e98f4b8d78","665500ab8938657b03fbdba8","6657922a9d4a78e937890937","2005","stimuli/1011011.jpg","2","","prediction_trial","2","","true","","1","false","false","false","false","false","false","[2,1]","011","011","1","","","","","","",""
"","","","","","image-keyboard-response","75","158255","0.0-50.0","62959d1553cc14e98f4b8d78","665500ab8938657b03fbdba8","6657922a9d4a78e937890937","1132","stimuli/10110112.jpg"," ","","feedback_trial","2","","","","","","","","","","","","","","","","","","","","",""
"","","","","","image-keyboard-response","76","160421","0.0-51.0","62959d1553cc14e98f4b8d78","665500ab8938657b03fbdba8","6657922a9d4a78e937890937","2165","stimuli/0101100.jpg","0","","prediction_trial","2","","false","","0","false","true","false","false","false","false","[0,2]","101","100","0","","","","","","",""
"","","","","","image-keyboard-response","77","161012","0.0-52.0","62959d1553cc14e98f4b8d78","665500ab8938657b03fbdba8","6657922a9d4a78e937890937","579","stimuli/01011002.jpg"," ","","feedback_trial","0","","","","","","","","","","","","","","","","","","","","",""
"","","","","","image-keyboard-response","78","163645","0.0-53.0","62959d1553cc14e98f4b8d78","665500ab8938657b03fbdba8","6657922a9d4a78e937890937","2632","stimuli/2110101.jpg","0","","prediction_trial","2","","false","","2","false","false","true","true","false","false","[2]","110","101","0","","","","","","",""
"","","","","","image-keyboard-response","79","164507","0.0-54.0","62959d1553cc14e98f4b8d78","665500ab8938657b03fbdba8","6657922a9d4a78e937890937","860","stimuli/21101012.jpg"," ","","feedback_trial","2","","","","","","","","","","","","","","","","","","","","",""
"","","","","","image-keyboard-response","80","165931","0.0-55.0","62959d1553cc14e98f4b8d78","665500ab8938657b03fbdba8","6657922a9d4a78e937890937","1423","stimuli/2001100.jpg","2","","prediction_trial","2","","true","","2","true","true","false","true","false","true","[2]","001","100","1","","","","","","",""
"","","","","","image-keyboard-response","81","166717","0.0-56.0","62959d1553cc14e98f4b8d78","665500ab8938657b03fbdba8","6657922a9d4a78e937890937","785","stimuli/20011002.jpg"," ","","feedback_trial","2","","","","","","","","","","","","","","","","","","","","",""
"","","","","","image-keyboard-response","82","167860","0.0-57.0","62959d1553cc14e98f4b8d78","665500ab8938657b03fbdba8","6657922a9d4a78e937890937","1140","stimuli/0011011.jpg","0","","prediction_trial","0","","true","","0","true","true","true","true","true","true","[0]","011","011","1","","","","","","",""
"","","","","","image-keyboard-response","83","168431","0.0-58.0","62959d1553cc14e98f4b8d78","665500ab8938657b03fbdba8","6657922a9d4a78e937890937","559","stimuli/00110110.jpg"," ","","feedback_trial","0","","","","","","","","","","","","","","","","","","","","",""
"","","","","","image-keyboard-response","84","170012","0.0-59.0","62959d1553cc14e98f4b8d78","665500ab8938657b03fbdba8","6657922a9d4a78e937890937","1578","stimuli/0111101.jpg","0","","prediction_trial","1","","false","","0","false","false","false","false","false","false","[0,1,2]","111","101","0","","","","","","",""
"","","","","","image-keyboard-response","85","170708","0.0-60.0","62959d1553cc14e98f4b8d78","665500ab8938657b03fbdba8","6657922a9d4a78e937890937","694","stimuli/01111011.jpg"," ","","feedback_trial","0","","","","","","","","","","","","","","","","","","","","",""
"","","","","","image-keyboard-response","86","174619","0.0-61.0","62959d1553cc14e98f4b8d78","665500ab8938657b03fbdba8","6657922a9d4a78e937890937","3910","stimuli/1011110.jpg","1","","prediction_trial","2","","false","","1","false","false","false","false","false","false","[2,1]","011","110","0","","","","","","",""
"","","","","","image-keyboard-response","87","175593","0.0-62.0","62959d1553cc14e98f4b8d78","665500ab8938657b03fbdba8","6657922a9d4a78e937890937","973","stimuli/10111102.jpg"," ","","feedback_trial","2","","","","","","","","","","","","","","","","","","","","",""
"","","","","","image-keyboard-response","88","176723","0.0-63.0","62959d1553cc14e98f4b8d78","665500ab8938657b03fbdba8","6657922a9d4a78e937890937","1129","stimuli/1000100.jpg","1","","prediction_trial","1","","true","","1","true","true","true","true","true","true","[1]","000","100","1","","","","","","",""
"","","","","","image-keyboard-response","89","177252","0.0-64.0","62959d1553cc14e98f4b8d78","665500ab8938657b03fbdba8","6657922a9d4a78e937890937","519","stimuli/10001001.jpg"," ","","feedback_trial","1","","","","","","","","","","","","","","","","","","","","",""
"","","","","","image-keyboard-response","90","178563","0.0-65.0","62959d1553cc14e98f4b8d78","665500ab8938657b03fbdba8","6657922a9d4a78e937890937","1309","stimuli/1001110.jpg","0","","prediction_trial","1","","false","","1","false","false","true","true","false","false","[1]","001","110","0","","","","","","",""
"","","","","","image-keyboard-response","91","179209","0.0-66.0","62959d1553cc14e98f4b8d78","665500ab8938657b03fbdba8","6657922a9d4a78e937890937","644","stimuli/10011101.jpg"," ","","feedback_trial","1","","","","","","","","","","","","","","","","","","","","",""
"","","","","","image-keyboard-response","92","180433","0.0-67.0","62959d1553cc14e98f4b8d78","665500ab8938657b03fbdba8","6657922a9d4a78e937890937","1224","stimuli/1111111.jpg","0","","prediction_trial","0","","true","","1","false","false","false","false","false","false","[0,1,2]","111","111","1","","","","","","",""
"","","","","","image-keyboard-response","93","181196","0.0-68.0","62959d1553cc14e98f4b8d78","665500ab8938657b03fbdba8","6657922a9d4a78e937890937","760","stimuli/11111110.jpg"," ","","feedback_trial","0","","","","","","","","","","","","","","","","","","","","",""
"","","","","","image-keyboard-response","94","183621","0.0-69.0","62959d1553cc14e98f4b8d78","665500ab8938657b03fbdba8","6657922a9d4a78e937890937","2424","stimuli/1000010.jpg","1","","prediction_trial","1","","true","","1","false","true","true","true","false","true","[1]","000","010","1","","","","","","",""
"","","","","","image-keyboard-response","95","184371","0.0-70.0","62959d1553cc14e98f4b8d78","665500ab8938657b03fbdba8","6657922a9d4a78e937890937","739","stimuli/10000101.jpg"," ","","feedback_trial","1","","","","","","","","","","","","","","","","","","","","",""
"","","","","","image-keyboard-response","96","187459","0.0-71.0","62959d1553cc14e98f4b8d78","665500ab8938657b03fbdba8","6657922a9d4a78e937890937","3086","stimuli/2010011.jpg","1","","prediction_trial","2","","false","","2","false","false","true","true","false","false","[2]","010","011","0","","","","","","",""
"","","","","","image-keyboard-response","97","188636","0.0-72.0","62959d1553cc14e98f4b8d78","665500ab8938657b03fbdba8","6657922a9d4a78e937890937","1175","stimuli/20100112.jpg"," ","","feedback_trial","2","","","","","","","","","","","","","","","","","","","","",""
"","","","","","image-keyboard-response","98","191026","0.0-73.0","62959d1553cc14e98f4b8d78","665500ab8938657b03fbdba8","6657922a9d4a78e937890937","2389","stimuli/1100010.jpg","1","","prediction_trial","1","","true","","1","false","true","true","true","false","true","[1]","100","010","1","","","","","","",""
"","","","","","image-keyboard-response","99","191774","0.0-74.0","62959d1553cc14e98f4b8d78","665500ab8938657b03fbdba8","6657922a9d4a78e937890937","747","stimuli/11000101.jpg"," ","","feedback_trial","1","","","","","","","","","","","","","","","","","","","","",""
"","","","","","image-keyboard-response","100","192710","0.0-75.0","62959d1553cc14e98f4b8d78","665500ab8938657b03fbdba8","6657922a9d4a78e937890937","933","stimuli/2010110.jpg","2","","prediction_trial","2","","true","","2","true","true","true","true","true","true","[2]","010","110","1","","","","","","",""
"","","","","","image-keyboard-response","101","193788","0.0-76.0","62959d1553cc14e98f4b8d78","665500ab8938657b03fbdba8","6657922a9d4a78e937890937","1065","stimuli/20101102.jpg"," ","","feedback_trial","2","","","","","","","","","","","","","","","","","","","","",""
"","","","","","image-keyboard-response","102","195166","0.0-77.0","62959d1553cc14e98f4b8d78","665500ab8938657b03fbdba8","6657922a9d4a78e937890937","1377","stimuli/1100001.jpg","1","","prediction_trial","1","","true","","1","true","true","true","true","true","true","[1]","100","001","1","","","","","","",""
"","","","","","image-keyboard-response","103","195777","0.0-78.0","62959d1553cc14e98f4b8d78","665500ab8938657b03fbdba8","6657922a9d4a78e937890937","610","stimuli/11000011.jpg"," ","","feedback_trial","1","","","","","","","","","","","","","","","","","","","","",""
"","","","","","image-keyboard-response","104","197693","0.0-79.0","62959d1553cc14e98f4b8d78","665500ab8938657b03fbdba8","6657922a9d4a78e937890937","1915","stimuli/1101111.jpg","1","","prediction_trial","1","","true","","1","false","false","true","true","false","false","[1]","101","111","1","","","","","","",""
"","","","","","image-keyboard-response","105","198595","0.0-80.0","62959d1553cc14e98f4b8d78","665500ab8938657b03fbdba8","6657922a9d4a78e937890937","901","stimuli/11011111.jpg"," ","","feedback_trial","1","","","","","","","","","","","","","","","","","","","","",""
"","","","","","image-keyboard-response","106","199761","0.0-81.0","62959d1553cc14e98f4b8d78","665500ab8938657b03fbdba8","6657922a9d4a78e937890937","1165","stimuli/1001100.jpg","1","","prediction_trial","1","","true","","1","true","true","true","true","true","true","[1]","001","100","1","","","","","","",""
"","","","","","image-keyboard-response","107","200539","0.0-82.0","62959d1553cc14e98f4b8d78","665500ab8938657b03fbdba8","6657922a9d4a78e937890937","767","stimuli/10011001.jpg"," ","","feedback_trial","1","","","","","","","","","","","","","","","","","","","","",""
"","","","","","image-keyboard-response","108","201438","0.0-83.0","62959d1553cc14e98f4b8d78","665500ab8938657b03fbdba8","6657922a9d4a78e937890937","897","stimuli/2100100.jpg","2","","prediction_trial","2","","true","","2","true","true","true","true","true","true","[2]","100","100","1","","","","","","",""
"","","","","","image-keyboard-response","109","202093","0.0-84.0","62959d1553cc14e98f4b8d78","665500ab8938657b03fbdba8","6657922a9d4a78e937890937","653","stimuli/21001002.jpg"," ","","feedback_trial","2","","","","","","","","","","","","","","","","","","","","",""
"","","","","","image-keyboard-response","110","203313","0.0-85.0","62959d1553cc14e98f4b8d78","665500ab8938657b03fbdba8","6657922a9d4a78e937890937","1218","stimuli/0110110.jpg","0","","prediction_trial","1","","false","","0","false","false","false","false","false","false","[0,1]","110","110","0","","","","","","",""
"","","","","","image-keyboard-response","111","204073","0.0-86.0","62959d1553cc14e98f4b8d78","665500ab8938657b03fbdba8","6657922a9d4a78e937890937","759","stimuli/01101101.jpg"," ","","feedback_trial","0","","","","","","","","","","","","","","","","","","","","",""
"","","","","","image-keyboard-response","112","204927","0.0-87.0","62959d1553cc14e98f4b8d78","665500ab8938657b03fbdba8","6657922a9d4a78e937890937","853","stimuli/2110000.jpg","2","","prediction_trial","2","","true","","2","true","true","true","true","true","true","[2]","110","000","1","","","","","","",""
"","","","","","image-keyboard-response","113","205570","0.0-88.0","62959d1553cc14e98f4b8d78","665500ab8938657b03fbdba8","6657922a9d4a78e937890937","632","stimuli/21100002.jpg"," ","","feedback_trial","2","","","","","","","","","","","","","","","","","","","","",""
"","","","","","image-keyboard-response","114","206847","0.0-89.0","62959d1553cc14e98f4b8d78","665500ab8938657b03fbdba8","6657922a9d4a78e937890937","1275","stimuli/1000111.jpg","1","","prediction_trial","1","","true","","1","false","false","true","true","false","false","[1]","000","111","1","","","","","","",""
"","","","","","image-keyboard-response","115","207600","0.0-90.0","62959d1553cc14e98f4b8d78","665500ab8938657b03fbdba8","6657922a9d4a78e937890937","752","stimuli/10001111.jpg"," ","","feedback_trial","1","","","","","","","","","","","","","","","","","","","","",""
"","","","","","image-keyboard-response","116","208654","0.0-91.0","62959d1553cc14e98f4b8d78","665500ab8938657b03fbdba8","6657922a9d4a78e937890937","1054","stimuli/1001000.jpg","1","","prediction_trial","1","","true","","1","true","true","true","true","true","true","[1]","001","000","1","","","","","","",""
"","","","","","image-keyboard-response","117","209251","0.0-92.0","62959d1553cc14e98f4b8d78","665500ab8938657b03fbdba8","6657922a9d4a78e937890937","595","stimuli/10010001.jpg"," ","","feedback_trial","1","","","","","","","","","","","","","","","","","","","","",""
"","","","","","image-keyboard-response","118","210152","0.0-93.0","62959d1553cc14e98f4b8d78","665500ab8938657b03fbdba8","6657922a9d4a78e937890937","900","stimuli/2110100.jpg","2","","prediction_trial","2","","true","","2","true","true","true","true","true","true","[2]","110","100","1","","","","","","",""
"","","","","","image-keyboard-response","119","210799","0.0-94.0","62959d1553cc14e98f4b8d78","665500ab8938657b03fbdba8","6657922a9d4a78e937890937","634","stimuli/21101002.jpg"," ","","feedback_trial","2","","","","","","","","","","","","","","","","","","","","",""
"","","","","","image-keyboard-response","120","214022","0.0-95.0","62959d1553cc14e98f4b8d78","665500ab8938657b03fbdba8","6657922a9d4a78e937890937","3221","stimuli/2101011.jpg","1","","prediction_trial","0","","false","","2","false","false","false","false","false","false","[0,2]","101","011","0","","","","","","",""
"","","","","","image-keyboard-response","121","214850","0.0-96.0","62959d1553cc14e98f4b8d78","665500ab8938657b03fbdba8","6657922a9d4a78e937890937","826","stimuli/21010110.jpg"," ","","feedback_trial","0","","","","","","","","","","","","","","","","","","","","",""
"","","","","","image-keyboard-response","122","215975","0.0-97.0","62959d1553cc14e98f4b8d78","665500ab8938657b03fbdba8","6657922a9d4a78e937890937","1123","stimuli/0010010.jpg","0","","prediction_trial","0","","true","","0","true","true","true","true","true","true","[0]","010","010","1","","","","","","",""
"","","","","","image-keyboard-response","123","216925","0.0-98.0","62959d1553cc14e98f4b8d78","665500ab8938657b03fbdba8","6657922a9d4a78e937890937","948","stimuli/00100100.jpg"," ","","feedback_trial","0","","","","","","","","","","","","","","","","","","","","",""
"","","","","","image-keyboard-response","124","218627","0.0-99.0","62959d1553cc14e98f4b8d78","665500ab8938657b03fbdba8","6657922a9d4a78e937890937","1701","stimuli/1100101.jpg","1","","prediction_trial","1","","true","","1","true","true","true","true","true","true","[1]","100","101","1","","","","","","",""
"","","","","","image-keyboard-response","125","219503","0.0-100.0","62959d1553cc14e98f4b8d78","665500ab8938657b03fbdba8","6657922a9d4a78e937890937","874","stimuli/11001011.jpg"," ","","feedback_trial","1","","","","","","","","","","","","","","","","","","","","",""
"","","","","","image-keyboard-response","126","220427","0.0-101.0","62959d1553cc14e98f4b8d78","665500ab8938657b03fbdba8","6657922a9d4a78e937890937","922","stimuli/1111001.jpg","1","","prediction_trial","0","","false","","1","true","true","false","false","false","false","[0,2,1]","111","001","0","","","","","","",""
"","","","","","image-keyboard-response","127","221073","0.0-102.0","62959d1553cc14e98f4b8d78","665500ab8938657b03fbdba8","6657922a9d4a78e937890937","644","stimuli/11110010.jpg"," ","","feedback_trial","0","","","","","","","","","","","","","","","","","","","","",""
"","","","","","image-keyboard-response","128","223609","0.0-103.0","62959d1553cc14e98f4b8d78","665500ab8938657b03fbdba8","6657922a9d4a78e937890937","2535","stimuli/0101001.jpg","0","","prediction_trial","0","","true","","0","true","true","false","false","false","false","[0,2]","101","001","1","","","","","","",""
"","","","","","image-keyboard-response","129","224482","0.0-104.0","62959d1553cc14e98f4b8d78","665500ab8938657b03fbdba8","6657922a9d4a78e937890937","871","stimuli/01010010.jpg"," ","","feedback_trial","0","","","","","","","","","","","","","","","","","","","","",""
"","","","","","image-keyboard-response","130","227034","0.0-105.0","62959d1553cc14e98f4b8d78","665500ab8938657b03fbdba8","6657922a9d4a78e937890937","2550","stimuli/1110101.jpg","1","","prediction_trial","1","","true","","1","true","true","false","false","false","false","[1,0]","110","101","1","","","","","","",""
"","","","","","image-keyboard-response","131","228787","0.0-106.0","62959d1553cc14e98f4b8d78","665500ab8938657b03fbdba8","6657922a9d4a78e937890937","1740","stimuli/11101011.jpg"," ","","feedback_trial","1","","","","","","","","","","","","","","","","","","","","",""
"","","","","","image-keyboard-response","132","229707","0.0-107.0","62959d1553cc14e98f4b8d78","665500ab8938657b03fbdba8","6657922a9d4a78e937890937","918","stimuli/2010010.jpg","2","","prediction_trial","2","","true","","2","true","true","true","true","true","true","[2]","010","010","1","","","","","","",""
"","","","","","image-keyboard-response","133","230384","0.0-108.0","62959d1553cc14e98f4b8d78","665500ab8938657b03fbdba8","6657922a9d4a78e937890937","683","stimuli/20100102.jpg"," ","","feedback_trial","2","","","","","","","","","","","","","","","","","","","","",""
"","","","","","image-keyboard-response","134","231747","0.0-109.0","62959d1553cc14e98f4b8d78","665500ab8938657b03fbdba8","6657922a9d4a78e937890937","1361","stimuli/1000110.jpg","0","","prediction_trial","1","","false","","1","false","false","true","true","false","false","[1]","000","110","0","","","","","","",""
"","","","","","image-keyboard-response","135","232663","0.0-110.0","62959d1553cc14e98f4b8d78","665500ab8938657b03fbdba8","6657922a9d4a78e937890937","915","stimuli/10001101.jpg"," ","","feedback_trial","1","","","","","","","","","","","","","","","","","","","","",""
"","","","","","image-keyboard-response","136","234814","0.0-111.0","62959d1553cc14e98f4b8d78","665500ab8938657b03fbdba8","6657922a9d4a78e937890937","2149","stimuli/2010001.jpg","2","","prediction_trial","2","","true","","2","false","true","true","true","false","true","[2]","010","001","1","","","","","","",""
"","","","","","image-keyboard-response","137","235577","0.0-112.0","62959d1553cc14e98f4b8d78","665500ab8938657b03fbdba8","6657922a9d4a78e937890937","748","stimuli/20100012.jpg"," ","","feedback_trial","2","","","","","","","","","","","","","","","","","","","","",""
"","","","","","image-keyboard-response","138","236931","0.0-113.0","62959d1553cc14e98f4b8d78","665500ab8938657b03fbdba8","6657922a9d4a78e937890937","1353","stimuli/0100000.jpg","0","","prediction_trial","0","","true","","0","true","true","false","true","false","true","[0]","100","000","1","","","","","","",""
"","","","","","image-keyboard-response","139","237546","0.0-114.0","62959d1553cc14e98f4b8d78","665500ab8938657b03fbdba8","6657922a9d4a78e937890937","613","stimuli/01000000.jpg"," ","","feedback_trial","0","","","","","","","","","","","","","","","","","","","","",""
"","","","","","image-keyboard-response","140","238594","0.0-115.0","62959d1553cc14e98f4b8d78","665500ab8938657b03fbdba8","6657922a9d4a78e937890937","1046","stimuli/1010100.jpg","1","","prediction_trial","1","","true","","1","true","true","false","true","false","true","[1]","010","100","1","","","","","","",""
"","","","","","image-keyboard-response","141","239166","0.0-116.0","62959d1553cc14e98f4b8d78","665500ab8938657b03fbdba8","6657922a9d4a78e937890937","570","stimuli/10101001.jpg"," ","","feedback_trial","1","","","","","","","","","","","","","","","","","","","","",""
"","","","","","image-keyboard-response","142","240145","0.0-117.0","62959d1553cc14e98f4b8d78","665500ab8938657b03fbdba8","6657922a9d4a78e937890937","978","stimuli/0011010.jpg","0","","prediction_trial","0","","true","","0","true","true","true","true","true","true","[0]","011","010","1","","","","","","",""
"","","","","","image-keyboard-response","143","240623","0.0-118.0","62959d1553cc14e98f4b8d78","665500ab8938657b03fbdba8","6657922a9d4a78e937890937","464","stimuli/00110100.jpg"," ","","feedback_trial","0","","","","","","","","","","","","","","","","","","","","",""
"","","","","","image-keyboard-response","144","241654","0.0-119.0","62959d1553cc14e98f4b8d78","665500ab8938657b03fbdba8","6657922a9d4a78e937890937","1030","stimuli/0100011.jpg","0","","prediction_trial","0","","true","","0","true","true","false","true","false","true","[0]","100","011","1","","","","","","",""
"","","","","","image-keyboard-response","145","242252","0.0-120.0","62959d1553cc14e98f4b8d78","665500ab8938657b03fbdba8","6657922a9d4a78e937890937","596","stimuli/01000110.jpg"," ","","feedback_trial","0","","","","","","","","","","","","","","","","","","","","",""
"","","","","","image-keyboard-response","146","244507","0.0-121.0","62959d1553cc14e98f4b8d78","665500ab8938657b03fbdba8","6657922a9d4a78e937890937","2254","stimuli/0101111.jpg","0","","prediction_trial","2","","false","","0","false","false","false","false","false","false","[2,0]","101","111","0","","","","","","",""
"","","","","","image-keyboard-response","147","245419","0.0-122.0","62959d1553cc14e98f4b8d78","665500ab8938657b03fbdba8","6657922a9d4a78e937890937","911","stimuli/01011112.jpg"," ","","feedback_trial","2","","","","","","","","","","","","","","","","","","","","",""
"","","","","","image-keyboard-response","148","246393","0.0-123.0","62959d1553cc14e98f4b8d78","665500ab8938657b03fbdba8","6657922a9d4a78e937890937","973","stimuli/2100110.jpg","2","","prediction_trial","2","","true","","2","true","true","true","true","true","true","[2]","100","110","1","","","","","","",""
"","","","","","image-keyboard-response","149","246971","0.0-124.0","62959d1553cc14e98f4b8d78","665500ab8938657b03fbdba8","6657922a9d4a78e937890937","569","stimuli/21001102.jpg"," ","","feedback_trial","2","","","","","","","","","","","","","","","","","","","","",""
"","","","","","image-keyboard-response","150","247900","0.0-125.0","62959d1553cc14e98f4b8d78","665500ab8938657b03fbdba8","6657922a9d4a78e937890937","928","stimuli/0000010.jpg","0","","prediction_trial","0","","true","","0","true","true","true","true","true","true","[0]","000","010","1","","","","","","",""
"","","","","","image-keyboard-response","151","248278","0.0-126.0","62959d1553cc14e98f4b8d78","665500ab8938657b03fbdba8","6657922a9d4a78e937890937","377","stimuli/00000100.jpg"," ","","feedback_trial","0","","","","","","","","","","","","","","","","","","","","",""
"","","","","","image-keyboard-response","152","249139","0.0-127.0","62959d1553cc14e98f4b8d78","665500ab8938657b03fbdba8","6657922a9d4a78e937890937","860","stimuli/2100000.jpg","2","","prediction_trial","2","","true","","2","true","true","true","true","true","true","[2]","100","000","1","","","","","","",""
"","","","","","image-keyboard-response","153","249737","0.0-128.0","62959d1553cc14e98f4b8d78","665500ab8938657b03fbdba8","6657922a9d4a78e937890937","597","stimuli/21000002.jpg"," ","","feedback_trial","2","","","","","","","","","","","","","","","","","","","","",""
"","","","","","image-keyboard-response","154","250697","0.0-129.0","62959d1553cc14e98f4b8d78","665500ab8938657b03fbdba8","6657922a9d4a78e937890937","959","stimuli/0011000.jpg","0","","prediction_trial","0","","true","","0","true","true","true","true","true","true","[0]","011","000","1","","","","","","",""
"","","","","","image-keyboard-response","155","251266","0.0-130.0","62959d1553cc14e98f4b8d78","665500ab8938657b03fbdba8","6657922a9d4a78e937890937","567","stimuli/00110000.jpg"," ","","feedback_trial","0","","","","","","","","","","","","","","","","","","","","",""
"","","","","","image-keyboard-response","156","252119","0.0-131.0","62959d1553cc14e98f4b8d78","665500ab8938657b03fbdba8","6657922a9d4a78e937890937","852","stimuli/0101011.jpg","0","","prediction_trial","0","","true","","0","true","true","false","false","false","false","[2,0]","101","011","1","","","","","","",""
"","","","","","image-keyboard-response","157","252701","0.0-132.0","62959d1553cc14e98f4b8d78","665500ab8938657b03fbdba8","6657922a9d4a78e937890937","581","stimuli/01010110.jpg"," ","","feedback_trial","2","","","","","","","","","","","","","","","","","","","","",""
"","","","","","image-keyboard-response","158","254813","0.0-133.0","62959d1553cc14e98f4b8d78","665500ab8938657b03fbdba8","6657922a9d4a78e937890937","2111","stimuli/1001010.jpg","1","","prediction_trial","1","","true","","1","false","true","true","true","false","true","[1]","001","010","1","","","","","","",""
"","","","","","image-keyboard-response","159","255479","0.0-134.0","62959d1553cc14e98f4b8d78","665500ab8938657b03fbdba8","6657922a9d4a78e937890937","664","stimuli/10010101.jpg"," ","","feedback_trial","1","","","","","","","","","","","","","","","","","","","","",""
"","","","","","image-keyboard-response","160","257014","0.0-135.0","62959d1553cc14e98f4b8d78","665500ab8938657b03fbdba8","6657922a9d4a78e937890937","1534","stimuli/1100110.jpg","0","","prediction_trial","1","","false","","1","false","false","true","true","false","false","[1]","100","110","0","","","","","","",""
"","","","","","image-keyboard-response","161","257760","0.0-136.0","62959d1553cc14e98f4b8d78","665500ab8938657b03fbdba8","6657922a9d4a78e937890937","731","stimuli/11001101.jpg"," ","","feedback_trial","1","","","","","","","","","","","","","","","","","","","","",""
"","","","","","image-keyboard-response","162","259150","0.0-137.0","62959d1553cc14e98f4b8d78","665500ab8938657b03fbdba8","6657922a9d4a78e937890937","1388","stimuli/1100011.jpg","1","","prediction_trial","1","","true","","1","false","false","true","true","false","false","[1]","100","011","1","","","","","","",""
"","","","","","image-keyboard-response","163","259784","0.0-138.0","62959d1553cc14e98f4b8d78","665500ab8938657b03fbdba8","6657922a9d4a78e937890937","632","stimuli/11000111.jpg"," ","","feedback_trial","1","","","","","","","","","","","","","","","","","","","","",""
"","","","","","image-keyboard-response","164","260867","0.0-139.0","62959d1553cc14e98f4b8d78","665500ab8938657b03fbdba8","6657922a9d4a78e937890937","1081","stimuli/0000111.jpg","1","","prediction_trial","0","","false","","0","false","false","true","true","false","false","[0]","000","111","0","","","","","","",""
"","","","","","image-keyboard-response","165","261596","0.0-140.0","62959d1553cc14e98f4b8d78","665500ab8938657b03fbdba8","6657922a9d4a78e937890937","727","stimuli/00001110.jpg"," ","","feedback_trial","0","","","","","","","","","","","","","","","","","","","","",""
"","","","","","image-keyboard-response","166","262643","0.0-141.0","62959d1553cc14e98f4b8d78","665500ab8938657b03fbdba8","6657922a9d4a78e937890937","1046","stimuli/2100001.jpg","2","","prediction_trial","2","","true","","2","false","true","true","true","false","true","[2]","100","001","1","","","","","","",""
"","","","","","image-keyboard-response","167","263231","0.0-142.0","62959d1553cc14e98f4b8d78","665500ab8938657b03fbdba8","6657922a9d4a78e937890937","577","stimuli/21000012.jpg"," ","","feedback_trial","2","","","","","","","","","","","","","","","","","","","","",""
"","","","","","image-keyboard-response","168","264276","0.0-143.0","62959d1553cc14e98f4b8d78","665500ab8938657b03fbdba8","6657922a9d4a78e937890937","1044","stimuli/2110010.jpg","2","","prediction_trial","2","","true","","2","true","true","true","true","true","true","[2]","110","010","1","","","","","","",""
"","","","","","image-keyboard-response","169","265022","0.0-144.0","62959d1553cc14e98f4b8d78","665500ab8938657b03fbdba8","6657922a9d4a78e937890937","744","stimuli/21100102.jpg"," ","","feedback_trial","2","","","","","","","","","","","","","","","","","","","","",""
"","","","","","image-keyboard-response","170","265930","0.0-145.0","62959d1553cc14e98f4b8d78","665500ab8938657b03fbdba8","6657922a9d4a78e937890937","907","stimuli/1101101.jpg","1","","prediction_trial","1","","true","","1","true","true","true","true","true","true","[1]","101","101","1","","","","","","",""
"","","","","","image-keyboard-response","171","266561","0.0-146.0","62959d1553cc14e98f4b8d78","665500ab8938657b03fbdba8","6657922a9d4a78e937890937","630","stimuli/11011011.jpg"," ","","feedback_trial","1","","","","","","","","","","","","","","","","","","","","",""
"","","","","","image-keyboard-response","172","267710","0.0-147.0","62959d1553cc14e98f4b8d78","665500ab8938657b03fbdba8","6657922a9d4a78e937890937","1145","stimuli/1010001.jpg","1","","prediction_trial","1","","true","","1","true","true","false","true","false","true","[1]","010","001","1","","","","","","",""
"","","","","","image-keyboard-response","173","268294","0.0-148.0","62959d1553cc14e98f4b8d78","665500ab8938657b03fbdba8","6657922a9d4a78e937890937","575","stimuli/10100011.jpg"," ","","feedback_trial","1","","","","","","","","","","","","","","","","","","","","",""
"","","","","","image-keyboard-response","174","269249","0.0-149.0","62959d1553cc14e98f4b8d78","665500ab8938657b03fbdba8","6657922a9d4a78e937890937","953","stimuli/1011100.jpg","1","","prediction_trial","1","","true","","1","true","true","false","false","false","false","[2,1]","011","100","1","","","","","","",""
"","","","","","image-keyboard-response","175","269790","0.0-150.0","62959d1553cc14e98f4b8d78","665500ab8938657b03fbdba8","6657922a9d4a78e937890937","539","stimuli/10111001.jpg"," ","","feedback_trial","2","","","","","","","","","","","","","","","","","","","","",""
"","","","","","image-keyboard-response","176","271380","0.0-151.0","62959d1553cc14e98f4b8d78","665500ab8938657b03fbdba8","6657922a9d4a78e937890937","1588","stimuli/2000011.jpg","1","","prediction_trial","2","","false","","2","false","false","true","true","false","false","[2]","000","011","0","","","","","","",""
"","","","","","image-keyboard-response","177","272105","0.0-152.0","62959d1553cc14e98f4b8d78","665500ab8938657b03fbdba8","6657922a9d4a78e937890937","724","stimuli/20000112.jpg"," ","","feedback_trial","2","","","","","","","","","","","","","","","","","","","","",""
"","","","","","image-keyboard-response","178","273001","0.0-153.0","62959d1553cc14e98f4b8d78","665500ab8938657b03fbdba8","6657922a9d4a78e937890937","894","stimuli/1001101.jpg","1","","prediction_trial","1","","true","","1","true","true","true","true","true","true","[1]","001","101","1","","","","","","",""
"","","","","","image-keyboard-response","179","273474","0.0-154.0","62959d1553cc14e98f4b8d78","665500ab8938657b03fbdba8","6657922a9d4a78e937890937","462","stimuli/10011011.jpg"," ","","feedback_trial","1","","","","","","","","","","","","","","","","","","","","",""
"","","","","","image-keyboard-response","180","274353","0.0-155.0","62959d1553cc14e98f4b8d78","665500ab8938657b03fbdba8","6657922a9d4a78e937890937","877","stimuli/1011101.jpg","1","","prediction_trial","2","","false","","1","true","true","false","false","false","false","[1,2]","011","101","0","","","","","","",""
"","","","","","image-keyboard-response","181","275524","0.0-156.0","62959d1553cc14e98f4b8d78","665500ab8938657b03fbdba8","6657922a9d4a78e937890937","1170","stimuli/10111012.jpg"," ","","feedback_trial","1","","","","","","","","","","","","","","","","","","","","",""
"","","","","","image-keyboard-response","182","276399","0.0-157.0","62959d1553cc14e98f4b8d78","665500ab8938657b03fbdba8","6657922a9d4a78e937890937","873","stimuli/2011010.jpg","2","","prediction_trial","1","","false","","2","true","true","false","false","false","false","[1,2]","011","010","0","","","","","","",""
"","","","","","image-keyboard-response","183","277107","0.0-158.0","62959d1553cc14e98f4b8d78","665500ab8938657b03fbdba8","6657922a9d4a78e937890937","706","stimuli/20110101.jpg"," ","","feedback_trial","1","","","","","","","","","","","","","","","","","","","","",""
"","","","","","image-keyboard-response","184","278820","0.0-159.0","62959d1553cc14e98f4b8d78","665500ab8938657b03fbdba8","6657922a9d4a78e937890937","1712","stimuli/2011011.jpg","2","","prediction_trial","2","","true","","2","false","false","false","false","false","false","[2,1]","011","011","1","","","","","","",""
"","","","","","image-keyboard-response","185","279466","0.0-160.0","62959d1553cc14e98f4b8d78","665500ab8938657b03fbdba8","6657922a9d4a78e937890937","637","stimuli/20110112.jpg"," ","","feedback_trial","2","","","","","","","","","","","","","","","","","","","","",""
"","","","","","image-keyboard-response","186","281058","0.0-161.0","62959d1553cc14e98f4b8d78","665500ab8938657b03fbdba8","6657922a9d4a78e937890937","1591","stimuli/0110101.jpg","0","","prediction_trial","1","","false","","0","false","false","false","false","false","false","[1,0]","110","101","0","","","","","","",""
"","","","","","image-keyboard-response","187","281837","0.0-162.0","62959d1553cc14e98f4b8d78","665500ab8938657b03fbdba8","6657922a9d4a78e937890937","778","stimuli/01101011.jpg"," ","","feedback_trial","1","","","","","","","","","","","","","","","","","","","","",""
"","","","","","image-keyboard-response","188","284499","0.0-163.0","62959d1553cc14e98f4b8d78","665500ab8938657b03fbdba8","6657922a9d4a78e937890937","2660","stimuli/1011010.jpg","1","","prediction_trial","2","","false","","1","false","true","false","false","false","false","[1,2]","011","010","0","","","","","","",""
"","","","","","image-keyboard-response","189","285459","0.0-164.0","62959d1553cc14e98f4b8d78","665500ab8938657b03fbdba8","6657922a9d4a78e937890937","958","stimuli/10110102.jpg"," ","","feedback_trial","1","","","","","","","","","","","","","","","","","","","","",""
"","","","","","image-keyboard-response","190","286793","0.0-165.0","62959d1553cc14e98f4b8d78","665500ab8938657b03fbdba8","6657922a9d4a78e937890937","1332","stimuli/0011110.jpg","1","","prediction_trial","0","","false","","0","false","false","true","true","false","false","[0]","011","110","0","","","","","","",""
"","","","","","image-keyboard-response","191","287750","0.0-166.0","62959d1553cc14e98f4b8d78","665500ab8938657b03fbdba8","6657922a9d4a78e937890937","948","stimuli/00111100.jpg"," ","","feedback_trial","0","","","","","","","","","","","","","","","","","","","","",""
"","","","","","image-keyboard-response","192","288784","0.0-167.0","62959d1553cc14e98f4b8d78","665500ab8938657b03fbdba8","6657922a9d4a78e937890937","1033","stimuli/0100010.jpg","0","","prediction_trial","0","","true","","0","true","true","false","true","false","true","[0]","100","010","1","","","","","","",""
"","","","","","image-keyboard-response","193","289531","0.0-168.0","62959d1553cc14e98f4b8d78","665500ab8938657b03fbdba8","6657922a9d4a78e937890937","746","stimuli/01000100.jpg"," ","","feedback_trial","0","","","","","","","","","","","","","","","","","","","","",""
"","","","","","image-keyboard-response","194","291148","0.0-169.0","62959d1553cc14e98f4b8d78","665500ab8938657b03fbdba8","6657922a9d4a78e937890937","1617","stimuli/0111001.jpg","0","","prediction_trial","0","","true","","0","true","true","false","false","false","false","[1,2,0]","111","001","1","","","","","","",""
"","","","","","image-keyboard-response","195","291782","0.0-170.0","62959d1553cc14e98f4b8d78","665500ab8938657b03fbdba8","6657922a9d4a78e937890937","633","stimuli/01110010.jpg"," ","","feedback_trial","1","","","","","","","","","","","","","","","","","","","","",""
"","","","","","image-keyboard-response","196","293716","0.0-171.0","62959d1553cc14e98f4b8d78","665500ab8938657b03fbdba8","6657922a9d4a78e937890937","1934","stimuli/0001100.jpg","0","","prediction_trial","0","","true","","0","false","true","true","true","false","true","[0]","001","100","1","","","","","","",""
"","","","","","image-keyboard-response","197","294460","0.0-172.0","62959d1553cc14e98f4b8d78","665500ab8938657b03fbdba8","6657922a9d4a78e937890937","731","stimuli/00011000.jpg"," ","","feedback_trial","0","","","","","","","","","","","","","","","","","","","","",""
"","","","","","image-keyboard-response","198","295694","0.0-173.0","62959d1553cc14e98f4b8d78","665500ab8938657b03fbdba8","6657922a9d4a78e937890937","1234","stimuli/2101100.jpg","2","","prediction_trial","0","","false","","2","true","true","false","false","false","false","[2,0]","101","100","0","","","","","","",""
"","","","","","image-keyboard-response","199","299652","0.0-174.0","62959d1553cc14e98f4b8d78","665500ab8938657b03fbdba8","6657922a9d4a78e937890937","3956","stimuli/21011000.jpg"," ","","feedback_trial","2","","","","","","","","","","","","","","","","","","","","",""
"","","","","","image-keyboard-response","200","303279","0.0-175.0","62959d1553cc14e98f4b8d78","665500ab8938657b03fbdba8","6657922a9d4a78e937890937","3626","stimuli/1100111.jpg","0","","prediction_trial","1","","false","","1","false","false","true","true","false","false","[1]","100","111","0","","","","","","",""
"","","","","","image-keyboard-response","201","307622","0.0-176.0","62959d1553cc14e98f4b8d78","665500ab8938657b03fbdba8","6657922a9d4a78e937890937","4342","stimuli/11001111.jpg"," ","","feedback_trial","1","","","","","","","","","","","","","","","","","","","","",""
"","","","","","image-keyboard-response","202","308699","0.0-177.0","62959d1553cc14e98f4b8d78","665500ab8938657b03fbdba8","6657922a9d4a78e937890937","1076","stimuli/1000011.jpg","2","","prediction_trial","1","","false","","1","false","false","true","true","false","false","[1]","000","011","0","","","","","","",""
"","","","","","image-keyboard-response","203","309587","0.0-178.0","62959d1553cc14e98f4b8d78","665500ab8938657b03fbdba8","6657922a9d4a78e937890937","886","stimuli/10000111.jpg"," ","","feedback_trial","1","","","","","","","","","","","","","","","","","","","","",""
"","","","","","image-keyboard-response","204","310653","0.0-179.0","62959d1553cc14e98f4b8d78","665500ab8938657b03fbdba8","6657922a9d4a78e937890937","1065","stimuli/0010011.jpg","0","","prediction_trial","0","","true","","0","true","true","true","true","true","true","[0]","010","011","1","","","","","","",""
"","","","","","image-keyboard-response","205","311228","0.0-180.0","62959d1553cc14e98f4b8d78","665500ab8938657b03fbdba8","6657922a9d4a78e937890937","573","stimuli/00100110.jpg"," ","","feedback_trial","0","","","","","","","","","","","","","","","","","","","","",""
"","","","","","image-keyboard-response","206","313294","0.0-181.0","62959d1553cc14e98f4b8d78","665500ab8938657b03fbdba8","6657922a9d4a78e937890937","2063","stimuli/1110110.jpg","0","","prediction_trial","1","","false","","1","false","false","false","false","false","false","[0,1]","110","110","0","","","","","","",""
"","","","","","image-keyboard-response","207","313965","0.0-182.0","62959d1553cc14e98f4b8d78","665500ab8938657b03fbdba8","6657922a9d4a78e937890937","669","stimuli/11101101.jpg"," ","","feedback_trial","0","","","","","","","","","","","","","","","","","","","","",""
"","","","","","image-keyboard-response","208","314928","0.0-183.0","62959d1553cc14e98f4b8d78","665500ab8938657b03fbdba8","6657922a9d4a78e937890937","961","stimuli/1011001.jpg","1","","prediction_trial","2","","false","","1","true","true","false","false","false","false","[1,2]","011","001","0","","","","","","",""
"","","","","","image-keyboard-response","209","315622","0.0-184.0","62959d1553cc14e98f4b8d78","665500ab8938657b03fbdba8","6657922a9d4a78e937890937","692","stimuli/10110012.jpg"," ","","feedback_trial","1","","","","","","","","","","","","","","","","","","","","",""
"","","","","","image-keyboard-response","210","316620","0.0-185.0","62959d1553cc14e98f4b8d78","665500ab8938657b03fbdba8","6657922a9d4a78e937890937","996","stimuli/0010000.jpg","0","","prediction_trial","0","","true","","0","true","true","true","true","true","true","[0]","010","000","1","","","","","","",""
"","","","","","image-keyboard-response","211","317189","0.0-186.0","62959d1553cc14e98f4b8d78","665500ab8938657b03fbdba8","6657922a9d4a78e937890937","568","stimuli/00100000.jpg"," ","","feedback_trial","0","","","","","","","","","","","","","","","","","","","","",""
"","","","","","image-keyboard-response","212","319245","0.0-187.0","62959d1553cc14e98f4b8d78","665500ab8938657b03fbdba8","6657922a9d4a78e937890937","2054","stimuli/2100101.jpg","0","","prediction_trial","2","","false","","2","false","false","true","true","false","false","[2]","100","101","0","","","","","","",""
"","","","","","image-keyboard-response","213","320048","0.0-188.0","62959d1553cc14e98f4b8d78","665500ab8938657b03fbdba8","6657922a9d4a78e937890937","801","stimuli/21001012.jpg"," ","","feedback_trial","2","","","","","","","","","","","","","","","","","","","","",""
"","","","","","image-keyboard-response","214","321719","0.0-189.0","62959d1553cc14e98f4b8d78","665500ab8938657b03fbdba8","6657922a9d4a78e937890937","1669","stimuli/2001101.jpg","0","","prediction_trial","2","","false","","2","false","false","false","true","false","false","[2]","001","101","0","","","","","","",""
"","","","","","image-keyboard-response","215","322483","0.0-190.0","62959d1553cc14e98f4b8d78","665500ab8938657b03fbdba8","6657922a9d4a78e937890937","751","stimuli/20011012.jpg"," ","","feedback_trial","2","","","","","","","","","","","","","","","","","","","","",""
"","","","","","image-keyboard-response","216","323735","0.0-191.0","62959d1553cc14e98f4b8d78","665500ab8938657b03fbdba8","6657922a9d4a78e937890937","1252","stimuli/2001000.jpg","2","","prediction_trial","2","","true","","2","true","true","false","true","false","true","[2]","001","000","1","","","","","","",""
"","","","","","image-keyboard-response","217","324528","0.0-192.0","62959d1553cc14e98f4b8d78","665500ab8938657b03fbdba8","6657922a9d4a78e937890937","792","stimuli/20010002.jpg"," ","","feedback_trial","2","","","","","","","","","","","","","","","","","","","","",""
"","","","","","image-keyboard-response","218","329504","0.0-193.0","62959d1553cc14e98f4b8d78","665500ab8938657b03fbdba8","6657922a9d4a78e937890937","4973","stimuli/1101011.jpg","1","","prediction_trial","1","","true","","1","false","false","true","true","false","false","[1]","101","011","1","","","","","","",""
"","","","","","image-keyboard-response","219","330223","0.0-194.0","62959d1553cc14e98f4b8d78","665500ab8938657b03fbdba8","6657922a9d4a78e937890937","719","stimuli/11010111.jpg"," ","","feedback_trial","1","","","","","","","","","","","","","","","","","","","","",""
"","","","","","image-keyboard-response","220","333251","0.0-195.0","62959d1553cc14e98f4b8d78","665500ab8938657b03fbdba8","6657922a9d4a78e937890937","3027","stimuli/1110001.jpg","1","","prediction_trial","1","","true","","1","true","true","false","false","false","false","[1,0]","110","001","1","","","","","","",""
"","","","","","image-keyboard-response","221","334011","0.0-196.0","62959d1553cc14e98f4b8d78","665500ab8938657b03fbdba8","6657922a9d4a78e937890937","751","stimuli/11100011.jpg"," ","","feedback_trial","1","","","","","","","","","","","","","","","","","","","","",""
"","","","","","image-keyboard-response","222","335344","0.0-197.0","62959d1553cc14e98f4b8d78","665500ab8938657b03fbdba8","6657922a9d4a78e937890937","1332","stimuli/0110011.jpg","0","","prediction_trial","0","","true","","0","true","true","false","false","false","false","[0,1]","110","011","1","","","","","","",""
"","","","","","image-keyboard-response","223","335973","0.0-198.0","62959d1553cc14e98f4b8d78","665500ab8938657b03fbdba8","6657922a9d4a78e937890937","627","stimuli/01100110.jpg"," ","","feedback_trial","0","","","","","","","","","","","","","","","","","","","","",""
"","","","","","image-keyboard-response","224","339398","0.0-199.0","62959d1553cc14e98f4b8d78","665500ab8938657b03fbdba8","6657922a9d4a78e937890937","3423","stimuli/0110111.jpg","2","","prediction_trial","0","","false","","0","false","false","false","false","false","false","[0,1]","110","111","0","","","","","","",""
"","","","","","image-keyboard-response","225","340363","0.0-200.0","62959d1553cc14e98f4b8d78","665500ab8938657b03fbdba8","6657922a9d4a78e937890937","963","stimuli/01101110.jpg"," ","","feedback_trial","0","","","","","","","","","","","","","","","","","","","","",""
"","","","","","image-keyboard-response","226","341427","0.0-201.0","62959d1553cc14e98f4b8d78","665500ab8938657b03fbdba8","6657922a9d4a78e937890937","1063","stimuli/0111000.jpg","0","","prediction_trial","2","","false","","0","true","true","false","false","false","false","[0,1,2]","111","000","0","","","","","","",""
"","","","","","image-keyboard-response","227","342434","0.0-202.0","62959d1553cc14e98f4b8d78","665500ab8938657b03fbdba8","6657922a9d4a78e937890937","993","stimuli/01110002.jpg"," ","","feedback_trial","0","","","","","","","","","","","","","","","","","","","","",""
"","","","","","image-keyboard-response","228","343836","0.0-203.0","62959d1553cc14e98f4b8d78","665500ab8938657b03fbdba8","6657922a9d4a78e937890937","1401","stimuli/1101010.jpg","1","","prediction_trial","1","","true","","1","false","true","true","true","false","true","[1]","101","010","1","","","","","","",""
"","","","","","image-keyboard-response","229","344626","0.0-204.0","62959d1553cc14e98f4b8d78","665500ab8938657b03fbdba8","6657922a9d4a78e937890937","789","stimuli/11010101.jpg"," ","","feedback_trial","1","","","","","","","","","","","","","","","","","","","","",""
"","","","","","image-keyboard-response","230","348255","0.0-205.0","62959d1553cc14e98f4b8d78","665500ab8938657b03fbdba8","6657922a9d4a78e937890937","3627","stimuli/2001011.jpg","1","","prediction_trial","2","","false","","2","false","false","false","true","false","false","[2]","001","011","0","","","","","","",""
"","","","","","image-keyboard-response","231","349202","0.0-206.0","62959d1553cc14e98f4b8d78","665500ab8938657b03fbdba8","6657922a9d4a78e937890937","946","stimuli/20010112.jpg"," ","","feedback_trial","2","","","","","","","","","","","","","","","","","","","","",""
"","","","","","image-keyboard-response","232","353692","0.0-207.0","62959d1553cc14e98f4b8d78","665500ab8938657b03fbdba8","6657922a9d4a78e937890937","4480","stimuli/1101110.jpg","1","","prediction_trial","1","","true","","1","false","false","true","true","false","false","[1]","101","110","1","","","","","","",""
"","","","","","image-keyboard-response","233","354417","0.0-208.0","62959d1553cc14e98f4b8d78","665500ab8938657b03fbdba8","6657922a9d4a78e937890937","723","stimuli/11011101.jpg"," ","","feedback_trial","1","","","","","","","","","","","","","","","","","","","","",""
"","","","","","image-keyboard-response","234","356049","0.0-209.0","62959d1553cc14e98f4b8d78","665500ab8938657b03fbdba8","6657922a9d4a78e937890937","1630","stimuli/0100110.jpg","1","","prediction_trial","0","","false","","0","false","false","false","true","false","false","[0]","100","110","0","","","","","","",""
"","","","","","image-keyboard-response","235","356972","0.0-210.0","62959d1553cc14e98f4b8d78","665500ab8938657b03fbdba8","6657922a9d4a78e937890937","921","stimuli/01001100.jpg"," ","","feedback_trial","0","","","","","","","","","","","","","","","","","","","","",""
"","","","","","image-keyboard-response","236","358464","0.0-211.0","62959d1553cc14e98f4b8d78","665500ab8938657b03fbdba8","6657922a9d4a78e937890937","1491","stimuli/2010000.jpg","2","","prediction_trial","2","","true","","2","true","true","true","true","true","true","[2]","010","000","1","","","","","","",""
"","","","","","image-keyboard-response","237","359148","0.0-212.0","62959d1553cc14e98f4b8d78","665500ab8938657b03fbdba8","6657922a9d4a78e937890937","681","stimuli/20100002.jpg"," ","","feedback_trial","2","","","","","","","","","","","","","","","","","","","","",""
"","","","","","image-keyboard-response","238","360198","0.0-213.0","62959d1553cc14e98f4b8d78","665500ab8938657b03fbdba8","6657922a9d4a78e937890937","1048","stimuli/0111010.jpg","0","","prediction_trial","0","","true","","0","true","true","false","false","false","false","[2,0,1]","111","010","1","","","","","","",""
"","","","","","image-keyboard-response","239","360864","0.0-214.0","62959d1553cc14e98f4b8d78","665500ab8938657b03fbdba8","6657922a9d4a78e937890937","653","stimuli/01110100.jpg"," ","","feedback_trial","2","","","","","","","","","","","","","","","","","","","","",""
"","","","","","image-keyboard-response","240","361726","0.0-215.0","62959d1553cc14e98f4b8d78","665500ab8938657b03fbdba8","6657922a9d4a78e937890937","861","stimuli/2000100.jpg","2","","prediction_trial","2","","true","","2","true","true","true","true","true","true","[2]","000","100","1","","","","","","",""
"","","","","","image-keyboard-response","241","362291","0.0-216.0","62959d1553cc14e98f4b8d78","665500ab8938657b03fbdba8","6657922a9d4a78e937890937","564","stimuli/20001002.jpg"," ","","feedback_trial","2","","","","","","","","","","","","","","","","","","","","",""
"","","","","","image-keyboard-response","242","364417","0.0-217.0","62959d1553cc14e98f4b8d78","665500ab8938657b03fbdba8","6657922a9d4a78e937890937","2124","stimuli/1111110.jpg","0","","prediction_trial","0","","true","","1","false","false","false","false","false","false","[0,2,1]","111","110","1","","","","","","",""
"","","","","","image-keyboard-response","243","365056","0.0-218.0","62959d1553cc14e98f4b8d78","665500ab8938657b03fbdba8","6657922a9d4a78e937890937","638","stimuli/11111100.jpg"," ","","feedback_trial","0","","","","","","","","","","","","","","","","","","","","",""
"","","","","","image-keyboard-response","244","367672","0.0-219.0","62959d1553cc14e98f4b8d78","665500ab8938657b03fbdba8","6657922a9d4a78e937890937","2615","stimuli/1010011.jpg","1","","prediction_trial","1","","true","","1","false","false","false","true","false","false","[1]","010","011","1","","","","","","",""
"","","","","","image-keyboard-response","245","368316","0.0-220.0","62959d1553cc14e98f4b8d78","665500ab8938657b03fbdba8","6657922a9d4a78e937890937","635","stimuli/10100111.jpg"," ","","feedback_trial","1","","","","","","","","","","","","","","","","","","","","",""
"","","","","","image-keyboard-response","246","370254","0.0-221.0","62959d1553cc14e98f4b8d78","665500ab8938657b03fbdba8","6657922a9d4a78e937890937","1936","stimuli/0110001.jpg","0","","prediction_trial","1","","false","","0","true","true","false","false","false","false","[0,1]","110","001","0","","","","","","",""
"","","","","","image-keyboard-response","247","371572","0.0-222.0","62959d1553cc14e98f4b8d78","665500ab8938657b03fbdba8","6657922a9d4a78e937890937","1316","stimuli/01100011.jpg"," ","","feedback_trial","0","","","","","","","","","","","","","","","","","","","","",""
"","","","","","image-keyboard-response","248","372715","0.0-223.0","62959d1553cc14e98f4b8d78","665500ab8938657b03fbdba8","6657922a9d4a78e937890937","1141","stimuli/1110100.jpg","1","","prediction_trial","0","","false","","1","true","true","false","false","false","false","[0,1]","110","100","0","","","","","","",""
"","","","","","image-keyboard-response","249","373602","0.0-224.0","62959d1553cc14e98f4b8d78","665500ab8938657b03fbdba8","6657922a9d4a78e937890937","885","stimuli/11101000.jpg"," ","","feedback_trial","0","","","","","","","","","","","","","","","","","","","","",""
"","","","","","image-keyboard-response","250","374499","0.0-225.0","62959d1553cc14e98f4b8d78","665500ab8938657b03fbdba8","6657922a9d4a78e937890937","896","stimuli/2000000.jpg","2","","prediction_trial","2","","true","","2","true","true","true","true","true","true","[2]","000","000","1","","","","","","",""
"","","","","","image-keyboard-response","251","375174","0.0-226.0","62959d1553cc14e98f4b8d78","665500ab8938657b03fbdba8","6657922a9d4a78e937890937","663","stimuli/20000002.jpg"," ","","feedback_trial","2","","","","","","","","","","","","","","","","","","","","",""
"","","","","","image-keyboard-response","252","376169","0.0-227.0","62959d1553cc14e98f4b8d78","665500ab8938657b03fbdba8","6657922a9d4a78e937890937","993","stimuli/1101001.jpg","1","","prediction_trial","1","","true","","1","true","true","true","true","true","true","[1]","101","001","1","","","","","","",""
"","","","","","image-keyboard-response","253","376854","0.0-228.0","62959d1553cc14e98f4b8d78","665500ab8938657b03fbdba8","6657922a9d4a78e937890937","684","stimuli/11010011.jpg"," ","","feedback_trial","1","","","","","","","","","","","","","","","","","","","","",""
"","","","","","image-keyboard-response","254","378580","0.0-229.0","62959d1553cc14e98f4b8d78","665500ab8938657b03fbdba8","6657922a9d4a78e937890937","1725","stimuli/1101000.jpg","1","","prediction_trial","1","","true","","1","true","true","true","true","true","true","[1]","101","000","1","","","","","","",""
"","","","","","image-keyboard-response","255","379147","0.0-230.0","62959d1553cc14e98f4b8d78","665500ab8938657b03fbdba8","6657922a9d4a78e937890937","566","stimuli/11010001.jpg"," ","","feedback_trial","1","","","","","","","","","","","","","","","","","","","","",""
"","","","","","image-keyboard-response","256","381303","0.0-231.0","62959d1553cc14e98f4b8d78","665500ab8938657b03fbdba8","6657922a9d4a78e937890937","2154","stimuli/2100011.jpg","1","","prediction_trial","2","","false","","2","false","false","true","true","false","false","[2]","100","011","0","","","","","","",""
"","","","","","image-keyboard-response","257","382058","0.0-232.0","62959d1553cc14e98f4b8d78","665500ab8938657b03fbdba8","6657922a9d4a78e937890937","743","stimuli/21000112.jpg"," ","","feedback_trial","2","","","","","","","","","","","","","","","","","","","","",""
"","","","","","image-keyboard-response","258","382879","0.0-233.0","62959d1553cc14e98f4b8d78","665500ab8938657b03fbdba8","6657922a9d4a78e937890937","820","stimuli/1111101.jpg","1","","prediction_trial","1","","true","","1","true","true","false","false","false","false","[1,2,0]","111","101","1","","","","","","",""
"","","","","","image-keyboard-response","259","383470","0.0-234.0","62959d1553cc14e98f4b8d78","665500ab8938657b03fbdba8","6657922a9d4a78e937890937","590","stimuli/11111011.jpg"," ","","feedback_trial","1","","","","","","","","","","","","","","","","","","","","",""
"","","","","","image-keyboard-response","260","384649","0.0-235.0","62959d1553cc14e98f4b8d78","665500ab8938657b03fbdba8","6657922a9d4a78e937890937","1177","stimuli/2011110.jpg","2","","prediction_trial","2","","true","","2","true","true","false","false","false","false","[2,1]","011","110","1","","","","","","",""
"","","","","","image-keyboard-response","261","385208","0.0-236.0","62959d1553cc14e98f4b8d78","665500ab8938657b03fbdba8","6657922a9d4a78e937890937","557","stimuli/20111102.jpg"," ","","feedback_trial","2","","","","","","","","","","","","","","","","","","","","",""
"","","","","","image-keyboard-response","262","386275","0.0-237.0","62959d1553cc14e98f4b8d78","665500ab8938657b03fbdba8","6657922a9d4a78e937890937","1066","stimuli/2000110.jpg","2","","prediction_trial","2","","true","","2","true","true","true","true","true","true","[2]","000","110","1","","","","","","",""
"","","","","","image-keyboard-response","263","386840","0.0-238.0","62959d1553cc14e98f4b8d78","665500ab8938657b03fbdba8","6657922a9d4a78e937890937","553","stimuli/20001102.jpg"," ","","feedback_trial","2","","","","","","","","","","","","","","","","","","","","",""
"","","","","","image-keyboard-response","264","388387","0.0-239.0","62959d1553cc14e98f4b8d78","665500ab8938657b03fbdba8","6657922a9d4a78e937890937","1545","stimuli/0100101.jpg","2","","prediction_trial","0","","false","","0","false","false","false","true","false","false","[0]","100","101","0","","","","","","",""
"","","","","","image-keyboard-response","265","389246","0.0-240.0","62959d1553cc14e98f4b8d78","665500ab8938657b03fbdba8","6657922a9d4a78e937890937","857","stimuli/01001010.jpg"," ","","feedback_trial","0","","","","","","","","","","","","","","","","","","","","",""
"","","","","","image-keyboard-response","266","390375","0.0-241.0","62959d1553cc14e98f4b8d78","665500ab8938657b03fbdba8","6657922a9d4a78e937890937","1128","stimuli/2011101.jpg","0","","prediction_trial","2","","false","","2","false","false","false","false","false","false","[1,2]","011","101","0","","","","","","",""
"","","","","","image-keyboard-response","267","390779","0.0-242.0","62959d1553cc14e98f4b8d78","665500ab8938657b03fbdba8","6657922a9d4a78e937890937","402","stimuli/20111012.jpg"," ","","feedback_trial","1","","","","","","","","","","","","","","","","","","","","",""
"","","","","","image-keyboard-response","268","391730","0.0-243.0","62959d1553cc14e98f4b8d78","665500ab8938657b03fbdba8","6657922a9d4a78e937890937","949","stimuli/1111000.jpg","1","","prediction_trial","0","","false","","1","true","true","false","false","false","false","[1,2,0]","111","000","0","","","","","","",""
"","","","","","image-keyboard-response","269","392209","0.0-244.0","62959d1553cc14e98f4b8d78","665500ab8938657b03fbdba8","6657922a9d4a78e937890937","471","stimuli/11110000.jpg"," ","","feedback_trial","1","","","","","","","","","","","","","","","","","","","","",""
"","","","","","image-keyboard-response","270","393260","0.0-245.0","62959d1553cc14e98f4b8d78","665500ab8938657b03fbdba8","6657922a9d4a78e937890937","1049","stimuli/0000100.jpg","0","","prediction_trial","0","","true","","0","false","true","true","true","false","true","[0]","000","100","1","","","","","","",""
"","","","","","image-keyboard-response","271","393991","0.0-246.0","62959d1553cc14e98f4b8d78","665500ab8938657b03fbdba8","6657922a9d4a78e937890937","730","stimuli/00001000.jpg"," ","","feedback_trial","0","","","","","","","","","","","","","","","","","","","","",""
"","","","","","image-keyboard-response","272","396492","0.0-247.0","62959d1553cc14e98f4b8d78","665500ab8938657b03fbdba8","6657922a9d4a78e937890937","2499","stimuli/1001011.jpg","1","","prediction_trial","1","","true","","1","false","false","true","true","false","false","[1]","001","011","1","","","","","","",""
"","","","","","image-keyboard-response","273","397168","0.0-248.0","62959d1553cc14e98f4b8d78","665500ab8938657b03fbdba8","6657922a9d4a78e937890937","674","stimuli/10010111.jpg"," ","","feedback_trial","1","","","","","","","","","","","","","","","","","","","","",""
"","","","","","image-keyboard-response","274","398183","0.0-249.0","62959d1553cc14e98f4b8d78","665500ab8938657b03fbdba8","6657922a9d4a78e937890937","1013","stimuli/0101000.jpg","0","","prediction_trial","0","","true","","0","true","true","false","false","false","false","[2,0]","101","000","1","","","","","","",""
"","","","","","image-keyboard-response","275","398709","0.0-250.0","62959d1553cc14e98f4b8d78","665500ab8938657b03fbdba8","6657922a9d4a78e937890937","516","stimuli/01010000.jpg"," ","","feedback_trial","2","","","","","","","","","","","","","","","","","","","","",""
"","","","","","image-keyboard-response","276","415157","0.0-251.0","62959d1553cc14e98f4b8d78","665500ab8938657b03fbdba8","6657922a9d4a78e937890937","16445","stimuli/1110000.jpg","1","","prediction_trial","0","","false","","1","true","true","false","false","false","false","[1,0]","110","000","0","","","","","","",""
"","","","","","image-keyboard-response","277","427451","0.0-252.0","62959d1553cc14e98f4b8d78","665500ab8938657b03fbdba8","6657922a9d4a78e937890937","12292","stimuli/11100000.jpg"," ","","feedback_trial","1","","","","","","","","","","","","","","","","","","","","",""
"","","","","","image-keyboard-response","278","428414","0.0-253.0","62959d1553cc14e98f4b8d78","665500ab8938657b03fbdba8","6657922a9d4a78e937890937","960","stimuli/2111100.jpg","2","","prediction_trial","1","","false","","2","true","true","false","false","false","false","[0,2,1]","111","100","0","","","","","","",""
"","","","","","image-keyboard-response","279","428680","0.0-254.0","62959d1553cc14e98f4b8d78","665500ab8938657b03fbdba8","6657922a9d4a78e937890937","264","stimuli/21111001.jpg"," ","","feedback_trial","0","","","","","","","","","","","","","","","","","","","","",""
"","","","","","image-keyboard-response","280","429589","0.0-255.0","62959d1553cc14e98f4b8d78","665500ab8938657b03fbdba8","6657922a9d4a78e937890937","907","stimuli/1011111.jpg","0","","prediction_trial","1","","false","","1","false","false","false","false","false","false","[2,1]","011","111","0","","","","","","",""
"","","","","","image-keyboard-response","281","429801","0.0-256.0","62959d1553cc14e98f4b8d78","665500ab8938657b03fbdba8","6657922a9d4a78e937890937","191","stimuli/10111111.jpg"," ","","feedback_trial","2","","","","","","","","","","","","","","","","","","","","",""
"","","","","","image-keyboard-response","282","431319","0.0-257.0","62959d1553cc14e98f4b8d78","665500ab8938657b03fbdba8","6657922a9d4a78e937890937","1516","stimuli/0010100.jpg","0","","prediction_trial","0","","true","","0","false","true","true","true","false","true","[0]","010","100","1","","","","","","",""
"","","","","","image-keyboard-response","283","431494","0.0-258.0","62959d1553cc14e98f4b8d78","665500ab8938657b03fbdba8","6657922a9d4a78e937890937","174","stimuli/00101000.jpg"," ","","feedback_trial","0","","","","","","","","","","","","","","","","","","","","",""
"","","","","","image-keyboard-response","284","432234","0.0-259.0","62959d1553cc14e98f4b8d78","665500ab8938657b03fbdba8","6657922a9d4a78e937890937","738","stimuli/0010111.jpg","0","","prediction_trial","0","","true","","0","false","false","true","true","false","false","[0]","010","111","1","","","","","","",""
"","","","","","image-keyboard-response","285","432610","0.0-260.0","62959d1553cc14e98f4b8d78","665500ab8938657b03fbdba8","6657922a9d4a78e937890937","373","stimuli/00101110.jpg"," ","","feedback_trial","0","","","","","","","","","","","","","","","","","","","","",""
"","","","","","image-keyboard-response","286","433771","0.0-261.0","62959d1553cc14e98f4b8d78","665500ab8938657b03fbdba8","6657922a9d4a78e937890937","1160","stimuli/2110011.jpg","2","","prediction_trial","2","","true","","2","false","false","true","true","false","false","[2]","110","011","1","","","","","","",""
"","","","","","image-keyboard-response","287","434079","0.0-262.0","62959d1553cc14e98f4b8d78","665500ab8938657b03fbdba8","6657922a9d4a78e937890937","306","stimuli/21100112.jpg"," ","","feedback_trial","2","","","","","","","","","","","","","","","","","","","","",""
"","","","","","image-keyboard-response","288","435030","0.0-263.0","62959d1553cc14e98f4b8d78","665500ab8938657b03fbdba8","6657922a9d4a78e937890937","950","stimuli/0111011.jpg","0","","prediction_trial","0","","true","","0","true","true","false","false","false","false","[1,2,0]","111","011","1","","","","","","",""
"","","","","","image-keyboard-response","289","435192","0.0-264.0","62959d1553cc14e98f4b8d78","665500ab8938657b03fbdba8","6657922a9d4a78e937890937","161","stimuli/01110110.jpg"," ","","feedback_trial","1","","","","","","","","","","","","","","","","","","","","",""
"","","","","","image-keyboard-response","290","436194","0.0-265.0","62959d1553cc14e98f4b8d78","665500ab8938657b03fbdba8","6657922a9d4a78e937890937","1001","stimuli/1000001.jpg","1","","prediction_trial","1","","true","","1","true","true","true","true","true","true","[1]","000","001","1","","","","","","",""
"","","","","","image-keyboard-response","291","436420","0.0-266.0","62959d1553cc14e98f4b8d78","665500ab8938657b03fbdba8","6657922a9d4a78e937890937","225","stimuli/10000011.jpg"," ","","feedback_trial","1","","","","","","","","","","","","","","","","","","","","",""
"","","","","","image-keyboard-response","292","437355","0.0-267.0","62959d1553cc14e98f4b8d78","665500ab8938657b03fbdba8","6657922a9d4a78e937890937","933","stimuli/1010101.jpg","2","","prediction_trial","1","","false","","1","true","true","false","true","false","true","[1]","010","101","0","","","","","","",""
"","","","","","image-keyboard-response","293","437504","0.0-268.0","62959d1553cc14e98f4b8d78","665500ab8938657b03fbdba8","6657922a9d4a78e937890937","147","stimuli/10101011.jpg"," ","","feedback_trial","1","","","","","","","","","","","","","","","","","","","","",""
"","","","","","image-keyboard-response","294","438398","0.0-269.0","62959d1553cc14e98f4b8d78","665500ab8938657b03fbdba8","6657922a9d4a78e937890937","892","stimuli/0000011.jpg","0","","prediction_trial","0","","true","","0","true","true","true","true","true","true","[0]","000","011","1","","","","","","",""
"","","","","","image-keyboard-response","295","439182","0.0-270.0","62959d1553cc14e98f4b8d78","665500ab8938657b03fbdba8","6657922a9d4a78e937890937","783","stimuli/00000110.jpg"," ","","feedback_trial","0","","","","","","","","","","","","","","","","","","","","",""
"","","","","","image-keyboard-response","296","440141","0.0-271.0","62959d1553cc14e98f4b8d78","665500ab8938657b03fbdba8","6657922a9d4a78e937890937","959","stimuli/2111000.jpg","2","","prediction_trial","0","","false","","2","true","true","false","false","false","false","[1,2,0]","111","000","0","","","","","","",""
"","","","","","image-keyboard-response","297","440568","0.0-272.0","62959d1553cc14e98f4b8d78","665500ab8938657b03fbdba8","6657922a9d4a78e937890937","425","stimuli/21110000.jpg"," ","","feedback_trial","1","","","","","","","","","","","","","","","","","","","","",""
"","","","","","image-keyboard-response","298","441920","0.0-273.0","62959d1553cc14e98f4b8d78","665500ab8938657b03fbdba8","6657922a9d4a78e937890937","1350","stimuli/2111101.jpg","2","","prediction_trial","0","","false","","2","false","false","false","false","false","false","[0,1,2]","111","101","0","","","","","","",""
"","","","","","image-keyboard-response","299","442748","0.0-274.0","62959d1553cc14e98f4b8d78","665500ab8938657b03fbdba8","6657922a9d4a78e937890937","826","stimuli/21111010.jpg"," ","","feedback_trial","0","","","","","","","","","","","","","","","","","","","","",""
"","","","","","image-keyboard-response","300","444535","0.0-275.0","62959d1553cc14e98f4b8d78","665500ab8938657b03fbdba8","6657922a9d4a78e937890937","1785","stimuli/2101101.jpg","2","","prediction_trial","2","","true","","2","false","false","false","false","false","false","[2,0]","101","101","1","","","","","","",""
"","","","","","image-keyboard-response","301","445119","0.0-276.0","62959d1553cc14e98f4b8d78","665500ab8938657b03fbdba8","6657922a9d4a78e937890937","583","stimuli/21011012.jpg"," ","","feedback_trial","2","","","","","","","","","","","","","","","","","","","","",""
"","","","","","image-keyboard-response","302","447550","0.0-277.0","62959d1553cc14e98f4b8d78","665500ab8938657b03fbdba8","6657922a9d4a78e937890937","2429","stimuli/1001111.jpg","1","","prediction_trial","1","","true","","1","false","false","true","true","false","false","[1]","001","111","1","","","","","","",""
"","","","","","image-keyboard-response","303","448080","0.0-278.0","62959d1553cc14e98f4b8d78","665500ab8938657b03fbdba8","6657922a9d4a78e937890937","529","stimuli/10011111.jpg"," ","","feedback_trial","1","","","","","","","","","","","","","","","","","","","","",""
"","","","","","image-keyboard-response","304","448977","0.0-279.0","62959d1553cc14e98f4b8d78","665500ab8938657b03fbdba8","6657922a9d4a78e937890937","896","stimuli/2111001.jpg","2","","prediction_trial","2","","true","","2","false","true","false","false","false","false","[0,2,1]","111","001","1","","","","","","",""
"","","","","","image-keyboard-response","305","449632","0.0-280.0","62959d1553cc14e98f4b8d78","665500ab8938657b03fbdba8","6657922a9d4a78e937890937","645","stimuli/21110012.jpg"," ","","feedback_trial","0","","","","","","","","","","","","","","","","","","","","",""
"","","","","","image-keyboard-response","306","451598","0.0-281.0","62959d1553cc14e98f4b8d78","665500ab8938657b03fbdba8","6657922a9d4a78e937890937","1965","stimuli/2001010.jpg","2","","prediction_trial","2","","true","","2","true","true","false","true","false","true","[2]","001","010","1","","","","","","",""
"","","","","","image-keyboard-response","307","452521","0.0-282.0","62959d1553cc14e98f4b8d78","665500ab8938657b03fbdba8","6657922a9d4a78e937890937","922","stimuli/20010102.jpg"," ","","feedback_trial","2","","","","","","","","","","","","","","","","","","","","",""
"","","","","","image-keyboard-response","308","454254","0.0-283.0","62959d1553cc14e98f4b8d78","665500ab8938657b03fbdba8","6657922a9d4a78e937890937","1731","stimuli/1110011.jpg","2","","prediction_trial","0","","false","","1","false","false","false","false","false","false","[0,1]","110","011","0","","","","","","",""
"","","","","","image-keyboard-response","309","455225","0.0-284.0","62959d1553cc14e98f4b8d78","665500ab8938657b03fbdba8","6657922a9d4a78e937890937","969","stimuli/11100110.jpg"," ","","feedback_trial","0","","","","","","","","","","","","","","","","","","","","",""
"","","","","","image-keyboard-response","310","456261","0.0-285.0","62959d1553cc14e98f4b8d78","665500ab8938657b03fbdba8","6657922a9d4a78e937890937","1034","stimuli/2010111.jpg","2","","prediction_trial","2","","true","","2","false","false","true","true","false","false","[2]","010","111","1","","","","","","",""
"","","","","","image-keyboard-response","311","456645","0.0-286.0","62959d1553cc14e98f4b8d78","665500ab8938657b03fbdba8","6657922a9d4a78e937890937","373","stimuli/20101112.jpg"," ","","feedback_trial","2","","","","","","","","","","","","","","","","","","","","",""
"","","","","","image-keyboard-response","312","458543","0.0-287.0","62959d1553cc14e98f4b8d78","665500ab8938657b03fbdba8","6657922a9d4a78e937890937","1895","stimuli/1111011.jpg","1","","prediction_trial","0","","false","","1","false","false","false","false","false","false","[2,1,0]","111","011","0","","","","","","",""
"","","","","","image-keyboard-response","313","458938","0.0-288.0","62959d1553cc14e98f4b8d78","665500ab8938657b03fbdba8","6657922a9d4a78e937890937","394","stimuli/11110110.jpg"," ","","feedback_trial","2","","","","","","","","","","","","","","","","","","","","",""
"","","","","","image-keyboard-response","314","459685","0.0-289.0","62959d1553cc14e98f4b8d78","665500ab8938657b03fbdba8","6657922a9d4a78e937890937","745","stimuli/2000001.jpg","2","","prediction_trial","2","","true","","2","false","true","true","true","false","true","[2]","000","001","1","","","","","","",""
"","","","","","image-keyboard-response","315","460550","0.0-290.0","62959d1553cc14e98f4b8d78","665500ab8938657b03fbdba8","6657922a9d4a78e937890937","863","stimuli/20000012.jpg"," ","","feedback_trial","2","","","","","","","","","","","","","","","","","","","","",""
"","","","","","image-keyboard-response","316","462875","0.0-291.0","62959d1553cc14e98f4b8d78","665500ab8938657b03fbdba8","6657922a9d4a78e937890937","2324","stimuli/2101010.jpg","2","","prediction_trial","2","","true","","2","true","true","false","false","false","false","[2,0]","101","010","1","","","","","","",""
"","","","","","image-keyboard-response","317","463227","0.0-292.0","62959d1553cc14e98f4b8d78","665500ab8938657b03fbdba8","6657922a9d4a78e937890937","339","stimuli/21010102.jpg"," ","","feedback_trial","2","","","","","","","","","","","","","","","","","","","","",""
"","","","","","survey-html-form","318","481868","0.0-293.0","62959d1553cc14e98f4b8d78","665500ab8938657b03fbdba8","6657922a9d4a78e937890937","18632","","{""feedback"":""None. Trusted my gut"",""age"":""28"",""gender"":""Male"",""other_gender"":"""",""race"":""Asian"",""other_race"":"""",""ethnicity"":""Non-Hispanic""}","","exit_survey","","","","","","","","","","","","","","","","None. Trusted my gut","28","Non-Hispanic","Male","Asian","0.6527777777777778","0.6527777777777778"
