"success","timeout","failed_images","failed_audio","failed_video","trial_type","trial_index","time_elapsed","internal_node_id","prolific_id","prolific_study_id","prolific_session_id","rt","stimulus","response","view_history","trial","character_choice","stimulus_dict","accuracy","correct_response","ball_pos","ego_ball_visible","ego_can_infer","alter_ball_visible","alter_can_infer","collective_ball_visible","collective_can_infer","search_locations","alter_occluders","ego_occluders","accuracy_bool","feedback","age","ethnicity","gender","race","overall_accuracy","bonus"
"true","false","[]","[]","[]","preload","0","13427","0.0-0.0","5e9fc65dee2ccf178f0e413f","665500ab8938657b03fbdba8","66577f24ae3119b9eaf985eb","","","","","","","","","","","","","","","","","","","","","","","","","","",""
"true","","","","","fullscreen","1","53369","0.0-1.0","5e9fc65dee2ccf178f0e413f","665500ab8938657b03fbdba8","66577f24ae3119b9eaf985eb","","","","","","","","","","","","","","","","","","","","","","","","","","",""
"","","","","","html-button-response","2","58170","0.0-2.0","5e9fc65dee2ccf178f0e413f","665500ab8938657b03fbdba8","66577f24ae3119b9eaf985eb","4793","<p><b>Consent Form</b></p> <div style=""text-align:left;background-color:lightgrey; padding:20px; max-width:900px;""><p>Please consider this information carefully before deciding whether to participate in this research.</p> <p>The purpose of this research is to examine which factors influence social judgment and decision-making. You will be asked to make judgements about individuals and actions in social scenarios. We are simply interested in your judgement. The study will take less than 1 hour to complete, and you will receive less than $20 on Prolific. Your compensation and time commitment are specified in the study description. There are no anticipated risks associated with participating in this study. The effects of participating should be comparable to those you would ordinarily experience from viewing a computer monitor and using a mouse or keyboard for a similar amount of time. At the end of the study, we will provide an explanation of the questions that motivate this line of research and will describe the potential implications. </p><p> Your participation in this study is completely voluntary and you may refuse to participate or you may choose to withdraw at any time without penalty or loss of benefits to you which are otherwise entitled. Your participation in this study will remain confidential. No personally identifiable information will be associated with your data. Also, all analyses of the data will be averaged across all the participants, so your individual responses will never be specifically analyzed. </p><p> If you have questions or concerns about your participation or payment, or want to request a summary of research findings, please contact Dr. Jonathan Phillips at Jonathan.S.Phillips@dartmouth.edu. </p><p> Please save a copy of this form for your records. </p><p><b>Agreement: </b>The nature and purpose of this research have been sufficiently explained and I agree to participate in this study. I understand that I am free to withdraw at any time without incurring any penalty. Please consent by clicking the button below to continue. Otherwise, please exit the study at any time. </p>","0","","","","","","","","","","","","","","","","","","","","","","","",""
"","","","","","instructions","3","134420","0.0-3.0-0.0","5e9fc65dee2ccf178f0e413f","665500ab8938657b03fbdba8","66577f24ae3119b9eaf985eb","76245","","","[{""page_index"":0,""viewing_time"":1624},{""page_index"":1,""viewing_time"":2135},{""page_index"":2,""viewing_time"":3048},{""page_index"":3,""viewing_time"":12953},{""page_index"":4,""viewing_time"":2375},{""page_index"":5,""viewing_time"":3625},{""page_index"":6,""viewing_time"":4024},{""page_index"":7,""viewing_time"":4304},{""page_index"":8,""viewing_time"":3664},{""page_index"":9,""viewing_time"":3312},{""page_index"":10,""viewing_time"":21280},{""page_index"":11,""viewing_time"":7273},{""page_index"":12,""viewing_time"":4696},{""page_index"":13,""viewing_time"":1928}]","intro","","","","","","","","","","","","","","","","","","","","","",""
"","","","","","image-keyboard-response","4","139586","0.0-3.0-1.0","5e9fc65dee2ccf178f0e413f","665500ab8938657b03fbdba8","66577f24ae3119b9eaf985eb","5123","stimuli/0101001.jpg","0","","prediction_practice","2","{""filepath"":""stimuli/0101001.jpg"",""ball_pos"":0,""ego_ball_visible"":true,""ego_can_infer"":true,""alter_ball_visible"":false,""alter_can_infer"":false,""collective_ball_visible"":false,""collective_can_infer"":false,""search_locations"":[0,2],""alter_occluders"":""101"",""ego_occluders"":""001""}","false","","","","","","","","","","","","","","","","","","",""
"","","","","","image-keyboard-response","5","142175","0.0-3.0-2.0","5e9fc65dee2ccf178f0e413f","665500ab8938657b03fbdba8","66577f24ae3119b9eaf985eb","2583","stimuli/01010012.jpg"," ","","practrice_feedback","0","","","","","","","","","","","","","","","","","","","","",""
"","","","","","image-keyboard-response","6","147884","0.0-3.0-3.0","5e9fc65dee2ccf178f0e413f","665500ab8938657b03fbdba8","66577f24ae3119b9eaf985eb","5703","stimuli/1001110.jpg","2","","prediction_practice","1","{""filepath"":""stimuli/1001110.jpg"",""ball_pos"":1,""ego_ball_visible"":false,""ego_can_infer"":false,""alter_ball_visible"":true,""alter_can_infer"":true,""collective_ball_visible"":false,""collective_can_infer"":false,""search_locations"":[1],""alter_occluders"":""001"",""ego_occluders"":""110""}","false","","","","","","","","","","","","","","","","","","",""
"","","","","","image-keyboard-response","7","150088","0.0-3.0-4.0","5e9fc65dee2ccf178f0e413f","665500ab8938657b03fbdba8","66577f24ae3119b9eaf985eb","2199","stimuli/10011101.jpg"," ","","practrice_feedback","1","","","","","","","","","","","","","","","","","","","","",""
"","","","","","image-keyboard-response","8","153623","0.0-3.0-5.0","5e9fc65dee2ccf178f0e413f","665500ab8938657b03fbdba8","66577f24ae3119b9eaf985eb","3530","stimuli/1101001.jpg","1","","prediction_practice","1","{""filepath"":""stimuli/1101001.jpg"",""ball_pos"":1,""ego_ball_visible"":true,""ego_can_infer"":true,""alter_ball_visible"":true,""alter_can_infer"":true,""collective_ball_visible"":true,""collective_can_infer"":true,""search_locations"":[1],""alter_occluders"":""101"",""ego_occluders"":""001""}","true","","","","","","","","","","","","","","","","","","",""
"","","","","","image-keyboard-response","9","156038","0.0-3.0-6.0","5e9fc65dee2ccf178f0e413f","665500ab8938657b03fbdba8","66577f24ae3119b9eaf985eb","2410","stimuli/11010011.jpg"," ","","practrice_feedback","1","","","","","","","","","","","","","","","","","","","","",""
"","","","","","image-keyboard-response","10","159422","0.0-3.0-7.0","5e9fc65dee2ccf178f0e413f","665500ab8938657b03fbdba8","66577f24ae3119b9eaf985eb","3379","stimuli/2011111.jpg","1","","prediction_practice","1","{""filepath"":""stimuli/2011111.jpg"",""ball_pos"":2,""ego_ball_visible"":false,""ego_can_infer"":false,""alter_ball_visible"":false,""alter_can_infer"":false,""collective_ball_visible"":false,""collective_can_infer"":false,""search_locations"":[2,1],""alter_occluders"":""011"",""ego_occluders"":""111""}","true","","","","","","","","","","","","","","","","","","",""
"","","","","","image-keyboard-response","11","161511","0.0-3.0-8.0","5e9fc65dee2ccf178f0e413f","665500ab8938657b03fbdba8","66577f24ae3119b9eaf985eb","2085","stimuli/20111111.jpg"," ","","practrice_feedback","2","","","","","","","","","","","","","","","","","","","","",""
"","","","","","image-keyboard-response","12","164358","0.0-3.0-9.0","5e9fc65dee2ccf178f0e413f","665500ab8938657b03fbdba8","66577f24ae3119b9eaf985eb","2839","stimuli/1000110.jpg","1","","prediction_practice","1","{""filepath"":""stimuli/1000110.jpg"",""ball_pos"":1,""ego_ball_visible"":false,""ego_can_infer"":false,""alter_ball_visible"":true,""alter_can_infer"":true,""collective_ball_visible"":false,""collective_can_infer"":false,""search_locations"":[1],""alter_occluders"":""000"",""ego_occluders"":""110""}","true","","","","","","","","","","","","","","","","","","",""
"","","","","","image-keyboard-response","13","165594","0.0-3.0-10.0","5e9fc65dee2ccf178f0e413f","665500ab8938657b03fbdba8","66577f24ae3119b9eaf985eb","1231","stimuli/10001101.jpg"," ","","practrice_feedback","1","","","","","","","","","","","","","","","","","","","","",""
"","","","","","image-keyboard-response","14","167145","0.0-3.0-11.0","5e9fc65dee2ccf178f0e413f","665500ab8938657b03fbdba8","66577f24ae3119b9eaf985eb","1547","stimuli/1100010.jpg","1","","prediction_practice","1","{""filepath"":""stimuli/1100010.jpg"",""ball_pos"":1,""ego_ball_visible"":false,""ego_can_infer"":true,""alter_ball_visible"":true,""alter_can_infer"":true,""collective_ball_visible"":false,""collective_can_infer"":true,""search_locations"":[1],""alter_occluders"":""100"",""ego_occluders"":""010""}","true","","","","","","","","","","","","","","","","","","",""
"","","","","","image-keyboard-response","15","168426","0.0-3.0-12.0","5e9fc65dee2ccf178f0e413f","665500ab8938657b03fbdba8","66577f24ae3119b9eaf985eb","1278","stimuli/11000101.jpg"," ","","practrice_feedback","1","","","","","","","","","","","","","","","","","","","","",""
"","","","","","image-keyboard-response","16","170994","0.0-3.0-13.0","5e9fc65dee2ccf178f0e413f","665500ab8938657b03fbdba8","66577f24ae3119b9eaf985eb","2563","stimuli/2100101.jpg","0","","prediction_practice","2","{""filepath"":""stimuli/2100101.jpg"",""ball_pos"":2,""ego_ball_visible"":false,""ego_can_infer"":false,""alter_ball_visible"":true,""alter_can_infer"":true,""collective_ball_visible"":false,""collective_can_infer"":false,""search_locations"":[2],""alter_occluders"":""100"",""ego_occluders"":""101""}","false","","","","","","","","","","","","","","","","","","",""
"","","","","","image-keyboard-response","17","172033","0.0-3.0-14.0","5e9fc65dee2ccf178f0e413f","665500ab8938657b03fbdba8","66577f24ae3119b9eaf985eb","1036","stimuli/21001012.jpg"," ","","practrice_feedback","2","","","","","","","","","","","","","","","","","","","","",""
"","","","","","image-keyboard-response","18","174595","0.0-3.0-15.0","5e9fc65dee2ccf178f0e413f","665500ab8938657b03fbdba8","66577f24ae3119b9eaf985eb","2542","stimuli/0100111.jpg","1","","prediction_practice","0","{""filepath"":""stimuli/0100111.jpg"",""ball_pos"":0,""ego_ball_visible"":false,""ego_can_infer"":false,""alter_ball_visible"":false,""alter_can_infer"":true,""collective_ball_visible"":false,""collective_can_infer"":false,""search_locations"":[0],""alter_occluders"":""100"",""ego_occluders"":""111""}","false","","","","","","","","","","","","","","","","","","",""
"","","","","","image-keyboard-response","19","175764","0.0-3.0-16.0","5e9fc65dee2ccf178f0e413f","665500ab8938657b03fbdba8","66577f24ae3119b9eaf985eb","1164","stimuli/01001110.jpg"," ","","practrice_feedback","0","","","","","","","","","","","","","","","","","","","","",""
"","","","","","image-keyboard-response","20","179025","0.0-3.0-17.0","5e9fc65dee2ccf178f0e413f","665500ab8938657b03fbdba8","66577f24ae3119b9eaf985eb","3259","stimuli/0000010.jpg","1","","prediction_practice","0","{""filepath"":""stimuli/0000010.jpg"",""ball_pos"":0,""ego_ball_visible"":true,""ego_can_infer"":true,""alter_ball_visible"":true,""alter_can_infer"":true,""collective_ball_visible"":true,""collective_can_infer"":true,""search_locations"":[0],""alter_occluders"":""000"",""ego_occluders"":""010""}","false","","","","","","","","","","","","","","","","","","",""
"","","","","","image-keyboard-response","21","180046","0.0-3.0-18.0","5e9fc65dee2ccf178f0e413f","665500ab8938657b03fbdba8","66577f24ae3119b9eaf985eb","1017","stimuli/00000100.jpg"," ","","practrice_feedback","0","","","","","","","","","","","","","","","","","","","","",""
"","","","","","image-keyboard-response","22","181817","0.0-3.0-19.0","5e9fc65dee2ccf178f0e413f","665500ab8938657b03fbdba8","66577f24ae3119b9eaf985eb","1765","stimuli/0111011.jpg","0","","prediction_practice","0","{""filepath"":""stimuli/0111011.jpg"",""ball_pos"":0,""ego_ball_visible"":true,""ego_can_infer"":true,""alter_ball_visible"":false,""alter_can_infer"":false,""collective_ball_visible"":false,""collective_can_infer"":false,""search_locations"":[0,2,1],""alter_occluders"":""111"",""ego_occluders"":""011""}","true","","","","","","","","","","","","","","","","","","",""
"","","","","","image-keyboard-response","23","182753","0.0-3.0-20.0","5e9fc65dee2ccf178f0e413f","665500ab8938657b03fbdba8","66577f24ae3119b9eaf985eb","931","stimuli/01110110.jpg"," ","","practrice_feedback","0","","","","","","","","","","","","","","","","","","","","",""
"","","","","","html-button-response","24","187416","0.0-3.0-21.0","5e9fc65dee2ccf178f0e413f","665500ab8938657b03fbdba8","66577f24ae3119b9eaf985eb","4660","Now that you've had some practice, you'll be tested with a couple of easy trials. If you correctly predict Sam's choice, you'll move on to complete the experiment!","0","","","","","","","","","","","","","","","","","","","","","","","",""
"","","","","","image-keyboard-response","25","190351","0.0-3.0-22.0-0.0","5e9fc65dee2ccf178f0e413f","665500ab8938657b03fbdba8","66577f24ae3119b9eaf985eb","2930","stimuli/0000011.jpg","arrowleft","","comprehension_quiz","","","true","arrowleft","","","","","","","","","","","","","","","","","",""
"","","","","","image-keyboard-response","26","191812","0.0-3.0-22.0-1.0","5e9fc65dee2ccf178f0e413f","665500ab8938657b03fbdba8","66577f24ae3119b9eaf985eb","1455","stimuli/00000110.jpg"," ","","comprehension_quiz","","","true"," ","","","","","","","","","","","","","","","","","",""
"","","","","","image-keyboard-response","27","194033","0.0-3.0-22.0-2.0","5e9fc65dee2ccf178f0e413f","665500ab8938657b03fbdba8","66577f24ae3119b9eaf985eb","2217","stimuli/1010010.jpg","arrowdown","","comprehension_quiz","","","true","arrowdown","","","","","","","","","","","","","","","","","",""
"","","","","","image-keyboard-response","28","194979","0.0-3.0-22.0-3.0","5e9fc65dee2ccf178f0e413f","665500ab8938657b03fbdba8","66577f24ae3119b9eaf985eb","943","stimuli/10100101.jpg"," ","","comprehension_quiz","","","true"," ","","","","","","","","","","","","","","","","","",""
"","","","","","html-button-response","29","200462","0.0-4.0","5e9fc65dee2ccf178f0e413f","665500ab8938657b03fbdba8","66577f24ae3119b9eaf985eb","5473","The experiment will now begin.","0","","","","","","","","","","","","","","","","","","","","","","","",""
"","","","","","image-keyboard-response","30","202658","0.0-5.0","5e9fc65dee2ccf178f0e413f","665500ab8938657b03fbdba8","66577f24ae3119b9eaf985eb","2192","stimuli/1000011.jpg","1","","prediction_trial","1","","true","","1","false","false","true","true","false","false","[1]","000","011","1","","","","","","",""
"","","","","","image-keyboard-response","31","203617","0.0-6.0","5e9fc65dee2ccf178f0e413f","665500ab8938657b03fbdba8","66577f24ae3119b9eaf985eb","953","stimuli/10000111.jpg"," ","","feedback_trial","1","","","","","","","","","","","","","","","","","","","","",""
"","","","","","image-keyboard-response","32","205619","0.0-7.0","5e9fc65dee2ccf178f0e413f","665500ab8938657b03fbdba8","66577f24ae3119b9eaf985eb","1997","stimuli/0000011.jpg","0","","prediction_trial","0","","true","","0","true","true","true","true","true","true","[0]","000","011","1","","","","","","",""
"","","","","","image-keyboard-response","33","206643","0.0-8.0","5e9fc65dee2ccf178f0e413f","665500ab8938657b03fbdba8","66577f24ae3119b9eaf985eb","1020","stimuli/00000110.jpg"," ","","feedback_trial","0","","","","","","","","","","","","","","","","","","","","",""
"","","","","","image-keyboard-response","34","208029","0.0-9.0","5e9fc65dee2ccf178f0e413f","665500ab8938657b03fbdba8","66577f24ae3119b9eaf985eb","1381","stimuli/0001110.jpg","1","","prediction_trial","0","","false","","0","false","false","true","true","false","false","[0]","001","110","0","","","","","","",""
"","","","","","image-keyboard-response","35","209009","0.0-10.0","5e9fc65dee2ccf178f0e413f","665500ab8938657b03fbdba8","66577f24ae3119b9eaf985eb","969","stimuli/00011100.jpg"," ","","feedback_trial","0","","","","","","","","","","","","","","","","","","","","",""
"","","","","","image-keyboard-response","36","211695","0.0-11.0","5e9fc65dee2ccf178f0e413f","665500ab8938657b03fbdba8","66577f24ae3119b9eaf985eb","2682","stimuli/0000000.jpg","0","","prediction_trial","0","","true","","0","true","true","true","true","true","true","[0]","000","000","1","","","","","","",""
"","","","","","image-keyboard-response","37","212745","0.0-12.0","5e9fc65dee2ccf178f0e413f","665500ab8938657b03fbdba8","66577f24ae3119b9eaf985eb","1048","stimuli/00000000.jpg"," ","","feedback_trial","0","","","","","","","","","","","","","","","","","","","","",""
"","","","","","image-keyboard-response","38","215286","0.0-13.0","5e9fc65dee2ccf178f0e413f","665500ab8938657b03fbdba8","66577f24ae3119b9eaf985eb","2538","stimuli/1011100.jpg","1","","prediction_trial","2","","false","","1","true","true","false","false","false","false","[1,2]","011","100","0","","","","","","",""
"","","","","","image-keyboard-response","39","216340","0.0-14.0","5e9fc65dee2ccf178f0e413f","665500ab8938657b03fbdba8","66577f24ae3119b9eaf985eb","1050","stimuli/10111002.jpg"," ","","feedback_trial","1","","","","","","","","","","","","","","","","","","","","",""
"","","","","","image-keyboard-response","40","218618","0.0-15.0","5e9fc65dee2ccf178f0e413f","665500ab8938657b03fbdba8","66577f24ae3119b9eaf985eb","2274","stimuli/1000111.jpg","1","","prediction_trial","1","","true","","1","false","false","true","true","false","false","[1]","000","111","1","","","","","","",""
"","","","","","image-keyboard-response","41","219537","0.0-16.0","5e9fc65dee2ccf178f0e413f","665500ab8938657b03fbdba8","66577f24ae3119b9eaf985eb","915","stimuli/10001111.jpg"," ","","feedback_trial","1","","","","","","","","","","","","","","","","","","","","",""
"","","","","","image-keyboard-response","42","221399","0.0-17.0","5e9fc65dee2ccf178f0e413f","665500ab8938657b03fbdba8","66577f24ae3119b9eaf985eb","1858","stimuli/2010001.jpg","2","","prediction_trial","2","","true","","2","false","true","true","true","false","true","[2]","010","001","1","","","","","","",""
"","","","","","image-keyboard-response","43","222334","0.0-18.0","5e9fc65dee2ccf178f0e413f","665500ab8938657b03fbdba8","66577f24ae3119b9eaf985eb","930","stimuli/20100012.jpg"," ","","feedback_trial","2","","","","","","","","","","","","","","","","","","","","",""
"","","","","","image-keyboard-response","44","225137","0.0-19.0","5e9fc65dee2ccf178f0e413f","665500ab8938657b03fbdba8","66577f24ae3119b9eaf985eb","2800","stimuli/0110000.jpg","0","","prediction_trial","0","","true","","0","true","true","false","false","false","false","[1,0]","110","000","1","","","","","","",""
"","","","","","image-keyboard-response","45","226458","0.0-20.0","5e9fc65dee2ccf178f0e413f","665500ab8938657b03fbdba8","66577f24ae3119b9eaf985eb","1316","stimuli/01100000.jpg"," ","","feedback_trial","1","","","","","","","","","","","","","","","","","","","","",""
"","","","","","image-keyboard-response","46","228448","0.0-21.0","5e9fc65dee2ccf178f0e413f","665500ab8938657b03fbdba8","66577f24ae3119b9eaf985eb","1986","stimuli/2111010.jpg","2","","prediction_trial","0","","false","","2","true","true","false","false","false","false","[0,2,1]","111","010","0","","","","","","",""
"","","","","","image-keyboard-response","47","229494","0.0-22.0","5e9fc65dee2ccf178f0e413f","665500ab8938657b03fbdba8","66577f24ae3119b9eaf985eb","1042","stimuli/21110100.jpg"," ","","feedback_trial","0","","","","","","","","","","","","","","","","","","","","",""
"","","","","","image-keyboard-response","48","231961","0.0-23.0","5e9fc65dee2ccf178f0e413f","665500ab8938657b03fbdba8","66577f24ae3119b9eaf985eb","2462","stimuli/2111101.jpg","2","","prediction_trial","1","","false","","2","false","false","false","false","false","false","[1,2,0]","111","101","0","","","","","","",""
"","","","","","image-keyboard-response","49","232974","0.0-24.0","5e9fc65dee2ccf178f0e413f","665500ab8938657b03fbdba8","66577f24ae3119b9eaf985eb","1010","stimuli/21111011.jpg"," ","","feedback_trial","1","","","","","","","","","","","","","","","","","","","","",""
"","","","","","image-keyboard-response","50","234828","0.0-25.0","5e9fc65dee2ccf178f0e413f","665500ab8938657b03fbdba8","66577f24ae3119b9eaf985eb","1818","stimuli/1001110.jpg","1","","prediction_trial","1","","true","","1","false","false","true","true","false","false","[1]","001","110","1","","","","","","",""
"","","","","","image-keyboard-response","51","235719","0.0-26.0","5e9fc65dee2ccf178f0e413f","665500ab8938657b03fbdba8","66577f24ae3119b9eaf985eb","887","stimuli/10011101.jpg"," ","","feedback_trial","1","","","","","","","","","","","","","","","","","","","","",""
"","","","","","image-keyboard-response","52","238419","0.0-27.0","5e9fc65dee2ccf178f0e413f","665500ab8938657b03fbdba8","66577f24ae3119b9eaf985eb","2695","stimuli/1110000.jpg","1","","prediction_trial","0","","false","","1","true","true","false","false","false","false","[0,1]","110","000","0","","","","","","",""
"","","","","","image-keyboard-response","53","239990","0.0-28.0","5e9fc65dee2ccf178f0e413f","665500ab8938657b03fbdba8","66577f24ae3119b9eaf985eb","1566","stimuli/11100000.jpg"," ","","feedback_trial","0","","","","","","","","","","","","","","","","","","","","",""
"","","","","","image-keyboard-response","54","241698","0.0-29.0","5e9fc65dee2ccf178f0e413f","665500ab8938657b03fbdba8","66577f24ae3119b9eaf985eb","1705","stimuli/1011101.jpg","1","","prediction_trial","1","","true","","1","true","true","false","false","false","false","[1,2]","011","101","1","","","","","","",""
"","","","","","image-keyboard-response","55","242597","0.0-30.0","5e9fc65dee2ccf178f0e413f","665500ab8938657b03fbdba8","66577f24ae3119b9eaf985eb","894","stimuli/10111011.jpg"," ","","feedback_trial","1","","","","","","","","","","","","","","","","","","","","",""
"","","","","","image-keyboard-response","56","244809","0.0-31.0","5e9fc65dee2ccf178f0e413f","665500ab8938657b03fbdba8","66577f24ae3119b9eaf985eb","2208","stimuli/0111101.jpg","2","","prediction_trial","1","","false","","0","false","false","false","false","false","false","[2,1,0]","111","101","0","","","","","","",""
"","","","","","image-keyboard-response","57","246712","0.0-32.0","5e9fc65dee2ccf178f0e413f","665500ab8938657b03fbdba8","66577f24ae3119b9eaf985eb","1898","stimuli/01111011.jpg"," ","","feedback_trial","2","","","","","","","","","","","","","","","","","","","","",""
"","","","","","image-keyboard-response","58","248447","0.0-33.0","5e9fc65dee2ccf178f0e413f","665500ab8938657b03fbdba8","66577f24ae3119b9eaf985eb","1733","stimuli/0111010.jpg","0","","prediction_trial","2","","false","","0","true","true","false","false","false","false","[0,1,2]","111","010","0","","","","","","",""
"","","","","","image-keyboard-response","59","249556","0.0-34.0","5e9fc65dee2ccf178f0e413f","665500ab8938657b03fbdba8","66577f24ae3119b9eaf985eb","1104","stimuli/01110102.jpg"," ","","feedback_trial","0","","","","","","","","","","","","","","","","","","","","",""
"","","","","","image-keyboard-response","60","251331","0.0-35.0","5e9fc65dee2ccf178f0e413f","665500ab8938657b03fbdba8","66577f24ae3119b9eaf985eb","1771","stimuli/2001100.jpg","2","","prediction_trial","2","","true","","2","true","true","false","true","false","true","[2]","001","100","1","","","","","","",""
"","","","","","image-keyboard-response","61","252261","0.0-36.0","5e9fc65dee2ccf178f0e413f","665500ab8938657b03fbdba8","66577f24ae3119b9eaf985eb","925","stimuli/20011002.jpg"," ","","feedback_trial","2","","","","","","","","","","","","","","","","","","","","",""
"","","","","","image-keyboard-response","62","254280","0.0-37.0","5e9fc65dee2ccf178f0e413f","665500ab8938657b03fbdba8","66577f24ae3119b9eaf985eb","2016","stimuli/1111111.jpg","1","","prediction_trial","2","","false","","1","false","false","false","false","false","false","[0,1,2]","111","111","0","","","","","","",""
"","","","","","image-keyboard-response","63","255391","0.0-38.0","5e9fc65dee2ccf178f0e413f","665500ab8938657b03fbdba8","66577f24ae3119b9eaf985eb","1106","stimuli/11111112.jpg"," ","","feedback_trial","0","","","","","","","","","","","","","","","","","","","","",""
"","","","","","image-keyboard-response","64","256811","0.0-39.0","5e9fc65dee2ccf178f0e413f","665500ab8938657b03fbdba8","66577f24ae3119b9eaf985eb","1417","stimuli/1011011.jpg","1","","prediction_trial","1","","true","","1","false","false","false","false","false","false","[2,1]","011","011","1","","","","","","",""
"","","","","","image-keyboard-response","65","257699","0.0-40.0","5e9fc65dee2ccf178f0e413f","665500ab8938657b03fbdba8","66577f24ae3119b9eaf985eb","871","stimuli/10110111.jpg"," ","","feedback_trial","2","","","","","","","","","","","","","","","","","","","","",""
"","","","","","image-keyboard-response","66","259312","0.0-41.0","5e9fc65dee2ccf178f0e413f","665500ab8938657b03fbdba8","66577f24ae3119b9eaf985eb","1607","stimuli/1011111.jpg","1","","prediction_trial","1","","true","","1","false","false","false","false","false","false","[1,2]","011","111","1","","","","","","",""
"","","","","","image-keyboard-response","67","260236","0.0-42.0","5e9fc65dee2ccf178f0e413f","665500ab8938657b03fbdba8","66577f24ae3119b9eaf985eb","919","stimuli/10111111.jpg"," ","","feedback_trial","1","","","","","","","","","","","","","","","","","","","","",""
"","","","","","image-keyboard-response","68","263998","0.0-43.0","5e9fc65dee2ccf178f0e413f","665500ab8938657b03fbdba8","66577f24ae3119b9eaf985eb","3758","stimuli/2101101.jpg","2","","prediction_trial","2","","true","","2","false","false","false","false","false","false","[0,2]","101","101","1","","","","","","",""
"","","","","","image-keyboard-response","69","264867","0.0-44.0","5e9fc65dee2ccf178f0e413f","665500ab8938657b03fbdba8","66577f24ae3119b9eaf985eb","864","stimuli/21011012.jpg"," ","","feedback_trial","0","","","","","","","","","","","","","","","","","","","","",""
"","","","","","image-keyboard-response","70","267238","0.0-45.0","5e9fc65dee2ccf178f0e413f","665500ab8938657b03fbdba8","66577f24ae3119b9eaf985eb","2367","stimuli/1100010.jpg","1","","prediction_trial","1","","true","","1","false","true","true","true","false","true","[1]","100","010","1","","","","","","",""
"","","","","","image-keyboard-response","71","268070","0.0-46.0","5e9fc65dee2ccf178f0e413f","665500ab8938657b03fbdba8","66577f24ae3119b9eaf985eb","828","stimuli/11000101.jpg"," ","","feedback_trial","1","","","","","","","","","","","","","","","","","","","","",""
"","","","","","image-keyboard-response","72","270145","0.0-47.0","5e9fc65dee2ccf178f0e413f","665500ab8938657b03fbdba8","66577f24ae3119b9eaf985eb","2071","stimuli/2111011.jpg","1","","prediction_trial","2","","false","","2","false","false","false","false","false","false","[0,1,2]","111","011","0","","","","","","",""
"","","","","","image-keyboard-response","73","271072","0.0-48.0","5e9fc65dee2ccf178f0e413f","665500ab8938657b03fbdba8","66577f24ae3119b9eaf985eb","923","stimuli/21110112.jpg"," ","","feedback_trial","0","","","","","","","","","","","","","","","","","","","","",""
"","","","","","image-keyboard-response","74","272852","0.0-49.0","5e9fc65dee2ccf178f0e413f","665500ab8938657b03fbdba8","66577f24ae3119b9eaf985eb","1777","stimuli/2001111.jpg","1","","prediction_trial","2","","false","","2","false","false","false","true","false","false","[2]","001","111","0","","","","","","",""
"","","","","","image-keyboard-response","75","273751","0.0-50.0","5e9fc65dee2ccf178f0e413f","665500ab8938657b03fbdba8","66577f24ae3119b9eaf985eb","894","stimuli/20011112.jpg"," ","","feedback_trial","2","","","","","","","","","","","","","","","","","","","","",""
"","","","","","image-keyboard-response","76","274973","0.0-51.0","5e9fc65dee2ccf178f0e413f","665500ab8938657b03fbdba8","66577f24ae3119b9eaf985eb","1217","stimuli/2001010.jpg","2","","prediction_trial","2","","true","","2","true","true","false","true","false","true","[2]","001","010","1","","","","","","",""
"","","","","","image-keyboard-response","77","275893","0.0-52.0","5e9fc65dee2ccf178f0e413f","665500ab8938657b03fbdba8","66577f24ae3119b9eaf985eb","917","stimuli/20010102.jpg"," ","","feedback_trial","2","","","","","","","","","","","","","","","","","","","","",""
"","","","","","image-keyboard-response","78","277504","0.0-53.0","5e9fc65dee2ccf178f0e413f","665500ab8938657b03fbdba8","66577f24ae3119b9eaf985eb","1609","stimuli/1110101.jpg","1","","prediction_trial","1","","true","","1","true","true","false","false","false","false","[0,1]","110","101","1","","","","","","",""
"","","","","","image-keyboard-response","79","278409","0.0-54.0","5e9fc65dee2ccf178f0e413f","665500ab8938657b03fbdba8","66577f24ae3119b9eaf985eb","901","stimuli/11101011.jpg"," ","","feedback_trial","0","","","","","","","","","","","","","","","","","","","","",""
"","","","","","image-keyboard-response","80","281683","0.0-55.0","5e9fc65dee2ccf178f0e413f","665500ab8938657b03fbdba8","66577f24ae3119b9eaf985eb","3238","stimuli/1000001.jpg","1","","prediction_trial","1","","true","","1","true","true","true","true","true","true","[1]","000","001","1","","","","","","",""
"","","","","","image-keyboard-response","81","282634","0.0-56.0","5e9fc65dee2ccf178f0e413f","665500ab8938657b03fbdba8","66577f24ae3119b9eaf985eb","946","stimuli/10000011.jpg"," ","","feedback_trial","1","","","","","","","","","","","","","","","","","","","","",""
"","","","","","image-keyboard-response","82","284666","0.0-57.0","5e9fc65dee2ccf178f0e413f","665500ab8938657b03fbdba8","66577f24ae3119b9eaf985eb","2028","stimuli/1110111.jpg","1","","prediction_trial","1","","true","","1","false","false","false","false","false","false","[1,0]","110","111","1","","","","","","",""
"","","","","","image-keyboard-response","83","285646","0.0-58.0","5e9fc65dee2ccf178f0e413f","665500ab8938657b03fbdba8","66577f24ae3119b9eaf985eb","975","stimuli/11101111.jpg"," ","","feedback_trial","1","","","","","","","","","","","","","","","","","","","","",""
"","","","","","image-keyboard-response","84","287348","0.0-59.0","5e9fc65dee2ccf178f0e413f","665500ab8938657b03fbdba8","66577f24ae3119b9eaf985eb","1698","stimuli/1011000.jpg","1","","prediction_trial","1","","true","","1","true","true","false","false","false","false","[1,2]","011","000","1","","","","","","",""
"","","","","","image-keyboard-response","85","288149","0.0-60.0","5e9fc65dee2ccf178f0e413f","665500ab8938657b03fbdba8","66577f24ae3119b9eaf985eb","797","stimuli/10110001.jpg"," ","","feedback_trial","1","","","","","","","","","","","","","","","","","","","","",""
"","","","","","image-keyboard-response","86","290404","0.0-61.0","5e9fc65dee2ccf178f0e413f","665500ab8938657b03fbdba8","66577f24ae3119b9eaf985eb","2250","stimuli/1000100.jpg","1","","prediction_trial","1","","true","","1","true","true","true","true","true","true","[1]","000","100","1","","","","","","",""
"","","","","","image-keyboard-response","87","291245","0.0-62.0","5e9fc65dee2ccf178f0e413f","665500ab8938657b03fbdba8","66577f24ae3119b9eaf985eb","838","stimuli/10001001.jpg"," ","","feedback_trial","1","","","","","","","","","","","","","","","","","","","","",""
"","","","","","image-keyboard-response","88","293029","0.0-63.0","5e9fc65dee2ccf178f0e413f","665500ab8938657b03fbdba8","66577f24ae3119b9eaf985eb","1779","stimuli/1101011.jpg","1","","prediction_trial","1","","true","","1","false","false","true","true","false","false","[1]","101","011","1","","","","","","",""
"","","","","","image-keyboard-response","89","293846","0.0-64.0","5e9fc65dee2ccf178f0e413f","665500ab8938657b03fbdba8","66577f24ae3119b9eaf985eb","814","stimuli/11010111.jpg"," ","","feedback_trial","1","","","","","","","","","","","","","","","","","","","","",""
"","","","","","image-keyboard-response","90","297457","0.0-65.0","5e9fc65dee2ccf178f0e413f","665500ab8938657b03fbdba8","66577f24ae3119b9eaf985eb","3607","stimuli/2001101.jpg","2","","prediction_trial","2","","true","","2","false","false","false","true","false","false","[2]","001","101","1","","","","","","",""
"","","","","","image-keyboard-response","91","298314","0.0-66.0","5e9fc65dee2ccf178f0e413f","665500ab8938657b03fbdba8","66577f24ae3119b9eaf985eb","852","stimuli/20011012.jpg"," ","","feedback_trial","2","","","","","","","","","","","","","","","","","","","","",""
"","","","","","image-keyboard-response","92","301273","0.0-67.0","5e9fc65dee2ccf178f0e413f","665500ab8938657b03fbdba8","66577f24ae3119b9eaf985eb","2956","stimuli/2110110.jpg","2","","prediction_trial","2","","true","","2","true","true","true","true","true","true","[2]","110","110","1","","","","","","",""
"","","","","","image-keyboard-response","93","302157","0.0-68.0","5e9fc65dee2ccf178f0e413f","665500ab8938657b03fbdba8","66577f24ae3119b9eaf985eb","880","stimuli/21101102.jpg"," ","","feedback_trial","2","","","","","","","","","","","","","","","","","","","","",""
"","","","","","image-keyboard-response","94","304382","0.0-69.0","5e9fc65dee2ccf178f0e413f","665500ab8938657b03fbdba8","66577f24ae3119b9eaf985eb","2221","stimuli/2010000.jpg","2","","prediction_trial","2","","true","","2","true","true","true","true","true","true","[2]","010","000","1","","","","","","",""
"","","","","","image-keyboard-response","95","305243","0.0-70.0","5e9fc65dee2ccf178f0e413f","665500ab8938657b03fbdba8","66577f24ae3119b9eaf985eb","847","stimuli/20100002.jpg"," ","","feedback_trial","2","","","","","","","","","","","","","","","","","","","","",""
"","","","","","image-keyboard-response","96","307507","0.0-71.0","5e9fc65dee2ccf178f0e413f","665500ab8938657b03fbdba8","66577f24ae3119b9eaf985eb","2258","stimuli/2011000.jpg","2","","prediction_trial","2","","true","","2","true","true","false","false","false","false","[1,2]","011","000","1","","","","","","",""
"","","","","","image-keyboard-response","97","308367","0.0-72.0","5e9fc65dee2ccf178f0e413f","665500ab8938657b03fbdba8","66577f24ae3119b9eaf985eb","856","stimuli/20110002.jpg"," ","","feedback_trial","1","","","","","","","","","","","","","","","","","","","","",""
"","","","","","image-keyboard-response","98","310955","0.0-73.0","5e9fc65dee2ccf178f0e413f","665500ab8938657b03fbdba8","66577f24ae3119b9eaf985eb","2584","stimuli/0010011.jpg","0","","prediction_trial","0","","true","","0","true","true","true","true","true","true","[0]","010","011","1","","","","","","",""
"","","","","","image-keyboard-response","99","311902","0.0-74.0","5e9fc65dee2ccf178f0e413f","665500ab8938657b03fbdba8","66577f24ae3119b9eaf985eb","942","stimuli/00100110.jpg"," ","","feedback_trial","0","","","","","","","","","","","","","","","","","","","","",""
"","","","","","image-keyboard-response","100","313579","0.0-75.0","5e9fc65dee2ccf178f0e413f","665500ab8938657b03fbdba8","66577f24ae3119b9eaf985eb","1672","stimuli/2000100.jpg","2","","prediction_trial","2","","true","","2","true","true","true","true","true","true","[2]","000","100","1","","","","","","",""
"","","","","","image-keyboard-response","101","314678","0.0-76.0","5e9fc65dee2ccf178f0e413f","665500ab8938657b03fbdba8","66577f24ae3119b9eaf985eb","1096","stimuli/20001002.jpg"," ","","feedback_trial","2","","","","","","","","","","","","","","","","","","","","",""
"","","","","","image-keyboard-response","102","316648","0.0-77.0","5e9fc65dee2ccf178f0e413f","665500ab8938657b03fbdba8","66577f24ae3119b9eaf985eb","1966","stimuli/0000111.jpg","1","","prediction_trial","0","","false","","0","false","false","true","true","false","false","[0]","000","111","0","","","","","","",""
"","","","","","image-keyboard-response","103","317753","0.0-78.0","5e9fc65dee2ccf178f0e413f","665500ab8938657b03fbdba8","66577f24ae3119b9eaf985eb","1100","stimuli/00001110.jpg"," ","","feedback_trial","0","","","","","","","","","","","","","","","","","","","","",""
"","","","","","image-keyboard-response","104","319225","0.0-79.0","5e9fc65dee2ccf178f0e413f","665500ab8938657b03fbdba8","66577f24ae3119b9eaf985eb","1468","stimuli/0110100.jpg","0","","prediction_trial","1","","false","","0","false","true","false","false","false","false","[0,1]","110","100","0","","","","","","",""
"","","","","","image-keyboard-response","105","320263","0.0-80.0","5e9fc65dee2ccf178f0e413f","665500ab8938657b03fbdba8","66577f24ae3119b9eaf985eb","1032","stimuli/01101001.jpg"," ","","feedback_trial","0","","","","","","","","","","","","","","","","","","","","",""
"","","","","","image-keyboard-response","106","321823","0.0-81.0","5e9fc65dee2ccf178f0e413f","665500ab8938657b03fbdba8","66577f24ae3119b9eaf985eb","1556","stimuli/0000101.jpg","2","","prediction_trial","0","","false","","0","false","false","true","true","false","false","[0]","000","101","0","","","","","","",""
"","","","","","image-keyboard-response","107","322949","0.0-82.0","5e9fc65dee2ccf178f0e413f","665500ab8938657b03fbdba8","66577f24ae3119b9eaf985eb","1122","stimuli/00001010.jpg"," ","","feedback_trial","0","","","","","","","","","","","","","","","","","","","","",""
"","","","","","image-keyboard-response","108","324448","0.0-83.0","5e9fc65dee2ccf178f0e413f","665500ab8938657b03fbdba8","66577f24ae3119b9eaf985eb","1495","stimuli/1000000.jpg","1","","prediction_trial","1","","true","","1","true","true","true","true","true","true","[1]","000","000","1","","","","","","",""
"","","","","","image-keyboard-response","109","325380","0.0-84.0","5e9fc65dee2ccf178f0e413f","665500ab8938657b03fbdba8","66577f24ae3119b9eaf985eb","927","stimuli/10000001.jpg"," ","","feedback_trial","1","","","","","","","","","","","","","","","","","","","","",""
"","","","","","image-keyboard-response","110","329205","0.0-85.0","5e9fc65dee2ccf178f0e413f","665500ab8938657b03fbdba8","66577f24ae3119b9eaf985eb","3808","stimuli/0100000.jpg","0","","prediction_trial","0","","true","","0","true","true","false","true","false","true","[0]","100","000","1","","","","","","",""
"","","","","","image-keyboard-response","111","332945","0.0-86.0","5e9fc65dee2ccf178f0e413f","665500ab8938657b03fbdba8","66577f24ae3119b9eaf985eb","3735","stimuli/01000000.jpg"," ","","feedback_trial","0","","","","","","","","","","","","","","","","","","","","",""
"","","","","","image-keyboard-response","112","334454","0.0-87.0","5e9fc65dee2ccf178f0e413f","665500ab8938657b03fbdba8","66577f24ae3119b9eaf985eb","1505","stimuli/2101000.jpg","2","","prediction_trial","0","","false","","2","true","true","false","false","false","false","[2,0]","101","000","0","","","","","","",""
"","","","","","image-keyboard-response","113","336207","0.0-88.0","5e9fc65dee2ccf178f0e413f","665500ab8938657b03fbdba8","66577f24ae3119b9eaf985eb","1748","stimuli/21010000.jpg"," ","","feedback_trial","2","","","","","","","","","","","","","","","","","","","","",""
"","","","","","image-keyboard-response","114","338834","0.0-89.0","5e9fc65dee2ccf178f0e413f","665500ab8938657b03fbdba8","66577f24ae3119b9eaf985eb","2623","stimuli/2011010.jpg","2","","prediction_trial","2","","true","","2","true","true","false","false","false","false","[1,2]","011","010","1","","","","","","",""
"","","","","","image-keyboard-response","115","339801","0.0-90.0","5e9fc65dee2ccf178f0e413f","665500ab8938657b03fbdba8","66577f24ae3119b9eaf985eb","963","stimuli/20110102.jpg"," ","","feedback_trial","1","","","","","","","","","","","","","","","","","","","","",""
"","","","","","image-keyboard-response","116","343625","0.0-91.0","5e9fc65dee2ccf178f0e413f","665500ab8938657b03fbdba8","66577f24ae3119b9eaf985eb","3819","stimuli/2011101.jpg","2","","prediction_trial","2","","true","","2","false","false","false","false","false","false","[2,1]","011","101","1","","","","","","",""
"","","","","","image-keyboard-response","117","344654","0.0-92.0","5e9fc65dee2ccf178f0e413f","665500ab8938657b03fbdba8","66577f24ae3119b9eaf985eb","1025","stimuli/20111012.jpg"," ","","feedback_trial","2","","","","","","","","","","","","","","","","","","","","",""
"","","","","","image-keyboard-response","118","346648","0.0-93.0","5e9fc65dee2ccf178f0e413f","665500ab8938657b03fbdba8","66577f24ae3119b9eaf985eb","1990","stimuli/1111010.jpg","1","","prediction_trial","2","","false","","1","false","true","false","false","false","false","[0,1,2]","111","010","0","","","","","","",""
"","","","","","image-keyboard-response","119","347771","0.0-94.0","5e9fc65dee2ccf178f0e413f","665500ab8938657b03fbdba8","66577f24ae3119b9eaf985eb","1119","stimuli/11110102.jpg"," ","","feedback_trial","0","","","","","","","","","","","","","","","","","","","","",""
"","","","","","image-keyboard-response","120","349984","0.0-95.0","5e9fc65dee2ccf178f0e413f","665500ab8938657b03fbdba8","66577f24ae3119b9eaf985eb","2209","stimuli/0011100.jpg","0","","prediction_trial","0","","true","","0","false","true","true","true","false","true","[0]","011","100","1","","","","","","",""
"","","","","","image-keyboard-response","121","351147","0.0-96.0","5e9fc65dee2ccf178f0e413f","665500ab8938657b03fbdba8","66577f24ae3119b9eaf985eb","1159","stimuli/00111000.jpg"," ","","feedback_trial","0","","","","","","","","","","","","","","","","","","","","",""
"","","","","","image-keyboard-response","122","352746","0.0-97.0","5e9fc65dee2ccf178f0e413f","665500ab8938657b03fbdba8","66577f24ae3119b9eaf985eb","1595","stimuli/1101010.jpg","1","","prediction_trial","1","","true","","1","false","true","true","true","false","true","[1]","101","010","1","","","","","","",""
"","","","","","image-keyboard-response","123","353695","0.0-98.0","5e9fc65dee2ccf178f0e413f","665500ab8938657b03fbdba8","66577f24ae3119b9eaf985eb","945","stimuli/11010101.jpg"," ","","feedback_trial","1","","","","","","","","","","","","","","","","","","","","",""
"","","","","","image-keyboard-response","124","356367","0.0-99.0","5e9fc65dee2ccf178f0e413f","665500ab8938657b03fbdba8","66577f24ae3119b9eaf985eb","2669","stimuli/0011101.jpg","2","","prediction_trial","0","","false","","0","false","false","true","true","false","false","[0]","011","101","0","","","","","","",""
"","","","","","image-keyboard-response","125","357364","0.0-100.0","5e9fc65dee2ccf178f0e413f","665500ab8938657b03fbdba8","66577f24ae3119b9eaf985eb","977","stimuli/00111010.jpg"," ","","feedback_trial","0","","","","","","","","","","","","","","","","","","","","",""
"","","","","","image-keyboard-response","126","359147","0.0-101.0","5e9fc65dee2ccf178f0e413f","665500ab8938657b03fbdba8","66577f24ae3119b9eaf985eb","1778","stimuli/1110110.jpg","1","","prediction_trial","0","","false","","1","false","false","false","false","false","false","[0,1]","110","110","0","","","","","","",""
"","","","","","image-keyboard-response","127","360114","0.0-102.0","5e9fc65dee2ccf178f0e413f","665500ab8938657b03fbdba8","66577f24ae3119b9eaf985eb","963","stimuli/11101100.jpg"," ","","feedback_trial","0","","","","","","","","","","","","","","","","","","","","",""
"","","","","","image-keyboard-response","128","361577","0.0-103.0","5e9fc65dee2ccf178f0e413f","665500ab8938657b03fbdba8","66577f24ae3119b9eaf985eb","1460","stimuli/2010110.jpg","2","","prediction_trial","2","","true","","2","true","true","true","true","true","true","[2]","010","110","1","","","","","","",""
"","","","","","image-keyboard-response","129","362518","0.0-104.0","5e9fc65dee2ccf178f0e413f","665500ab8938657b03fbdba8","66577f24ae3119b9eaf985eb","937","stimuli/20101102.jpg"," ","","feedback_trial","2","","","","","","","","","","","","","","","","","","","","",""
"","","","","","image-keyboard-response","130","364137","0.0-105.0","5e9fc65dee2ccf178f0e413f","665500ab8938657b03fbdba8","66577f24ae3119b9eaf985eb","1615","stimuli/1100100.jpg","1","","prediction_trial","1","","true","","1","true","true","true","true","true","true","[1]","100","100","1","","","","","","",""
"","","","","","image-keyboard-response","131","365000","0.0-106.0","5e9fc65dee2ccf178f0e413f","665500ab8938657b03fbdba8","66577f24ae3119b9eaf985eb","859","stimuli/11001001.jpg"," ","","feedback_trial","1","","","","","","","","","","","","","","","","","","","","",""
"","","","","","image-keyboard-response","132","367743","0.0-107.0","5e9fc65dee2ccf178f0e413f","665500ab8938657b03fbdba8","66577f24ae3119b9eaf985eb","2739","stimuli/0100101.jpg","0","","prediction_trial","0","","true","","0","false","false","false","true","false","false","[0]","100","101","1","","","","","","",""
"","","","","","image-keyboard-response","133","368684","0.0-108.0","5e9fc65dee2ccf178f0e413f","665500ab8938657b03fbdba8","66577f24ae3119b9eaf985eb","937","stimuli/01001010.jpg"," ","","feedback_trial","0","","","","","","","","","","","","","","","","","","","","",""
"","","","","","image-keyboard-response","134","370619","0.0-109.0","5e9fc65dee2ccf178f0e413f","665500ab8938657b03fbdba8","66577f24ae3119b9eaf985eb","1931","stimuli/0101100.jpg","0","","prediction_trial","2","","false","","0","false","true","false","false","false","false","[0,2]","101","100","0","","","","","","",""
"","","","","","image-keyboard-response","135","371868","0.0-110.0","5e9fc65dee2ccf178f0e413f","665500ab8938657b03fbdba8","66577f24ae3119b9eaf985eb","1243","stimuli/01011002.jpg"," ","","feedback_trial","0","","","","","","","","","","","","","","","","","","","","",""
"","","","","","image-keyboard-response","136","373578","0.0-111.0","5e9fc65dee2ccf178f0e413f","665500ab8938657b03fbdba8","66577f24ae3119b9eaf985eb","1706","stimuli/0110001.jpg","0","","prediction_trial","1","","false","","0","true","true","false","false","false","false","[0,1]","110","001","0","","","","","","",""
"","","","","","image-keyboard-response","137","374508","0.0-112.0","5e9fc65dee2ccf178f0e413f","665500ab8938657b03fbdba8","66577f24ae3119b9eaf985eb","927","stimuli/01100011.jpg"," ","","feedback_trial","0","","","","","","","","","","","","","","","","","","","","",""
"","","","","","image-keyboard-response","138","375752","0.0-113.0","5e9fc65dee2ccf178f0e413f","665500ab8938657b03fbdba8","66577f24ae3119b9eaf985eb","1241","stimuli/1101001.jpg","1","","prediction_trial","1","","true","","1","true","true","true","true","true","true","[1]","101","001","1","","","","","","",""
"","","","","","image-keyboard-response","139","376740","0.0-114.0","5e9fc65dee2ccf178f0e413f","665500ab8938657b03fbdba8","66577f24ae3119b9eaf985eb","984","stimuli/11010011.jpg"," ","","feedback_trial","1","","","","","","","","","","","","","","","","","","","","",""
"","","","","","image-keyboard-response","140","378922","0.0-115.0","5e9fc65dee2ccf178f0e413f","665500ab8938657b03fbdba8","66577f24ae3119b9eaf985eb","2176","stimuli/0000100.jpg","0","","prediction_trial","0","","true","","0","false","true","true","true","false","true","[0]","000","100","1","","","","","","",""
"","","","","","image-keyboard-response","141","379968","0.0-116.0","5e9fc65dee2ccf178f0e413f","665500ab8938657b03fbdba8","66577f24ae3119b9eaf985eb","1041","stimuli/00001000.jpg"," ","","feedback_trial","0","","","","","","","","","","","","","","","","","","","","",""
"","","","","","image-keyboard-response","142","381268","0.0-117.0","5e9fc65dee2ccf178f0e413f","665500ab8938657b03fbdba8","66577f24ae3119b9eaf985eb","1294","stimuli/1000010.jpg","1","","prediction_trial","1","","true","","1","false","true","true","true","false","true","[1]","000","010","1","","","","","","",""
"","","","","","image-keyboard-response","143","382143","0.0-118.0","5e9fc65dee2ccf178f0e413f","665500ab8938657b03fbdba8","66577f24ae3119b9eaf985eb","871","stimuli/10000101.jpg"," ","","feedback_trial","1","","","","","","","","","","","","","","","","","","","","",""
"","","","","","image-keyboard-response","144","383786","0.0-119.0","5e9fc65dee2ccf178f0e413f","665500ab8938657b03fbdba8","66577f24ae3119b9eaf985eb","1639","stimuli/0101110.jpg","1","","prediction_trial","2","","false","","0","false","false","false","false","false","false","[0,2]","101","110","0","","","","","","",""
"","","","","","image-keyboard-response","145","384769","0.0-120.0","5e9fc65dee2ccf178f0e413f","665500ab8938657b03fbdba8","66577f24ae3119b9eaf985eb","977","stimuli/01011102.jpg"," ","","feedback_trial","0","","","","","","","","","","","","","","","","","","","","",""
"","","","","","image-keyboard-response","146","386640","0.0-121.0","5e9fc65dee2ccf178f0e413f","665500ab8938657b03fbdba8","66577f24ae3119b9eaf985eb","1866","stimuli/0110010.jpg","0","","prediction_trial","0","","true","","0","true","true","false","false","false","false","[1,0]","110","010","1","","","","","","",""
"","","","","","image-keyboard-response","147","387521","0.0-122.0","5e9fc65dee2ccf178f0e413f","665500ab8938657b03fbdba8","66577f24ae3119b9eaf985eb","876","stimuli/01100100.jpg"," ","","feedback_trial","1","","","","","","","","","","","","","","","","","","","","",""
"","","","","","image-keyboard-response","148","389113","0.0-123.0","5e9fc65dee2ccf178f0e413f","665500ab8938657b03fbdba8","66577f24ae3119b9eaf985eb","1587","stimuli/1101110.jpg","1","","prediction_trial","1","","true","","1","false","false","true","true","false","false","[1]","101","110","1","","","","","","",""
"","","","","","image-keyboard-response","149","390112","0.0-124.0","5e9fc65dee2ccf178f0e413f","665500ab8938657b03fbdba8","66577f24ae3119b9eaf985eb","995","stimuli/11011101.jpg"," ","","feedback_trial","1","","","","","","","","","","","","","","","","","","","","",""
"","","","","","image-keyboard-response","150","391822","0.0-125.0","5e9fc65dee2ccf178f0e413f","665500ab8938657b03fbdba8","66577f24ae3119b9eaf985eb","1706","stimuli/2110000.jpg","2","","prediction_trial","2","","true","","2","true","true","true","true","true","true","[2]","110","000","1","","","","","","",""
"","","","","","image-keyboard-response","151","392758","0.0-126.0","5e9fc65dee2ccf178f0e413f","665500ab8938657b03fbdba8","66577f24ae3119b9eaf985eb","934","stimuli/21100002.jpg"," ","","feedback_trial","2","","","","","","","","","","","","","","","","","","","","",""
"","","","","","image-keyboard-response","152","394648","0.0-127.0","5e9fc65dee2ccf178f0e413f","665500ab8938657b03fbdba8","66577f24ae3119b9eaf985eb","1886","stimuli/0001111.jpg","1","","prediction_trial","0","","false","","0","false","false","true","true","false","false","[0]","001","111","0","","","","","","",""
"","","","","","image-keyboard-response","153","396358","0.0-128.0","5e9fc65dee2ccf178f0e413f","665500ab8938657b03fbdba8","66577f24ae3119b9eaf985eb","1706","stimuli/00011110.jpg"," ","","feedback_trial","0","","","","","","","","","","","","","","","","","","","","",""
"","","","","","image-keyboard-response","154","397840","0.0-129.0","5e9fc65dee2ccf178f0e413f","665500ab8938657b03fbdba8","66577f24ae3119b9eaf985eb","1478","stimuli/0011000.jpg","0","","prediction_trial","0","","true","","0","true","true","true","true","true","true","[0]","011","000","1","","","","","","",""
"","","","","","image-keyboard-response","155","398912","0.0-130.0","5e9fc65dee2ccf178f0e413f","665500ab8938657b03fbdba8","66577f24ae3119b9eaf985eb","1060","stimuli/00110000.jpg"," ","","feedback_trial","0","","","","","","","","","","","","","","","","","","","","",""
"","","","","","image-keyboard-response","156","401298","0.0-131.0","5e9fc65dee2ccf178f0e413f","665500ab8938657b03fbdba8","66577f24ae3119b9eaf985eb","2381","stimuli/1101100.jpg","1","","prediction_trial","1","","true","","1","true","true","true","true","true","true","[1]","101","100","1","","","","","","",""
"","","","","","image-keyboard-response","157","402249","0.0-132.0","5e9fc65dee2ccf178f0e413f","665500ab8938657b03fbdba8","66577f24ae3119b9eaf985eb","946","stimuli/11011001.jpg"," ","","feedback_trial","1","","","","","","","","","","","","","","","","","","","","",""
"","","","","","image-keyboard-response","158","403910","0.0-133.0","5e9fc65dee2ccf178f0e413f","665500ab8938657b03fbdba8","66577f24ae3119b9eaf985eb","1657","stimuli/1010111.jpg","1","","prediction_trial","1","","true","","1","false","false","false","true","false","false","[1]","010","111","1","","","","","","",""
"","","","","","image-keyboard-response","159","404850","0.0-134.0","5e9fc65dee2ccf178f0e413f","665500ab8938657b03fbdba8","66577f24ae3119b9eaf985eb","936","stimuli/10101111.jpg"," ","","feedback_trial","1","","","","","","","","","","","","","","","","","","","","",""
"","","","","","image-keyboard-response","160","406340","0.0-135.0","5e9fc65dee2ccf178f0e413f","665500ab8938657b03fbdba8","66577f24ae3119b9eaf985eb","1484","stimuli/0100110.jpg","1","","prediction_trial","0","","false","","0","false","false","false","true","false","false","[0]","100","110","0","","","","","","",""
"","","","","","image-keyboard-response","161","407486","0.0-136.0","5e9fc65dee2ccf178f0e413f","665500ab8938657b03fbdba8","66577f24ae3119b9eaf985eb","1142","stimuli/01001100.jpg"," ","","feedback_trial","0","","","","","","","","","","","","","","","","","","","","",""
"","","","","","image-keyboard-response","162","409058","0.0-137.0","5e9fc65dee2ccf178f0e413f","665500ab8938657b03fbdba8","66577f24ae3119b9eaf985eb","1568","stimuli/2001110.jpg","2","","prediction_trial","2","","true","","2","true","true","false","true","false","true","[2]","001","110","1","","","","","","",""
"","","","","","image-keyboard-response","163","410114","0.0-138.0","5e9fc65dee2ccf178f0e413f","665500ab8938657b03fbdba8","66577f24ae3119b9eaf985eb","1052","stimuli/20011102.jpg"," ","","feedback_trial","2","","","","","","","","","","","","","","","","","","","","",""
"","","","","","image-keyboard-response","164","413101","0.0-139.0","5e9fc65dee2ccf178f0e413f","665500ab8938657b03fbdba8","66577f24ae3119b9eaf985eb","2984","stimuli/1111110.jpg","1","","prediction_trial","2","","false","","1","false","false","false","false","false","false","[2,1,0]","111","110","0","","","","","","",""
"","","","","","image-keyboard-response","165","414250","0.0-140.0","5e9fc65dee2ccf178f0e413f","665500ab8938657b03fbdba8","66577f24ae3119b9eaf985eb","1146","stimuli/11111102.jpg"," ","","feedback_trial","2","","","","","","","","","","","","","","","","","","","","",""
"","","","","","image-keyboard-response","166","416221","0.0-141.0","5e9fc65dee2ccf178f0e413f","665500ab8938657b03fbdba8","66577f24ae3119b9eaf985eb","1966","stimuli/2000000.jpg","2","","prediction_trial","2","","true","","2","true","true","true","true","true","true","[2]","000","000","1","","","","","","",""
"","","","","","image-keyboard-response","167","417128","0.0-142.0","5e9fc65dee2ccf178f0e413f","665500ab8938657b03fbdba8","66577f24ae3119b9eaf985eb","903","stimuli/20000002.jpg"," ","","feedback_trial","2","","","","","","","","","","","","","","","","","","","","",""
"","","","","","image-keyboard-response","168","419008","0.0-143.0","5e9fc65dee2ccf178f0e413f","665500ab8938657b03fbdba8","66577f24ae3119b9eaf985eb","1877","stimuli/1010100.jpg","1","","prediction_trial","1","","true","","1","true","true","false","true","false","true","[1]","010","100","1","","","","","","",""
"","","","","","image-keyboard-response","169","419920","0.0-144.0","5e9fc65dee2ccf178f0e413f","665500ab8938657b03fbdba8","66577f24ae3119b9eaf985eb","908","stimuli/10101001.jpg"," ","","feedback_trial","1","","","","","","","","","","","","","","","","","","","","",""
"","","","","","image-keyboard-response","170","422188","0.0-145.0","5e9fc65dee2ccf178f0e413f","665500ab8938657b03fbdba8","66577f24ae3119b9eaf985eb","2236","stimuli/2100010.jpg","2","","prediction_trial","2","","true","","2","true","true","true","true","true","true","[2]","100","010","1","","","","","","",""
"","","","","","image-keyboard-response","171","423320","0.0-146.0","5e9fc65dee2ccf178f0e413f","665500ab8938657b03fbdba8","66577f24ae3119b9eaf985eb","1126","stimuli/21000102.jpg"," ","","feedback_trial","2","","","","","","","","","","","","","","","","","","","","",""
"","","","","","image-keyboard-response","172","425219","0.0-147.0","5e9fc65dee2ccf178f0e413f","665500ab8938657b03fbdba8","66577f24ae3119b9eaf985eb","1896","stimuli/0101011.jpg","0","","prediction_trial","2","","false","","0","true","true","false","false","false","false","[0,2]","101","011","0","","","","","","",""
"","","","","","image-keyboard-response","173","427359","0.0-148.0","5e9fc65dee2ccf178f0e413f","665500ab8938657b03fbdba8","66577f24ae3119b9eaf985eb","2137","stimuli/01010112.jpg"," ","","feedback_trial","0","","","","","","","","","","","","","","","","","","","","",""
"","","","","","image-keyboard-response","174","428792","0.0-149.0","5e9fc65dee2ccf178f0e413f","665500ab8938657b03fbdba8","66577f24ae3119b9eaf985eb","1430","stimuli/1110001.jpg","1","","prediction_trial","1","","true","","1","true","true","false","false","false","false","[1,0]","110","001","1","","","","","","",""
"","","","","","image-keyboard-response","175","429703","0.0-150.0","5e9fc65dee2ccf178f0e413f","665500ab8938657b03fbdba8","66577f24ae3119b9eaf985eb","906","stimuli/11100011.jpg"," ","","feedback_trial","1","","","","","","","","","","","","","","","","","","","","",""
"","","","","","image-keyboard-response","176","431527","0.0-151.0","5e9fc65dee2ccf178f0e413f","665500ab8938657b03fbdba8","66577f24ae3119b9eaf985eb","1818","stimuli/0111001.jpg","0","","prediction_trial","2","","false","","0","true","true","false","false","false","false","[0,2,1]","111","001","0","","","","","","",""
"","","","","","image-keyboard-response","177","432962","0.0-152.0","5e9fc65dee2ccf178f0e413f","665500ab8938657b03fbdba8","66577f24ae3119b9eaf985eb","1432","stimuli/01110012.jpg"," ","","feedback_trial","0","","","","","","","","","","","","","","","","","","","","",""
"","","","","","image-keyboard-response","178","434643","0.0-153.0","5e9fc65dee2ccf178f0e413f","665500ab8938657b03fbdba8","66577f24ae3119b9eaf985eb","1677","stimuli/1110010.jpg","1","","prediction_trial","0","","false","","1","false","true","false","false","false","false","[0,1]","110","010","0","","","","","","",""
"","","","","","image-keyboard-response","179","435722","0.0-154.0","5e9fc65dee2ccf178f0e413f","665500ab8938657b03fbdba8","66577f24ae3119b9eaf985eb","1074","stimuli/11100100.jpg"," ","","feedback_trial","0","","","","","","","","","","","","","","","","","","","","",""
"","","","","","image-keyboard-response","180","437427","0.0-155.0","5e9fc65dee2ccf178f0e413f","665500ab8938657b03fbdba8","66577f24ae3119b9eaf985eb","1701","stimuli/0011001.jpg","0","","prediction_trial","0","","true","","0","true","true","true","true","true","true","[0]","011","001","1","","","","","","",""
"","","","","","image-keyboard-response","181","438735","0.0-156.0","5e9fc65dee2ccf178f0e413f","665500ab8938657b03fbdba8","66577f24ae3119b9eaf985eb","1304","stimuli/00110010.jpg"," ","","feedback_trial","0","","","","","","","","","","","","","","","","","","","","",""
"","","","","","image-keyboard-response","182","441363","0.0-157.0","5e9fc65dee2ccf178f0e413f","665500ab8938657b03fbdba8","66577f24ae3119b9eaf985eb","2625","stimuli/1001000.jpg","1","","prediction_trial","1","","true","","1","true","true","true","true","true","true","[1]","001","000","1","","","","","","",""
"","","","","","image-keyboard-response","183","442460","0.0-158.0","5e9fc65dee2ccf178f0e413f","665500ab8938657b03fbdba8","66577f24ae3119b9eaf985eb","1093","stimuli/10010001.jpg"," ","","feedback_trial","1","","","","","","","","","","","","","","","","","","","","",""
"","","","","","image-keyboard-response","184","444589","0.0-159.0","5e9fc65dee2ccf178f0e413f","665500ab8938657b03fbdba8","66577f24ae3119b9eaf985eb","2124","stimuli/1100000.jpg","1","","prediction_trial","1","","true","","1","true","true","true","true","true","true","[1]","100","000","1","","","","","","",""
"","","","","","image-keyboard-response","185","445588","0.0-160.0","5e9fc65dee2ccf178f0e413f","665500ab8938657b03fbdba8","66577f24ae3119b9eaf985eb","980","stimuli/11000001.jpg"," ","","feedback_trial","1","","","","","","","","","","","","","","","","","","","","",""
"","","","","","image-keyboard-response","186","447429","0.0-161.0","5e9fc65dee2ccf178f0e413f","665500ab8938657b03fbdba8","66577f24ae3119b9eaf985eb","1834","stimuli/0000110.jpg","1","","prediction_trial","0","","false","","0","false","false","true","true","false","false","[0]","000","110","0","","","","","","",""
"","","","","","image-keyboard-response","187","448828","0.0-162.0","5e9fc65dee2ccf178f0e413f","665500ab8938657b03fbdba8","66577f24ae3119b9eaf985eb","1395","stimuli/00001100.jpg"," ","","feedback_trial","0","","","","","","","","","","","","","","","","","","","","",""
"","","","","","image-keyboard-response","188","450723","0.0-163.0","5e9fc65dee2ccf178f0e413f","665500ab8938657b03fbdba8","66577f24ae3119b9eaf985eb","1891","stimuli/1011001.jpg","1","","prediction_trial","1","","true","","1","true","true","false","false","false","false","[2,1]","011","001","1","","","","","","",""
"","","","","","image-keyboard-response","189","451628","0.0-164.0","5e9fc65dee2ccf178f0e413f","665500ab8938657b03fbdba8","66577f24ae3119b9eaf985eb","900","stimuli/10110011.jpg"," ","","feedback_trial","2","","","","","","","","","","","","","","","","","","","","",""
"","","","","","image-keyboard-response","190","454388","0.0-165.0","5e9fc65dee2ccf178f0e413f","665500ab8938657b03fbdba8","66577f24ae3119b9eaf985eb","2755","stimuli/2100110.jpg","2","","prediction_trial","2","","true","","2","true","true","true","true","true","true","[2]","100","110","1","","","","","","",""
"","","","","","image-keyboard-response","191","455389","0.0-166.0","5e9fc65dee2ccf178f0e413f","665500ab8938657b03fbdba8","66577f24ae3119b9eaf985eb","997","stimuli/21001102.jpg"," ","","feedback_trial","2","","","","","","","","","","","","","","","","","","","","",""
"","","","","","image-keyboard-response","192","457586","0.0-167.0","5e9fc65dee2ccf178f0e413f","665500ab8938657b03fbdba8","66577f24ae3119b9eaf985eb","2193","stimuli/0010101.jpg","0","","prediction_trial","0","","true","","0","false","false","true","true","false","false","[0]","010","101","1","","","","","","",""
"","","","","","image-keyboard-response","193","459010","0.0-168.0","5e9fc65dee2ccf178f0e413f","665500ab8938657b03fbdba8","66577f24ae3119b9eaf985eb","1420","stimuli/00101010.jpg"," ","","feedback_trial","0","","","","","","","","","","","","","","","","","","","","",""
"","","","","","image-keyboard-response","194","460900","0.0-169.0","5e9fc65dee2ccf178f0e413f","665500ab8938657b03fbdba8","66577f24ae3119b9eaf985eb","1886","stimuli/0100011.jpg","0","","prediction_trial","0","","true","","0","true","true","false","true","false","true","[0]","100","011","1","","","","","","",""
"","","","","","image-keyboard-response","195","461943","0.0-170.0","5e9fc65dee2ccf178f0e413f","665500ab8938657b03fbdba8","66577f24ae3119b9eaf985eb","1038","stimuli/01000110.jpg"," ","","feedback_trial","0","","","","","","","","","","","","","","","","","","","","",""
"","","","","","image-keyboard-response","196","464567","0.0-171.0","5e9fc65dee2ccf178f0e413f","665500ab8938657b03fbdba8","66577f24ae3119b9eaf985eb","2620","stimuli/0111110.jpg","0","","prediction_trial","0","","true","","0","false","false","false","false","false","false","[2,0,1]","111","110","1","","","","","","",""
"","","","","","image-keyboard-response","197","465527","0.0-172.0","5e9fc65dee2ccf178f0e413f","665500ab8938657b03fbdba8","66577f24ae3119b9eaf985eb","956","stimuli/01111100.jpg"," ","","feedback_trial","2","","","","","","","","","","","","","","","","","","","","",""
"","","","","","image-keyboard-response","198","467494","0.0-173.0","5e9fc65dee2ccf178f0e413f","665500ab8938657b03fbdba8","66577f24ae3119b9eaf985eb","1961","stimuli/1000110.jpg","1","","prediction_trial","1","","true","","1","false","false","true","true","false","false","[1]","000","110","1","","","","","","",""
"","","","","","image-keyboard-response","199","468433","0.0-174.0","5e9fc65dee2ccf178f0e413f","665500ab8938657b03fbdba8","66577f24ae3119b9eaf985eb","934","stimuli/10001101.jpg"," ","","feedback_trial","1","","","","","","","","","","","","","","","","","","","","",""
"","","","","","image-keyboard-response","200","471283","0.0-175.0","5e9fc65dee2ccf178f0e413f","665500ab8938657b03fbdba8","66577f24ae3119b9eaf985eb","2845","stimuli/1001111.jpg","2","","prediction_trial","1","","false","","1","false","false","true","true","false","false","[1]","001","111","0","","","","","","",""
"","","","","","image-keyboard-response","201","472422","0.0-176.0","5e9fc65dee2ccf178f0e413f","665500ab8938657b03fbdba8","66577f24ae3119b9eaf985eb","1135","stimuli/10011111.jpg"," ","","feedback_trial","1","","","","","","","","","","","","","","","","","","","","",""
"","","","","","image-keyboard-response","202","474540","0.0-177.0","5e9fc65dee2ccf178f0e413f","665500ab8938657b03fbdba8","66577f24ae3119b9eaf985eb","2115","stimuli/2101010.jpg","2","","prediction_trial","2","","true","","2","true","true","false","false","false","false","[2,0]","101","010","1","","","","","","",""
"","","","","","image-keyboard-response","203","475443","0.0-178.0","5e9fc65dee2ccf178f0e413f","665500ab8938657b03fbdba8","66577f24ae3119b9eaf985eb","898","stimuli/21010102.jpg"," ","","feedback_trial","2","","","","","","","","","","","","","","","","","","","","",""
"","","","","","image-keyboard-response","204","477847","0.0-179.0","5e9fc65dee2ccf178f0e413f","665500ab8938657b03fbdba8","66577f24ae3119b9eaf985eb","2400","stimuli/2000011.jpg","1","","prediction_trial","2","","false","","2","false","false","true","true","false","false","[2]","000","011","0","","","","","","",""
"","","","","","image-keyboard-response","205","478832","0.0-180.0","5e9fc65dee2ccf178f0e413f","665500ab8938657b03fbdba8","66577f24ae3119b9eaf985eb","980","stimuli/20000112.jpg"," ","","feedback_trial","2","","","","","","","","","","","","","","","","","","","","",""
"","","","","","image-keyboard-response","206","482319","0.0-181.0","5e9fc65dee2ccf178f0e413f","665500ab8938657b03fbdba8","66577f24ae3119b9eaf985eb","3484","stimuli/0110110.jpg","0","","prediction_trial","0","","true","","0","false","false","false","false","false","false","[1,0]","110","110","1","","","","","","",""
"","","","","","image-keyboard-response","207","483203","0.0-182.0","5e9fc65dee2ccf178f0e413f","665500ab8938657b03fbdba8","66577f24ae3119b9eaf985eb","878","stimuli/01101100.jpg"," ","","feedback_trial","1","","","","","","","","","","","","","","","","","","","","",""
"","","","","","image-keyboard-response","208","485399","0.0-183.0","5e9fc65dee2ccf178f0e413f","665500ab8938657b03fbdba8","66577f24ae3119b9eaf985eb","2192","stimuli/1100111.jpg","1","","prediction_trial","1","","true","","1","false","false","true","true","false","false","[1]","100","111","1","","","","","","",""
"","","","","","image-keyboard-response","209","486385","0.0-184.0","5e9fc65dee2ccf178f0e413f","665500ab8938657b03fbdba8","66577f24ae3119b9eaf985eb","981","stimuli/11001111.jpg"," ","","feedback_trial","1","","","","","","","","","","","","","","","","","","","","",""
"","","","","","image-keyboard-response","210","489697","0.0-185.0","5e9fc65dee2ccf178f0e413f","665500ab8938657b03fbdba8","66577f24ae3119b9eaf985eb","3308","stimuli/0110101.jpg","0","","prediction_trial","0","","true","","0","false","false","false","false","false","false","[0,1]","110","101","1","","","","","","",""
"","","","","","image-keyboard-response","211","490712","0.0-186.0","5e9fc65dee2ccf178f0e413f","665500ab8938657b03fbdba8","66577f24ae3119b9eaf985eb","1010","stimuli/01101010.jpg"," ","","feedback_trial","0","","","","","","","","","","","","","","","","","","","","",""
"","","","","","image-keyboard-response","212","493535","0.0-187.0","5e9fc65dee2ccf178f0e413f","665500ab8938657b03fbdba8","66577f24ae3119b9eaf985eb","2819","stimuli/0011111.jpg","1","","prediction_trial","0","","false","","0","false","false","true","true","false","false","[0]","011","111","0","","","","","","",""
"","","","","","image-keyboard-response","213","494608","0.0-188.0","5e9fc65dee2ccf178f0e413f","665500ab8938657b03fbdba8","66577f24ae3119b9eaf985eb","1067","stimuli/00111110.jpg"," ","","feedback_trial","0","","","","","","","","","","","","","","","","","","","","",""
"","","","","","image-keyboard-response","214","496537","0.0-189.0","5e9fc65dee2ccf178f0e413f","665500ab8938657b03fbdba8","66577f24ae3119b9eaf985eb","1924","stimuli/1100011.jpg","1","","prediction_trial","1","","true","","1","false","false","true","true","false","false","[1]","100","011","1","","","","","","",""
"","","","","","image-keyboard-response","215","497433","0.0-190.0","5e9fc65dee2ccf178f0e413f","665500ab8938657b03fbdba8","66577f24ae3119b9eaf985eb","878","stimuli/11000111.jpg"," ","","feedback_trial","1","","","","","","","","","","","","","","","","","","","","",""
"","","","","","image-keyboard-response","216","498858","0.0-191.0","5e9fc65dee2ccf178f0e413f","665500ab8938657b03fbdba8","66577f24ae3119b9eaf985eb","1420","stimuli/1001101.jpg","1","","prediction_trial","1","","true","","1","true","true","true","true","true","true","[1]","001","101","1","","","","","","",""
"","","","","","image-keyboard-response","217","499763","0.0-192.0","5e9fc65dee2ccf178f0e413f","665500ab8938657b03fbdba8","66577f24ae3119b9eaf985eb","899","stimuli/10011011.jpg"," ","","feedback_trial","1","","","","","","","","","","","","","","","","","","","","",""
"","","","","","image-keyboard-response","218","502332","0.0-193.0","5e9fc65dee2ccf178f0e413f","665500ab8938657b03fbdba8","66577f24ae3119b9eaf985eb","2565","stimuli/2101111.jpg","1","","prediction_trial","0","","false","","2","false","false","false","false","false","false","[2,0]","101","111","0","","","","","","",""
"","","","","","image-keyboard-response","219","503342","0.0-194.0","5e9fc65dee2ccf178f0e413f","665500ab8938657b03fbdba8","66577f24ae3119b9eaf985eb","1007","stimuli/21011110.jpg"," ","","feedback_trial","2","","","","","","","","","","","","","","","","","","","","",""
"","","","","","image-keyboard-response","220","505051","0.0-195.0","5e9fc65dee2ccf178f0e413f","665500ab8938657b03fbdba8","66577f24ae3119b9eaf985eb","1706","stimuli/2100001.jpg","2","","prediction_trial","2","","true","","2","false","true","true","true","false","true","[2]","100","001","1","","","","","","",""
"","","","","","image-keyboard-response","221","505987","0.0-196.0","5e9fc65dee2ccf178f0e413f","665500ab8938657b03fbdba8","66577f24ae3119b9eaf985eb","931","stimuli/21000012.jpg"," ","","feedback_trial","2","","","","","","","","","","","","","","","","","","","","",""
"","","","","","image-keyboard-response","222","509142","0.0-197.0","5e9fc65dee2ccf178f0e413f","665500ab8938657b03fbdba8","66577f24ae3119b9eaf985eb","3152","stimuli/1100110.jpg","0","","prediction_trial","1","","false","","1","false","false","true","true","false","false","[1]","100","110","0","","","","","","",""
"","","","","","image-keyboard-response","223","510101","0.0-198.0","5e9fc65dee2ccf178f0e413f","665500ab8938657b03fbdba8","66577f24ae3119b9eaf985eb","955","stimuli/11001101.jpg"," ","","feedback_trial","1","","","","","","","","","","","","","","","","","","","","",""
"","","","","","image-keyboard-response","224","511719","0.0-199.0","5e9fc65dee2ccf178f0e413f","665500ab8938657b03fbdba8","66577f24ae3119b9eaf985eb","1614","stimuli/2100000.jpg","2","","prediction_trial","2","","true","","2","true","true","true","true","true","true","[2]","100","000","1","","","","","","",""
"","","","","","image-keyboard-response","225","512711","0.0-200.0","5e9fc65dee2ccf178f0e413f","665500ab8938657b03fbdba8","66577f24ae3119b9eaf985eb","987","stimuli/21000002.jpg"," ","","feedback_trial","2","","","","","","","","","","","","","","","","","","","","",""
"","","","","","image-keyboard-response","226","514823","0.0-201.0","5e9fc65dee2ccf178f0e413f","665500ab8938657b03fbdba8","66577f24ae3119b9eaf985eb","2107","stimuli/2111000.jpg","2","","prediction_trial","0","","false","","2","true","true","false","false","false","false","[1,2,0]","111","000","0","","","","","","",""
"","","","","","image-keyboard-response","227","516087","0.0-202.0","5e9fc65dee2ccf178f0e413f","665500ab8938657b03fbdba8","66577f24ae3119b9eaf985eb","1260","stimuli/21110000.jpg"," ","","feedback_trial","1","","","","","","","","","","","","","","","","","","","","",""
"","","","","","image-keyboard-response","228","517531","0.0-203.0","5e9fc65dee2ccf178f0e413f","665500ab8938657b03fbdba8","66577f24ae3119b9eaf985eb","1440","stimuli/1110100.jpg","1","","prediction_trial","1","","true","","1","true","true","false","false","false","false","[0,1]","110","100","1","","","","","","",""
"","","","","","image-keyboard-response","229","518417","0.0-204.0","5e9fc65dee2ccf178f0e413f","665500ab8938657b03fbdba8","66577f24ae3119b9eaf985eb","881","stimuli/11101001.jpg"," ","","feedback_trial","0","","","","","","","","","","","","","","","","","","","","",""
"","","","","","image-keyboard-response","230","521562","0.0-205.0","5e9fc65dee2ccf178f0e413f","665500ab8938657b03fbdba8","66577f24ae3119b9eaf985eb","3128","stimuli/0100111.jpg","0","","prediction_trial","0","","true","","0","false","false","false","true","false","false","[0]","100","111","1","","","","","","",""
"","","","","","image-keyboard-response","231","522550","0.0-206.0","5e9fc65dee2ccf178f0e413f","665500ab8938657b03fbdba8","66577f24ae3119b9eaf985eb","984","stimuli/01001110.jpg"," ","","feedback_trial","0","","","","","","","","","","","","","","","","","","","","",""
"","","","","","image-keyboard-response","232","523850","0.0-207.0","5e9fc65dee2ccf178f0e413f","665500ab8938657b03fbdba8","66577f24ae3119b9eaf985eb","1296","stimuli/0000001.jpg","0","","prediction_trial","0","","true","","0","true","true","true","true","true","true","[0]","000","001","1","","","","","","",""
"","","","","","image-keyboard-response","233","524776","0.0-208.0","5e9fc65dee2ccf178f0e413f","665500ab8938657b03fbdba8","66577f24ae3119b9eaf985eb","921","stimuli/00000010.jpg"," ","","feedback_trial","0","","","","","","","","","","","","","","","","","","","","",""
"","","","","","image-keyboard-response","234","526419","0.0-209.0","5e9fc65dee2ccf178f0e413f","665500ab8938657b03fbdba8","66577f24ae3119b9eaf985eb","1638","stimuli/2011001.jpg","2","","prediction_trial","1","","false","","2","false","true","false","false","false","false","[2,1]","011","001","0","","","","","","",""
"","","","","","image-keyboard-response","235","527383","0.0-210.0","5e9fc65dee2ccf178f0e413f","665500ab8938657b03fbdba8","66577f24ae3119b9eaf985eb","960","stimuli/20110011.jpg"," ","","feedback_trial","2","","","","","","","","","","","","","","","","","","","","",""
"","","","","","image-keyboard-response","236","528872","0.0-211.0","5e9fc65dee2ccf178f0e413f","665500ab8938657b03fbdba8","66577f24ae3119b9eaf985eb","1485","stimuli/2101011.jpg","1","","prediction_trial","2","","false","","2","false","false","false","false","false","false","[0,2]","101","011","0","","","","","","",""
"","","","","","image-keyboard-response","237","529860","0.0-212.0","5e9fc65dee2ccf178f0e413f","665500ab8938657b03fbdba8","66577f24ae3119b9eaf985eb","984","stimuli/21010112.jpg"," ","","feedback_trial","0","","","","","","","","","","","","","","","","","","","","",""
"","","","","","image-keyboard-response","238","531183","0.0-213.0","5e9fc65dee2ccf178f0e413f","665500ab8938657b03fbdba8","66577f24ae3119b9eaf985eb","1319","stimuli/1111000.jpg","1","","prediction_trial","2","","false","","1","true","true","false","false","false","false","[1,2,0]","111","000","0","","","","","","",""
"","","","","","image-keyboard-response","239","532601","0.0-214.0","5e9fc65dee2ccf178f0e413f","665500ab8938657b03fbdba8","66577f24ae3119b9eaf985eb","1414","stimuli/11110002.jpg"," ","","feedback_trial","1","","","","","","","","","","","","","","","","","","","","",""
"","","","","","image-keyboard-response","240","535600","0.0-215.0","5e9fc65dee2ccf178f0e413f","665500ab8938657b03fbdba8","66577f24ae3119b9eaf985eb","2995","stimuli/2110001.jpg","2","","prediction_trial","2","","true","","2","false","true","true","true","false","true","[2]","110","001","1","","","","","","",""
"","","","","","image-keyboard-response","241","536646","0.0-216.0","5e9fc65dee2ccf178f0e413f","665500ab8938657b03fbdba8","66577f24ae3119b9eaf985eb","1040","stimuli/21100012.jpg"," ","","feedback_trial","2","","","","","","","","","","","","","","","","","","","","",""
"","","","","","image-keyboard-response","242","538580","0.0-217.0","5e9fc65dee2ccf178f0e413f","665500ab8938657b03fbdba8","66577f24ae3119b9eaf985eb","1929","stimuli/2001001.jpg","2","","prediction_trial","2","","true","","2","false","true","false","true","false","true","[2]","001","001","1","","","","","","",""
"","","","","","image-keyboard-response","243","539585","0.0-218.0","5e9fc65dee2ccf178f0e413f","665500ab8938657b03fbdba8","66577f24ae3119b9eaf985eb","999","stimuli/20010012.jpg"," ","","feedback_trial","2","","","","","","","","","","","","","","","","","","","","",""
"","","","","","image-keyboard-response","244","541551","0.0-219.0","5e9fc65dee2ccf178f0e413f","665500ab8938657b03fbdba8","66577f24ae3119b9eaf985eb","1962","stimuli/0100100.jpg","0","","prediction_trial","0","","true","","0","false","true","false","true","false","true","[0]","100","100","1","","","","","","",""
"","","","","","image-keyboard-response","245","542924","0.0-220.0","5e9fc65dee2ccf178f0e413f","665500ab8938657b03fbdba8","66577f24ae3119b9eaf985eb","1363","stimuli/01001000.jpg"," ","","feedback_trial","0","","","","","","","","","","","","","","","","","","","","",""
"","","","","","image-keyboard-response","246","546300","0.0-221.0","5e9fc65dee2ccf178f0e413f","665500ab8938657b03fbdba8","66577f24ae3119b9eaf985eb","3372","stimuli/2111110.jpg","2","","prediction_trial","1","","false","","2","true","true","false","false","false","false","[0,1,2]","111","110","0","","","","","","",""
"","","","","","image-keyboard-response","247","547343","0.0-222.0","5e9fc65dee2ccf178f0e413f","665500ab8938657b03fbdba8","66577f24ae3119b9eaf985eb","1038","stimuli/21111101.jpg"," ","","feedback_trial","0","","","","","","","","","","","","","","","","","","","","",""
"","","","","","image-keyboard-response","248","549023","0.0-223.0","5e9fc65dee2ccf178f0e413f","665500ab8938657b03fbdba8","66577f24ae3119b9eaf985eb","1677","stimuli/2011100.jpg","2","","prediction_trial","2","","true","","2","true","true","false","false","false","false","[2,1]","011","100","1","","","","","","",""
"","","","","","image-keyboard-response","249","549941","0.0-224.0","5e9fc65dee2ccf178f0e413f","665500ab8938657b03fbdba8","66577f24ae3119b9eaf985eb","913","stimuli/20111002.jpg"," ","","feedback_trial","2","","","","","","","","","","","","","","","","","","","","",""
"","","","","","image-keyboard-response","250","551994","0.0-225.0","5e9fc65dee2ccf178f0e413f","665500ab8938657b03fbdba8","66577f24ae3119b9eaf985eb","2049","stimuli/2000101.jpg","0","","prediction_trial","2","","false","","2","false","false","true","true","false","false","[2]","000","101","0","","","","","","",""
"","","","","","image-keyboard-response","251","552925","0.0-226.0","5e9fc65dee2ccf178f0e413f","665500ab8938657b03fbdba8","66577f24ae3119b9eaf985eb","927","stimuli/20001012.jpg"," ","","feedback_trial","2","","","","","","","","","","","","","","","","","","","","",""
"","","","","","image-keyboard-response","252","554707","0.0-227.0","5e9fc65dee2ccf178f0e413f","665500ab8938657b03fbdba8","66577f24ae3119b9eaf985eb","1778","stimuli/0010001.jpg","0","","prediction_trial","0","","true","","0","true","true","true","true","true","true","[0]","010","001","1","","","","","","",""
"","","","","","image-keyboard-response","253","555598","0.0-228.0","5e9fc65dee2ccf178f0e413f","665500ab8938657b03fbdba8","66577f24ae3119b9eaf985eb","887","stimuli/00100010.jpg"," ","","feedback_trial","0","","","","","","","","","","","","","","","","","","","","",""
"","","","","","image-keyboard-response","254","557543","0.0-229.0","5e9fc65dee2ccf178f0e413f","665500ab8938657b03fbdba8","66577f24ae3119b9eaf985eb","1941","stimuli/1001010.jpg","1","","prediction_trial","1","","true","","1","false","true","true","true","false","true","[1]","001","010","1","","","","","","",""
"","","","","","image-keyboard-response","255","558444","0.0-230.0","5e9fc65dee2ccf178f0e413f","665500ab8938657b03fbdba8","66577f24ae3119b9eaf985eb","896","stimuli/10010101.jpg"," ","","feedback_trial","1","","","","","","","","","","","","","","","","","","","","",""
"","","","","","image-keyboard-response","256","560245","0.0-231.0","5e9fc65dee2ccf178f0e413f","665500ab8938657b03fbdba8","66577f24ae3119b9eaf985eb","1797","stimuli/0110111.jpg","0","","prediction_trial","1","","false","","0","false","false","false","false","false","false","[0,1]","110","111","0","","","","","","",""
"","","","","","image-keyboard-response","257","561147","0.0-232.0","5e9fc65dee2ccf178f0e413f","665500ab8938657b03fbdba8","66577f24ae3119b9eaf985eb","897","stimuli/01101111.jpg"," ","","feedback_trial","0","","","","","","","","","","","","","","","","","","","","",""
"","","","","","image-keyboard-response","258","563186","0.0-233.0","5e9fc65dee2ccf178f0e413f","665500ab8938657b03fbdba8","66577f24ae3119b9eaf985eb","2033","stimuli/0010100.jpg","0","","prediction_trial","0","","true","","0","false","true","true","true","false","true","[0]","010","100","1","","","","","","",""
"","","","","","image-keyboard-response","259","564126","0.0-234.0","5e9fc65dee2ccf178f0e413f","665500ab8938657b03fbdba8","66577f24ae3119b9eaf985eb","935","stimuli/00101000.jpg"," ","","feedback_trial","0","","","","","","","","","","","","","","","","","","","","",""
"","","","","","image-keyboard-response","260","565672","0.0-235.0","5e9fc65dee2ccf178f0e413f","665500ab8938657b03fbdba8","66577f24ae3119b9eaf985eb","1541","stimuli/2111100.jpg","2","","prediction_trial","0","","false","","2","true","true","false","false","false","false","[0,2,1]","111","100","0","","","","","","",""
"","","","","","image-keyboard-response","261","566675","0.0-236.0","5e9fc65dee2ccf178f0e413f","665500ab8938657b03fbdba8","66577f24ae3119b9eaf985eb","998","stimuli/21111000.jpg"," ","","feedback_trial","0","","","","","","","","","","","","","","","","","","","","",""
"","","","","","image-keyboard-response","262","569416","0.0-237.0","5e9fc65dee2ccf178f0e413f","665500ab8938657b03fbdba8","66577f24ae3119b9eaf985eb","2737","stimuli/0001100.jpg","0","","prediction_trial","0","","true","","0","false","true","true","true","false","true","[0]","001","100","1","","","","","","",""
"","","","","","image-keyboard-response","263","570413","0.0-238.0","5e9fc65dee2ccf178f0e413f","665500ab8938657b03fbdba8","66577f24ae3119b9eaf985eb","992","stimuli/00011000.jpg"," ","","feedback_trial","0","","","","","","","","","","","","","","","","","","","","",""
"","","","","","image-keyboard-response","264","572217","0.0-239.0","5e9fc65dee2ccf178f0e413f","665500ab8938657b03fbdba8","66577f24ae3119b9eaf985eb","1800","stimuli/0011011.jpg","0","","prediction_trial","0","","true","","0","true","true","true","true","true","true","[0]","011","011","1","","","","","","",""
"","","","","","image-keyboard-response","265","573202","0.0-240.0","5e9fc65dee2ccf178f0e413f","665500ab8938657b03fbdba8","66577f24ae3119b9eaf985eb","981","stimuli/00110110.jpg"," ","","feedback_trial","0","","","","","","","","","","","","","","","","","","","","",""
"","","","","","image-keyboard-response","266","576568","0.0-241.0","5e9fc65dee2ccf178f0e413f","665500ab8938657b03fbdba8","66577f24ae3119b9eaf985eb","3362","stimuli/0111011.jpg","0","","prediction_trial","0","","true","","0","true","true","false","false","false","false","[0,2,1]","111","011","1","","","","","","",""
"","","","","","image-keyboard-response","267","577523","0.0-242.0","5e9fc65dee2ccf178f0e413f","665500ab8938657b03fbdba8","66577f24ae3119b9eaf985eb","951","stimuli/01110110.jpg"," ","","feedback_trial","0","","","","","","","","","","","","","","","","","","","","",""
"","","","","","image-keyboard-response","268","580307","0.0-243.0","5e9fc65dee2ccf178f0e413f","665500ab8938657b03fbdba8","66577f24ae3119b9eaf985eb","2779","stimuli/1010110.jpg","1","","prediction_trial","1","","true","","1","false","false","false","true","false","false","[1]","010","110","1","","","","","","",""
"","","","","","image-keyboard-response","269","581270","0.0-244.0","5e9fc65dee2ccf178f0e413f","665500ab8938657b03fbdba8","66577f24ae3119b9eaf985eb","957","stimuli/10101101.jpg"," ","","feedback_trial","1","","","","","","","","","","","","","","","","","","","","",""
"","","","","","image-keyboard-response","270","583561","0.0-245.0","5e9fc65dee2ccf178f0e413f","665500ab8938657b03fbdba8","66577f24ae3119b9eaf985eb","2286","stimuli/1111011.jpg","1","","prediction_trial","2","","false","","1","false","false","false","false","false","false","[0,1,2]","111","011","0","","","","","","",""
"","","","","","image-keyboard-response","271","584682","0.0-246.0","5e9fc65dee2ccf178f0e413f","665500ab8938657b03fbdba8","66577f24ae3119b9eaf985eb","1118","stimuli/11110112.jpg"," ","","feedback_trial","0","","","","","","","","","","","","","","","","","","","","",""
"","","","","","image-keyboard-response","272","586361","0.0-247.0","5e9fc65dee2ccf178f0e413f","665500ab8938657b03fbdba8","66577f24ae3119b9eaf985eb","1674","stimuli/2111111.jpg","1","","prediction_trial","1","","true","","2","false","false","false","false","false","false","[1,2,0]","111","111","1","","","","","","",""
"","","","","","image-keyboard-response","273","587377","0.0-248.0","5e9fc65dee2ccf178f0e413f","665500ab8938657b03fbdba8","66577f24ae3119b9eaf985eb","1011","stimuli/21111111.jpg"," ","","feedback_trial","1","","","","","","","","","","","","","","","","","","","","",""
"","","","","","image-keyboard-response","274","589513","0.0-249.0","5e9fc65dee2ccf178f0e413f","665500ab8938657b03fbdba8","66577f24ae3119b9eaf985eb","2132","stimuli/0000010.jpg","0","","prediction_trial","0","","true","","0","true","true","true","true","true","true","[0]","000","010","1","","","","","","",""
"","","","","","image-keyboard-response","275","590701","0.0-250.0","5e9fc65dee2ccf178f0e413f","665500ab8938657b03fbdba8","66577f24ae3119b9eaf985eb","1181","stimuli/00000100.jpg"," ","","feedback_trial","0","","","","","","","","","","","","","","","","","","","","",""
"","","","","","image-keyboard-response","276","592453","0.0-251.0","5e9fc65dee2ccf178f0e413f","665500ab8938657b03fbdba8","66577f24ae3119b9eaf985eb","1746","stimuli/2011110.jpg","2","","prediction_trial","1","","false","","2","true","true","false","false","false","false","[2,1]","011","110","0","","","","","","",""
"","","","","","image-keyboard-response","277","593488","0.0-252.0","5e9fc65dee2ccf178f0e413f","665500ab8938657b03fbdba8","66577f24ae3119b9eaf985eb","1031","stimuli/20111101.jpg"," ","","feedback_trial","2","","","","","","","","","","","","","","","","","","","","",""
"","","","","","image-keyboard-response","278","595131","0.0-253.0","5e9fc65dee2ccf178f0e413f","665500ab8938657b03fbdba8","66577f24ae3119b9eaf985eb","1639","stimuli/1111001.jpg","1","","prediction_trial","1","","true","","1","true","true","false","false","false","false","[1,2,0]","111","001","1","","","","","","",""
"","","","","","image-keyboard-response","279","596172","0.0-254.0","5e9fc65dee2ccf178f0e413f","665500ab8938657b03fbdba8","66577f24ae3119b9eaf985eb","1037","stimuli/11110011.jpg"," ","","feedback_trial","1","","","","","","","","","","","","","","","","","","","","",""
"","","","","","image-keyboard-response","280","597662","0.0-255.0","5e9fc65dee2ccf178f0e413f","665500ab8938657b03fbdba8","66577f24ae3119b9eaf985eb","1485","stimuli/1111101.jpg","1","","prediction_trial","2","","false","","1","true","true","false","false","false","false","[1,0,2]","111","101","0","","","","","","",""
"","","","","","image-keyboard-response","281","598580","0.0-256.0","5e9fc65dee2ccf178f0e413f","665500ab8938657b03fbdba8","66577f24ae3119b9eaf985eb","914","stimuli/11111012.jpg"," ","","feedback_trial","1","","","","","","","","","","","","","","","","","","","","",""
"","","","","","image-keyboard-response","282","600055","0.0-257.0","5e9fc65dee2ccf178f0e413f","665500ab8938657b03fbdba8","66577f24ae3119b9eaf985eb","1470","stimuli/0010010.jpg","0","","prediction_trial","0","","true","","0","true","true","true","true","true","true","[0]","010","010","1","","","","","","",""
"","","","","","image-keyboard-response","283","601237","0.0-258.0","5e9fc65dee2ccf178f0e413f","665500ab8938657b03fbdba8","66577f24ae3119b9eaf985eb","1179","stimuli/00100100.jpg"," ","","feedback_trial","0","","","","","","","","","","","","","","","","","","","","",""
"","","","","","image-keyboard-response","284","603797","0.0-259.0","5e9fc65dee2ccf178f0e413f","665500ab8938657b03fbdba8","66577f24ae3119b9eaf985eb","2556","stimuli/0001001.jpg","0","","prediction_trial","0","","true","","0","true","true","true","true","true","true","[0]","001","001","1","","","","","","",""
"","","","","","image-keyboard-response","285","604767","0.0-260.0","5e9fc65dee2ccf178f0e413f","665500ab8938657b03fbdba8","66577f24ae3119b9eaf985eb","965","stimuli/00010010.jpg"," ","","feedback_trial","0","","","","","","","","","","","","","","","","","","","","",""
"","","","","","image-keyboard-response","286","607093","0.0-261.0","5e9fc65dee2ccf178f0e413f","665500ab8938657b03fbdba8","66577f24ae3119b9eaf985eb","2322","stimuli/0110011.jpg","0","","prediction_trial","1","","false","","0","true","true","false","false","false","false","[1,0]","110","011","0","","","","","","",""
"","","","","","image-keyboard-response","287","608125","0.0-262.0","5e9fc65dee2ccf178f0e413f","665500ab8938657b03fbdba8","66577f24ae3119b9eaf985eb","1027","stimuli/01100111.jpg"," ","","feedback_trial","1","","","","","","","","","","","","","","","","","","","","",""
"","","","","","image-keyboard-response","288","609697","0.0-263.0","5e9fc65dee2ccf178f0e413f","665500ab8938657b03fbdba8","66577f24ae3119b9eaf985eb","1563","stimuli/1100101.jpg","1","","prediction_trial","1","","true","","1","true","true","true","true","true","true","[1]","100","101","1","","","","","","",""
"","","","","","image-keyboard-response","289","610558","0.0-264.0","5e9fc65dee2ccf178f0e413f","665500ab8938657b03fbdba8","66577f24ae3119b9eaf985eb","856","stimuli/11001011.jpg"," ","","feedback_trial","1","","","","","","","","","","","","","","","","","","","","",""
"","","","","","image-keyboard-response","290","611970","0.0-265.0","5e9fc65dee2ccf178f0e413f","665500ab8938657b03fbdba8","66577f24ae3119b9eaf985eb","1397","stimuli/2010010.jpg","2","","prediction_trial","2","","true","","2","true","true","true","true","true","true","[2]","010","010","1","","","","","","",""
"","","","","","image-keyboard-response","291","612870","0.0-266.0","5e9fc65dee2ccf178f0e413f","665500ab8938657b03fbdba8","66577f24ae3119b9eaf985eb","895","stimuli/20100102.jpg"," ","","feedback_trial","2","","","","","","","","","","","","","","","","","","","","",""
"","","","","","image-keyboard-response","292","614010","0.0-267.0","5e9fc65dee2ccf178f0e413f","665500ab8938657b03fbdba8","66577f24ae3119b9eaf985eb","1136","stimuli/2110010.jpg","2","","prediction_trial","2","","true","","2","true","true","true","true","true","true","[2]","110","010","1","","","","","","",""
"","","","","","image-keyboard-response","293","615130","0.0-268.0","5e9fc65dee2ccf178f0e413f","665500ab8938657b03fbdba8","66577f24ae3119b9eaf985eb","1115","stimuli/21100102.jpg"," ","","feedback_trial","2","","","","","","","","","","","","","","","","","","","","",""
"","","","","","image-keyboard-response","294","616810","0.0-269.0","5e9fc65dee2ccf178f0e413f","665500ab8938657b03fbdba8","66577f24ae3119b9eaf985eb","1677","stimuli/1010101.jpg","1","","prediction_trial","1","","true","","1","true","true","false","true","false","true","[1]","010","101","1","","","","","","",""
"","","","","","image-keyboard-response","295","617876","0.0-270.0","5e9fc65dee2ccf178f0e413f","665500ab8938657b03fbdba8","66577f24ae3119b9eaf985eb","1062","stimuli/10101011.jpg"," ","","feedback_trial","1","","","","","","","","","","","","","","","","","","","","",""
"","","","","","image-keyboard-response","296","620111","0.0-271.0","5e9fc65dee2ccf178f0e413f","665500ab8938657b03fbdba8","66577f24ae3119b9eaf985eb","2231","stimuli/0111000.jpg","0","","prediction_trial","2","","false","","0","true","true","false","false","false","false","[0,2,1]","111","000","0","","","","","","",""
"","","","","","image-keyboard-response","297","621194","0.0-272.0","5e9fc65dee2ccf178f0e413f","665500ab8938657b03fbdba8","66577f24ae3119b9eaf985eb","1080","stimuli/01110002.jpg"," ","","feedback_trial","0","","","","","","","","","","","","","","","","","","","","",""
"","","","","","image-keyboard-response","298","622777","0.0-273.0","5e9fc65dee2ccf178f0e413f","665500ab8938657b03fbdba8","66577f24ae3119b9eaf985eb","1579","stimuli/2101001.jpg","2","","prediction_trial","2","","true","","2","false","true","false","false","false","false","[2,0]","101","001","1","","","","","","",""
"","","","","","image-keyboard-response","299","623686","0.0-274.0","5e9fc65dee2ccf178f0e413f","665500ab8938657b03fbdba8","66577f24ae3119b9eaf985eb","906","stimuli/21010012.jpg"," ","","feedback_trial","2","","","","","","","","","","","","","","","","","","","","",""
"","","","","","image-keyboard-response","300","625246","0.0-275.0","5e9fc65dee2ccf178f0e413f","665500ab8938657b03fbdba8","66577f24ae3119b9eaf985eb","1555","stimuli/0100001.jpg","0","","prediction_trial","0","","true","","0","true","true","false","true","false","true","[0]","100","001","1","","","","","","",""
"","","","","","image-keyboard-response","301","626040","0.0-276.0","5e9fc65dee2ccf178f0e413f","665500ab8938657b03fbdba8","66577f24ae3119b9eaf985eb","790","stimuli/01000010.jpg"," ","","feedback_trial","0","","","","","","","","","","","","","","","","","","","","",""
"","","","","","image-keyboard-response","302","628029","0.0-277.0","5e9fc65dee2ccf178f0e413f","665500ab8938657b03fbdba8","66577f24ae3119b9eaf985eb","1985","stimuli/2110011.jpg","1","","prediction_trial","2","","false","","2","false","false","true","true","false","false","[2]","110","011","0","","","","","","",""
"","","","","","image-keyboard-response","303","629009","0.0-278.0","5e9fc65dee2ccf178f0e413f","665500ab8938657b03fbdba8","66577f24ae3119b9eaf985eb","975","stimuli/21100112.jpg"," ","","feedback_trial","2","","","","","","","","","","","","","","","","","","","","",""
"","","","","","image-keyboard-response","304","630523","0.0-279.0","5e9fc65dee2ccf178f0e413f","665500ab8938657b03fbdba8","66577f24ae3119b9eaf985eb","1510","stimuli/0011010.jpg","0","","prediction_trial","0","","true","","0","true","true","true","true","true","true","[0]","011","010","1","","","","","","",""
"","","","","","image-keyboard-response","305","631559","0.0-280.0","5e9fc65dee2ccf178f0e413f","665500ab8938657b03fbdba8","66577f24ae3119b9eaf985eb","1017","stimuli/00110100.jpg"," ","","feedback_trial","0","","","","","","","","","","","","","","","","","","","","",""
"","","","","","image-keyboard-response","306","633612","0.0-281.0","5e9fc65dee2ccf178f0e413f","665500ab8938657b03fbdba8","66577f24ae3119b9eaf985eb","2047","stimuli/0101000.jpg","0","","prediction_trial","2","","false","","0","true","true","false","false","false","false","[0,2]","101","000","0","","","","","","",""
"","","","","","image-keyboard-response","307","634754","0.0-282.0","5e9fc65dee2ccf178f0e413f","665500ab8938657b03fbdba8","66577f24ae3119b9eaf985eb","1138","stimuli/01010002.jpg"," ","","feedback_trial","0","","","","","","","","","","","","","","","","","","","","",""
"","","","","","image-keyboard-response","308","636352","0.0-283.0","5e9fc65dee2ccf178f0e413f","665500ab8938657b03fbdba8","66577f24ae3119b9eaf985eb","1594","stimuli/1101000.jpg","1","","prediction_trial","1","","true","","1","true","true","true","true","true","true","[1]","101","000","1","","","","","","",""
"","","","","","image-keyboard-response","309","637296","0.0-284.0","5e9fc65dee2ccf178f0e413f","665500ab8938657b03fbdba8","66577f24ae3119b9eaf985eb","939","stimuli/11010001.jpg"," ","","feedback_trial","1","","","","","","","","","","","","","","","","","","","","",""
"","","","","","image-keyboard-response","310","639505","0.0-285.0","5e9fc65dee2ccf178f0e413f","665500ab8938657b03fbdba8","66577f24ae3119b9eaf985eb","2205","stimuli/1010000.jpg","1","","prediction_trial","1","","true","","1","true","true","false","true","false","true","[1]","010","000","1","","","","","","",""
"","","","","","image-keyboard-response","311","640435","0.0-286.0","5e9fc65dee2ccf178f0e413f","665500ab8938657b03fbdba8","66577f24ae3119b9eaf985eb","928","stimuli/10100001.jpg"," ","","feedback_trial","1","","","","","","","","","","","","","","","","","","","","",""
"","","","","","image-keyboard-response","312","642043","0.0-287.0","5e9fc65dee2ccf178f0e413f","665500ab8938657b03fbdba8","66577f24ae3119b9eaf985eb","1603","stimuli/1011110.jpg","1","","prediction_trial","1","","true","","1","false","false","false","false","false","false","[2,1]","011","110","1","","","","","","",""
"","","","","","image-keyboard-response","313","643004","0.0-288.0","5e9fc65dee2ccf178f0e413f","665500ab8938657b03fbdba8","66577f24ae3119b9eaf985eb","956","stimuli/10111101.jpg"," ","","feedback_trial","2","","","","","","","","","","","","","","","","","","","","",""
"","","","","","image-keyboard-response","314","645351","0.0-289.0","5e9fc65dee2ccf178f0e413f","665500ab8938657b03fbdba8","66577f24ae3119b9eaf985eb","2341","stimuli/0010110.jpg","1","","prediction_trial","0","","false","","0","false","false","true","true","false","false","[0]","010","110","0","","","","","","",""
"","","","","","image-keyboard-response","315","646317","0.0-290.0","5e9fc65dee2ccf178f0e413f","665500ab8938657b03fbdba8","66577f24ae3119b9eaf985eb","961","stimuli/00101100.jpg"," ","","feedback_trial","0","","","","","","","","","","","","","","","","","","","","",""
"","","","","","image-keyboard-response","316","647873","0.0-291.0","5e9fc65dee2ccf178f0e413f","665500ab8938657b03fbdba8","66577f24ae3119b9eaf985eb","1551","stimuli/1001100.jpg","1","","prediction_trial","1","","true","","1","true","true","true","true","true","true","[1]","001","100","1","","","","","","",""
"","","","","","image-keyboard-response","317","648841","0.0-292.0","5e9fc65dee2ccf178f0e413f","665500ab8938657b03fbdba8","66577f24ae3119b9eaf985eb","964","stimuli/10011001.jpg"," ","","feedback_trial","1","","","","","","","","","","","","","","","","","","","","",""
"","","","","","survey-html-form","318","690007","0.0-293.0","5e9fc65dee2ccf178f0e413f","665500ab8938657b03fbdba8","66577f24ae3119b9eaf985eb","41156","","{""feedback"":""guess estimate"",""age"":""55"",""gender"":""Female"",""other_gender"":"""",""race"":""White"",""other_race"":""""}","","exit_survey","","","","","","","","","","","","","","","","guess estimate","55","","Female","White","0.6666666666666666","0.6666666666666666"
