"success","timeout","failed_images","failed_audio","failed_video","trial_type","trial_index","time_elapsed","internal_node_id","prolific_id","prolific_study_id","prolific_session_id","rt","stimulus","response","view_history","trial","character_choice","stimulus_dict","accuracy","correct_response","ball_pos","ego_ball_visible","ego_can_infer","alter_ball_visible","alter_can_infer","collective_ball_visible","collective_can_infer","search_locations","alter_occluders","ego_occluders","accuracy_bool","feedback","age","ethnicity","gender","race","overall_accuracy","bonus"
"true","false","[]","[]","[]","preload","0","1710","0.0-0.0","632b9d9bc38454f47019295c","665500ab8938657b03fbdba8","6657922d74a8e5165543c8ef","","","","","","","","","","","","","","","","","","","","","","","","","","",""
"true","","","","","fullscreen","1","8087","0.0-1.0","632b9d9bc38454f47019295c","665500ab8938657b03fbdba8","6657922d74a8e5165543c8ef","","","","","","","","","","","","","","","","","","","","","","","","","","",""
"","","","","","html-button-response","2","33248","0.0-2.0","632b9d9bc38454f47019295c","665500ab8938657b03fbdba8","6657922d74a8e5165543c8ef","25160","<p><b>Consent Form</b></p> <div style=""text-align:left;background-color:lightgrey; padding:20px; max-width:900px;""><p>Please consider this information carefully before deciding whether to participate in this research.</p> <p>The purpose of this research is to examine which factors influence social judgment and decision-making. You will be asked to make judgements about individuals and actions in social scenarios. We are simply interested in your judgement. The study will take less than 1 hour to complete, and you will receive less than $20 on Prolific. Your compensation and time commitment are specified in the study description. There are no anticipated risks associated with participating in this study. The effects of participating should be comparable to those you would ordinarily experience from viewing a computer monitor and using a mouse or keyboard for a similar amount of time. At the end of the study, we will provide an explanation of the questions that motivate this line of research and will describe the potential implications. </p><p> Your participation in this study is completely voluntary and you may refuse to participate or you may choose to withdraw at any time without penalty or loss of benefits to you which are otherwise entitled. Your participation in this study will remain confidential. No personally identifiable information will be associated with your data. Also, all analyses of the data will be averaged across all the participants, so your individual responses will never be specifically analyzed. </p><p> If you have questions or concerns about your participation or payment, or want to request a summary of research findings, please contact Dr. Jonathan Phillips at Jonathan.S.Phillips@dartmouth.edu. </p><p> Please save a copy of this form for your records. </p><p><b>Agreement: </b>The nature and purpose of this research have been sufficiently explained and I agree to participate in this study. I understand that I am free to withdraw at any time without incurring any penalty. Please consent by clicking the button below to continue. Otherwise, please exit the study at any time. </p>","0","","","","","","","","","","","","","","","","","","","","","","","",""
"","","","","","instructions","3","252804","0.0-3.0-0.0","632b9d9bc38454f47019295c","665500ab8938657b03fbdba8","6657922d74a8e5165543c8ef","219552","","","[{""page_index"":0,""viewing_time"":4211},{""page_index"":1,""viewing_time"":14416},{""page_index"":2,""viewing_time"":3072},{""page_index"":3,""viewing_time"":30788},{""page_index"":4,""viewing_time"":25612},{""page_index"":5,""viewing_time"":16743},{""page_index"":6,""viewing_time"":13980},{""page_index"":7,""viewing_time"":14404},{""page_index"":8,""viewing_time"":12096},{""page_index"":9,""viewing_time"":10780},{""page_index"":10,""viewing_time"":19364},{""page_index"":11,""viewing_time"":35932},{""page_index"":12,""viewing_time"":16148},{""page_index"":13,""viewing_time"":2004}]","intro","","","","","","","","","","","","","","","","","","","","","",""
"","","","","","image-keyboard-response","4","263898","0.0-3.0-1.0","632b9d9bc38454f47019295c","665500ab8938657b03fbdba8","6657922d74a8e5165543c8ef","11091","stimuli/0011110.jpg","1","","prediction_practice","0","{""filepath"":""stimuli/0011110.jpg"",""ball_pos"":0,""ego_ball_visible"":false,""ego_can_infer"":false,""alter_ball_visible"":true,""alter_can_infer"":true,""collective_ball_visible"":false,""collective_can_infer"":false,""search_locations"":[0],""alter_occluders"":""011"",""ego_occluders"":""110""}","false","","","","","","","","","","","","","","","","","","",""
"","","","","","image-keyboard-response","5","265924","0.0-3.0-2.0","632b9d9bc38454f47019295c","665500ab8938657b03fbdba8","6657922d74a8e5165543c8ef","2024","stimuli/00111100.jpg"," ","","practrice_feedback","0","","","","","","","","","","","","","","","","","","","","",""
"","","","","","image-keyboard-response","6","272147","0.0-3.0-3.0","632b9d9bc38454f47019295c","665500ab8938657b03fbdba8","6657922d74a8e5165543c8ef","6222","stimuli/0100011.jpg","0","","prediction_practice","0","{""filepath"":""stimuli/0100011.jpg"",""ball_pos"":0,""ego_ball_visible"":true,""ego_can_infer"":true,""alter_ball_visible"":false,""alter_can_infer"":true,""collective_ball_visible"":false,""collective_can_infer"":true,""search_locations"":[0],""alter_occluders"":""100"",""ego_occluders"":""011""}","true","","","","","","","","","","","","","","","","","","",""
"","","","","","image-keyboard-response","7","276912","0.0-3.0-4.0","632b9d9bc38454f47019295c","665500ab8938657b03fbdba8","6657922d74a8e5165543c8ef","4764","stimuli/01000110.jpg"," ","","practrice_feedback","0","","","","","","","","","","","","","","","","","","","","",""
"","","","","","image-keyboard-response","8","282000","0.0-3.0-5.0","632b9d9bc38454f47019295c","665500ab8938657b03fbdba8","6657922d74a8e5165543c8ef","5086","stimuli/2011011.jpg","2","","prediction_practice","2","{""filepath"":""stimuli/2011011.jpg"",""ball_pos"":2,""ego_ball_visible"":false,""ego_can_infer"":false,""alter_ball_visible"":false,""alter_can_infer"":false,""collective_ball_visible"":false,""collective_can_infer"":false,""search_locations"":[2,1],""alter_occluders"":""011"",""ego_occluders"":""011""}","true","","","","","","","","","","","","","","","","","","",""
"","","","","","image-keyboard-response","9","285842","0.0-3.0-6.0","632b9d9bc38454f47019295c","665500ab8938657b03fbdba8","6657922d74a8e5165543c8ef","3840","stimuli/20110112.jpg"," ","","practrice_feedback","2","","","","","","","","","","","","","","","","","","","","",""
"","","","","","image-keyboard-response","10","288462","0.0-3.0-7.0","632b9d9bc38454f47019295c","665500ab8938657b03fbdba8","6657922d74a8e5165543c8ef","2619","stimuli/1001101.jpg","1","","prediction_practice","1","{""filepath"":""stimuli/1001101.jpg"",""ball_pos"":1,""ego_ball_visible"":true,""ego_can_infer"":true,""alter_ball_visible"":true,""alter_can_infer"":true,""collective_ball_visible"":true,""collective_can_infer"":true,""search_locations"":[1],""alter_occluders"":""001"",""ego_occluders"":""101""}","true","","","","","","","","","","","","","","","","","","",""
"","","","","","image-keyboard-response","11","290026","0.0-3.0-8.0","632b9d9bc38454f47019295c","665500ab8938657b03fbdba8","6657922d74a8e5165543c8ef","1562","stimuli/10011011.jpg"," ","","practrice_feedback","1","","","","","","","","","","","","","","","","","","","","",""
"","","","","","image-keyboard-response","12","294655","0.0-3.0-9.0","632b9d9bc38454f47019295c","665500ab8938657b03fbdba8","6657922d74a8e5165543c8ef","4628","stimuli/0100001.jpg","0","","prediction_practice","0","{""filepath"":""stimuli/0100001.jpg"",""ball_pos"":0,""ego_ball_visible"":true,""ego_can_infer"":true,""alter_ball_visible"":false,""alter_can_infer"":true,""collective_ball_visible"":false,""collective_can_infer"":true,""search_locations"":[0],""alter_occluders"":""100"",""ego_occluders"":""001""}","true","","","","","","","","","","","","","","","","","","",""
"","","","","","image-keyboard-response","13","295974","0.0-3.0-10.0","632b9d9bc38454f47019295c","665500ab8938657b03fbdba8","6657922d74a8e5165543c8ef","1317","stimuli/01000010.jpg"," ","","practrice_feedback","0","","","","","","","","","","","","","","","","","","","","",""
"","","","","","image-keyboard-response","14","298012","0.0-3.0-11.0","632b9d9bc38454f47019295c","665500ab8938657b03fbdba8","6657922d74a8e5165543c8ef","2032","stimuli/0011101.jpg","2","","prediction_practice","0","{""filepath"":""stimuli/0011101.jpg"",""ball_pos"":0,""ego_ball_visible"":false,""ego_can_infer"":false,""alter_ball_visible"":true,""alter_can_infer"":true,""collective_ball_visible"":false,""collective_can_infer"":false,""search_locations"":[0],""alter_occluders"":""011"",""ego_occluders"":""101""}","false","","","","","","","","","","","","","","","","","","",""
"","","","","","image-keyboard-response","15","300574","0.0-3.0-12.0","632b9d9bc38454f47019295c","665500ab8938657b03fbdba8","6657922d74a8e5165543c8ef","2562","stimuli/00111010.jpg"," ","","practrice_feedback","0","","","","","","","","","","","","","","","","","","","","",""
"","","","","","image-keyboard-response","16","302969","0.0-3.0-13.0","632b9d9bc38454f47019295c","665500ab8938657b03fbdba8","6657922d74a8e5165543c8ef","2394","stimuli/1000111.jpg","1","","prediction_practice","1","{""filepath"":""stimuli/1000111.jpg"",""ball_pos"":1,""ego_ball_visible"":false,""ego_can_infer"":false,""alter_ball_visible"":true,""alter_can_infer"":true,""collective_ball_visible"":false,""collective_can_infer"":false,""search_locations"":[1],""alter_occluders"":""000"",""ego_occluders"":""111""}","true","","","","","","","","","","","","","","","","","","",""
"","","","","","image-keyboard-response","17","306907","0.0-3.0-14.0","632b9d9bc38454f47019295c","665500ab8938657b03fbdba8","6657922d74a8e5165543c8ef","3936","stimuli/10001111.jpg"," ","","practrice_feedback","1","","","","","","","","","","","","","","","","","","","","",""
"","","","","","image-keyboard-response","18","309642","0.0-3.0-15.0","632b9d9bc38454f47019295c","665500ab8938657b03fbdba8","6657922d74a8e5165543c8ef","2734","stimuli/1111010.jpg","1","","prediction_practice","1","{""filepath"":""stimuli/1111010.jpg"",""ball_pos"":1,""ego_ball_visible"":false,""ego_can_infer"":true,""alter_ball_visible"":false,""alter_can_infer"":false,""collective_ball_visible"":false,""collective_can_infer"":false,""search_locations"":[2,0,1],""alter_occluders"":""111"",""ego_occluders"":""010""}","true","","","","","","","","","","","","","","","","","","",""
"","","","","","image-keyboard-response","19","312225","0.0-3.0-16.0","632b9d9bc38454f47019295c","665500ab8938657b03fbdba8","6657922d74a8e5165543c8ef","2581","stimuli/11110101.jpg"," ","","practrice_feedback","2","","","","","","","","","","","","","","","","","","","","",""
"","","","","","image-keyboard-response","20","316564","0.0-3.0-17.0","632b9d9bc38454f47019295c","665500ab8938657b03fbdba8","6657922d74a8e5165543c8ef","4338","stimuli/2100000.jpg","2","","prediction_practice","2","{""filepath"":""stimuli/2100000.jpg"",""ball_pos"":2,""ego_ball_visible"":true,""ego_can_infer"":true,""alter_ball_visible"":true,""alter_can_infer"":true,""collective_ball_visible"":true,""collective_can_infer"":true,""search_locations"":[2],""alter_occluders"":""100"",""ego_occluders"":""000""}","true","","","","","","","","","","","","","","","","","","",""
"","","","","","image-keyboard-response","21","318119","0.0-3.0-18.0","632b9d9bc38454f47019295c","665500ab8938657b03fbdba8","6657922d74a8e5165543c8ef","1554","stimuli/21000002.jpg"," ","","practrice_feedback","2","","","","","","","","","","","","","","","","","","","","",""
"","","","","","image-keyboard-response","22","320402","0.0-3.0-19.0","632b9d9bc38454f47019295c","665500ab8938657b03fbdba8","6657922d74a8e5165543c8ef","2281","stimuli/1101000.jpg","1","","prediction_practice","1","{""filepath"":""stimuli/1101000.jpg"",""ball_pos"":1,""ego_ball_visible"":true,""ego_can_infer"":true,""alter_ball_visible"":true,""alter_can_infer"":true,""collective_ball_visible"":true,""collective_can_infer"":true,""search_locations"":[1],""alter_occluders"":""101"",""ego_occluders"":""000""}","true","","","","","","","","","","","","","","","","","","",""
"","","","","","image-keyboard-response","23","324302","0.0-3.0-20.0","632b9d9bc38454f47019295c","665500ab8938657b03fbdba8","6657922d74a8e5165543c8ef","3899","stimuli/11010001.jpg"," ","","practrice_feedback","1","","","","","","","","","","","","","","","","","","","","",""
"","","","","","html-button-response","24","340708","0.0-3.0-21.0","632b9d9bc38454f47019295c","665500ab8938657b03fbdba8","6657922d74a8e5165543c8ef","16405","Now that you've had some practice, you'll be tested with a couple of easy trials. If you correctly predict Sam's choice, you'll move on to complete the experiment!","0","","","","","","","","","","","","","","","","","","","","","","","",""
"","","","","","image-keyboard-response","25","342799","0.0-3.0-22.0-0.0","632b9d9bc38454f47019295c","665500ab8938657b03fbdba8","6657922d74a8e5165543c8ef","2090","stimuli/0000011.jpg","arrowleft","","comprehension_quiz","","","true","arrowleft","","","","","","","","","","","","","","","","","",""
"","","","","","image-keyboard-response","26","344260","0.0-3.0-22.0-1.0","632b9d9bc38454f47019295c","665500ab8938657b03fbdba8","6657922d74a8e5165543c8ef","1458","stimuli/00000110.jpg"," ","","comprehension_quiz","","","true"," ","","","","","","","","","","","","","","","","","",""
"","","","","","image-keyboard-response","27","346477","0.0-3.0-22.0-2.0","632b9d9bc38454f47019295c","665500ab8938657b03fbdba8","6657922d74a8e5165543c8ef","2216","stimuli/1010010.jpg","arrowdown","","comprehension_quiz","","","true","arrowdown","","","","","","","","","","","","","","","","","",""
"","","","","","image-keyboard-response","28","348343","0.0-3.0-22.0-3.0","632b9d9bc38454f47019295c","665500ab8938657b03fbdba8","6657922d74a8e5165543c8ef","1865","stimuli/10100101.jpg"," ","","comprehension_quiz","","","true"," ","","","","","","","","","","","","","","","","","",""
"","","","","","html-button-response","29","356361","0.0-4.0","632b9d9bc38454f47019295c","665500ab8938657b03fbdba8","6657922d74a8e5165543c8ef","8015","The experiment will now begin.","0","","","","","","","","","","","","","","","","","","","","","","","",""
"","","","","","image-keyboard-response","30","358133","0.0-5.0","632b9d9bc38454f47019295c","665500ab8938657b03fbdba8","6657922d74a8e5165543c8ef","1771","stimuli/1100000.jpg","1","","prediction_trial","1","","true","","1","true","true","true","true","true","true","[1]","100","000","1","","","","","","",""
"","","","","","image-keyboard-response","31","359644","0.0-6.0","632b9d9bc38454f47019295c","665500ab8938657b03fbdba8","6657922d74a8e5165543c8ef","1509","stimuli/11000001.jpg"," ","","feedback_trial","1","","","","","","","","","","","","","","","","","","","","",""
"","","","","","image-keyboard-response","32","361042","0.0-7.0","632b9d9bc38454f47019295c","665500ab8938657b03fbdba8","6657922d74a8e5165543c8ef","1396","stimuli/0011011.jpg","0","","prediction_trial","0","","true","","0","true","true","true","true","true","true","[0]","011","011","1","","","","","","",""
"","","","","","image-keyboard-response","33","362203","0.0-8.0","632b9d9bc38454f47019295c","665500ab8938657b03fbdba8","6657922d74a8e5165543c8ef","1159","stimuli/00110110.jpg"," ","","feedback_trial","0","","","","","","","","","","","","","","","","","","","","",""
"","","","","","image-keyboard-response","34","370020","0.0-9.0","632b9d9bc38454f47019295c","665500ab8938657b03fbdba8","6657922d74a8e5165543c8ef","7807","stimuli/2100111.jpg","1","","prediction_trial","2","","false","","2","false","false","true","true","false","false","[2]","100","111","0","","","","","","",""
"","","","","","image-keyboard-response","35","372349","0.0-10.0","632b9d9bc38454f47019295c","665500ab8938657b03fbdba8","6657922d74a8e5165543c8ef","2327","stimuli/21001112.jpg"," ","","feedback_trial","2","","","","","","","","","","","","","","","","","","","","",""
"","","","","","image-keyboard-response","36","374894","0.0-11.0","632b9d9bc38454f47019295c","665500ab8938657b03fbdba8","6657922d74a8e5165543c8ef","2543","stimuli/1011101.jpg","1","","prediction_trial","1","","true","","1","true","true","false","false","false","false","[2,1]","011","101","1","","","","","","",""
"","","","","","image-keyboard-response","37","375751","0.0-12.0","632b9d9bc38454f47019295c","665500ab8938657b03fbdba8","6657922d74a8e5165543c8ef","856","stimuli/10111011.jpg"," ","","feedback_trial","2","","","","","","","","","","","","","","","","","","","","",""
"","","","","","image-keyboard-response","38","378253","0.0-13.0","632b9d9bc38454f47019295c","665500ab8938657b03fbdba8","6657922d74a8e5165543c8ef","2500","stimuli/1011110.jpg","0","","prediction_trial","1","","false","","1","false","false","false","false","false","false","[1,2]","011","110","0","","","","","","",""
"","","","","","image-keyboard-response","39","381868","0.0-14.0","632b9d9bc38454f47019295c","665500ab8938657b03fbdba8","6657922d74a8e5165543c8ef","3613","stimuli/10111101.jpg"," ","","feedback_trial","1","","","","","","","","","","","","","","","","","","","","",""
"","","","","","image-keyboard-response","40","383920","0.0-15.0","632b9d9bc38454f47019295c","665500ab8938657b03fbdba8","6657922d74a8e5165543c8ef","2051","stimuli/0110101.jpg","2","","prediction_trial","0","","false","","0","false","false","false","false","false","false","[1,0]","110","101","0","","","","","","",""
"","","","","","image-keyboard-response","41","384883","0.0-16.0","632b9d9bc38454f47019295c","665500ab8938657b03fbdba8","6657922d74a8e5165543c8ef","961","stimuli/01101010.jpg"," ","","feedback_trial","1","","","","","","","","","","","","","","","","","","","","",""
"","","","","","image-keyboard-response","42","386400","0.0-17.0","632b9d9bc38454f47019295c","665500ab8938657b03fbdba8","6657922d74a8e5165543c8ef","1516","stimuli/1001001.jpg","1","","prediction_trial","1","","true","","1","true","true","true","true","true","true","[1]","001","001","1","","","","","","",""
"","","","","","image-keyboard-response","43","387260","0.0-18.0","632b9d9bc38454f47019295c","665500ab8938657b03fbdba8","6657922d74a8e5165543c8ef","859","stimuli/10010011.jpg"," ","","feedback_trial","1","","","","","","","","","","","","","","","","","","","","",""
"","","","","","image-keyboard-response","44","388766","0.0-19.0","632b9d9bc38454f47019295c","665500ab8938657b03fbdba8","6657922d74a8e5165543c8ef","1504","stimuli/1000001.jpg","1","","prediction_trial","1","","true","","1","true","true","true","true","true","true","[1]","000","001","1","","","","","","",""
"","","","","","image-keyboard-response","45","389668","0.0-20.0","632b9d9bc38454f47019295c","665500ab8938657b03fbdba8","6657922d74a8e5165543c8ef","901","stimuli/10000011.jpg"," ","","feedback_trial","1","","","","","","","","","","","","","","","","","","","","",""
"","","","","","image-keyboard-response","46","391576","0.0-21.0","632b9d9bc38454f47019295c","665500ab8938657b03fbdba8","6657922d74a8e5165543c8ef","1907","stimuli/2101000.jpg","2","","prediction_trial","0","","false","","2","true","true","false","false","false","false","[2,0]","101","000","0","","","","","","",""
"","","","","","image-keyboard-response","47","398377","0.0-22.0","632b9d9bc38454f47019295c","665500ab8938657b03fbdba8","6657922d74a8e5165543c8ef","6799","stimuli/21010000.jpg"," ","","feedback_trial","2","","","","","","","","","","","","","","","","","","","","",""
"","","","","","image-keyboard-response","48","399648","0.0-23.0","632b9d9bc38454f47019295c","665500ab8938657b03fbdba8","6657922d74a8e5165543c8ef","1269","stimuli/1100100.jpg","1","","prediction_trial","1","","true","","1","true","true","true","true","true","true","[1]","100","100","1","","","","","","",""
"","","","","","image-keyboard-response","49","400551","0.0-24.0","632b9d9bc38454f47019295c","665500ab8938657b03fbdba8","6657922d74a8e5165543c8ef","902","stimuli/11001001.jpg"," ","","feedback_trial","1","","","","","","","","","","","","","","","","","","","","",""
"","","","","","image-keyboard-response","50","403397","0.0-25.0","632b9d9bc38454f47019295c","665500ab8938657b03fbdba8","6657922d74a8e5165543c8ef","2845","stimuli/1001010.jpg","1","","prediction_trial","1","","true","","1","false","true","true","true","false","true","[1]","001","010","1","","","","","","",""
"","","","","","image-keyboard-response","51","404664","0.0-26.0","632b9d9bc38454f47019295c","665500ab8938657b03fbdba8","6657922d74a8e5165543c8ef","1265","stimuli/10010101.jpg"," ","","feedback_trial","1","","","","","","","","","","","","","","","","","","","","",""
"","","","","","image-keyboard-response","52","407391","0.0-27.0","632b9d9bc38454f47019295c","665500ab8938657b03fbdba8","6657922d74a8e5165543c8ef","2717","stimuli/1100110.jpg","0","","prediction_trial","1","","false","","1","false","false","true","true","false","false","[1]","100","110","0","","","","","","",""
"","","","","","image-keyboard-response","53","408450","0.0-28.0","632b9d9bc38454f47019295c","665500ab8938657b03fbdba8","6657922d74a8e5165543c8ef","1057","stimuli/11001101.jpg"," ","","feedback_trial","1","","","","","","","","","","","","","","","","","","","","",""
"","","","","","image-keyboard-response","54","410450","0.0-29.0","632b9d9bc38454f47019295c","665500ab8938657b03fbdba8","6657922d74a8e5165543c8ef","1999","stimuli/0011000.jpg","0","","prediction_trial","0","","true","","0","true","true","true","true","true","true","[0]","011","000","1","","","","","","",""
"","","","","","image-keyboard-response","55","411413","0.0-30.0","632b9d9bc38454f47019295c","665500ab8938657b03fbdba8","6657922d74a8e5165543c8ef","961","stimuli/00110000.jpg"," ","","feedback_trial","0","","","","","","","","","","","","","","","","","","","","",""
"","","","","","image-keyboard-response","56","414441","0.0-31.0","632b9d9bc38454f47019295c","665500ab8938657b03fbdba8","6657922d74a8e5165543c8ef","3038","stimuli/2000011.jpg","1","","prediction_trial","2","","false","","2","false","false","true","true","false","false","[2]","000","011","0","","","","","","",""
"","","","","","image-keyboard-response","57","415585","0.0-32.0","632b9d9bc38454f47019295c","665500ab8938657b03fbdba8","6657922d74a8e5165543c8ef","1142","stimuli/20000112.jpg"," ","","feedback_trial","2","","","","","","","","","","","","","","","","","","","","",""
"","","","","","image-keyboard-response","58","417534","0.0-33.0","632b9d9bc38454f47019295c","665500ab8938657b03fbdba8","6657922d74a8e5165543c8ef","1948","stimuli/2010001.jpg","2","","prediction_trial","2","","true","","2","false","true","true","true","false","true","[2]","010","001","1","","","","","","",""
"","","","","","image-keyboard-response","59","418831","0.0-34.0","632b9d9bc38454f47019295c","665500ab8938657b03fbdba8","6657922d74a8e5165543c8ef","1296","stimuli/20100012.jpg"," ","","feedback_trial","2","","","","","","","","","","","","","","","","","","","","",""
"","","","","","image-keyboard-response","60","423350","0.0-35.0","632b9d9bc38454f47019295c","665500ab8938657b03fbdba8","6657922d74a8e5165543c8ef","4517","stimuli/0010110.jpg","0","","prediction_trial","0","","true","","0","false","false","true","true","false","false","[0]","010","110","1","","","","","","",""
"","","","","","image-keyboard-response","61","424690","0.0-36.0","632b9d9bc38454f47019295c","665500ab8938657b03fbdba8","6657922d74a8e5165543c8ef","1338","stimuli/00101100.jpg"," ","","feedback_trial","0","","","","","","","","","","","","","","","","","","","","",""
"","","","","","image-keyboard-response","62","426636","0.0-37.0","632b9d9bc38454f47019295c","665500ab8938657b03fbdba8","6657922d74a8e5165543c8ef","1945","stimuli/2001110.jpg","2","","prediction_trial","2","","true","","2","true","true","false","true","false","true","[2]","001","110","1","","","","","","",""
"","","","","","image-keyboard-response","63","427711","0.0-38.0","632b9d9bc38454f47019295c","665500ab8938657b03fbdba8","6657922d74a8e5165543c8ef","1074","stimuli/20011102.jpg"," ","","feedback_trial","2","","","","","","","","","","","","","","","","","","","","",""
"","","","","","image-keyboard-response","64","430031","0.0-39.0","632b9d9bc38454f47019295c","665500ab8938657b03fbdba8","6657922d74a8e5165543c8ef","2318","stimuli/1100010.jpg","1","","prediction_trial","1","","true","","1","false","true","true","true","false","true","[1]","100","010","1","","","","","","",""
"","","","","","image-keyboard-response","65","431163","0.0-40.0","632b9d9bc38454f47019295c","665500ab8938657b03fbdba8","6657922d74a8e5165543c8ef","1130","stimuli/11000101.jpg"," ","","feedback_trial","1","","","","","","","","","","","","","","","","","","","","",""
"","","","","","image-keyboard-response","66","433662","0.0-41.0","632b9d9bc38454f47019295c","665500ab8938657b03fbdba8","6657922d74a8e5165543c8ef","2498","stimuli/0000110.jpg","1","","prediction_trial","0","","false","","0","false","false","true","true","false","false","[0]","000","110","0","","","","","","",""
"","","","","","image-keyboard-response","67","434734","0.0-42.0","632b9d9bc38454f47019295c","665500ab8938657b03fbdba8","6657922d74a8e5165543c8ef","1071","stimuli/00001100.jpg"," ","","feedback_trial","0","","","","","","","","","","","","","","","","","","","","",""
"","","","","","image-keyboard-response","68","436672","0.0-43.0","632b9d9bc38454f47019295c","665500ab8938657b03fbdba8","6657922d74a8e5165543c8ef","1937","stimuli/0010101.jpg","2","","prediction_trial","0","","false","","0","false","false","true","true","false","false","[0]","010","101","0","","","","","","",""
"","","","","","image-keyboard-response","69","437633","0.0-44.0","632b9d9bc38454f47019295c","665500ab8938657b03fbdba8","6657922d74a8e5165543c8ef","959","stimuli/00101010.jpg"," ","","feedback_trial","0","","","","","","","","","","","","","","","","","","","","",""
"","","","","","image-keyboard-response","70","439113","0.0-45.0","632b9d9bc38454f47019295c","665500ab8938657b03fbdba8","6657922d74a8e5165543c8ef","1478","stimuli/1011001.jpg","1","","prediction_trial","2","","false","","1","true","true","false","false","false","false","[1,2]","011","001","0","","","","","","",""
"","","","","","image-keyboard-response","71","441177","0.0-46.0","632b9d9bc38454f47019295c","665500ab8938657b03fbdba8","6657922d74a8e5165543c8ef","2062","stimuli/10110012.jpg"," ","","feedback_trial","1","","","","","","","","","","","","","","","","","","","","",""
"","","","","","image-keyboard-response","72","443389","0.0-47.0","632b9d9bc38454f47019295c","665500ab8938657b03fbdba8","6657922d74a8e5165543c8ef","2212","stimuli/1010011.jpg","1","","prediction_trial","1","","true","","1","false","false","false","true","false","false","[1]","010","011","1","","","","","","",""
"","","","","","image-keyboard-response","73","444369","0.0-48.0","632b9d9bc38454f47019295c","665500ab8938657b03fbdba8","6657922d74a8e5165543c8ef","979","stimuli/10100111.jpg"," ","","feedback_trial","1","","","","","","","","","","","","","","","","","","","","",""
"","","","","","image-keyboard-response","74","447112","0.0-49.0","632b9d9bc38454f47019295c","665500ab8938657b03fbdba8","6657922d74a8e5165543c8ef","2741","stimuli/2101001.jpg","1","","prediction_trial","2","","false","","2","false","true","false","false","false","false","[2,0]","101","001","0","","","","","","",""
"","","","","","image-keyboard-response","75","449156","0.0-50.0","632b9d9bc38454f47019295c","665500ab8938657b03fbdba8","6657922d74a8e5165543c8ef","2043","stimuli/21010012.jpg"," ","","feedback_trial","2","","","","","","","","","","","","","","","","","","","","",""
"","","","","","image-keyboard-response","76","452705","0.0-51.0","632b9d9bc38454f47019295c","665500ab8938657b03fbdba8","6657922d74a8e5165543c8ef","3548","stimuli/1110010.jpg","1","","prediction_trial","0","","false","","1","false","true","false","false","false","false","[1,0]","110","010","0","","","","","","",""
"","","","","","image-keyboard-response","77","453600","0.0-52.0","632b9d9bc38454f47019295c","665500ab8938657b03fbdba8","6657922d74a8e5165543c8ef","894","stimuli/11100100.jpg"," ","","feedback_trial","1","","","","","","","","","","","","","","","","","","","","",""
"","","","","","image-keyboard-response","78","455323","0.0-53.0","632b9d9bc38454f47019295c","665500ab8938657b03fbdba8","6657922d74a8e5165543c8ef","1722","stimuli/0110011.jpg","0","","prediction_trial","0","","true","","0","true","true","false","false","false","false","[0,1]","110","011","1","","","","","","",""
"","","","","","image-keyboard-response","79","456253","0.0-54.0","632b9d9bc38454f47019295c","665500ab8938657b03fbdba8","6657922d74a8e5165543c8ef","929","stimuli/01100110.jpg"," ","","feedback_trial","0","","","","","","","","","","","","","","","","","","","","",""
"","","","","","image-keyboard-response","80","458103","0.0-55.0","632b9d9bc38454f47019295c","665500ab8938657b03fbdba8","6657922d74a8e5165543c8ef","1849","stimuli/2101101.jpg","2","","prediction_trial","2","","true","","2","false","false","false","false","false","false","[0,2]","101","101","1","","","","","","",""
"","","","","","image-keyboard-response","81","459007","0.0-56.0","632b9d9bc38454f47019295c","665500ab8938657b03fbdba8","6657922d74a8e5165543c8ef","903","stimuli/21011012.jpg"," ","","feedback_trial","0","","","","","","","","","","","","","","","","","","","","",""
"","","","","","image-keyboard-response","82","460489","0.0-57.0","632b9d9bc38454f47019295c","665500ab8938657b03fbdba8","6657922d74a8e5165543c8ef","1481","stimuli/2011000.jpg","2","","prediction_trial","2","","true","","2","true","true","false","false","false","false","[2,1]","011","000","1","","","","","","",""
"","","","","","image-keyboard-response","83","461582","0.0-58.0","632b9d9bc38454f47019295c","665500ab8938657b03fbdba8","6657922d74a8e5165543c8ef","1092","stimuli/20110002.jpg"," ","","feedback_trial","2","","","","","","","","","","","","","","","","","","","","",""
"","","","","","image-keyboard-response","84","462919","0.0-59.0","632b9d9bc38454f47019295c","665500ab8938657b03fbdba8","6657922d74a8e5165543c8ef","1336","stimuli/2110010.jpg","2","","prediction_trial","2","","true","","2","true","true","true","true","true","true","[2]","110","010","1","","","","","","",""
"","","","","","image-keyboard-response","85","463689","0.0-60.0","632b9d9bc38454f47019295c","665500ab8938657b03fbdba8","6657922d74a8e5165543c8ef","770","stimuli/21100102.jpg"," ","","feedback_trial","2","","","","","","","","","","","","","","","","","","","","",""
"","","","","","image-keyboard-response","86","468653","0.0-61.0","632b9d9bc38454f47019295c","665500ab8938657b03fbdba8","6657922d74a8e5165543c8ef","4963","stimuli/0001101.jpg","0","","prediction_trial","0","","true","","0","false","false","true","true","false","false","[0]","001","101","1","","","","","","",""
"","","","","","image-keyboard-response","87","469397","0.0-62.0","632b9d9bc38454f47019295c","665500ab8938657b03fbdba8","6657922d74a8e5165543c8ef","743","stimuli/00011010.jpg"," ","","feedback_trial","0","","","","","","","","","","","","","","","","","","","","",""
"","","","","","image-keyboard-response","88","474497","0.0-63.0","632b9d9bc38454f47019295c","665500ab8938657b03fbdba8","6657922d74a8e5165543c8ef","5089","stimuli/2100101.jpg","0","","prediction_trial","2","","false","","2","false","false","true","true","false","false","[2]","100","101","0","","","","","","",""
"","","","","","image-keyboard-response","89","475507","0.0-64.0","632b9d9bc38454f47019295c","665500ab8938657b03fbdba8","6657922d74a8e5165543c8ef","1009","stimuli/21001012.jpg"," ","","feedback_trial","2","","","","","","","","","","","","","","","","","","","","",""
"","","","","","image-keyboard-response","90","480402","0.0-65.0","632b9d9bc38454f47019295c","665500ab8938657b03fbdba8","6657922d74a8e5165543c8ef","4893","stimuli/0000101.jpg","2","","prediction_trial","0","","false","","0","false","false","true","true","false","false","[0]","000","101","0","","","","","","",""
"","","","","","image-keyboard-response","91","481308","0.0-66.0","632b9d9bc38454f47019295c","665500ab8938657b03fbdba8","6657922d74a8e5165543c8ef","905","stimuli/00001010.jpg"," ","","feedback_trial","0","","","","","","","","","","","","","","","","","","","","",""
"","","","","","image-keyboard-response","92","487959","0.0-67.0","632b9d9bc38454f47019295c","665500ab8938657b03fbdba8","6657922d74a8e5165543c8ef","6650","stimuli/2010110.jpg","2","","prediction_trial","2","","true","","2","true","true","true","true","true","true","[2]","010","110","1","","","","","","",""
"","","","","","image-keyboard-response","93","489357","0.0-68.0","632b9d9bc38454f47019295c","665500ab8938657b03fbdba8","6657922d74a8e5165543c8ef","1397","stimuli/20101102.jpg"," ","","feedback_trial","2","","","","","","","","","","","","","","","","","","","","",""
"","","","","","image-keyboard-response","94","491255","0.0-69.0","632b9d9bc38454f47019295c","665500ab8938657b03fbdba8","6657922d74a8e5165543c8ef","1898","stimuli/1101111.jpg","1","","prediction_trial","1","","true","","1","false","false","true","true","false","false","[1]","101","111","1","","","","","","",""
"","","","","","image-keyboard-response","95","492143","0.0-70.0","632b9d9bc38454f47019295c","665500ab8938657b03fbdba8","6657922d74a8e5165543c8ef","886","stimuli/11011111.jpg"," ","","feedback_trial","1","","","","","","","","","","","","","","","","","","","","",""
"","","","","","image-keyboard-response","96","494160","0.0-71.0","632b9d9bc38454f47019295c","665500ab8938657b03fbdba8","6657922d74a8e5165543c8ef","2017","stimuli/1001111.jpg","0","","prediction_trial","1","","false","","1","false","false","true","true","false","false","[1]","001","111","0","","","","","","",""
"","","","","","image-keyboard-response","97","495246","0.0-72.0","632b9d9bc38454f47019295c","665500ab8938657b03fbdba8","6657922d74a8e5165543c8ef","1085","stimuli/10011111.jpg"," ","","feedback_trial","1","","","","","","","","","","","","","","","","","","","","",""
"","","","","","image-keyboard-response","98","498950","0.0-73.0","632b9d9bc38454f47019295c","665500ab8938657b03fbdba8","6657922d74a8e5165543c8ef","3703","stimuli/2110101.jpg","2","","prediction_trial","2","","true","","2","false","false","true","true","false","false","[2]","110","101","1","","","","","","",""
"","","","","","image-keyboard-response","99","500050","0.0-74.0","632b9d9bc38454f47019295c","665500ab8938657b03fbdba8","6657922d74a8e5165543c8ef","1099","stimuli/21101012.jpg"," ","","feedback_trial","2","","","","","","","","","","","","","","","","","","","","",""
"","","","","","image-keyboard-response","100","501976","0.0-75.0","632b9d9bc38454f47019295c","665500ab8938657b03fbdba8","6657922d74a8e5165543c8ef","1925","stimuli/0000111.jpg","1","","prediction_trial","0","","false","","0","false","false","true","true","false","false","[0]","000","111","0","","","","","","",""
"","","","","","image-keyboard-response","101","502855","0.0-76.0","632b9d9bc38454f47019295c","665500ab8938657b03fbdba8","6657922d74a8e5165543c8ef","878","stimuli/00001110.jpg"," ","","feedback_trial","0","","","","","","","","","","","","","","","","","","","","",""
"","","","","","image-keyboard-response","102","505800","0.0-77.0","632b9d9bc38454f47019295c","665500ab8938657b03fbdba8","6657922d74a8e5165543c8ef","2944","stimuli/0011110.jpg","0","","prediction_trial","0","","true","","0","false","false","true","true","false","false","[0]","011","110","1","","","","","","",""
"","","","","","image-keyboard-response","103","506849","0.0-78.0","632b9d9bc38454f47019295c","665500ab8938657b03fbdba8","6657922d74a8e5165543c8ef","1048","stimuli/00111100.jpg"," ","","feedback_trial","0","","","","","","","","","","","","","","","","","","","","",""
"","","","","","image-keyboard-response","104","508896","0.0-79.0","632b9d9bc38454f47019295c","665500ab8938657b03fbdba8","6657922d74a8e5165543c8ef","2046","stimuli/0111111.jpg","1","","prediction_trial","2","","false","","0","false","false","false","false","false","false","[1,0,2]","111","111","0","","","","","","",""
"","","","","","image-keyboard-response","105","509784","0.0-80.0","632b9d9bc38454f47019295c","665500ab8938657b03fbdba8","6657922d74a8e5165543c8ef","887","stimuli/01111112.jpg"," ","","feedback_trial","1","","","","","","","","","","","","","","","","","","","","",""
"","","","","","image-keyboard-response","106","511058","0.0-81.0","632b9d9bc38454f47019295c","665500ab8938657b03fbdba8","6657922d74a8e5165543c8ef","1274","stimuli/0110001.jpg","0","","prediction_trial","1","","false","","0","true","true","false","false","false","false","[0,1]","110","001","0","","","","","","",""
"","","","","","image-keyboard-response","107","513050","0.0-82.0","632b9d9bc38454f47019295c","665500ab8938657b03fbdba8","6657922d74a8e5165543c8ef","1991","stimuli/01100011.jpg"," ","","feedback_trial","0","","","","","","","","","","","","","","","","","","","","",""
"","","","","","image-keyboard-response","108","514510","0.0-83.0","632b9d9bc38454f47019295c","665500ab8938657b03fbdba8","6657922d74a8e5165543c8ef","1459","stimuli/0111000.jpg","0","","prediction_trial","0","","true","","0","true","true","false","false","false","false","[2,1,0]","111","000","1","","","","","","",""
"","","","","","image-keyboard-response","109","516090","0.0-84.0","632b9d9bc38454f47019295c","665500ab8938657b03fbdba8","6657922d74a8e5165543c8ef","1579","stimuli/01110000.jpg"," ","","feedback_trial","2","","","","","","","","","","","","","","","","","","","","",""
"","","","","","image-keyboard-response","110","517272","0.0-85.0","632b9d9bc38454f47019295c","665500ab8938657b03fbdba8","6657922d74a8e5165543c8ef","1181","stimuli/2010010.jpg","2","","prediction_trial","2","","true","","2","true","true","true","true","true","true","[2]","010","010","1","","","","","","",""
"","","","","","image-keyboard-response","111","518220","0.0-86.0","632b9d9bc38454f47019295c","665500ab8938657b03fbdba8","6657922d74a8e5165543c8ef","947","stimuli/20100102.jpg"," ","","feedback_trial","2","","","","","","","","","","","","","","","","","","","","",""
"","","","","","image-keyboard-response","112","521849","0.0-87.0","632b9d9bc38454f47019295c","665500ab8938657b03fbdba8","6657922d74a8e5165543c8ef","3628","stimuli/2111110.jpg","2","","prediction_trial","0","","false","","2","true","true","false","false","false","false","[0,2,1]","111","110","0","","","","","","",""
"","","","","","image-keyboard-response","113","523982","0.0-88.0","632b9d9bc38454f47019295c","665500ab8938657b03fbdba8","6657922d74a8e5165543c8ef","2132","stimuli/21111100.jpg"," ","","feedback_trial","0","","","","","","","","","","","","","","","","","","","","",""
"","","","","","image-keyboard-response","114","525894","0.0-89.0","632b9d9bc38454f47019295c","665500ab8938657b03fbdba8","6657922d74a8e5165543c8ef","1911","stimuli/1101011.jpg","1","","prediction_trial","1","","true","","1","false","false","true","true","false","false","[1]","101","011","1","","","","","","",""
"","","","","","image-keyboard-response","115","526815","0.0-90.0","632b9d9bc38454f47019295c","665500ab8938657b03fbdba8","6657922d74a8e5165543c8ef","921","stimuli/11010111.jpg"," ","","feedback_trial","1","","","","","","","","","","","","","","","","","","","","",""
"","","","","","image-keyboard-response","116","528116","0.0-91.0","632b9d9bc38454f47019295c","665500ab8938657b03fbdba8","6657922d74a8e5165543c8ef","1300","stimuli/1100001.jpg","1","","prediction_trial","1","","true","","1","true","true","true","true","true","true","[1]","100","001","1","","","","","","",""
"","","","","","image-keyboard-response","117","528984","0.0-92.0","632b9d9bc38454f47019295c","665500ab8938657b03fbdba8","6657922d74a8e5165543c8ef","867","stimuli/11000011.jpg"," ","","feedback_trial","1","","","","","","","","","","","","","","","","","","","","",""
"","","","","","image-keyboard-response","118","530174","0.0-93.0","632b9d9bc38454f47019295c","665500ab8938657b03fbdba8","6657922d74a8e5165543c8ef","1189","stimuli/2001100.jpg","2","","prediction_trial","2","","true","","2","true","true","false","true","false","true","[2]","001","100","1","","","","","","",""
"","","","","","image-keyboard-response","119","531130","0.0-94.0","632b9d9bc38454f47019295c","665500ab8938657b03fbdba8","6657922d74a8e5165543c8ef","956","stimuli/20011002.jpg"," ","","feedback_trial","2","","","","","","","","","","","","","","","","","","","","",""
"","","","","","image-keyboard-response","120","532388","0.0-95.0","632b9d9bc38454f47019295c","665500ab8938657b03fbdba8","6657922d74a8e5165543c8ef","1257","stimuli/2111010.jpg","2","","prediction_trial","2","","true","","2","true","true","false","false","false","false","[2,1,0]","111","010","1","","","","","","",""
"","","","","","image-keyboard-response","121","533279","0.0-96.0","632b9d9bc38454f47019295c","665500ab8938657b03fbdba8","6657922d74a8e5165543c8ef","891","stimuli/21110102.jpg"," ","","feedback_trial","2","","","","","","","","","","","","","","","","","","","","",""
"","","","","","image-keyboard-response","122","534414","0.0-97.0","632b9d9bc38454f47019295c","665500ab8938657b03fbdba8","6657922d74a8e5165543c8ef","1134","stimuli/0110000.jpg","0","","prediction_trial","1","","false","","0","true","true","false","false","false","false","[1,0]","110","000","0","","","","","","",""
"","","","","","image-keyboard-response","123","537173","0.0-98.0","632b9d9bc38454f47019295c","665500ab8938657b03fbdba8","6657922d74a8e5165543c8ef","2756","stimuli/01100001.jpg"," ","","feedback_trial","1","","","","","","","","","","","","","","","","","","","","",""
"","","","","","image-keyboard-response","124","538684","0.0-99.0","632b9d9bc38454f47019295c","665500ab8938657b03fbdba8","6657922d74a8e5165543c8ef","1510","stimuli/0010011.jpg","0","","prediction_trial","0","","true","","0","true","true","true","true","true","true","[0]","010","011","1","","","","","","",""
"","","","","","image-keyboard-response","125","540019","0.0-100.0","632b9d9bc38454f47019295c","665500ab8938657b03fbdba8","6657922d74a8e5165543c8ef","1334","stimuli/00100110.jpg"," ","","feedback_trial","0","","","","","","","","","","","","","","","","","","","","",""
"","","","","","image-keyboard-response","126","541759","0.0-101.0","632b9d9bc38454f47019295c","665500ab8938657b03fbdba8","6657922d74a8e5165543c8ef","1740","stimuli/0011010.jpg","0","","prediction_trial","0","","true","","0","true","true","true","true","true","true","[0]","011","010","1","","","","","","",""
"","","","","","image-keyboard-response","127","542647","0.0-102.0","632b9d9bc38454f47019295c","665500ab8938657b03fbdba8","6657922d74a8e5165543c8ef","887","stimuli/00110100.jpg"," ","","feedback_trial","0","","","","","","","","","","","","","","","","","","","","",""
"","","","","","image-keyboard-response","128","544142","0.0-103.0","632b9d9bc38454f47019295c","665500ab8938657b03fbdba8","6657922d74a8e5165543c8ef","1494","stimuli/0010010.jpg","0","","prediction_trial","0","","true","","0","true","true","true","true","true","true","[0]","010","010","1","","","","","","",""
"","","","","","image-keyboard-response","129","545228","0.0-104.0","632b9d9bc38454f47019295c","665500ab8938657b03fbdba8","6657922d74a8e5165543c8ef","1085","stimuli/00100100.jpg"," ","","feedback_trial","0","","","","","","","","","","","","","","","","","","","","",""
"","","","","","image-keyboard-response","130","546504","0.0-105.0","632b9d9bc38454f47019295c","665500ab8938657b03fbdba8","6657922d74a8e5165543c8ef","1275","stimuli/0001111.jpg","1","","prediction_trial","0","","false","","0","false","false","true","true","false","false","[0]","001","111","0","","","","","","",""
"","","","","","image-keyboard-response","131","547774","0.0-106.0","632b9d9bc38454f47019295c","665500ab8938657b03fbdba8","6657922d74a8e5165543c8ef","1268","stimuli/00011110.jpg"," ","","feedback_trial","0","","","","","","","","","","","","","","","","","","","","",""
"","","","","","image-keyboard-response","132","549171","0.0-107.0","632b9d9bc38454f47019295c","665500ab8938657b03fbdba8","6657922d74a8e5165543c8ef","1396","stimuli/2111001.jpg","2","","prediction_trial","2","","true","","2","false","true","false","false","false","false","[1,2,0]","111","001","1","","","","","","",""
"","","","","","image-keyboard-response","133","550055","0.0-108.0","632b9d9bc38454f47019295c","665500ab8938657b03fbdba8","6657922d74a8e5165543c8ef","883","stimuli/21110012.jpg"," ","","feedback_trial","1","","","","","","","","","","","","","","","","","","","","",""
"","","","","","image-keyboard-response","134","552478","0.0-109.0","632b9d9bc38454f47019295c","665500ab8938657b03fbdba8","6657922d74a8e5165543c8ef","2422","stimuli/2001001.jpg","2","","prediction_trial","2","","true","","2","false","true","false","true","false","true","[2]","001","001","1","","","","","","",""
"","","","","","image-keyboard-response","135","553397","0.0-110.0","632b9d9bc38454f47019295c","665500ab8938657b03fbdba8","6657922d74a8e5165543c8ef","918","stimuli/20010012.jpg"," ","","feedback_trial","2","","","","","","","","","","","","","","","","","","","","",""
"","","","","","image-keyboard-response","136","555235","0.0-111.0","632b9d9bc38454f47019295c","665500ab8938657b03fbdba8","6657922d74a8e5165543c8ef","1837","stimuli/0000000.jpg","0","","prediction_trial","0","","true","","0","true","true","true","true","true","true","[0]","000","000","1","","","","","","",""
"","","","","","image-keyboard-response","137","556448","0.0-112.0","632b9d9bc38454f47019295c","665500ab8938657b03fbdba8","6657922d74a8e5165543c8ef","1213","stimuli/00000000.jpg"," ","","feedback_trial","0","","","","","","","","","","","","","","","","","","","","",""
"","","","","","image-keyboard-response","138","559946","0.0-113.0","632b9d9bc38454f47019295c","665500ab8938657b03fbdba8","6657922d74a8e5165543c8ef","3496","stimuli/2101011.jpg","1","","prediction_trial","2","","false","","2","false","false","false","false","false","false","[2,0]","101","011","0","","","","","","",""
"","","","","","image-keyboard-response","139","560811","0.0-114.0","632b9d9bc38454f47019295c","665500ab8938657b03fbdba8","6657922d74a8e5165543c8ef","865","stimuli/21010112.jpg"," ","","feedback_trial","2","","","","","","","","","","","","","","","","","","","","",""
"","","","","","image-keyboard-response","140","562616","0.0-115.0","632b9d9bc38454f47019295c","665500ab8938657b03fbdba8","6657922d74a8e5165543c8ef","1803","stimuli/2100010.jpg","2","","prediction_trial","2","","true","","2","true","true","true","true","true","true","[2]","100","010","1","","","","","","",""
"","","","","","image-keyboard-response","141","563485","0.0-116.0","632b9d9bc38454f47019295c","665500ab8938657b03fbdba8","6657922d74a8e5165543c8ef","869","stimuli/21000102.jpg"," ","","feedback_trial","2","","","","","","","","","","","","","","","","","","","","",""
"","","","","","image-keyboard-response","142","564622","0.0-117.0","632b9d9bc38454f47019295c","665500ab8938657b03fbdba8","6657922d74a8e5165543c8ef","1136","stimuli/0010000.jpg","0","","prediction_trial","0","","true","","0","true","true","true","true","true","true","[0]","010","000","1","","","","","","",""
"","","","","","image-keyboard-response","143","565338","0.0-118.0","632b9d9bc38454f47019295c","665500ab8938657b03fbdba8","6657922d74a8e5165543c8ef","715","stimuli/00100000.jpg"," ","","feedback_trial","0","","","","","","","","","","","","","","","","","","","","",""
"","","","","","image-keyboard-response","144","566917","0.0-119.0","632b9d9bc38454f47019295c","665500ab8938657b03fbdba8","6657922d74a8e5165543c8ef","1578","stimuli/2111000.jpg","2","","prediction_trial","0","","false","","2","true","true","false","false","false","false","[1,2,0]","111","000","0","","","","","","",""
"","","","","","image-keyboard-response","145","569436","0.0-120.0","632b9d9bc38454f47019295c","665500ab8938657b03fbdba8","6657922d74a8e5165543c8ef","2518","stimuli/21110000.jpg"," ","","feedback_trial","1","","","","","","","","","","","","","","","","","","","","",""
"","","","","","image-keyboard-response","146","570766","0.0-121.0","632b9d9bc38454f47019295c","665500ab8938657b03fbdba8","6657922d74a8e5165543c8ef","1329","stimuli/1110100.jpg","1","","prediction_trial","1","","true","","1","true","true","false","false","false","false","[0,1]","110","100","1","","","","","","",""
"","","","","","image-keyboard-response","147","571575","0.0-122.0","632b9d9bc38454f47019295c","665500ab8938657b03fbdba8","6657922d74a8e5165543c8ef","809","stimuli/11101001.jpg"," ","","feedback_trial","0","","","","","","","","","","","","","","","","","","","","",""
"","","","","","image-keyboard-response","148","573497","0.0-123.0","632b9d9bc38454f47019295c","665500ab8938657b03fbdba8","6657922d74a8e5165543c8ef","1921","stimuli/1000110.jpg","0","","prediction_trial","1","","false","","1","false","false","true","true","false","false","[1]","000","110","0","","","","","","",""
"","","","","","image-keyboard-response","149","574492","0.0-124.0","632b9d9bc38454f47019295c","665500ab8938657b03fbdba8","6657922d74a8e5165543c8ef","994","stimuli/10001101.jpg"," ","","feedback_trial","1","","","","","","","","","","","","","","","","","","","","",""
"","","","","","image-keyboard-response","150","575752","0.0-125.0","632b9d9bc38454f47019295c","665500ab8938657b03fbdba8","6657922d74a8e5165543c8ef","1259","stimuli/2001010.jpg","2","","prediction_trial","2","","true","","2","true","true","false","true","false","true","[2]","001","010","1","","","","","","",""
"","","","","","image-keyboard-response","151","579015","0.0-126.0","632b9d9bc38454f47019295c","665500ab8938657b03fbdba8","6657922d74a8e5165543c8ef","3262","stimuli/20010102.jpg"," ","","feedback_trial","2","","","","","","","","","","","","","","","","","","","","",""
"","","","","","image-keyboard-response","152","582066","0.0-127.0","632b9d9bc38454f47019295c","665500ab8938657b03fbdba8","6657922d74a8e5165543c8ef","3050","stimuli/2110001.jpg","2","","prediction_trial","2","","true","","2","false","true","true","true","false","true","[2]","110","001","1","","","","","","",""
"","","","","","image-keyboard-response","153","582852","0.0-128.0","632b9d9bc38454f47019295c","665500ab8938657b03fbdba8","6657922d74a8e5165543c8ef","784","stimuli/21100012.jpg"," ","","feedback_trial","2","","","","","","","","","","","","","","","","","","","","",""
"","","","","","image-keyboard-response","154","585435","0.0-129.0","632b9d9bc38454f47019295c","665500ab8938657b03fbdba8","6657922d74a8e5165543c8ef","2583","stimuli/1010000.jpg","1","","prediction_trial","1","","true","","1","true","true","false","true","false","true","[1]","010","000","1","","","","","","",""
"","","","","","image-keyboard-response","155","586201","0.0-130.0","632b9d9bc38454f47019295c","665500ab8938657b03fbdba8","6657922d74a8e5165543c8ef","765","stimuli/10100001.jpg"," ","","feedback_trial","1","","","","","","","","","","","","","","","","","","","","",""
"","","","","","image-keyboard-response","156","587633","0.0-131.0","632b9d9bc38454f47019295c","665500ab8938657b03fbdba8","6657922d74a8e5165543c8ef","1431","stimuli/1000100.jpg","1","","prediction_trial","1","","true","","1","true","true","true","true","true","true","[1]","000","100","1","","","","","","",""
"","","","","","image-keyboard-response","157","591937","0.0-132.0","632b9d9bc38454f47019295c","665500ab8938657b03fbdba8","6657922d74a8e5165543c8ef","4303","stimuli/10001001.jpg"," ","","feedback_trial","1","","","","","","","","","","","","","","","","","","","","",""
"","","","","","image-keyboard-response","158","600195","0.0-133.0","632b9d9bc38454f47019295c","665500ab8938657b03fbdba8","6657922d74a8e5165543c8ef","8260","stimuli/0010001.jpg","0","","prediction_trial","0","","true","","0","true","true","true","true","true","true","[0]","010","001","1","","","","","","",""
"","","","","","image-keyboard-response","159","602837","0.0-134.0","632b9d9bc38454f47019295c","665500ab8938657b03fbdba8","6657922d74a8e5165543c8ef","2641","stimuli/00100010.jpg"," ","","feedback_trial","0","","","","","","","","","","","","","","","","","","","","",""
"","","","","","image-keyboard-response","160","610789","0.0-135.0","632b9d9bc38454f47019295c","665500ab8938657b03fbdba8","6657922d74a8e5165543c8ef","7951","stimuli/0100101.jpg","0","","prediction_trial","0","","true","","0","false","false","false","true","false","false","[0]","100","101","1","","","","","","",""
"","","","","","image-keyboard-response","161","614779","0.0-136.0","632b9d9bc38454f47019295c","665500ab8938657b03fbdba8","6657922d74a8e5165543c8ef","3989","stimuli/01001010.jpg"," ","","feedback_trial","0","","","","","","","","","","","","","","","","","","","","",""
"","","","","","image-keyboard-response","162","619114","0.0-137.0","632b9d9bc38454f47019295c","665500ab8938657b03fbdba8","6657922d74a8e5165543c8ef","4334","stimuli/1001011.jpg","1","","prediction_trial","1","","true","","1","false","false","true","true","false","false","[1]","001","011","1","","","","","","",""
"","","","","","image-keyboard-response","163","622339","0.0-138.0","632b9d9bc38454f47019295c","665500ab8938657b03fbdba8","6657922d74a8e5165543c8ef","3224","stimuli/10010111.jpg"," ","","feedback_trial","1","","","","","","","","","","","","","","","","","","","","",""
"","","","","","image-keyboard-response","164","625821","0.0-139.0","632b9d9bc38454f47019295c","665500ab8938657b03fbdba8","6657922d74a8e5165543c8ef","3481","stimuli/2011001.jpg","2","","prediction_trial","1","","false","","2","false","true","false","false","false","false","[2,1]","011","001","0","","","","","","",""
"","","","","","image-keyboard-response","165","628400","0.0-140.0","632b9d9bc38454f47019295c","665500ab8938657b03fbdba8","6657922d74a8e5165543c8ef","2578","stimuli/20110011.jpg"," ","","feedback_trial","2","","","","","","","","","","","","","","","","","","","","",""
"","","","","","image-keyboard-response","166","630807","0.0-141.0","632b9d9bc38454f47019295c","665500ab8938657b03fbdba8","6657922d74a8e5165543c8ef","2406","stimuli/1001110.jpg","1","","prediction_trial","1","","true","","1","false","false","true","true","false","false","[1]","001","110","1","","","","","","",""
"","","","","","image-keyboard-response","167","632017","0.0-142.0","632b9d9bc38454f47019295c","665500ab8938657b03fbdba8","6657922d74a8e5165543c8ef","1209","stimuli/10011101.jpg"," ","","feedback_trial","1","","","","","","","","","","","","","","","","","","","","",""
"","","","","","image-keyboard-response","168","634103","0.0-143.0","632b9d9bc38454f47019295c","665500ab8938657b03fbdba8","6657922d74a8e5165543c8ef","2086","stimuli/0101101.jpg","0","","prediction_trial","2","","false","","0","false","false","false","false","false","false","[2,0]","101","101","0","","","","","","",""
"","","","","","image-keyboard-response","169","635387","0.0-144.0","632b9d9bc38454f47019295c","665500ab8938657b03fbdba8","6657922d74a8e5165543c8ef","1282","stimuli/01011012.jpg"," ","","feedback_trial","2","","","","","","","","","","","","","","","","","","","","",""
"","","","","","image-keyboard-response","170","636934","0.0-145.0","632b9d9bc38454f47019295c","665500ab8938657b03fbdba8","6657922d74a8e5165543c8ef","1546","stimuli/2001000.jpg","2","","prediction_trial","2","","true","","2","true","true","false","true","false","true","[2]","001","000","1","","","","","","",""
"","","","","","image-keyboard-response","171","638122","0.0-146.0","632b9d9bc38454f47019295c","665500ab8938657b03fbdba8","6657922d74a8e5165543c8ef","1187","stimuli/20010002.jpg"," ","","feedback_trial","2","","","","","","","","","","","","","","","","","","","","",""
"","","","","","image-keyboard-response","172","640366","0.0-147.0","632b9d9bc38454f47019295c","665500ab8938657b03fbdba8","6657922d74a8e5165543c8ef","2243","stimuli/0100111.jpg","2","","prediction_trial","0","","false","","0","false","false","false","true","false","false","[0]","100","111","0","","","","","","",""
"","","","","","image-keyboard-response","173","643045","0.0-148.0","632b9d9bc38454f47019295c","665500ab8938657b03fbdba8","6657922d74a8e5165543c8ef","2678","stimuli/01001110.jpg"," ","","feedback_trial","0","","","","","","","","","","","","","","","","","","","","",""
"","","","","","image-keyboard-response","174","644564","0.0-149.0","632b9d9bc38454f47019295c","665500ab8938657b03fbdba8","6657922d74a8e5165543c8ef","1519","stimuli/2000000.jpg","2","","prediction_trial","2","","true","","2","true","true","true","true","true","true","[2]","000","000","1","","","","","","",""
"","","","","","image-keyboard-response","175","646817","0.0-150.0","632b9d9bc38454f47019295c","665500ab8938657b03fbdba8","6657922d74a8e5165543c8ef","2252","stimuli/20000002.jpg"," ","","feedback_trial","2","","","","","","","","","","","","","","","","","","","","",""
"","","","","","image-keyboard-response","176","648839","0.0-151.0","632b9d9bc38454f47019295c","665500ab8938657b03fbdba8","6657922d74a8e5165543c8ef","2021","stimuli/1011000.jpg","1","","prediction_trial","2","","false","","1","true","true","false","false","false","false","[1,2]","011","000","0","","","","","","",""
"","","","","","image-keyboard-response","177","650220","0.0-152.0","632b9d9bc38454f47019295c","665500ab8938657b03fbdba8","6657922d74a8e5165543c8ef","1381","stimuli/10110002.jpg"," ","","feedback_trial","1","","","","","","","","","","","","","","","","","","","","",""
"","","","","","image-keyboard-response","178","653787","0.0-153.0","632b9d9bc38454f47019295c","665500ab8938657b03fbdba8","6657922d74a8e5165543c8ef","3567","stimuli/1101110.jpg","1","","prediction_trial","1","","true","","1","false","false","true","true","false","false","[1]","101","110","1","","","","","","",""
"","","","","","image-keyboard-response","179","654852","0.0-154.0","632b9d9bc38454f47019295c","665500ab8938657b03fbdba8","6657922d74a8e5165543c8ef","1064","stimuli/11011101.jpg"," ","","feedback_trial","1","","","","","","","","","","","","","","","","","","","","",""
"","","","","","image-keyboard-response","180","656645","0.0-155.0","632b9d9bc38454f47019295c","665500ab8938657b03fbdba8","6657922d74a8e5165543c8ef","1792","stimuli/0100001.jpg","0","","prediction_trial","0","","true","","0","true","true","false","true","false","true","[0]","100","001","1","","","","","","",""
"","","","","","image-keyboard-response","181","657807","0.0-156.0","632b9d9bc38454f47019295c","665500ab8938657b03fbdba8","6657922d74a8e5165543c8ef","1161","stimuli/01000010.jpg"," ","","feedback_trial","0","","","","","","","","","","","","","","","","","","","","",""
"","","","","","image-keyboard-response","182","659189","0.0-157.0","632b9d9bc38454f47019295c","665500ab8938657b03fbdba8","6657922d74a8e5165543c8ef","1380","stimuli/1001100.jpg","1","","prediction_trial","1","","true","","1","true","true","true","true","true","true","[1]","001","100","1","","","","","","",""
"","","","","","image-keyboard-response","183","660166","0.0-158.0","632b9d9bc38454f47019295c","665500ab8938657b03fbdba8","6657922d74a8e5165543c8ef","977","stimuli/10011001.jpg"," ","","feedback_trial","1","","","","","","","","","","","","","","","","","","","","",""
"","","","","","image-keyboard-response","184","662017","0.0-159.0","632b9d9bc38454f47019295c","665500ab8938657b03fbdba8","6657922d74a8e5165543c8ef","1847","stimuli/2101111.jpg","1","","prediction_trial","2","","false","","2","false","false","false","false","false","false","[2,0]","101","111","0","","","","","","",""
"","","","","","image-keyboard-response","185","663517","0.0-160.0","632b9d9bc38454f47019295c","665500ab8938657b03fbdba8","6657922d74a8e5165543c8ef","1499","stimuli/21011112.jpg"," ","","feedback_trial","2","","","","","","","","","","","","","","","","","","","","",""
"","","","","","image-keyboard-response","186","665986","0.0-161.0","632b9d9bc38454f47019295c","665500ab8938657b03fbdba8","6657922d74a8e5165543c8ef","2468","stimuli/0000100.jpg","0","","prediction_trial","0","","true","","0","false","true","true","true","false","true","[0]","000","100","1","","","","","","",""
"","","","","","image-keyboard-response","187","667124","0.0-162.0","632b9d9bc38454f47019295c","665500ab8938657b03fbdba8","6657922d74a8e5165543c8ef","1137","stimuli/00001000.jpg"," ","","feedback_trial","0","","","","","","","","","","","","","","","","","","","","",""
"","","","","","image-keyboard-response","188","673335","0.0-163.0","632b9d9bc38454f47019295c","665500ab8938657b03fbdba8","6657922d74a8e5165543c8ef","6210","stimuli/0101110.jpg","0","","prediction_trial","0","","true","","0","false","false","false","false","false","false","[2,0]","101","110","1","","","","","","",""
"","","","","","image-keyboard-response","189","674716","0.0-164.0","632b9d9bc38454f47019295c","665500ab8938657b03fbdba8","6657922d74a8e5165543c8ef","1379","stimuli/01011100.jpg"," ","","feedback_trial","2","","","","","","","","","","","","","","","","","","","","",""
"","","","","","image-keyboard-response","190","678823","0.0-165.0","632b9d9bc38454f47019295c","665500ab8938657b03fbdba8","6657922d74a8e5165543c8ef","4107","stimuli/2001101.jpg","2","","prediction_trial","2","","true","","2","false","false","false","true","false","false","[2]","001","101","1","","","","","","",""
"","","","","","image-keyboard-response","191","680033","0.0-166.0","632b9d9bc38454f47019295c","665500ab8938657b03fbdba8","6657922d74a8e5165543c8ef","1209","stimuli/20011012.jpg"," ","","feedback_trial","2","","","","","","","","","","","","","","","","","","","","",""
"","","","","","image-keyboard-response","192","684603","0.0-167.0","632b9d9bc38454f47019295c","665500ab8938657b03fbdba8","6657922d74a8e5165543c8ef","4569","stimuli/0001110.jpg","0","","prediction_trial","0","","true","","0","false","false","true","true","false","false","[0]","001","110","1","","","","","","",""
"","","","","","image-keyboard-response","193","685883","0.0-168.0","632b9d9bc38454f47019295c","665500ab8938657b03fbdba8","6657922d74a8e5165543c8ef","1279","stimuli/00011100.jpg"," ","","feedback_trial","0","","","","","","","","","","","","","","","","","","","","",""
"","","","","","image-keyboard-response","194","691311","0.0-169.0","632b9d9bc38454f47019295c","665500ab8938657b03fbdba8","6657922d74a8e5165543c8ef","5427","stimuli/1000011.jpg","1","","prediction_trial","1","","true","","1","false","false","true","true","false","false","[1]","000","011","1","","","","","","",""
"","","","","","image-keyboard-response","195","692260","0.0-170.0","632b9d9bc38454f47019295c","665500ab8938657b03fbdba8","6657922d74a8e5165543c8ef","947","stimuli/10000111.jpg"," ","","feedback_trial","1","","","","","","","","","","","","","","","","","","","","",""
"","","","","","image-keyboard-response","196","694080","0.0-171.0","632b9d9bc38454f47019295c","665500ab8938657b03fbdba8","6657922d74a8e5165543c8ef","1820","stimuli/0111011.jpg","0","","prediction_trial","1","","false","","0","true","true","false","false","false","false","[0,2,1]","111","011","0","","","","","","",""
"","","","","","image-keyboard-response","197","695475","0.0-172.0","632b9d9bc38454f47019295c","665500ab8938657b03fbdba8","6657922d74a8e5165543c8ef","1394","stimuli/01110111.jpg"," ","","feedback_trial","0","","","","","","","","","","","","","","","","","","","","",""
"","","","","","image-keyboard-response","198","697414","0.0-173.0","632b9d9bc38454f47019295c","665500ab8938657b03fbdba8","6657922d74a8e5165543c8ef","1937","stimuli/0101011.jpg","0","","prediction_trial","2","","false","","0","true","true","false","false","false","false","[0,2]","101","011","0","","","","","","",""
"","","","","","image-keyboard-response","199","698765","0.0-174.0","632b9d9bc38454f47019295c","665500ab8938657b03fbdba8","6657922d74a8e5165543c8ef","1351","stimuli/01010112.jpg"," ","","feedback_trial","0","","","","","","","","","","","","","","","","","","","","",""
"","","","","","image-keyboard-response","200","700458","0.0-175.0","632b9d9bc38454f47019295c","665500ab8938657b03fbdba8","6657922d74a8e5165543c8ef","1691","stimuli/1000010.jpg","1","","prediction_trial","1","","true","","1","false","true","true","true","false","true","[1]","000","010","1","","","","","","",""
"","","","","","image-keyboard-response","201","701576","0.0-176.0","632b9d9bc38454f47019295c","665500ab8938657b03fbdba8","6657922d74a8e5165543c8ef","1117","stimuli/10000101.jpg"," ","","feedback_trial","1","","","","","","","","","","","","","","","","","","","","",""
"","","","","","image-keyboard-response","202","703391","0.0-177.0","632b9d9bc38454f47019295c","665500ab8938657b03fbdba8","6657922d74a8e5165543c8ef","1814","stimuli/0101010.jpg","0","","prediction_trial","0","","true","","0","true","true","false","false","false","false","[2,0]","101","010","1","","","","","","",""
"","","","","","image-keyboard-response","203","704359","0.0-178.0","632b9d9bc38454f47019295c","665500ab8938657b03fbdba8","6657922d74a8e5165543c8ef","966","stimuli/01010100.jpg"," ","","feedback_trial","2","","","","","","","","","","","","","","","","","","","","",""
"","","","","","image-keyboard-response","204","708779","0.0-179.0","632b9d9bc38454f47019295c","665500ab8938657b03fbdba8","6657922d74a8e5165543c8ef","4419","stimuli/1110111.jpg","2","","prediction_trial","0","","false","","1","false","false","false","false","false","false","[0,1]","110","111","0","","","","","","",""
"","","","","","image-keyboard-response","205","711747","0.0-180.0","632b9d9bc38454f47019295c","665500ab8938657b03fbdba8","6657922d74a8e5165543c8ef","2967","stimuli/11101110.jpg"," ","","feedback_trial","0","","","","","","","","","","","","","","","","","","","","",""
"","","","","","image-keyboard-response","206","713356","0.0-181.0","632b9d9bc38454f47019295c","665500ab8938657b03fbdba8","6657922d74a8e5165543c8ef","1607","stimuli/1111101.jpg","1","","prediction_trial","1","","true","","1","true","true","false","false","false","false","[0,2,1]","111","101","1","","","","","","",""
"","","","","","image-keyboard-response","207","714318","0.0-182.0","632b9d9bc38454f47019295c","665500ab8938657b03fbdba8","6657922d74a8e5165543c8ef","962","stimuli/11111011.jpg"," ","","feedback_trial","0","","","","","","","","","","","","","","","","","","","","",""
"","","","","","image-keyboard-response","208","715739","0.0-183.0","632b9d9bc38454f47019295c","665500ab8938657b03fbdba8","6657922d74a8e5165543c8ef","1420","stimuli/2100110.jpg","2","","prediction_trial","2","","true","","2","true","true","true","true","true","true","[2]","100","110","1","","","","","","",""
"","","","","","image-keyboard-response","209","717006","0.0-184.0","632b9d9bc38454f47019295c","665500ab8938657b03fbdba8","6657922d74a8e5165543c8ef","1266","stimuli/21001102.jpg"," ","","feedback_trial","2","","","","","","","","","","","","","","","","","","","","",""
"","","","","","image-keyboard-response","210","718508","0.0-185.0","632b9d9bc38454f47019295c","665500ab8938657b03fbdba8","6657922d74a8e5165543c8ef","1501","stimuli/2100000.jpg","2","","prediction_trial","2","","true","","2","true","true","true","true","true","true","[2]","100","000","1","","","","","","",""
"","","","","","image-keyboard-response","211","719571","0.0-186.0","632b9d9bc38454f47019295c","665500ab8938657b03fbdba8","6657922d74a8e5165543c8ef","1061","stimuli/21000002.jpg"," ","","feedback_trial","2","","","","","","","","","","","","","","","","","","","","",""
"","","","","","image-keyboard-response","212","721980","0.0-187.0","632b9d9bc38454f47019295c","665500ab8938657b03fbdba8","6657922d74a8e5165543c8ef","2414","stimuli/0011100.jpg","0","","prediction_trial","0","","true","","0","false","true","true","true","false","true","[0]","011","100","1","","","","","","",""
"","","","","","image-keyboard-response","213","723113","0.0-188.0","632b9d9bc38454f47019295c","665500ab8938657b03fbdba8","6657922d74a8e5165543c8ef","1133","stimuli/00111000.jpg"," ","","feedback_trial","0","","","","","","","","","","","","","","","","","","","","",""
"","","","","","image-keyboard-response","214","725499","0.0-189.0","632b9d9bc38454f47019295c","665500ab8938657b03fbdba8","6657922d74a8e5165543c8ef","2386","stimuli/2000101.jpg","2","","prediction_trial","2","","true","","2","false","false","true","true","false","false","[2]","000","101","1","","","","","","",""
"","","","","","image-keyboard-response","215","726438","0.0-190.0","632b9d9bc38454f47019295c","665500ab8938657b03fbdba8","6657922d74a8e5165543c8ef","937","stimuli/20001012.jpg"," ","","feedback_trial","2","","","","","","","","","","","","","","","","","","","","",""
"","","","","","image-keyboard-response","216","727961","0.0-191.0","632b9d9bc38454f47019295c","665500ab8938657b03fbdba8","6657922d74a8e5165543c8ef","1523","stimuli/0001011.jpg","0","","prediction_trial","0","","true","","0","true","true","true","true","true","true","[0]","001","011","1","","","","","","",""
"","","","","","image-keyboard-response","217","729227","0.0-192.0","632b9d9bc38454f47019295c","665500ab8938657b03fbdba8","6657922d74a8e5165543c8ef","1265","stimuli/00010110.jpg"," ","","feedback_trial","0","","","","","","","","","","","","","","","","","","","","",""
"","","","","","image-keyboard-response","218","733436","0.0-193.0","632b9d9bc38454f47019295c","665500ab8938657b03fbdba8","6657922d74a8e5165543c8ef","4208","stimuli/1110011.jpg","2","","prediction_trial","1","","false","","1","false","false","false","false","false","false","[1,0]","110","011","0","","","","","","",""
"","","","","","image-keyboard-response","219","734782","0.0-194.0","632b9d9bc38454f47019295c","665500ab8938657b03fbdba8","6657922d74a8e5165543c8ef","1345","stimuli/11100111.jpg"," ","","feedback_trial","1","","","","","","","","","","","","","","","","","","","","",""
"","","","","","image-keyboard-response","220","736262","0.0-195.0","632b9d9bc38454f47019295c","665500ab8938657b03fbdba8","6657922d74a8e5165543c8ef","1479","stimuli/1101001.jpg","1","","prediction_trial","1","","true","","1","true","true","true","true","true","true","[1]","101","001","1","","","","","","",""
"","","","","","image-keyboard-response","221","737195","0.0-196.0","632b9d9bc38454f47019295c","665500ab8938657b03fbdba8","6657922d74a8e5165543c8ef","933","stimuli/11010011.jpg"," ","","feedback_trial","1","","","","","","","","","","","","","","","","","","","","",""
"","","","","","image-keyboard-response","222","739467","0.0-197.0","632b9d9bc38454f47019295c","665500ab8938657b03fbdba8","6657922d74a8e5165543c8ef","2271","stimuli/2101010.jpg","2","","prediction_trial","0","","false","","2","true","true","false","false","false","false","[2,0]","101","010","0","","","","","","",""
"","","","","","image-keyboard-response","223","740732","0.0-198.0","632b9d9bc38454f47019295c","665500ab8938657b03fbdba8","6657922d74a8e5165543c8ef","1264","stimuli/21010100.jpg"," ","","feedback_trial","2","","","","","","","","","","","","","","","","","","","","",""
"","","","","","image-keyboard-response","224","742040","0.0-199.0","632b9d9bc38454f47019295c","665500ab8938657b03fbdba8","6657922d74a8e5165543c8ef","1307","stimuli/1101100.jpg","1","","prediction_trial","1","","true","","1","true","true","true","true","true","true","[1]","101","100","1","","","","","","",""
"","","","","","image-keyboard-response","225","742936","0.0-200.0","632b9d9bc38454f47019295c","665500ab8938657b03fbdba8","6657922d74a8e5165543c8ef","895","stimuli/11011001.jpg"," ","","feedback_trial","1","","","","","","","","","","","","","","","","","","","","",""
"","","","","","image-keyboard-response","226","746259","0.0-201.0","632b9d9bc38454f47019295c","665500ab8938657b03fbdba8","6657922d74a8e5165543c8ef","3323","stimuli/1000111.jpg","0","","prediction_trial","1","","false","","1","false","false","true","true","false","false","[1]","000","111","0","","","","","","",""
"","","","","","image-keyboard-response","227","748725","0.0-202.0","632b9d9bc38454f47019295c","665500ab8938657b03fbdba8","6657922d74a8e5165543c8ef","2466","stimuli/10001111.jpg"," ","","feedback_trial","1","","","","","","","","","","","","","","","","","","","","",""
"","","","","","image-keyboard-response","228","751047","0.0-203.0","632b9d9bc38454f47019295c","665500ab8938657b03fbdba8","6657922d74a8e5165543c8ef","2321","stimuli/2011101.jpg","2","","prediction_trial","2","","true","","2","false","false","false","false","false","false","[2,1]","011","101","1","","","","","","",""
"","","","","","image-keyboard-response","229","751991","0.0-204.0","632b9d9bc38454f47019295c","665500ab8938657b03fbdba8","6657922d74a8e5165543c8ef","943","stimuli/20111012.jpg"," ","","feedback_trial","2","","","","","","","","","","","","","","","","","","","","",""
"","","","","","image-keyboard-response","230","753463","0.0-205.0","632b9d9bc38454f47019295c","665500ab8938657b03fbdba8","6657922d74a8e5165543c8ef","1471","stimuli/0001001.jpg","0","","prediction_trial","0","","true","","0","true","true","true","true","true","true","[0]","001","001","1","","","","","","",""
"","","","","","image-keyboard-response","231","754407","0.0-206.0","632b9d9bc38454f47019295c","665500ab8938657b03fbdba8","6657922d74a8e5165543c8ef","944","stimuli/00010010.jpg"," ","","feedback_trial","0","","","","","","","","","","","","","","","","","","","","",""
"","","","","","image-keyboard-response","232","756041","0.0-207.0","632b9d9bc38454f47019295c","665500ab8938657b03fbdba8","6657922d74a8e5165543c8ef","1633","stimuli/1110001.jpg","1","","prediction_trial","0","","false","","1","true","true","false","false","false","false","[1,0]","110","001","0","","","","","","",""
"","","","","","image-keyboard-response","233","757234","0.0-208.0","632b9d9bc38454f47019295c","665500ab8938657b03fbdba8","6657922d74a8e5165543c8ef","1192","stimuli/11100010.jpg"," ","","feedback_trial","1","","","","","","","","","","","","","","","","","","","","",""
"","","","","","image-keyboard-response","234","758590","0.0-209.0","632b9d9bc38454f47019295c","665500ab8938657b03fbdba8","6657922d74a8e5165543c8ef","1355","stimuli/0000010.jpg","0","","prediction_trial","0","","true","","0","true","true","true","true","true","true","[0]","000","010","1","","","","","","",""
"","","","","","image-keyboard-response","235","759835","0.0-210.0","632b9d9bc38454f47019295c","665500ab8938657b03fbdba8","6657922d74a8e5165543c8ef","1244","stimuli/00000100.jpg"," ","","feedback_trial","0","","","","","","","","","","","","","","","","","","","","",""
"","","","","","image-keyboard-response","236","761299","0.0-211.0","632b9d9bc38454f47019295c","665500ab8938657b03fbdba8","6657922d74a8e5165543c8ef","1463","stimuli/2000100.jpg","2","","prediction_trial","2","","true","","2","true","true","true","true","true","true","[2]","000","100","1","","","","","","",""
"","","","","","image-keyboard-response","237","763605","0.0-212.0","632b9d9bc38454f47019295c","665500ab8938657b03fbdba8","6657922d74a8e5165543c8ef","2304","stimuli/20001002.jpg"," ","","feedback_trial","2","","","","","","","","","","","","","","","","","","","","",""
"","","","","","image-keyboard-response","238","765490","0.0-213.0","632b9d9bc38454f47019295c","665500ab8938657b03fbdba8","6657922d74a8e5165543c8ef","1885","stimuli/1100101.jpg","1","","prediction_trial","1","","true","","1","true","true","true","true","true","true","[1]","100","101","1","","","","","","",""
"","","","","","image-keyboard-response","239","766997","0.0-214.0","632b9d9bc38454f47019295c","665500ab8938657b03fbdba8","6657922d74a8e5165543c8ef","1506","stimuli/11001011.jpg"," ","","feedback_trial","1","","","","","","","","","","","","","","","","","","","","",""
"","","","","","image-keyboard-response","240","768415","0.0-215.0","632b9d9bc38454f47019295c","665500ab8938657b03fbdba8","6657922d74a8e5165543c8ef","1417","stimuli/0001000.jpg","0","","prediction_trial","0","","true","","0","true","true","true","true","true","true","[0]","001","000","1","","","","","","",""
"","","","","","image-keyboard-response","241","769493","0.0-216.0","632b9d9bc38454f47019295c","665500ab8938657b03fbdba8","6657922d74a8e5165543c8ef","1078","stimuli/00010000.jpg"," ","","feedback_trial","0","","","","","","","","","","","","","","","","","","","","",""
"","","","","","image-keyboard-response","242","771765","0.0-217.0","632b9d9bc38454f47019295c","665500ab8938657b03fbdba8","6657922d74a8e5165543c8ef","2271","stimuli/1111110.jpg","1","","prediction_trial","1","","true","","1","false","false","false","false","false","false","[2,1,0]","111","110","1","","","","","","",""
"","","","","","image-keyboard-response","243","772906","0.0-218.0","632b9d9bc38454f47019295c","665500ab8938657b03fbdba8","6657922d74a8e5165543c8ef","1140","stimuli/11111101.jpg"," ","","feedback_trial","2","","","","","","","","","","","","","","","","","","","","",""
"","","","","","image-keyboard-response","244","774192","0.0-219.0","632b9d9bc38454f47019295c","665500ab8938657b03fbdba8","6657922d74a8e5165543c8ef","1285","stimuli/2101110.jpg","2","","prediction_trial","2","","true","","2","true","true","false","false","false","false","[0,2]","101","110","1","","","","","","",""
"","","","","","image-keyboard-response","245","775106","0.0-220.0","632b9d9bc38454f47019295c","665500ab8938657b03fbdba8","6657922d74a8e5165543c8ef","913","stimuli/21011102.jpg"," ","","feedback_trial","0","","","","","","","","","","","","","","","","","","","","",""
"","","","","","image-keyboard-response","246","776944","0.0-221.0","632b9d9bc38454f47019295c","665500ab8938657b03fbdba8","6657922d74a8e5165543c8ef","1837","stimuli/0101100.jpg","0","","prediction_trial","2","","false","","0","false","true","false","false","false","false","[0,2]","101","100","0","","","","","","",""
"","","","","","image-keyboard-response","247","779186","0.0-222.0","632b9d9bc38454f47019295c","665500ab8938657b03fbdba8","6657922d74a8e5165543c8ef","2241","stimuli/01011002.jpg"," ","","feedback_trial","0","","","","","","","","","","","","","","","","","","","","",""
"","","","","","image-keyboard-response","248","780556","0.0-223.0","632b9d9bc38454f47019295c","665500ab8938657b03fbdba8","6657922d74a8e5165543c8ef","1369","stimuli/2110100.jpg","2","","prediction_trial","2","","true","","2","true","true","true","true","true","true","[2]","110","100","1","","","","","","",""
"","","","","","image-keyboard-response","249","784246","0.0-224.0","632b9d9bc38454f47019295c","665500ab8938657b03fbdba8","6657922d74a8e5165543c8ef","3682","stimuli/21101002.jpg"," ","","feedback_trial","2","","","","","","","","","","","","","","","","","","","","",""
"","","","","","image-keyboard-response","250","786606","0.0-225.0","632b9d9bc38454f47019295c","665500ab8938657b03fbdba8","6657922d74a8e5165543c8ef","2360","stimuli/0011101.jpg","0","","prediction_trial","0","","true","","0","false","false","true","true","false","false","[0]","011","101","1","","","","","","",""
"","","","","","image-keyboard-response","251","787642","0.0-226.0","632b9d9bc38454f47019295c","665500ab8938657b03fbdba8","6657922d74a8e5165543c8ef","1035","stimuli/00111010.jpg"," ","","feedback_trial","0","","","","","","","","","","","","","","","","","","","","",""
"","","","","","image-keyboard-response","252","790575","0.0-227.0","632b9d9bc38454f47019295c","665500ab8938657b03fbdba8","6657922d74a8e5165543c8ef","2932","stimuli/1011010.jpg","1","","prediction_trial","1","","true","","1","false","true","false","false","false","false","[2,1]","011","010","1","","","","","","",""
"","","","","","image-keyboard-response","253","791501","0.0-228.0","632b9d9bc38454f47019295c","665500ab8938657b03fbdba8","6657922d74a8e5165543c8ef","926","stimuli/10110101.jpg"," ","","feedback_trial","2","","","","","","","","","","","","","","","","","","","","",""
"","","","","","image-keyboard-response","254","792995","0.0-229.0","632b9d9bc38454f47019295c","665500ab8938657b03fbdba8","6657922d74a8e5165543c8ef","1493","stimuli/2100100.jpg","2","","prediction_trial","2","","true","","2","true","true","true","true","true","true","[2]","100","100","1","","","","","","",""
"","","","","","image-keyboard-response","255","793975","0.0-230.0","632b9d9bc38454f47019295c","665500ab8938657b03fbdba8","6657922d74a8e5165543c8ef","978","stimuli/21001002.jpg"," ","","feedback_trial","2","","","","","","","","","","","","","","","","","","","","",""
"","","","","","image-keyboard-response","256","795751","0.0-231.0","632b9d9bc38454f47019295c","665500ab8938657b03fbdba8","6657922d74a8e5165543c8ef","1775","stimuli/2011100.jpg","2","","prediction_trial","1","","false","","2","true","true","false","false","false","false","[2,1]","011","100","0","","","","","","",""
"","","","","","image-keyboard-response","257","797048","0.0-232.0","632b9d9bc38454f47019295c","665500ab8938657b03fbdba8","6657922d74a8e5165543c8ef","1297","stimuli/20111001.jpg"," ","","feedback_trial","2","","","","","","","","","","","","","","","","","","","","",""
"","","","","","image-keyboard-response","258","799275","0.0-233.0","632b9d9bc38454f47019295c","665500ab8938657b03fbdba8","6657922d74a8e5165543c8ef","2226","stimuli/0111100.jpg","0","","prediction_trial","0","","true","","0","false","true","false","false","false","false","[1,0,2]","111","100","1","","","","","","",""
"","","","","","image-keyboard-response","259","800415","0.0-234.0","632b9d9bc38454f47019295c","665500ab8938657b03fbdba8","6657922d74a8e5165543c8ef","1139","stimuli/01111000.jpg"," ","","feedback_trial","1","","","","","","","","","","","","","","","","","","","","",""
"","","","","","image-keyboard-response","260","801994","0.0-235.0","632b9d9bc38454f47019295c","665500ab8938657b03fbdba8","6657922d74a8e5165543c8ef","1578","stimuli/2101100.jpg","2","","prediction_trial","2","","true","","2","true","true","false","false","false","false","[2,0]","101","100","1","","","","","","",""
"","","","","","image-keyboard-response","261","803196","0.0-236.0","632b9d9bc38454f47019295c","665500ab8938657b03fbdba8","6657922d74a8e5165543c8ef","1201","stimuli/21011002.jpg"," ","","feedback_trial","2","","","","","","","","","","","","","","","","","","","","",""
"","","","","","image-keyboard-response","262","805507","0.0-237.0","632b9d9bc38454f47019295c","665500ab8938657b03fbdba8","6657922d74a8e5165543c8ef","2310","stimuli/2010011.jpg","1","","prediction_trial","2","","false","","2","false","false","true","true","false","false","[2]","010","011","0","","","","","","",""
"","","","","","image-keyboard-response","263","807848","0.0-238.0","632b9d9bc38454f47019295c","665500ab8938657b03fbdba8","6657922d74a8e5165543c8ef","2341","stimuli/20100112.jpg"," ","","feedback_trial","2","","","","","","","","","","","","","","","","","","","","",""
"","","","","","image-keyboard-response","264","809132","0.0-239.0","632b9d9bc38454f47019295c","665500ab8938657b03fbdba8","6657922d74a8e5165543c8ef","1283","stimuli/2110000.jpg","2","","prediction_trial","2","","true","","2","true","true","true","true","true","true","[2]","110","000","1","","","","","","",""
"","","","","","image-keyboard-response","265","810627","0.0-240.0","632b9d9bc38454f47019295c","665500ab8938657b03fbdba8","6657922d74a8e5165543c8ef","1494","stimuli/21100002.jpg"," ","","feedback_trial","2","","","","","","","","","","","","","","","","","","","","",""
"","","","","","image-keyboard-response","266","812763","0.0-241.0","632b9d9bc38454f47019295c","665500ab8938657b03fbdba8","6657922d74a8e5165543c8ef","2135","stimuli/2000110.jpg","2","","prediction_trial","2","","true","","2","true","true","true","true","true","true","[2]","000","110","1","","","","","","",""
"","","","","","image-keyboard-response","267","814326","0.0-242.0","632b9d9bc38454f47019295c","665500ab8938657b03fbdba8","6657922d74a8e5165543c8ef","1563","stimuli/20001102.jpg"," ","","feedback_trial","2","","","","","","","","","","","","","","","","","","","","",""
"","","","","","image-keyboard-response","268","816597","0.0-243.0","632b9d9bc38454f47019295c","665500ab8938657b03fbdba8","6657922d74a8e5165543c8ef","2271","stimuli/0110010.jpg","0","","prediction_trial","0","","true","","0","true","true","false","false","false","false","[0,1]","110","010","1","","","","","","",""
"","","","","","image-keyboard-response","269","817633","0.0-244.0","632b9d9bc38454f47019295c","665500ab8938657b03fbdba8","6657922d74a8e5165543c8ef","1035","stimuli/01100100.jpg"," ","","feedback_trial","0","","","","","","","","","","","","","","","","","","","","",""
"","","","","","image-keyboard-response","270","820208","0.0-245.0","632b9d9bc38454f47019295c","665500ab8938657b03fbdba8","6657922d74a8e5165543c8ef","2573","stimuli/1010110.jpg","1","","prediction_trial","1","","true","","1","false","false","false","true","false","false","[1]","010","110","1","","","","","","",""
"","","","","","image-keyboard-response","271","821439","0.0-246.0","632b9d9bc38454f47019295c","665500ab8938657b03fbdba8","6657922d74a8e5165543c8ef","1230","stimuli/10101101.jpg"," ","","feedback_trial","1","","","","","","","","","","","","","","","","","","","","",""
"","","","","","image-keyboard-response","272","824595","0.0-247.0","632b9d9bc38454f47019295c","665500ab8938657b03fbdba8","6657922d74a8e5165543c8ef","3155","stimuli/2001011.jpg","2","","prediction_trial","2","","true","","2","false","false","false","true","false","false","[2]","001","011","1","","","","","","",""
"","","","","","image-keyboard-response","273","825670","0.0-248.0","632b9d9bc38454f47019295c","665500ab8938657b03fbdba8","6657922d74a8e5165543c8ef","1074","stimuli/20010112.jpg"," ","","feedback_trial","2","","","","","","","","","","","","","","","","","","","","",""
"","","","","","image-keyboard-response","274","827895","0.0-249.0","632b9d9bc38454f47019295c","665500ab8938657b03fbdba8","6657922d74a8e5165543c8ef","2224","stimuli/2111011.jpg","1","","prediction_trial","2","","false","","2","false","false","false","false","false","false","[2,0,1]","111","011","0","","","","","","",""
"","","","","","image-keyboard-response","275","830147","0.0-250.0","632b9d9bc38454f47019295c","665500ab8938657b03fbdba8","6657922d74a8e5165543c8ef","2251","stimuli/21110112.jpg"," ","","feedback_trial","2","","","","","","","","","","","","","","","","","","","","",""
"","","","","","image-keyboard-response","276","834518","0.0-251.0","632b9d9bc38454f47019295c","665500ab8938657b03fbdba8","6657922d74a8e5165543c8ef","4370","stimuli/2100001.jpg","2","","prediction_trial","2","","true","","2","false","true","true","true","false","true","[2]","100","001","1","","","","","","",""
"","","","","","image-keyboard-response","277","835606","0.0-252.0","632b9d9bc38454f47019295c","665500ab8938657b03fbdba8","6657922d74a8e5165543c8ef","1087","stimuli/21000012.jpg"," ","","feedback_trial","2","","","","","","","","","","","","","","","","","","","","",""
"","","","","","image-keyboard-response","278","837134","0.0-253.0","632b9d9bc38454f47019295c","665500ab8938657b03fbdba8","6657922d74a8e5165543c8ef","1527","stimuli/1000101.jpg","1","","prediction_trial","1","","true","","1","true","true","true","true","true","true","[1]","000","101","1","","","","","","",""
"","","","","","image-keyboard-response","279","838178","0.0-254.0","632b9d9bc38454f47019295c","665500ab8938657b03fbdba8","6657922d74a8e5165543c8ef","1043","stimuli/10001011.jpg"," ","","feedback_trial","1","","","","","","","","","","","","","","","","","","","","",""
"","","","","","image-keyboard-response","280","840139","0.0-255.0","632b9d9bc38454f47019295c","665500ab8938657b03fbdba8","6657922d74a8e5165543c8ef","1961","stimuli/1101101.jpg","1","","prediction_trial","1","","true","","1","true","true","true","true","true","true","[1]","101","101","1","","","","","","",""
"","","","","","image-keyboard-response","281","841980","0.0-256.0","632b9d9bc38454f47019295c","665500ab8938657b03fbdba8","6657922d74a8e5165543c8ef","1840","stimuli/11011011.jpg"," ","","feedback_trial","1","","","","","","","","","","","","","","","","","","","","",""
"","","","","","image-keyboard-response","282","845185","0.0-257.0","632b9d9bc38454f47019295c","665500ab8938657b03fbdba8","6657922d74a8e5165543c8ef","3206","stimuli/2010101.jpg","0","","prediction_trial","2","","false","","2","false","false","true","true","false","false","[2]","010","101","0","","","","","","",""
"","","","","","image-keyboard-response","283","846599","0.0-258.0","632b9d9bc38454f47019295c","665500ab8938657b03fbdba8","6657922d74a8e5165543c8ef","1413","stimuli/20101012.jpg"," ","","feedback_trial","2","","","","","","","","","","","","","","","","","","","","",""
"","","","","","image-keyboard-response","284","849118","0.0-259.0","632b9d9bc38454f47019295c","665500ab8938657b03fbdba8","6657922d74a8e5165543c8ef","2518","stimuli/0100100.jpg","0","","prediction_trial","0","","true","","0","false","true","false","true","false","true","[0]","100","100","1","","","","","","",""
"","","","","","image-keyboard-response","285","850318","0.0-260.0","632b9d9bc38454f47019295c","665500ab8938657b03fbdba8","6657922d74a8e5165543c8ef","1199","stimuli/01001000.jpg"," ","","feedback_trial","0","","","","","","","","","","","","","","","","","","","","",""
"","","","","","image-keyboard-response","286","852304","0.0-261.0","632b9d9bc38454f47019295c","665500ab8938657b03fbdba8","6657922d74a8e5165543c8ef","1984","stimuli/2000111.jpg","1","","prediction_trial","2","","false","","2","false","false","true","true","false","false","[2]","000","111","0","","","","","","",""
"","","","","","image-keyboard-response","287","853743","0.0-262.0","632b9d9bc38454f47019295c","665500ab8938657b03fbdba8","6657922d74a8e5165543c8ef","1438","stimuli/20001112.jpg"," ","","feedback_trial","2","","","","","","","","","","","","","","","","","","","","",""
"","","","","","image-keyboard-response","288","855426","0.0-263.0","632b9d9bc38454f47019295c","665500ab8938657b03fbdba8","6657922d74a8e5165543c8ef","1682","stimuli/1111100.jpg","1","","prediction_trial","2","","false","","1","true","true","false","false","false","false","[0,2,1]","111","100","0","","","","","","",""
"","","","","","image-keyboard-response","289","857121","0.0-264.0","632b9d9bc38454f47019295c","665500ab8938657b03fbdba8","6657922d74a8e5165543c8ef","1694","stimuli/11111002.jpg"," ","","feedback_trial","0","","","","","","","","","","","","","","","","","","","","",""
"","","","","","image-keyboard-response","290","858875","0.0-265.0","632b9d9bc38454f47019295c","665500ab8938657b03fbdba8","6657922d74a8e5165543c8ef","1754","stimuli/1011011.jpg","1","","prediction_trial","2","","false","","1","false","false","false","false","false","false","[2,1]","011","011","0","","","","","","",""
"","","","","","image-keyboard-response","291","860267","0.0-266.0","632b9d9bc38454f47019295c","665500ab8938657b03fbdba8","6657922d74a8e5165543c8ef","1390","stimuli/10110112.jpg"," ","","feedback_trial","2","","","","","","","","","","","","","","","","","","","","",""
"","","","","","image-keyboard-response","292","862117","0.0-267.0","632b9d9bc38454f47019295c","665500ab8938657b03fbdba8","6657922d74a8e5165543c8ef","1850","stimuli/0100011.jpg","0","","prediction_trial","0","","true","","0","true","true","false","true","false","true","[0]","100","011","1","","","","","","",""
"","","","","","image-keyboard-response","293","863271","0.0-268.0","632b9d9bc38454f47019295c","665500ab8938657b03fbdba8","6657922d74a8e5165543c8ef","1152","stimuli/01000110.jpg"," ","","feedback_trial","0","","","","","","","","","","","","","","","","","","","","",""
"","","","","","image-keyboard-response","294","871785","0.0-269.0","632b9d9bc38454f47019295c","665500ab8938657b03fbdba8","6657922d74a8e5165543c8ef","8513","stimuli/1100011.jpg","2","","prediction_trial","1","","false","","1","false","false","true","true","false","false","[1]","100","011","0","","","","","","",""
"","","","","","image-keyboard-response","295","873097","0.0-270.0","632b9d9bc38454f47019295c","665500ab8938657b03fbdba8","6657922d74a8e5165543c8ef","1311","stimuli/11000111.jpg"," ","","feedback_trial","1","","","","","","","","","","","","","","","","","","","","",""
"","","","","","image-keyboard-response","296","874835","0.0-271.0","632b9d9bc38454f47019295c","665500ab8938657b03fbdba8","6657922d74a8e5165543c8ef","1737","stimuli/1110110.jpg","1","","prediction_trial","0","","false","","1","false","false","false","false","false","false","[1,0]","110","110","0","","","","","","",""
"","","","","","image-keyboard-response","297","875964","0.0-272.0","632b9d9bc38454f47019295c","665500ab8938657b03fbdba8","6657922d74a8e5165543c8ef","1128","stimuli/11101100.jpg"," ","","feedback_trial","1","","","","","","","","","","","","","","","","","","","","",""
"","","","","","image-keyboard-response","298","877433","0.0-273.0","632b9d9bc38454f47019295c","665500ab8938657b03fbdba8","6657922d74a8e5165543c8ef","1469","stimuli/2011010.jpg","2","","prediction_trial","1","","false","","2","true","true","false","false","false","false","[1,2]","011","010","0","","","","","","",""
"","","","","","image-keyboard-response","299","879319","0.0-274.0","632b9d9bc38454f47019295c","665500ab8938657b03fbdba8","6657922d74a8e5165543c8ef","1885","stimuli/20110101.jpg"," ","","feedback_trial","1","","","","","","","","","","","","","","","","","","","","",""
"","","","","","image-keyboard-response","300","881308","0.0-275.0","632b9d9bc38454f47019295c","665500ab8938657b03fbdba8","6657922d74a8e5165543c8ef","1989","stimuli/0000001.jpg","0","","prediction_trial","0","","true","","0","true","true","true","true","true","true","[0]","000","001","1","","","","","","",""
"","","","","","image-keyboard-response","301","882669","0.0-276.0","632b9d9bc38454f47019295c","665500ab8938657b03fbdba8","6657922d74a8e5165543c8ef","1360","stimuli/00000010.jpg"," ","","feedback_trial","0","","","","","","","","","","","","","","","","","","","","",""
"","","","","","image-keyboard-response","302","884360","0.0-277.0","632b9d9bc38454f47019295c","665500ab8938657b03fbdba8","6657922d74a8e5165543c8ef","1690","stimuli/0110111.jpg","1","","prediction_trial","0","","false","","0","false","false","false","false","false","false","[1,0]","110","111","0","","","","","","",""
"","","","","","image-keyboard-response","303","885948","0.0-278.0","632b9d9bc38454f47019295c","665500ab8938657b03fbdba8","6657922d74a8e5165543c8ef","1588","stimuli/01101110.jpg"," ","","feedback_trial","1","","","","","","","","","","","","","","","","","","","","",""
"","","","","","image-keyboard-response","304","888520","0.0-279.0","632b9d9bc38454f47019295c","665500ab8938657b03fbdba8","6657922d74a8e5165543c8ef","2571","stimuli/0010111.jpg","2","","prediction_trial","0","","false","","0","false","false","true","true","false","false","[0]","010","111","0","","","","","","",""
"","","","","","image-keyboard-response","305","890046","0.0-280.0","632b9d9bc38454f47019295c","665500ab8938657b03fbdba8","6657922d74a8e5165543c8ef","1525","stimuli/00101110.jpg"," ","","feedback_trial","0","","","","","","","","","","","","","","","","","","","","",""
"","","","","","image-keyboard-response","306","891684","0.0-281.0","632b9d9bc38454f47019295c","665500ab8938657b03fbdba8","6657922d74a8e5165543c8ef","1637","stimuli/1110000.jpg","1","","prediction_trial","1","","true","","1","true","true","false","false","false","false","[0,1]","110","000","1","","","","","","",""
"","","","","","image-keyboard-response","307","892791","0.0-282.0","632b9d9bc38454f47019295c","665500ab8938657b03fbdba8","6657922d74a8e5165543c8ef","1106","stimuli/11100001.jpg"," ","","feedback_trial","0","","","","","","","","","","","","","","","","","","","","",""
"","","","","","image-keyboard-response","308","894164","0.0-283.0","632b9d9bc38454f47019295c","665500ab8938657b03fbdba8","6657922d74a8e5165543c8ef","1373","stimuli/2011110.jpg","2","","prediction_trial","1","","false","","2","true","true","false","false","false","false","[2,1]","011","110","0","","","","","","",""
"","","","","","image-keyboard-response","309","895994","0.0-284.0","632b9d9bc38454f47019295c","665500ab8938657b03fbdba8","6657922d74a8e5165543c8ef","1829","stimuli/20111101.jpg"," ","","feedback_trial","2","","","","","","","","","","","","","","","","","","","","",""
"","","","","","image-keyboard-response","310","897426","0.0-285.0","632b9d9bc38454f47019295c","665500ab8938657b03fbdba8","6657922d74a8e5165543c8ef","1431","stimuli/1001101.jpg","1","","prediction_trial","1","","true","","1","true","true","true","true","true","true","[1]","001","101","1","","","","","","",""
"","","","","","image-keyboard-response","311","899085","0.0-286.0","632b9d9bc38454f47019295c","665500ab8938657b03fbdba8","6657922d74a8e5165543c8ef","1658","stimuli/10011011.jpg"," ","","feedback_trial","1","","","","","","","","","","","","","","","","","","","","",""
"","","","","","image-keyboard-response","312","900736","0.0-287.0","632b9d9bc38454f47019295c","665500ab8938657b03fbdba8","6657922d74a8e5165543c8ef","1650","stimuli/1010010.jpg","1","","prediction_trial","1","","true","","1","false","true","false","true","false","true","[1]","010","010","1","","","","","","",""
"","","","","","image-keyboard-response","313","902185","0.0-288.0","632b9d9bc38454f47019295c","665500ab8938657b03fbdba8","6657922d74a8e5165543c8ef","1448","stimuli/10100101.jpg"," ","","feedback_trial","1","","","","","","","","","","","","","","","","","","","","",""
"","","","","","image-keyboard-response","314","904537","0.0-289.0","632b9d9bc38454f47019295c","665500ab8938657b03fbdba8","6657922d74a8e5165543c8ef","2351","stimuli/0101111.jpg","1","","prediction_trial","0","","false","","0","false","false","false","false","false","false","[0,2]","101","111","0","","","","","","",""
"","","","","","image-keyboard-response","315","905958","0.0-290.0","632b9d9bc38454f47019295c","665500ab8938657b03fbdba8","6657922d74a8e5165543c8ef","1416","stimuli/01011110.jpg"," ","","feedback_trial","0","","","","","","","","","","","","","","","","","","","","",""
"","","","","","image-keyboard-response","316","907363","0.0-291.0","632b9d9bc38454f47019295c","665500ab8938657b03fbdba8","6657922d74a8e5165543c8ef","1404","stimuli/0101001.jpg","0","","prediction_trial","2","","false","","0","true","true","false","false","false","false","[2,0]","101","001","0","","","","","","",""
"","","","","","image-keyboard-response","317","908618","0.0-292.0","632b9d9bc38454f47019295c","665500ab8938657b03fbdba8","6657922d74a8e5165543c8ef","1254","stimuli/01010012.jpg"," ","","feedback_trial","2","","","","","","","","","","","","","","","","","","","","",""
"","","","","","survey-html-form","318","949484","0.0-293.0","632b9d9bc38454f47019295c","665500ab8938657b03fbdba8","6657922d74a8e5165543c8ef","40863","","{""feedback"":""I have none."",""age"":""45"",""gender"":""Male"",""other_gender"":"""",""race"":""White"",""other_race"":"""",""ethnicity"":""Non-Hispanic""}","","exit_survey","","","","","","","","","","","","","","","","I have none.","45","Non-Hispanic","Male","White","0.6458333333333334","0.6458333333333334"
