"success","timeout","failed_images","failed_audio","failed_video","trial_type","trial_index","time_elapsed","internal_node_id","prolific_id","prolific_study_id","prolific_session_id","rt","stimulus","response","view_history","trial","character_choice","stimulus_dict","accuracy","correct_response","ball_pos","ego_ball_visible","ego_can_infer","alter_ball_visible","alter_can_infer","collective_ball_visible","collective_can_infer","search_locations","alter_occluders","ego_occluders","accuracy_bool","feedback","age","ethnicity","gender","race","overall_accuracy","bonus"
"true","false","[]","[]","[]","preload","0","66462","0.0-0.0","62869a1b7fff9c9a48fe6087","665500ab8938657b03fbdba8","66577b1040d04186628e32d6","","","","","","","","","","","","","","","","","","","","","","","","","","",""
"true","","","","","fullscreen","1","70891","0.0-1.0","62869a1b7fff9c9a48fe6087","665500ab8938657b03fbdba8","66577b1040d04186628e32d6","","","","","","","","","","","","","","","","","","","","","","","","","","",""
"","","","","","html-button-response","2","75482","0.0-2.0","62869a1b7fff9c9a48fe6087","665500ab8938657b03fbdba8","66577b1040d04186628e32d6","4590","<p><b>Consent Form</b></p> <div style=""text-align:left;background-color:lightgrey; padding:20px; max-width:900px;""><p>Please consider this information carefully before deciding whether to participate in this research.</p> <p>The purpose of this research is to examine which factors influence social judgment and decision-making. You will be asked to make judgements about individuals and actions in social scenarios. We are simply interested in your judgement. The study will take less than 1 hour to complete, and you will receive less than $20 on Prolific. Your compensation and time commitment are specified in the study description. There are no anticipated risks associated with participating in this study. The effects of participating should be comparable to those you would ordinarily experience from viewing a computer monitor and using a mouse or keyboard for a similar amount of time. At the end of the study, we will provide an explanation of the questions that motivate this line of research and will describe the potential implications. </p><p> Your participation in this study is completely voluntary and you may refuse to participate or you may choose to withdraw at any time without penalty or loss of benefits to you which are otherwise entitled. Your participation in this study will remain confidential. No personally identifiable information will be associated with your data. Also, all analyses of the data will be averaged across all the participants, so your individual responses will never be specifically analyzed. </p><p> If you have questions or concerns about your participation or payment, or want to request a summary of research findings, please contact Dr. Jonathan Phillips at Jonathan.S.Phillips@dartmouth.edu. </p><p> Please save a copy of this form for your records. </p><p><b>Agreement: </b>The nature and purpose of this research have been sufficiently explained and I agree to participate in this study. I understand that I am free to withdraw at any time without incurring any penalty. Please consent by clicking the button below to continue. Otherwise, please exit the study at any time. </p>","0","","","","","","","","","","","","","","","","","","","","","","","",""
"","","","","","instructions","3","159235","0.0-3.0-0.0","62869a1b7fff9c9a48fe6087","665500ab8938657b03fbdba8","66577b1040d04186628e32d6","83751","","","[{""page_index"":0,""viewing_time"":2826},{""page_index"":1,""viewing_time"":3021},{""page_index"":2,""viewing_time"":4238},{""page_index"":3,""viewing_time"":10307},{""page_index"":4,""viewing_time"":3884},{""page_index"":5,""viewing_time"":5009},{""page_index"":6,""viewing_time"":5739},{""page_index"":7,""viewing_time"":3897},{""page_index"":8,""viewing_time"":3990},{""page_index"":9,""viewing_time"":3674},{""page_index"":10,""viewing_time"":17812},{""page_index"":11,""viewing_time"":8310},{""page_index"":12,""viewing_time"":8650},{""page_index"":13,""viewing_time"":2395}]","intro","","","","","","","","","","","","","","","","","","","","","",""
"","","","","","image-keyboard-response","4","162586","0.0-3.0-1.0","62869a1b7fff9c9a48fe6087","665500ab8938657b03fbdba8","66577b1040d04186628e32d6","3348","stimuli/0000111.jpg","1","","prediction_practice","0","{""filepath"":""stimuli/0000111.jpg"",""ball_pos"":0,""ego_ball_visible"":false,""ego_can_infer"":false,""alter_ball_visible"":true,""alter_can_infer"":true,""collective_ball_visible"":false,""collective_can_infer"":false,""search_locations"":[0],""alter_occluders"":""000"",""ego_occluders"":""111""}","false","","","","","","","","","","","","","","","","","","",""
"","","","","","image-keyboard-response","5","165581","0.0-3.0-2.0","62869a1b7fff9c9a48fe6087","665500ab8938657b03fbdba8","66577b1040d04186628e32d6","2993","stimuli/00001110.jpg"," ","","practrice_feedback","0","","","","","","","","","","","","","","","","","","","","",""
"","","","","","image-keyboard-response","6","171302","0.0-3.0-3.0","62869a1b7fff9c9a48fe6087","665500ab8938657b03fbdba8","66577b1040d04186628e32d6","5720","stimuli/0011000.jpg","1","","prediction_practice","0","{""filepath"":""stimuli/0011000.jpg"",""ball_pos"":0,""ego_ball_visible"":true,""ego_can_infer"":true,""alter_ball_visible"":true,""alter_can_infer"":true,""collective_ball_visible"":true,""collective_can_infer"":true,""search_locations"":[0],""alter_occluders"":""011"",""ego_occluders"":""000""}","false","","","","","","","","","","","","","","","","","","",""
"","","","","","image-keyboard-response","7","173125","0.0-3.0-4.0","62869a1b7fff9c9a48fe6087","665500ab8938657b03fbdba8","66577b1040d04186628e32d6","1822","stimuli/00110000.jpg"," ","","practrice_feedback","0","","","","","","","","","","","","","","","","","","","","",""
"","","","","","image-keyboard-response","8","178040","0.0-3.0-5.0","62869a1b7fff9c9a48fe6087","665500ab8938657b03fbdba8","66577b1040d04186628e32d6","4915","stimuli/0101110.jpg","0","","prediction_practice","2","{""filepath"":""stimuli/0101110.jpg"",""ball_pos"":0,""ego_ball_visible"":false,""ego_can_infer"":false,""alter_ball_visible"":false,""alter_can_infer"":false,""collective_ball_visible"":false,""collective_can_infer"":false,""search_locations"":[0,2],""alter_occluders"":""101"",""ego_occluders"":""110""}","false","","","","","","","","","","","","","","","","","","",""
"","","","","","image-keyboard-response","9","181049","0.0-3.0-6.0","62869a1b7fff9c9a48fe6087","665500ab8938657b03fbdba8","66577b1040d04186628e32d6","3008","stimuli/01011102.jpg"," ","","practrice_feedback","0","","","","","","","","","","","","","","","","","","","","",""
"","","","","","image-keyboard-response","10","184228","0.0-3.0-7.0","62869a1b7fff9c9a48fe6087","665500ab8938657b03fbdba8","66577b1040d04186628e32d6","3173","stimuli/0100011.jpg","0","","prediction_practice","0","{""filepath"":""stimuli/0100011.jpg"",""ball_pos"":0,""ego_ball_visible"":true,""ego_can_infer"":true,""alter_ball_visible"":false,""alter_can_infer"":true,""collective_ball_visible"":false,""collective_can_infer"":true,""search_locations"":[0],""alter_occluders"":""100"",""ego_occluders"":""011""}","true","","","","","","","","","","","","","","","","","","",""
"","","","","","image-keyboard-response","11","186383","0.0-3.0-8.0","62869a1b7fff9c9a48fe6087","665500ab8938657b03fbdba8","66577b1040d04186628e32d6","2153","stimuli/01000110.jpg"," ","","practrice_feedback","0","","","","","","","","","","","","","","","","","","","","",""
"","","","","","image-keyboard-response","12","188687","0.0-3.0-9.0","62869a1b7fff9c9a48fe6087","665500ab8938657b03fbdba8","66577b1040d04186628e32d6","2302","stimuli/0000001.jpg","0","","prediction_practice","0","{""filepath"":""stimuli/0000001.jpg"",""ball_pos"":0,""ego_ball_visible"":true,""ego_can_infer"":true,""alter_ball_visible"":true,""alter_can_infer"":true,""collective_ball_visible"":true,""collective_can_infer"":true,""search_locations"":[0],""alter_occluders"":""000"",""ego_occluders"":""001""}","true","","","","","","","","","","","","","","","","","","",""
"","","","","","image-keyboard-response","13","190213","0.0-3.0-10.0","62869a1b7fff9c9a48fe6087","665500ab8938657b03fbdba8","66577b1040d04186628e32d6","1525","stimuli/00000010.jpg"," ","","practrice_feedback","0","","","","","","","","","","","","","","","","","","","","",""
"","","","","","image-keyboard-response","14","192378","0.0-3.0-11.0","62869a1b7fff9c9a48fe6087","665500ab8938657b03fbdba8","66577b1040d04186628e32d6","2163","stimuli/0001110.jpg","0","","prediction_practice","0","{""filepath"":""stimuli/0001110.jpg"",""ball_pos"":0,""ego_ball_visible"":false,""ego_can_infer"":false,""alter_ball_visible"":true,""alter_can_infer"":true,""collective_ball_visible"":false,""collective_can_infer"":false,""search_locations"":[0],""alter_occluders"":""001"",""ego_occluders"":""110""}","true","","","","","","","","","","","","","","","","","","",""
"","","","","","image-keyboard-response","15","193982","0.0-3.0-12.0","62869a1b7fff9c9a48fe6087","665500ab8938657b03fbdba8","66577b1040d04186628e32d6","1603","stimuli/00011100.jpg"," ","","practrice_feedback","0","","","","","","","","","","","","","","","","","","","","",""
"","","","","","image-keyboard-response","16","195376","0.0-3.0-13.0","62869a1b7fff9c9a48fe6087","665500ab8938657b03fbdba8","66577b1040d04186628e32d6","1374","stimuli/1011101.jpg","1","","prediction_practice","2","{""filepath"":""stimuli/1011101.jpg"",""ball_pos"":1,""ego_ball_visible"":true,""ego_can_infer"":true,""alter_ball_visible"":false,""alter_can_infer"":false,""collective_ball_visible"":false,""collective_can_infer"":false,""search_locations"":[1,2],""alter_occluders"":""011"",""ego_occluders"":""101""}","false","","","","","","","","","","","","","","","","","","",""
"","","","","","image-keyboard-response","17","199146","0.0-3.0-14.0","62869a1b7fff9c9a48fe6087","665500ab8938657b03fbdba8","66577b1040d04186628e32d6","3768","stimuli/10111012.jpg"," ","","practrice_feedback","1","","","","","","","","","","","","","","","","","","","","",""
"","","","","","image-keyboard-response","18","202357","0.0-3.0-15.0","62869a1b7fff9c9a48fe6087","665500ab8938657b03fbdba8","66577b1040d04186628e32d6","3211","stimuli/0100001.jpg","0","","prediction_practice","0","{""filepath"":""stimuli/0100001.jpg"",""ball_pos"":0,""ego_ball_visible"":true,""ego_can_infer"":true,""alter_ball_visible"":false,""alter_can_infer"":true,""collective_ball_visible"":false,""collective_can_infer"":true,""search_locations"":[0],""alter_occluders"":""100"",""ego_occluders"":""001""}","true","","","","","","","","","","","","","","","","","","",""
"","","","","","image-keyboard-response","19","204135","0.0-3.0-16.0","62869a1b7fff9c9a48fe6087","665500ab8938657b03fbdba8","66577b1040d04186628e32d6","1776","stimuli/01000010.jpg"," ","","practrice_feedback","0","","","","","","","","","","","","","","","","","","","","",""
"","","","","","image-keyboard-response","20","206264","0.0-3.0-17.0","62869a1b7fff9c9a48fe6087","665500ab8938657b03fbdba8","66577b1040d04186628e32d6","2128","stimuli/1010100.jpg","1","","prediction_practice","1","{""filepath"":""stimuli/1010100.jpg"",""ball_pos"":1,""ego_ball_visible"":true,""ego_can_infer"":true,""alter_ball_visible"":false,""alter_can_infer"":true,""collective_ball_visible"":false,""collective_can_infer"":true,""search_locations"":[1],""alter_occluders"":""010"",""ego_occluders"":""100""}","true","","","","","","","","","","","","","","","","","","",""
"","","","","","image-keyboard-response","21","208265","0.0-3.0-18.0","62869a1b7fff9c9a48fe6087","665500ab8938657b03fbdba8","66577b1040d04186628e32d6","1999","stimuli/10101001.jpg"," ","","practrice_feedback","1","","","","","","","","","","","","","","","","","","","","",""
"","","","","","image-keyboard-response","22","209722","0.0-3.0-19.0","62869a1b7fff9c9a48fe6087","665500ab8938657b03fbdba8","66577b1040d04186628e32d6","1446","stimuli/2100110.jpg","2","","prediction_practice","2","{""filepath"":""stimuli/2100110.jpg"",""ball_pos"":2,""ego_ball_visible"":true,""ego_can_infer"":true,""alter_ball_visible"":true,""alter_can_infer"":true,""collective_ball_visible"":true,""collective_can_infer"":true,""search_locations"":[2],""alter_occluders"":""100"",""ego_occluders"":""110""}","true","","","","","","","","","","","","","","","","","","",""
"","","","","","image-keyboard-response","23","211406","0.0-3.0-20.0","62869a1b7fff9c9a48fe6087","665500ab8938657b03fbdba8","66577b1040d04186628e32d6","1683","stimuli/21001102.jpg"," ","","practrice_feedback","2","","","","","","","","","","","","","","","","","","","","",""
"","","","","","html-button-response","24","216253","0.0-3.0-21.0","62869a1b7fff9c9a48fe6087","665500ab8938657b03fbdba8","66577b1040d04186628e32d6","4846","Now that you've had some practice, you'll be tested with a couple of easy trials. If you correctly predict Sam's choice, you'll move on to complete the experiment!","0","","","","","","","","","","","","","","","","","","","","","","","",""
"","","","","","image-keyboard-response","25","218064","0.0-3.0-22.0-0.0","62869a1b7fff9c9a48fe6087","665500ab8938657b03fbdba8","66577b1040d04186628e32d6","1810","stimuli/0000011.jpg","arrowleft","","comprehension_quiz","","","true","arrowleft","","","","","","","","","","","","","","","","","",""
"","","","","","image-keyboard-response","26","220563","0.0-3.0-22.0-1.0","62869a1b7fff9c9a48fe6087","665500ab8938657b03fbdba8","66577b1040d04186628e32d6","2498","stimuli/00000110.jpg"," ","","comprehension_quiz","","","true"," ","","","","","","","","","","","","","","","","","",""
"","","","","","image-keyboard-response","27","222895","0.0-3.0-22.0-2.0","62869a1b7fff9c9a48fe6087","665500ab8938657b03fbdba8","66577b1040d04186628e32d6","2332","stimuli/1010010.jpg","arrowdown","","comprehension_quiz","","","true","arrowdown","","","","","","","","","","","","","","","","","",""
"","","","","","image-keyboard-response","28","224197","0.0-3.0-22.0-3.0","62869a1b7fff9c9a48fe6087","665500ab8938657b03fbdba8","66577b1040d04186628e32d6","1300","stimuli/10100101.jpg"," ","","comprehension_quiz","","","true"," ","","","","","","","","","","","","","","","","","",""
"","","","","","html-button-response","29","227869","0.0-4.0","62869a1b7fff9c9a48fe6087","665500ab8938657b03fbdba8","66577b1040d04186628e32d6","3669","The experiment will now begin.","0","","","","","","","","","","","","","","","","","","","","","","","",""
"","","","","","image-keyboard-response","30","233476","0.0-5.0","62869a1b7fff9c9a48fe6087","665500ab8938657b03fbdba8","66577b1040d04186628e32d6","5604","stimuli/0100111.jpg","0","","prediction_trial","0","","true","","0","false","false","false","true","false","false","[0]","100","111","1","","","","","","",""
"","","","","","image-keyboard-response","31","234594","0.0-6.0","62869a1b7fff9c9a48fe6087","665500ab8938657b03fbdba8","66577b1040d04186628e32d6","1117","stimuli/01001110.jpg"," ","","feedback_trial","0","","","","","","","","","","","","","","","","","","","","",""
"","","","","","image-keyboard-response","32","238158","0.0-7.0","62869a1b7fff9c9a48fe6087","665500ab8938657b03fbdba8","66577b1040d04186628e32d6","3563","stimuli/0110110.jpg","0","","prediction_trial","0","","true","","0","false","false","false","false","false","false","[1,0]","110","110","1","","","","","","",""
"","","","","","image-keyboard-response","33","239196","0.0-8.0","62869a1b7fff9c9a48fe6087","665500ab8938657b03fbdba8","66577b1040d04186628e32d6","1038","stimuli/01101100.jpg"," ","","feedback_trial","1","","","","","","","","","","","","","","","","","","","","",""
"","","","","","image-keyboard-response","34","240541","0.0-9.0","62869a1b7fff9c9a48fe6087","665500ab8938657b03fbdba8","66577b1040d04186628e32d6","1344","stimuli/1000000.jpg","1","","prediction_trial","1","","true","","1","true","true","true","true","true","true","[1]","000","000","1","","","","","","",""
"","","","","","image-keyboard-response","35","241281","0.0-10.0","62869a1b7fff9c9a48fe6087","665500ab8938657b03fbdba8","66577b1040d04186628e32d6","734","stimuli/10000001.jpg"," ","","feedback_trial","1","","","","","","","","","","","","","","","","","","","","",""
"","","","","","image-keyboard-response","36","244829","0.0-11.0","62869a1b7fff9c9a48fe6087","665500ab8938657b03fbdba8","66577b1040d04186628e32d6","3546","stimuli/1100010.jpg","1","","prediction_trial","1","","true","","1","false","true","true","true","false","true","[1]","100","010","1","","","","","","",""
"","","","","","image-keyboard-response","37","245953","0.0-12.0","62869a1b7fff9c9a48fe6087","665500ab8938657b03fbdba8","66577b1040d04186628e32d6","1123","stimuli/11000101.jpg"," ","","feedback_trial","1","","","","","","","","","","","","","","","","","","","","",""
"","","","","","image-keyboard-response","38","247772","0.0-13.0","62869a1b7fff9c9a48fe6087","665500ab8938657b03fbdba8","66577b1040d04186628e32d6","1817","stimuli/2111010.jpg","2","","prediction_trial","0","","false","","2","true","true","false","false","false","false","[2,0,1]","111","010","0","","","","","","",""
"","","","","","image-keyboard-response","39","248963","0.0-14.0","62869a1b7fff9c9a48fe6087","665500ab8938657b03fbdba8","66577b1040d04186628e32d6","1190","stimuli/21110100.jpg"," ","","feedback_trial","2","","","","","","","","","","","","","","","","","","","","",""
"","","","","","image-keyboard-response","40","251268","0.0-15.0","62869a1b7fff9c9a48fe6087","665500ab8938657b03fbdba8","66577b1040d04186628e32d6","2305","stimuli/1000111.jpg","0","","prediction_trial","1","","false","","1","false","false","true","true","false","false","[1]","000","111","0","","","","","","",""
"","","","","","image-keyboard-response","41","252512","0.0-16.0","62869a1b7fff9c9a48fe6087","665500ab8938657b03fbdba8","66577b1040d04186628e32d6","1237","stimuli/10001111.jpg"," ","","feedback_trial","1","","","","","","","","","","","","","","","","","","","","",""
"","","","","","image-keyboard-response","42","255190","0.0-17.0","62869a1b7fff9c9a48fe6087","665500ab8938657b03fbdba8","66577b1040d04186628e32d6","2677","stimuli/2011011.jpg","2","","prediction_trial","2","","true","","2","false","false","false","false","false","false","[1,2]","011","011","1","","","","","","",""
"","","","","","image-keyboard-response","43","256349","0.0-18.0","62869a1b7fff9c9a48fe6087","665500ab8938657b03fbdba8","66577b1040d04186628e32d6","1158","stimuli/20110112.jpg"," ","","feedback_trial","1","","","","","","","","","","","","","","","","","","","","",""
"","","","","","image-keyboard-response","44","258417","0.0-19.0","62869a1b7fff9c9a48fe6087","665500ab8938657b03fbdba8","66577b1040d04186628e32d6","2067","stimuli/1111010.jpg","1","","prediction_trial","1","","true","","1","false","true","false","false","false","false","[2,1,0]","111","010","1","","","","","","",""
"","","","","","image-keyboard-response","45","259406","0.0-20.0","62869a1b7fff9c9a48fe6087","665500ab8938657b03fbdba8","66577b1040d04186628e32d6","987","stimuli/11110101.jpg"," ","","feedback_trial","2","","","","","","","","","","","","","","","","","","","","",""
"","","","","","image-keyboard-response","46","260486","0.0-21.0","62869a1b7fff9c9a48fe6087","665500ab8938657b03fbdba8","66577b1040d04186628e32d6","1078","stimuli/1011010.jpg","1","","prediction_trial","1","","true","","1","false","true","false","false","false","false","[1,2]","011","010","1","","","","","","",""
"","","","","","image-keyboard-response","47","261140","0.0-22.0","62869a1b7fff9c9a48fe6087","665500ab8938657b03fbdba8","66577b1040d04186628e32d6","645","stimuli/10110101.jpg"," ","","feedback_trial","1","","","","","","","","","","","","","","","","","","","","",""
"","","","","","image-keyboard-response","48","264393","0.0-23.0","62869a1b7fff9c9a48fe6087","665500ab8938657b03fbdba8","66577b1040d04186628e32d6","3251","stimuli/2000101.jpg","0","","prediction_trial","2","","false","","2","false","false","true","true","false","false","[2]","000","101","0","","","","","","",""
"","","","","","image-keyboard-response","49","265536","0.0-24.0","62869a1b7fff9c9a48fe6087","665500ab8938657b03fbdba8","66577b1040d04186628e32d6","1142","stimuli/20001012.jpg"," ","","feedback_trial","2","","","","","","","","","","","","","","","","","","","","",""
"","","","","","image-keyboard-response","50","267808","0.0-25.0","62869a1b7fff9c9a48fe6087","665500ab8938657b03fbdba8","66577b1040d04186628e32d6","2272","stimuli/0101111.jpg","1","","prediction_trial","2","","false","","0","false","false","false","false","false","false","[2,0]","101","111","0","","","","","","",""
"","","","","","image-keyboard-response","51","268896","0.0-26.0","62869a1b7fff9c9a48fe6087","665500ab8938657b03fbdba8","66577b1040d04186628e32d6","1087","stimuli/01011112.jpg"," ","","feedback_trial","2","","","","","","","","","","","","","","","","","","","","",""
"","","","","","image-keyboard-response","52","270463","0.0-27.0","62869a1b7fff9c9a48fe6087","665500ab8938657b03fbdba8","66577b1040d04186628e32d6","1566","stimuli/0110011.jpg","0","","prediction_trial","0","","true","","0","true","true","false","false","false","false","[0,1]","110","011","1","","","","","","",""
"","","","","","image-keyboard-response","53","271570","0.0-28.0","62869a1b7fff9c9a48fe6087","665500ab8938657b03fbdba8","66577b1040d04186628e32d6","1106","stimuli/01100110.jpg"," ","","feedback_trial","0","","","","","","","","","","","","","","","","","","","","",""
"","","","","","image-keyboard-response","54","272867","0.0-29.0","62869a1b7fff9c9a48fe6087","665500ab8938657b03fbdba8","66577b1040d04186628e32d6","1295","stimuli/1101001.jpg","1","","prediction_trial","1","","true","","1","true","true","true","true","true","true","[1]","101","001","1","","","","","","",""
"","","","","","image-keyboard-response","55","273895","0.0-30.0","62869a1b7fff9c9a48fe6087","665500ab8938657b03fbdba8","66577b1040d04186628e32d6","1027","stimuli/11010011.jpg"," ","","feedback_trial","1","","","","","","","","","","","","","","","","","","","","",""
"","","","","","image-keyboard-response","56","277008","0.0-31.0","62869a1b7fff9c9a48fe6087","665500ab8938657b03fbdba8","66577b1040d04186628e32d6","3113","stimuli/2110011.jpg","1","","prediction_trial","2","","false","","2","false","false","true","true","false","false","[2]","110","011","0","","","","","","",""
"","","","","","image-keyboard-response","57","278124","0.0-32.0","62869a1b7fff9c9a48fe6087","665500ab8938657b03fbdba8","66577b1040d04186628e32d6","1115","stimuli/21100112.jpg"," ","","feedback_trial","2","","","","","","","","","","","","","","","","","","","","",""
"","","","","","image-keyboard-response","58","279750","0.0-33.0","62869a1b7fff9c9a48fe6087","665500ab8938657b03fbdba8","66577b1040d04186628e32d6","1624","stimuli/2010001.jpg","2","","prediction_trial","2","","true","","2","false","true","true","true","false","true","[2]","010","001","1","","","","","","",""
"","","","","","image-keyboard-response","59","280637","0.0-34.0","62869a1b7fff9c9a48fe6087","665500ab8938657b03fbdba8","66577b1040d04186628e32d6","865","stimuli/20100012.jpg"," ","","feedback_trial","2","","","","","","","","","","","","","","","","","","","","",""
"","","","","","image-keyboard-response","60","282035","0.0-35.0","62869a1b7fff9c9a48fe6087","665500ab8938657b03fbdba8","66577b1040d04186628e32d6","1396","stimuli/0110001.jpg","0","","prediction_trial","1","","false","","0","true","true","false","false","false","false","[1,0]","110","001","0","","","","","","",""
"","","","","","image-keyboard-response","61","283164","0.0-36.0","62869a1b7fff9c9a48fe6087","665500ab8938657b03fbdba8","66577b1040d04186628e32d6","1128","stimuli/01100011.jpg"," ","","feedback_trial","1","","","","","","","","","","","","","","","","","","","","",""
"","","","","","image-keyboard-response","62","285092","0.0-37.0","62869a1b7fff9c9a48fe6087","665500ab8938657b03fbdba8","66577b1040d04186628e32d6","1928","stimuli/1100011.jpg","1","","prediction_trial","1","","true","","1","false","false","true","true","false","false","[1]","100","011","1","","","","","","",""
"","","","","","image-keyboard-response","63","286127","0.0-38.0","62869a1b7fff9c9a48fe6087","665500ab8938657b03fbdba8","66577b1040d04186628e32d6","1035","stimuli/11000111.jpg"," ","","feedback_trial","1","","","","","","","","","","","","","","","","","","","","",""
"","","","","","image-keyboard-response","64","287137","0.0-39.0","62869a1b7fff9c9a48fe6087","665500ab8938657b03fbdba8","66577b1040d04186628e32d6","1009","stimuli/0010011.jpg","0","","prediction_trial","0","","true","","0","true","true","true","true","true","true","[0]","010","011","1","","","","","","",""
"","","","","","image-keyboard-response","65","287720","0.0-40.0","62869a1b7fff9c9a48fe6087","665500ab8938657b03fbdba8","66577b1040d04186628e32d6","571","stimuli/00100110.jpg"," ","","feedback_trial","0","","","","","","","","","","","","","","","","","","","","",""
"","","","","","image-keyboard-response","66","290301","0.0-41.0","62869a1b7fff9c9a48fe6087","665500ab8938657b03fbdba8","66577b1040d04186628e32d6","2580","stimuli/1111011.jpg","2","","prediction_trial","1","","false","","1","false","false","false","false","false","false","[0,2,1]","111","011","0","","","","","","",""
"","","","","","image-keyboard-response","67","291286","0.0-42.0","62869a1b7fff9c9a48fe6087","665500ab8938657b03fbdba8","66577b1040d04186628e32d6","984","stimuli/11110111.jpg"," ","","feedback_trial","0","","","","","","","","","","","","","","","","","","","","",""
"","","","","","image-keyboard-response","68","292712","0.0-43.0","62869a1b7fff9c9a48fe6087","665500ab8938657b03fbdba8","66577b1040d04186628e32d6","1426","stimuli/0001100.jpg","0","","prediction_trial","0","","true","","0","false","true","true","true","false","true","[0]","001","100","1","","","","","","",""
"","","","","","image-keyboard-response","69","293797","0.0-44.0","62869a1b7fff9c9a48fe6087","665500ab8938657b03fbdba8","66577b1040d04186628e32d6","1084","stimuli/00011000.jpg"," ","","feedback_trial","0","","","","","","","","","","","","","","","","","","","","",""
"","","","","","image-keyboard-response","70","297142","0.0-45.0","62869a1b7fff9c9a48fe6087","665500ab8938657b03fbdba8","66577b1040d04186628e32d6","3344","stimuli/1100110.jpg","1","","prediction_trial","1","","true","","1","false","false","true","true","false","false","[1]","100","110","1","","","","","","",""
"","","","","","image-keyboard-response","71","298128","0.0-46.0","62869a1b7fff9c9a48fe6087","665500ab8938657b03fbdba8","66577b1040d04186628e32d6","974","stimuli/11001101.jpg"," ","","feedback_trial","1","","","","","","","","","","","","","","","","","","","","",""
"","","","","","image-keyboard-response","72","299648","0.0-47.0","62869a1b7fff9c9a48fe6087","665500ab8938657b03fbdba8","66577b1040d04186628e32d6","1519","stimuli/2111000.jpg","2","","prediction_trial","1","","false","","2","true","true","false","false","false","false","[1,0,2]","111","000","0","","","","","","",""
"","","","","","image-keyboard-response","73","300487","0.0-48.0","62869a1b7fff9c9a48fe6087","665500ab8938657b03fbdba8","66577b1040d04186628e32d6","838","stimuli/21110001.jpg"," ","","feedback_trial","1","","","","","","","","","","","","","","","","","","","","",""
"","","","","","image-keyboard-response","74","302807","0.0-49.0","62869a1b7fff9c9a48fe6087","665500ab8938657b03fbdba8","66577b1040d04186628e32d6","2319","stimuli/0111111.jpg","0","","prediction_trial","0","","true","","0","false","false","false","false","false","false","[0,2,1]","111","111","1","","","","","","",""
"","","","","","image-keyboard-response","75","303853","0.0-50.0","62869a1b7fff9c9a48fe6087","665500ab8938657b03fbdba8","66577b1040d04186628e32d6","1045","stimuli/01111110.jpg"," ","","feedback_trial","0","","","","","","","","","","","","","","","","","","","","",""
"","","","","","image-keyboard-response","76","305134","0.0-51.0","62869a1b7fff9c9a48fe6087","665500ab8938657b03fbdba8","66577b1040d04186628e32d6","1281","stimuli/2110000.jpg","2","","prediction_trial","2","","true","","2","true","true","true","true","true","true","[2]","110","000","1","","","","","","",""
"","","","","","image-keyboard-response","77","306374","0.0-52.0","62869a1b7fff9c9a48fe6087","665500ab8938657b03fbdba8","66577b1040d04186628e32d6","1229","stimuli/21100002.jpg"," ","","feedback_trial","2","","","","","","","","","","","","","","","","","","","","",""
"","","","","","image-keyboard-response","78","307209","0.0-53.0","62869a1b7fff9c9a48fe6087","665500ab8938657b03fbdba8","66577b1040d04186628e32d6","835","stimuli/0000011.jpg","0","","prediction_trial","0","","true","","0","true","true","true","true","true","true","[0]","000","011","1","","","","","","",""
"","","","","","image-keyboard-response","79","307624","0.0-54.0","62869a1b7fff9c9a48fe6087","665500ab8938657b03fbdba8","66577b1040d04186628e32d6","413","stimuli/00000110.jpg"," ","","feedback_trial","0","","","","","","","","","","","","","","","","","","","","",""
"","","","","","image-keyboard-response","80","309749","0.0-55.0","62869a1b7fff9c9a48fe6087","665500ab8938657b03fbdba8","66577b1040d04186628e32d6","2123","stimuli/0010101.jpg","0","","prediction_trial","0","","true","","0","false","false","true","true","false","false","[0]","010","101","1","","","","","","",""
"","","","","","image-keyboard-response","81","310543","0.0-56.0","62869a1b7fff9c9a48fe6087","665500ab8938657b03fbdba8","66577b1040d04186628e32d6","792","stimuli/00101010.jpg"," ","","feedback_trial","0","","","","","","","","","","","","","","","","","","","","",""
"","","","","","image-keyboard-response","82","311419","0.0-57.0","62869a1b7fff9c9a48fe6087","665500ab8938657b03fbdba8","66577b1040d04186628e32d6","876","stimuli/1000001.jpg","1","","prediction_trial","1","","true","","1","true","true","true","true","true","true","[1]","000","001","1","","","","","","",""
"","","","","","image-keyboard-response","83","311897","0.0-58.0","62869a1b7fff9c9a48fe6087","665500ab8938657b03fbdba8","66577b1040d04186628e32d6","459","stimuli/10000011.jpg"," ","","feedback_trial","1","","","","","","","","","","","","","","","","","","","","",""
"","","","","","image-keyboard-response","84","313862","0.0-59.0","62869a1b7fff9c9a48fe6087","665500ab8938657b03fbdba8","66577b1040d04186628e32d6","1963","stimuli/0111000.jpg","1","","prediction_trial","1","","true","","0","true","true","false","false","false","false","[1,0,2]","111","000","1","","","","","","",""
"","","","","","image-keyboard-response","85","314744","0.0-60.0","62869a1b7fff9c9a48fe6087","665500ab8938657b03fbdba8","66577b1040d04186628e32d6","880","stimuli/01110001.jpg"," ","","feedback_trial","1","","","","","","","","","","","","","","","","","","","","",""
"","","","","","image-keyboard-response","86","316298","0.0-61.0","62869a1b7fff9c9a48fe6087","665500ab8938657b03fbdba8","66577b1040d04186628e32d6","1553","stimuli/0111101.jpg","0","","prediction_trial","2","","false","","0","false","false","false","false","false","false","[0,2,1]","111","101","0","","","","","","",""
"","","","","","image-keyboard-response","87","317584","0.0-62.0","62869a1b7fff9c9a48fe6087","665500ab8938657b03fbdba8","66577b1040d04186628e32d6","1286","stimuli/01111012.jpg"," ","","feedback_trial","0","","","","","","","","","","","","","","","","","","","","",""
"","","","","","image-keyboard-response","88","319286","0.0-63.0","62869a1b7fff9c9a48fe6087","665500ab8938657b03fbdba8","66577b1040d04186628e32d6","1702","stimuli/1101011.jpg","1","","prediction_trial","1","","true","","1","false","false","true","true","false","false","[1]","101","011","1","","","","","","",""
"","","","","","image-keyboard-response","89","320528","0.0-64.0","62869a1b7fff9c9a48fe6087","665500ab8938657b03fbdba8","66577b1040d04186628e32d6","1234","stimuli/11010111.jpg"," ","","feedback_trial","1","","","","","","","","","","","","","","","","","","","","",""
"","","","","","image-keyboard-response","90","322402","0.0-65.0","62869a1b7fff9c9a48fe6087","665500ab8938657b03fbdba8","66577b1040d04186628e32d6","1873","stimuli/2010011.jpg","2","","prediction_trial","2","","true","","2","false","false","true","true","false","false","[2]","010","011","1","","","","","","",""
"","","","","","image-keyboard-response","91","323586","0.0-66.0","62869a1b7fff9c9a48fe6087","665500ab8938657b03fbdba8","66577b1040d04186628e32d6","1182","stimuli/20100112.jpg"," ","","feedback_trial","2","","","","","","","","","","","","","","","","","","","","",""
"","","","","","image-keyboard-response","92","326366","0.0-67.0","62869a1b7fff9c9a48fe6087","665500ab8938657b03fbdba8","66577b1040d04186628e32d6","2779","stimuli/1110010.jpg","1","","prediction_trial","0","","false","","1","false","true","false","false","false","false","[0,1]","110","010","0","","","","","","",""
"","","","","","image-keyboard-response","93","327592","0.0-68.0","62869a1b7fff9c9a48fe6087","665500ab8938657b03fbdba8","66577b1040d04186628e32d6","1224","stimuli/11100100.jpg"," ","","feedback_trial","0","","","","","","","","","","","","","","","","","","","","",""
"","","","","","image-keyboard-response","94","328509","0.0-69.0","62869a1b7fff9c9a48fe6087","665500ab8938657b03fbdba8","66577b1040d04186628e32d6","916","stimuli/1101101.jpg","1","","prediction_trial","1","","true","","1","true","true","true","true","true","true","[1]","101","101","1","","","","","","",""
"","","","","","image-keyboard-response","95","328959","0.0-70.0","62869a1b7fff9c9a48fe6087","665500ab8938657b03fbdba8","66577b1040d04186628e32d6","448","stimuli/11011011.jpg"," ","","feedback_trial","1","","","","","","","","","","","","","","","","","","","","",""
"","","","","","image-keyboard-response","96","329627","0.0-71.0","62869a1b7fff9c9a48fe6087","665500ab8938657b03fbdba8","66577b1040d04186628e32d6","668","stimuli/2100110.jpg","2","","prediction_trial","2","","true","","2","true","true","true","true","true","true","[2]","100","110","1","","","","","","",""
"","","","","","image-keyboard-response","97","330070","0.0-72.0","62869a1b7fff9c9a48fe6087","665500ab8938657b03fbdba8","66577b1040d04186628e32d6","442","stimuli/21001102.jpg"," ","","feedback_trial","2","","","","","","","","","","","","","","","","","","","","",""
"","","","","","image-keyboard-response","98","332116","0.0-73.0","62869a1b7fff9c9a48fe6087","665500ab8938657b03fbdba8","66577b1040d04186628e32d6","2043","stimuli/1011011.jpg","2","","prediction_trial","1","","false","","1","false","false","false","false","false","false","[1,2]","011","011","0","","","","","","",""
"","","","","","image-keyboard-response","99","333243","0.0-74.0","62869a1b7fff9c9a48fe6087","665500ab8938657b03fbdba8","66577b1040d04186628e32d6","1126","stimuli/10110111.jpg"," ","","feedback_trial","1","","","","","","","","","","","","","","","","","","","","",""
"","","","","","image-keyboard-response","100","335756","0.0-75.0","62869a1b7fff9c9a48fe6087","665500ab8938657b03fbdba8","66577b1040d04186628e32d6","2511","stimuli/1011101.jpg","0","","prediction_trial","1","","false","","1","true","true","false","false","false","false","[1,2]","011","101","0","","","","","","",""
"","","","","","image-keyboard-response","101","336661","0.0-76.0","62869a1b7fff9c9a48fe6087","665500ab8938657b03fbdba8","66577b1040d04186628e32d6","902","stimuli/10111011.jpg"," ","","feedback_trial","1","","","","","","","","","","","","","","","","","","","","",""
"","","","","","image-keyboard-response","102","337896","0.0-77.0","62869a1b7fff9c9a48fe6087","665500ab8938657b03fbdba8","66577b1040d04186628e32d6","1233","stimuli/2000110.jpg","2","","prediction_trial","2","","true","","2","true","true","true","true","true","true","[2]","000","110","1","","","","","","",""
"","","","","","image-keyboard-response","103","338301","0.0-78.0","62869a1b7fff9c9a48fe6087","665500ab8938657b03fbdba8","66577b1040d04186628e32d6","403","stimuli/20001102.jpg"," ","","feedback_trial","2","","","","","","","","","","","","","","","","","","","","",""
"","","","","","image-keyboard-response","104","341897","0.0-79.0","62869a1b7fff9c9a48fe6087","665500ab8938657b03fbdba8","66577b1040d04186628e32d6","3594","stimuli/1110101.jpg","0","","prediction_trial","1","","false","","1","true","true","false","false","false","false","[1,0]","110","101","0","","","","","","",""
"","","","","","image-keyboard-response","105","342958","0.0-80.0","62869a1b7fff9c9a48fe6087","665500ab8938657b03fbdba8","66577b1040d04186628e32d6","1060","stimuli/11101011.jpg"," ","","feedback_trial","1","","","","","","","","","","","","","","","","","","","","",""
"","","","","","image-keyboard-response","106","344787","0.0-81.0","62869a1b7fff9c9a48fe6087","665500ab8938657b03fbdba8","66577b1040d04186628e32d6","1827","stimuli/2111110.jpg","2","","prediction_trial","0","","false","","2","true","true","false","false","false","false","[0,1,2]","111","110","0","","","","","","",""
"","","","","","image-keyboard-response","107","345676","0.0-82.0","62869a1b7fff9c9a48fe6087","665500ab8938657b03fbdba8","66577b1040d04186628e32d6","882","stimuli/21111100.jpg"," ","","feedback_trial","0","","","","","","","","","","","","","","","","","","","","",""
"","","","","","image-keyboard-response","108","347456","0.0-83.0","62869a1b7fff9c9a48fe6087","665500ab8938657b03fbdba8","66577b1040d04186628e32d6","1779","stimuli/1111100.jpg","1","","prediction_trial","1","","true","","1","true","true","false","false","false","false","[1,2,0]","111","100","1","","","","","","",""
"","","","","","image-keyboard-response","109","348477","0.0-84.0","62869a1b7fff9c9a48fe6087","665500ab8938657b03fbdba8","66577b1040d04186628e32d6","1020","stimuli/11111001.jpg"," ","","feedback_trial","1","","","","","","","","","","","","","","","","","","","","",""
"","","","","","image-keyboard-response","110","350273","0.0-85.0","62869a1b7fff9c9a48fe6087","665500ab8938657b03fbdba8","66577b1040d04186628e32d6","1795","stimuli/2100111.jpg","1","","prediction_trial","2","","false","","2","false","false","true","true","false","false","[2]","100","111","0","","","","","","",""
"","","","","","image-keyboard-response","111","351587","0.0-86.0","62869a1b7fff9c9a48fe6087","665500ab8938657b03fbdba8","66577b1040d04186628e32d6","1313","stimuli/21001112.jpg"," ","","feedback_trial","2","","","","","","","","","","","","","","","","","","","","",""
"","","","","","image-keyboard-response","112","354276","0.0-87.0","62869a1b7fff9c9a48fe6087","665500ab8938657b03fbdba8","66577b1040d04186628e32d6","2687","stimuli/2000111.jpg","2","","prediction_trial","2","","true","","2","false","false","true","true","false","false","[2]","000","111","1","","","","","","",""
"","","","","","image-keyboard-response","113","355609","0.0-88.0","62869a1b7fff9c9a48fe6087","665500ab8938657b03fbdba8","66577b1040d04186628e32d6","1313","stimuli/20001112.jpg"," ","","feedback_trial","2","","","","","","","","","","","","","","","","","","","","",""
"","","","","","image-keyboard-response","114","357425","0.0-89.0","62869a1b7fff9c9a48fe6087","665500ab8938657b03fbdba8","66577b1040d04186628e32d6","1815","stimuli/1111111.jpg","0","","prediction_trial","0","","true","","1","false","false","false","false","false","false","[0,2,1]","111","111","1","","","","","","",""
"","","","","","image-keyboard-response","115","358425","0.0-90.0","62869a1b7fff9c9a48fe6087","665500ab8938657b03fbdba8","66577b1040d04186628e32d6","1000","stimuli/11111110.jpg"," ","","feedback_trial","0","","","","","","","","","","","","","","","","","","","","",""
"","","","","","image-keyboard-response","116","360211","0.0-91.0","62869a1b7fff9c9a48fe6087","665500ab8938657b03fbdba8","66577b1040d04186628e32d6","1784","stimuli/1011111.jpg","0","","prediction_trial","1","","false","","1","false","false","false","false","false","false","[2,1]","011","111","0","","","","","","",""
"","","","","","image-keyboard-response","117","361096","0.0-92.0","62869a1b7fff9c9a48fe6087","665500ab8938657b03fbdba8","66577b1040d04186628e32d6","884","stimuli/10111111.jpg"," ","","feedback_trial","2","","","","","","","","","","","","","","","","","","","","",""
"","","","","","image-keyboard-response","118","362916","0.0-93.0","62869a1b7fff9c9a48fe6087","665500ab8938657b03fbdba8","66577b1040d04186628e32d6","1819","stimuli/0110111.jpg","2","","prediction_trial","1","","false","","0","false","false","false","false","false","false","[1,0]","110","111","0","","","","","","",""
"","","","","","image-keyboard-response","119","363816","0.0-94.0","62869a1b7fff9c9a48fe6087","665500ab8938657b03fbdba8","66577b1040d04186628e32d6","899","stimuli/01101111.jpg"," ","","feedback_trial","1","","","","","","","","","","","","","","","","","","","","",""
"","","","","","image-keyboard-response","120","365317","0.0-95.0","62869a1b7fff9c9a48fe6087","665500ab8938657b03fbdba8","66577b1040d04186628e32d6","1499","stimuli/2001000.jpg","2","","prediction_trial","2","","true","","2","true","true","false","true","false","true","[2]","001","000","1","","","","","","",""
"","","","","","image-keyboard-response","121","366048","0.0-96.0","62869a1b7fff9c9a48fe6087","665500ab8938657b03fbdba8","66577b1040d04186628e32d6","730","stimuli/20010002.jpg"," ","","feedback_trial","2","","","","","","","","","","","","","","","","","","","","",""
"","","","","","image-keyboard-response","122","368168","0.0-97.0","62869a1b7fff9c9a48fe6087","665500ab8938657b03fbdba8","66577b1040d04186628e32d6","2120","stimuli/2110101.jpg","2","","prediction_trial","2","","true","","2","false","false","true","true","false","false","[2]","110","101","1","","","","","","",""
"","","","","","image-keyboard-response","123","368888","0.0-98.0","62869a1b7fff9c9a48fe6087","665500ab8938657b03fbdba8","66577b1040d04186628e32d6","719","stimuli/21101012.jpg"," ","","feedback_trial","2","","","","","","","","","","","","","","","","","","","","",""
"","","","","","image-keyboard-response","124","370131","0.0-99.0","62869a1b7fff9c9a48fe6087","665500ab8938657b03fbdba8","66577b1040d04186628e32d6","1241","stimuli/1010000.jpg","1","","prediction_trial","1","","true","","1","true","true","false","true","false","true","[1]","010","000","1","","","","","","",""
"","","","","","image-keyboard-response","125","370603","0.0-100.0","62869a1b7fff9c9a48fe6087","665500ab8938657b03fbdba8","66577b1040d04186628e32d6","445","stimuli/10100001.jpg"," ","","feedback_trial","1","","","","","","","","","","","","","","","","","","","","",""
"","","","","","image-keyboard-response","126","372664","0.0-101.0","62869a1b7fff9c9a48fe6087","665500ab8938657b03fbdba8","66577b1040d04186628e32d6","2061","stimuli/0101010.jpg","0","","prediction_trial","2","","false","","0","true","true","false","false","false","false","[0,2]","101","010","0","","","","","","",""
"","","","","","image-keyboard-response","127","373827","0.0-102.0","62869a1b7fff9c9a48fe6087","665500ab8938657b03fbdba8","66577b1040d04186628e32d6","1161","stimuli/01010102.jpg"," ","","feedback_trial","0","","","","","","","","","","","","","","","","","","","","",""
"","","","","","image-keyboard-response","128","375248","0.0-103.0","62869a1b7fff9c9a48fe6087","665500ab8938657b03fbdba8","66577b1040d04186628e32d6","1420","stimuli/1110001.jpg","1","","prediction_trial","1","","true","","1","true","true","false","false","false","false","[1,0]","110","001","1","","","","","","",""
"","","","","","image-keyboard-response","129","376231","0.0-104.0","62869a1b7fff9c9a48fe6087","665500ab8938657b03fbdba8","66577b1040d04186628e32d6","983","stimuli/11100011.jpg"," ","","feedback_trial","1","","","","","","","","","","","","","","","","","","","","",""
"","","","","","image-keyboard-response","130","377873","0.0-105.0","62869a1b7fff9c9a48fe6087","665500ab8938657b03fbdba8","66577b1040d04186628e32d6","1641","stimuli/2100101.jpg","0","","prediction_trial","2","","false","","2","false","false","true","true","false","false","[2]","100","101","0","","","","","","",""
"","","","","","image-keyboard-response","131","378960","0.0-106.0","62869a1b7fff9c9a48fe6087","665500ab8938657b03fbdba8","66577b1040d04186628e32d6","1073","stimuli/21001012.jpg"," ","","feedback_trial","2","","","","","","","","","","","","","","","","","","","","",""
"","","","","","image-keyboard-response","132","380829","0.0-107.0","62869a1b7fff9c9a48fe6087","665500ab8938657b03fbdba8","66577b1040d04186628e32d6","1868","stimuli/1010110.jpg","0","","prediction_trial","1","","false","","1","false","false","false","true","false","false","[1]","010","110","0","","","","","","",""
"","","","","","image-keyboard-response","133","381798","0.0-108.0","62869a1b7fff9c9a48fe6087","665500ab8938657b03fbdba8","66577b1040d04186628e32d6","968","stimuli/10101101.jpg"," ","","feedback_trial","1","","","","","","","","","","","","","","","","","","","","",""
"","","","","","image-keyboard-response","134","383409","0.0-109.0","62869a1b7fff9c9a48fe6087","665500ab8938657b03fbdba8","66577b1040d04186628e32d6","1610","stimuli/2010100.jpg","2","","prediction_trial","2","","true","","2","true","true","true","true","true","true","[2]","010","100","1","","","","","","",""
"","","","","","image-keyboard-response","135","384050","0.0-110.0","62869a1b7fff9c9a48fe6087","665500ab8938657b03fbdba8","66577b1040d04186628e32d6","640","stimuli/20101002.jpg"," ","","feedback_trial","2","","","","","","","","","","","","","","","","","","","","",""
"","","","","","image-keyboard-response","136","385864","0.0-111.0","62869a1b7fff9c9a48fe6087","665500ab8938657b03fbdba8","66577b1040d04186628e32d6","1813","stimuli/1110110.jpg","0","","prediction_trial","0","","true","","1","false","false","false","false","false","false","[1,0]","110","110","1","","","","","","",""
"","","","","","image-keyboard-response","137","386650","0.0-112.0","62869a1b7fff9c9a48fe6087","665500ab8938657b03fbdba8","66577b1040d04186628e32d6","784","stimuli/11101100.jpg"," ","","feedback_trial","1","","","","","","","","","","","","","","","","","","","","",""
"","","","","","image-keyboard-response","138","388672","0.0-113.0","62869a1b7fff9c9a48fe6087","665500ab8938657b03fbdba8","66577b1040d04186628e32d6","2021","stimuli/1111000.jpg","1","","prediction_trial","0","","false","","1","true","true","false","false","false","false","[2,1,0]","111","000","0","","","","","","",""
"","","","","","image-keyboard-response","139","389610","0.0-114.0","62869a1b7fff9c9a48fe6087","665500ab8938657b03fbdba8","66577b1040d04186628e32d6","936","stimuli/11110000.jpg"," ","","feedback_trial","2","","","","","","","","","","","","","","","","","","","","",""
"","","","","","image-keyboard-response","140","390499","0.0-115.0","62869a1b7fff9c9a48fe6087","665500ab8938657b03fbdba8","66577b1040d04186628e32d6","888","stimuli/1001000.jpg","1","","prediction_trial","1","","true","","1","true","true","true","true","true","true","[1]","001","000","1","","","","","","",""
"","","","","","image-keyboard-response","141","390937","0.0-116.0","62869a1b7fff9c9a48fe6087","665500ab8938657b03fbdba8","66577b1040d04186628e32d6","437","stimuli/10010001.jpg"," ","","feedback_trial","1","","","","","","","","","","","","","","","","","","","","",""
"","","","","","image-keyboard-response","142","392282","0.0-117.0","62869a1b7fff9c9a48fe6087","665500ab8938657b03fbdba8","66577b1040d04186628e32d6","1344","stimuli/1010010.jpg","1","","prediction_trial","1","","true","","1","false","true","false","true","false","true","[1]","010","010","1","","","","","","",""
"","","","","","image-keyboard-response","143","392931","0.0-118.0","62869a1b7fff9c9a48fe6087","665500ab8938657b03fbdba8","66577b1040d04186628e32d6","648","stimuli/10100101.jpg"," ","","feedback_trial","1","","","","","","","","","","","","","","","","","","","","",""
"","","","","","image-keyboard-response","144","393770","0.0-119.0","62869a1b7fff9c9a48fe6087","665500ab8938657b03fbdba8","66577b1040d04186628e32d6","837","stimuli/2010000.jpg","2","","prediction_trial","2","","true","","2","true","true","true","true","true","true","[2]","010","000","1","","","","","","",""
"","","","","","image-keyboard-response","145","394256","0.0-120.0","62869a1b7fff9c9a48fe6087","665500ab8938657b03fbdba8","66577b1040d04186628e32d6","485","stimuli/20100002.jpg"," ","","feedback_trial","2","","","","","","","","","","","","","","","","","","","","",""
"","","","","","image-keyboard-response","146","396832","0.0-121.0","62869a1b7fff9c9a48fe6087","665500ab8938657b03fbdba8","66577b1040d04186628e32d6","2575","stimuli/2110111.jpg","2","","prediction_trial","2","","true","","2","false","false","true","true","false","false","[2]","110","111","1","","","","","","",""
"","","","","","image-keyboard-response","147","397840","0.0-122.0","62869a1b7fff9c9a48fe6087","665500ab8938657b03fbdba8","66577b1040d04186628e32d6","1007","stimuli/21101112.jpg"," ","","feedback_trial","2","","","","","","","","","","","","","","","","","","","","",""
"","","","","","image-keyboard-response","148","400117","0.0-123.0","62869a1b7fff9c9a48fe6087","665500ab8938657b03fbdba8","66577b1040d04186628e32d6","2276","stimuli/2011101.jpg","2","","prediction_trial","2","","true","","2","false","false","false","false","false","false","[2,1]","011","101","1","","","","","","",""
"","","","","","image-keyboard-response","149","401096","0.0-124.0","62869a1b7fff9c9a48fe6087","665500ab8938657b03fbdba8","66577b1040d04186628e32d6","973","stimuli/20111012.jpg"," ","","feedback_trial","2","","","","","","","","","","","","","","","","","","","","",""
"","","","","","image-keyboard-response","150","402216","0.0-125.0","62869a1b7fff9c9a48fe6087","665500ab8938657b03fbdba8","66577b1040d04186628e32d6","1120","stimuli/2000001.jpg","2","","prediction_trial","2","","true","","2","false","true","true","true","false","true","[2]","000","001","1","","","","","","",""
"","","","","","image-keyboard-response","151","403020","0.0-126.0","62869a1b7fff9c9a48fe6087","665500ab8938657b03fbdba8","66577b1040d04186628e32d6","802","stimuli/20000012.jpg"," ","","feedback_trial","2","","","","","","","","","","","","","","","","","","","","",""
"","","","","","image-keyboard-response","152","404118","0.0-127.0","62869a1b7fff9c9a48fe6087","665500ab8938657b03fbdba8","66577b1040d04186628e32d6","1096","stimuli/0100100.jpg","0","","prediction_trial","0","","true","","0","false","true","false","true","false","true","[0]","100","100","1","","","","","","",""
"","","","","","image-keyboard-response","153","404795","0.0-128.0","62869a1b7fff9c9a48fe6087","665500ab8938657b03fbdba8","66577b1040d04186628e32d6","676","stimuli/01001000.jpg"," ","","feedback_trial","0","","","","","","","","","","","","","","","","","","","","",""
"","","","","","image-keyboard-response","154","406886","0.0-129.0","62869a1b7fff9c9a48fe6087","665500ab8938657b03fbdba8","66577b1040d04186628e32d6","2091","stimuli/2111001.jpg","2","","prediction_trial","2","","true","","2","false","true","false","false","false","false","[1,2,0]","111","001","1","","","","","","",""
"","","","","","image-keyboard-response","155","407807","0.0-130.0","62869a1b7fff9c9a48fe6087","665500ab8938657b03fbdba8","66577b1040d04186628e32d6","919","stimuli/21110012.jpg"," ","","feedback_trial","1","","","","","","","","","","","","","","","","","","","","",""
"","","","","","image-keyboard-response","156","408475","0.0-131.0","62869a1b7fff9c9a48fe6087","665500ab8938657b03fbdba8","66577b1040d04186628e32d6","667","stimuli/2000010.jpg","2","","prediction_trial","2","","true","","2","true","true","true","true","true","true","[2]","000","010","1","","","","","","",""
"","","","","","image-keyboard-response","157","408925","0.0-132.0","62869a1b7fff9c9a48fe6087","665500ab8938657b03fbdba8","66577b1040d04186628e32d6","449","stimuli/20000102.jpg"," ","","feedback_trial","2","","","","","","","","","","","","","","","","","","","","",""
"","","","","","image-keyboard-response","158","409642","0.0-133.0","62869a1b7fff9c9a48fe6087","665500ab8938657b03fbdba8","66577b1040d04186628e32d6","716","stimuli/0010000.jpg","0","","prediction_trial","0","","true","","0","true","true","true","true","true","true","[0]","010","000","1","","","","","","",""
"","","","","","image-keyboard-response","159","410108","0.0-134.0","62869a1b7fff9c9a48fe6087","665500ab8938657b03fbdba8","66577b1040d04186628e32d6","465","stimuli/00100000.jpg"," ","","feedback_trial","0","","","","","","","","","","","","","","","","","","","","",""
"","","","","","image-keyboard-response","160","411279","0.0-135.0","62869a1b7fff9c9a48fe6087","665500ab8938657b03fbdba8","66577b1040d04186628e32d6","1171","stimuli/0101101.jpg","2","","prediction_trial","2","","true","","0","false","false","false","false","false","false","[0,2]","101","101","1","","","","","","",""
"","","","","","image-keyboard-response","161","412061","0.0-136.0","62869a1b7fff9c9a48fe6087","665500ab8938657b03fbdba8","66577b1040d04186628e32d6","770","stimuli/01011012.jpg"," ","","feedback_trial","0","","","","","","","","","","","","","","","","","","","","",""
"","","","","","image-keyboard-response","162","412734","0.0-137.0","62869a1b7fff9c9a48fe6087","665500ab8938657b03fbdba8","66577b1040d04186628e32d6","672","stimuli/2010010.jpg","2","","prediction_trial","2","","true","","2","true","true","true","true","true","true","[2]","010","010","1","","","","","","",""
"","","","","","image-keyboard-response","163","413186","0.0-138.0","62869a1b7fff9c9a48fe6087","665500ab8938657b03fbdba8","66577b1040d04186628e32d6","451","stimuli/20100102.jpg"," ","","feedback_trial","2","","","","","","","","","","","","","","","","","","","","",""
"","","","","","image-keyboard-response","164","414035","0.0-139.0","62869a1b7fff9c9a48fe6087","665500ab8938657b03fbdba8","66577b1040d04186628e32d6","847","stimuli/2001010.jpg","2","","prediction_trial","2","","true","","2","true","true","false","true","false","true","[2]","001","010","1","","","","","","",""
"","","","","","image-keyboard-response","165","414675","0.0-140.0","62869a1b7fff9c9a48fe6087","665500ab8938657b03fbdba8","66577b1040d04186628e32d6","639","stimuli/20010102.jpg"," ","","feedback_trial","2","","","","","","","","","","","","","","","","","","","","",""
"","","","","","image-keyboard-response","166","418571","0.0-141.0","62869a1b7fff9c9a48fe6087","665500ab8938657b03fbdba8","66577b1040d04186628e32d6","3895","stimuli/1011110.jpg","0","","prediction_trial","2","","false","","1","false","false","false","false","false","false","[2,1]","011","110","0","","","","","","",""
"","","","","","image-keyboard-response","167","419742","0.0-142.0","62869a1b7fff9c9a48fe6087","665500ab8938657b03fbdba8","66577b1040d04186628e32d6","1171","stimuli/10111102.jpg"," ","","feedback_trial","2","","","","","","","","","","","","","","","","","","","","",""
"","","","","","image-keyboard-response","168","420680","0.0-143.0","62869a1b7fff9c9a48fe6087","665500ab8938657b03fbdba8","66577b1040d04186628e32d6","937","stimuli/1000100.jpg","1","","prediction_trial","1","","true","","1","true","true","true","true","true","true","[1]","000","100","1","","","","","","",""
"","","","","","image-keyboard-response","169","421201","0.0-144.0","62869a1b7fff9c9a48fe6087","665500ab8938657b03fbdba8","66577b1040d04186628e32d6","519","stimuli/10001001.jpg"," ","","feedback_trial","1","","","","","","","","","","","","","","","","","","","","",""
"","","","","","image-keyboard-response","170","421824","0.0-145.0","62869a1b7fff9c9a48fe6087","665500ab8938657b03fbdba8","66577b1040d04186628e32d6","622","stimuli/0001011.jpg","0","","prediction_trial","0","","true","","0","true","true","true","true","true","true","[0]","001","011","1","","","","","","",""
"","","","","","image-keyboard-response","171","422316","0.0-146.0","62869a1b7fff9c9a48fe6087","665500ab8938657b03fbdba8","66577b1040d04186628e32d6","491","stimuli/00010110.jpg"," ","","feedback_trial","0","","","","","","","","","","","","","","","","","","","","",""
"","","","","","image-keyboard-response","172","423021","0.0-147.0","62869a1b7fff9c9a48fe6087","665500ab8938657b03fbdba8","66577b1040d04186628e32d6","705","stimuli/0001010.jpg","0","","prediction_trial","0","","true","","0","true","true","true","true","true","true","[0]","001","010","1","","","","","","",""
"","","","","","image-keyboard-response","173","423457","0.0-148.0","62869a1b7fff9c9a48fe6087","665500ab8938657b03fbdba8","66577b1040d04186628e32d6","416","stimuli/00010100.jpg"," ","","feedback_trial","0","","","","","","","","","","","","","","","","","","","","",""
"","","","","","image-keyboard-response","174","426281","0.0-149.0","62869a1b7fff9c9a48fe6087","665500ab8938657b03fbdba8","66577b1040d04186628e32d6","2823","stimuli/2001111.jpg","2","","prediction_trial","2","","true","","2","false","false","false","true","false","false","[2]","001","111","1","","","","","","",""
"","","","","","image-keyboard-response","175","427314","0.0-150.0","62869a1b7fff9c9a48fe6087","665500ab8938657b03fbdba8","66577b1040d04186628e32d6","1032","stimuli/20011112.jpg"," ","","feedback_trial","2","","","","","","","","","","","","","","","","","","","","",""
"","","","","","image-keyboard-response","176","428642","0.0-151.0","62869a1b7fff9c9a48fe6087","665500ab8938657b03fbdba8","66577b1040d04186628e32d6","1327","stimuli/0110000.jpg","0","","prediction_trial","0","","true","","0","true","true","false","false","false","false","[0,1]","110","000","1","","","","","","",""
"","","","","","image-keyboard-response","177","429601","0.0-152.0","62869a1b7fff9c9a48fe6087","665500ab8938657b03fbdba8","66577b1040d04186628e32d6","959","stimuli/01100000.jpg"," ","","feedback_trial","0","","","","","","","","","","","","","","","","","","","","",""
"","","","","","image-keyboard-response","178","430344","0.0-153.0","62869a1b7fff9c9a48fe6087","665500ab8938657b03fbdba8","66577b1040d04186628e32d6","742","stimuli/0000010.jpg","0","","prediction_trial","0","","true","","0","true","true","true","true","true","true","[0]","000","010","1","","","","","","",""
"","","","","","image-keyboard-response","179","430794","0.0-154.0","62869a1b7fff9c9a48fe6087","665500ab8938657b03fbdba8","66577b1040d04186628e32d6","440","stimuli/00000100.jpg"," ","","feedback_trial","0","","","","","","","","","","","","","","","","","","","","",""
"","","","","","image-keyboard-response","180","431919","0.0-155.0","62869a1b7fff9c9a48fe6087","665500ab8938657b03fbdba8","66577b1040d04186628e32d6","1123","stimuli/2111111.jpg","2","","prediction_trial","2","","true","","2","false","false","false","false","false","false","[2,1,0]","111","111","1","","","","","","",""
"","","","","","image-keyboard-response","181","432750","0.0-156.0","62869a1b7fff9c9a48fe6087","665500ab8938657b03fbdba8","66577b1040d04186628e32d6","828","stimuli/21111112.jpg"," ","","feedback_trial","2","","","","","","","","","","","","","","","","","","","","",""
"","","","","","image-keyboard-response","182","434318","0.0-157.0","62869a1b7fff9c9a48fe6087","665500ab8938657b03fbdba8","66577b1040d04186628e32d6","1567","stimuli/1101111.jpg","2","","prediction_trial","1","","false","","1","false","false","true","true","false","false","[1]","101","111","0","","","","","","",""
"","","","","","image-keyboard-response","183","435561","0.0-158.0","62869a1b7fff9c9a48fe6087","665500ab8938657b03fbdba8","66577b1040d04186628e32d6","1242","stimuli/11011111.jpg"," ","","feedback_trial","1","","","","","","","","","","","","","","","","","","","","",""
"","","","","","image-keyboard-response","184","438294","0.0-159.0","62869a1b7fff9c9a48fe6087","665500ab8938657b03fbdba8","66577b1040d04186628e32d6","2732","stimuli/1000110.jpg","1","","prediction_trial","1","","true","","1","false","false","true","true","false","false","[1]","000","110","1","","","","","","",""
"","","","","","image-keyboard-response","185","439249","0.0-160.0","62869a1b7fff9c9a48fe6087","665500ab8938657b03fbdba8","66577b1040d04186628e32d6","930","stimuli/10001101.jpg"," ","","feedback_trial","1","","","","","","","","","","","","","","","","","","","","",""
"","","","","","image-keyboard-response","186","440380","0.0-161.0","62869a1b7fff9c9a48fe6087","665500ab8938657b03fbdba8","66577b1040d04186628e32d6","1130","stimuli/1110100.jpg","1","","prediction_trial","0","","false","","1","true","true","false","false","false","false","[1,0]","110","100","0","","","","","","",""
"","","","","","image-keyboard-response","187","441298","0.0-162.0","62869a1b7fff9c9a48fe6087","665500ab8938657b03fbdba8","66577b1040d04186628e32d6","916","stimuli/11101000.jpg"," ","","feedback_trial","1","","","","","","","","","","","","","","","","","","","","",""
"","","","","","image-keyboard-response","188","444315","0.0-163.0","62869a1b7fff9c9a48fe6087","665500ab8938657b03fbdba8","66577b1040d04186628e32d6","3016","stimuli/0111011.jpg","2","","prediction_trial","0","","false","","0","true","true","false","false","false","false","[0,2,1]","111","011","0","","","","","","",""
"","","","","","image-keyboard-response","189","445198","0.0-164.0","62869a1b7fff9c9a48fe6087","665500ab8938657b03fbdba8","66577b1040d04186628e32d6","883","stimuli/01110110.jpg"," ","","feedback_trial","0","","","","","","","","","","","","","","","","","","","","",""
"","","","","","image-keyboard-response","190","446844","0.0-165.0","62869a1b7fff9c9a48fe6087","665500ab8938657b03fbdba8","66577b1040d04186628e32d6","1643","stimuli/1101110.jpg","1","","prediction_trial","1","","true","","1","false","false","true","true","false","false","[1]","101","110","1","","","","","","",""
"","","","","","image-keyboard-response","191","447817","0.0-166.0","62869a1b7fff9c9a48fe6087","665500ab8938657b03fbdba8","66577b1040d04186628e32d6","966","stimuli/11011101.jpg"," ","","feedback_trial","1","","","","","","","","","","","","","","","","","","","","",""
"","","","","","image-keyboard-response","192","449378","0.0-167.0","62869a1b7fff9c9a48fe6087","665500ab8938657b03fbdba8","66577b1040d04186628e32d6","1560","stimuli/0111001.jpg","0","","prediction_trial","0","","true","","0","true","true","false","false","false","false","[1,2,0]","111","001","1","","","","","","",""
"","","","","","image-keyboard-response","193","450282","0.0-168.0","62869a1b7fff9c9a48fe6087","665500ab8938657b03fbdba8","66577b1040d04186628e32d6","902","stimuli/01110010.jpg"," ","","feedback_trial","1","","","","","","","","","","","","","","","","","","","","",""
"","","","","","image-keyboard-response","194","450965","0.0-169.0","62869a1b7fff9c9a48fe6087","665500ab8938657b03fbdba8","66577b1040d04186628e32d6","682","stimuli/1101000.jpg","1","","prediction_trial","1","","true","","1","true","true","true","true","true","true","[1]","101","000","1","","","","","","",""
"","","","","","image-keyboard-response","195","451415","0.0-170.0","62869a1b7fff9c9a48fe6087","665500ab8938657b03fbdba8","66577b1040d04186628e32d6","450","stimuli/11010001.jpg"," ","","feedback_trial","1","","","","","","","","","","","","","","","","","","","","",""
"","","","","","image-keyboard-response","196","452017","0.0-171.0","62869a1b7fff9c9a48fe6087","665500ab8938657b03fbdba8","66577b1040d04186628e32d6","600","stimuli/0010010.jpg","0","","prediction_trial","0","","true","","0","true","true","true","true","true","true","[0]","010","010","1","","","","","","",""
"","","","","","image-keyboard-response","197","452499","0.0-172.0","62869a1b7fff9c9a48fe6087","665500ab8938657b03fbdba8","66577b1040d04186628e32d6","469","stimuli/00100100.jpg"," ","","feedback_trial","0","","","","","","","","","","","","","","","","","","","","",""
"","","","","","image-keyboard-response","198","453668","0.0-173.0","62869a1b7fff9c9a48fe6087","665500ab8938657b03fbdba8","66577b1040d04186628e32d6","1167","stimuli/0001111.jpg","1","","prediction_trial","0","","false","","0","false","false","true","true","false","false","[0]","001","111","0","","","","","","",""
"","","","","","image-keyboard-response","199","454795","0.0-174.0","62869a1b7fff9c9a48fe6087","665500ab8938657b03fbdba8","66577b1040d04186628e32d6","1126","stimuli/00011110.jpg"," ","","feedback_trial","0","","","","","","","","","","","","","","","","","","","","",""
"","","","","","image-keyboard-response","200","455749","0.0-175.0","62869a1b7fff9c9a48fe6087","665500ab8938657b03fbdba8","66577b1040d04186628e32d6","953","stimuli/1010100.jpg","1","","prediction_trial","1","","true","","1","true","true","false","true","false","true","[1]","010","100","1","","","","","","",""
"","","","","","image-keyboard-response","201","456603","0.0-176.0","62869a1b7fff9c9a48fe6087","665500ab8938657b03fbdba8","66577b1040d04186628e32d6","853","stimuli/10101001.jpg"," ","","feedback_trial","1","","","","","","","","","","","","","","","","","","","","",""
"","","","","","image-keyboard-response","202","457704","0.0-177.0","62869a1b7fff9c9a48fe6087","665500ab8938657b03fbdba8","66577b1040d04186628e32d6","1100","stimuli/2010110.jpg","2","","prediction_trial","2","","true","","2","true","true","true","true","true","true","[2]","010","110","1","","","","","","",""
"","","","","","image-keyboard-response","203","458231","0.0-178.0","62869a1b7fff9c9a48fe6087","665500ab8938657b03fbdba8","66577b1040d04186628e32d6","516","stimuli/20101102.jpg"," ","","feedback_trial","2","","","","","","","","","","","","","","","","","","","","",""
"","","","","","image-keyboard-response","204","459544","0.0-179.0","62869a1b7fff9c9a48fe6087","665500ab8938657b03fbdba8","66577b1040d04186628e32d6","1312","stimuli/1111001.jpg","1","","prediction_trial","0","","false","","1","true","true","false","false","false","false","[2,0,1]","111","001","0","","","","","","",""
"","","","","","image-keyboard-response","205","460516","0.0-180.0","62869a1b7fff9c9a48fe6087","665500ab8938657b03fbdba8","66577b1040d04186628e32d6","970","stimuli/11110010.jpg"," ","","feedback_trial","2","","","","","","","","","","","","","","","","","","","","",""
"","","","","","image-keyboard-response","206","462469","0.0-181.0","62869a1b7fff9c9a48fe6087","665500ab8938657b03fbdba8","66577b1040d04186628e32d6","1953","stimuli/1110000.jpg","1","","prediction_trial","0","","false","","1","true","true","false","false","false","false","[1,0]","110","000","0","","","","","","",""
"","","","","","image-keyboard-response","207","463458","0.0-182.0","62869a1b7fff9c9a48fe6087","665500ab8938657b03fbdba8","66577b1040d04186628e32d6","988","stimuli/11100000.jpg"," ","","feedback_trial","1","","","","","","","","","","","","","","","","","","","","",""
"","","","","","image-keyboard-response","208","464749","0.0-183.0","62869a1b7fff9c9a48fe6087","665500ab8938657b03fbdba8","66577b1040d04186628e32d6","1290","stimuli/0010111.jpg","1","","prediction_trial","0","","false","","0","false","false","true","true","false","false","[0]","010","111","0","","","","","","",""
"","","","","","image-keyboard-response","209","465548","0.0-184.0","62869a1b7fff9c9a48fe6087","665500ab8938657b03fbdba8","66577b1040d04186628e32d6","786","stimuli/00101110.jpg"," ","","feedback_trial","0","","","","","","","","","","","","","","","","","","","","",""
"","","","","","image-keyboard-response","210","466345","0.0-185.0","62869a1b7fff9c9a48fe6087","665500ab8938657b03fbdba8","66577b1040d04186628e32d6","796","stimuli/0001001.jpg","0","","prediction_trial","0","","true","","0","true","true","true","true","true","true","[0]","001","001","1","","","","","","",""
"","","","","","image-keyboard-response","211","466766","0.0-186.0","62869a1b7fff9c9a48fe6087","665500ab8938657b03fbdba8","66577b1040d04186628e32d6","419","stimuli/00010010.jpg"," ","","feedback_trial","0","","","","","","","","","","","","","","","","","","","","",""
"","","","","","image-keyboard-response","212","468139","0.0-187.0","62869a1b7fff9c9a48fe6087","665500ab8938657b03fbdba8","66577b1040d04186628e32d6","1372","stimuli/0010100.jpg","0","","prediction_trial","0","","true","","0","false","true","true","true","false","true","[0]","010","100","1","","","","","","",""
"","","","","","image-keyboard-response","213","469223","0.0-188.0","62869a1b7fff9c9a48fe6087","665500ab8938657b03fbdba8","66577b1040d04186628e32d6","1084","stimuli/00101000.jpg"," ","","feedback_trial","0","","","","","","","","","","","","","","","","","","","","",""
"","","","","","image-keyboard-response","214","470505","0.0-189.0","62869a1b7fff9c9a48fe6087","665500ab8938657b03fbdba8","66577b1040d04186628e32d6","1281","stimuli/0010110.jpg","0","","prediction_trial","0","","true","","0","false","false","true","true","false","false","[0]","010","110","1","","","","","","",""
"","","","","","image-keyboard-response","215","471620","0.0-190.0","62869a1b7fff9c9a48fe6087","665500ab8938657b03fbdba8","66577b1040d04186628e32d6","1104","stimuli/00101100.jpg"," ","","feedback_trial","0","","","","","","","","","","","","","","","","","","","","",""
"","","","","","image-keyboard-response","216","473314","0.0-191.0","62869a1b7fff9c9a48fe6087","665500ab8938657b03fbdba8","66577b1040d04186628e32d6","1693","stimuli/0011101.jpg","0","","prediction_trial","0","","true","","0","false","false","true","true","false","false","[0]","011","101","1","","","","","","",""
"","","","","","image-keyboard-response","217","474325","0.0-192.0","62869a1b7fff9c9a48fe6087","665500ab8938657b03fbdba8","66577b1040d04186628e32d6","1010","stimuli/00111010.jpg"," ","","feedback_trial","0","","","","","","","","","","","","","","","","","","","","",""
"","","","","","image-keyboard-response","218","475494","0.0-193.0","62869a1b7fff9c9a48fe6087","665500ab8938657b03fbdba8","66577b1040d04186628e32d6","1168","stimuli/0101011.jpg","0","","prediction_trial","0","","true","","0","true","true","false","false","false","false","[2,0]","101","011","1","","","","","","",""
"","","","","","image-keyboard-response","219","476132","0.0-194.0","62869a1b7fff9c9a48fe6087","665500ab8938657b03fbdba8","66577b1040d04186628e32d6","636","stimuli/01010110.jpg"," ","","feedback_trial","2","","","","","","","","","","","","","","","","","","","","",""
"","","","","","image-keyboard-response","220","477222","0.0-195.0","62869a1b7fff9c9a48fe6087","665500ab8938657b03fbdba8","66577b1040d04186628e32d6","1088","stimuli/0000110.jpg","0","","prediction_trial","0","","true","","0","false","false","true","true","false","false","[0]","000","110","1","","","","","","",""
"","","","","","image-keyboard-response","221","477980","0.0-196.0","62869a1b7fff9c9a48fe6087","665500ab8938657b03fbdba8","66577b1040d04186628e32d6","749","stimuli/00001100.jpg"," ","","feedback_trial","0","","","","","","","","","","","","","","","","","","","","",""
"","","","","","image-keyboard-response","222","479341","0.0-197.0","62869a1b7fff9c9a48fe6087","665500ab8938657b03fbdba8","66577b1040d04186628e32d6","1359","stimuli/0110101.jpg","0","","prediction_trial","1","","false","","0","false","false","false","false","false","false","[0,1]","110","101","0","","","","","","",""
"","","","","","image-keyboard-response","223","480697","0.0-198.0","62869a1b7fff9c9a48fe6087","665500ab8938657b03fbdba8","66577b1040d04186628e32d6","1354","stimuli/01101011.jpg"," ","","feedback_trial","0","","","","","","","","","","","","","","","","","","","","",""
"","","","","","image-keyboard-response","224","481914","0.0-199.0","62869a1b7fff9c9a48fe6087","665500ab8938657b03fbdba8","66577b1040d04186628e32d6","1216","stimuli/0110010.jpg","0","","prediction_trial","0","","true","","0","true","true","false","false","false","false","[1,0]","110","010","1","","","","","","",""
"","","","","","image-keyboard-response","225","482578","0.0-200.0","62869a1b7fff9c9a48fe6087","665500ab8938657b03fbdba8","66577b1040d04186628e32d6","664","stimuli/01100100.jpg"," ","","feedback_trial","1","","","","","","","","","","","","","","","","","","","","",""
"","","","","","image-keyboard-response","226","485098","0.0-201.0","62869a1b7fff9c9a48fe6087","665500ab8938657b03fbdba8","66577b1040d04186628e32d6","2519","stimuli/0100110.jpg","1","","prediction_trial","0","","false","","0","false","false","false","true","false","false","[0]","100","110","0","","","","","","",""
"","","","","","image-keyboard-response","227","486177","0.0-202.0","62869a1b7fff9c9a48fe6087","665500ab8938657b03fbdba8","66577b1040d04186628e32d6","1079","stimuli/01001100.jpg"," ","","feedback_trial","0","","","","","","","","","","","","","","","","","","","","",""
"","","","","","image-keyboard-response","228","486979","0.0-203.0","62869a1b7fff9c9a48fe6087","665500ab8938657b03fbdba8","66577b1040d04186628e32d6","799","stimuli/2110110.jpg","2","","prediction_trial","2","","true","","2","true","true","true","true","true","true","[2]","110","110","1","","","","","","",""
"","","","","","image-keyboard-response","229","487435","0.0-204.0","62869a1b7fff9c9a48fe6087","665500ab8938657b03fbdba8","66577b1040d04186628e32d6","453","stimuli/21101102.jpg"," ","","feedback_trial","2","","","","","","","","","","","","","","","","","","","","",""
"","","","","","image-keyboard-response","230","488093","0.0-205.0","62869a1b7fff9c9a48fe6087","665500ab8938657b03fbdba8","66577b1040d04186628e32d6","657","stimuli/1100100.jpg","1","","prediction_trial","1","","true","","1","true","true","true","true","true","true","[1]","100","100","1","","","","","","",""
"","","","","","image-keyboard-response","231","488527","0.0-206.0","62869a1b7fff9c9a48fe6087","665500ab8938657b03fbdba8","66577b1040d04186628e32d6","432","stimuli/11001001.jpg"," ","","feedback_trial","1","","","","","","","","","","","","","","","","","","","","",""
"","","","","","image-keyboard-response","232","489799","0.0-207.0","62869a1b7fff9c9a48fe6087","665500ab8938657b03fbdba8","66577b1040d04186628e32d6","1270","stimuli/2011000.jpg","2","","prediction_trial","1","","false","","2","true","true","false","false","false","false","[2,1]","011","000","0","","","","","","",""
"","","","","","image-keyboard-response","233","490764","0.0-208.0","62869a1b7fff9c9a48fe6087","665500ab8938657b03fbdba8","66577b1040d04186628e32d6","945","stimuli/20110001.jpg"," ","","feedback_trial","2","","","","","","","","","","","","","","","","","","","","",""
"","","","","","image-keyboard-response","234","491770","0.0-209.0","62869a1b7fff9c9a48fe6087","665500ab8938657b03fbdba8","66577b1040d04186628e32d6","1006","stimuli/2101111.jpg","2","","prediction_trial","2","","true","","2","false","false","false","false","false","false","[2,0]","101","111","1","","","","","","",""
"","","","","","image-keyboard-response","235","492732","0.0-210.0","62869a1b7fff9c9a48fe6087","665500ab8938657b03fbdba8","66577b1040d04186628e32d6","960","stimuli/21011112.jpg"," ","","feedback_trial","2","","","","","","","","","","","","","","","","","","","","",""
"","","","","","image-keyboard-response","236","494322","0.0-211.0","62869a1b7fff9c9a48fe6087","665500ab8938657b03fbdba8","66577b1040d04186628e32d6","1588","stimuli/1010001.jpg","1","","prediction_trial","1","","true","","1","true","true","false","true","false","true","[1]","010","001","1","","","","","","",""
"","","","","","image-keyboard-response","237","494911","0.0-212.0","62869a1b7fff9c9a48fe6087","665500ab8938657b03fbdba8","66577b1040d04186628e32d6","588","stimuli/10100011.jpg"," ","","feedback_trial","1","","","","","","","","","","","","","","","","","","","","",""
"","","","","","image-keyboard-response","238","495655","0.0-213.0","62869a1b7fff9c9a48fe6087","665500ab8938657b03fbdba8","66577b1040d04186628e32d6","742","stimuli/1100101.jpg","1","","prediction_trial","1","","true","","1","true","true","true","true","true","true","[1]","100","101","1","","","","","","",""
"","","","","","image-keyboard-response","239","496075","0.0-214.0","62869a1b7fff9c9a48fe6087","665500ab8938657b03fbdba8","66577b1040d04186628e32d6","418","stimuli/11001011.jpg"," ","","feedback_trial","1","","","","","","","","","","","","","","","","","","","","",""
"","","","","","image-keyboard-response","240","498720","0.0-215.0","62869a1b7fff9c9a48fe6087","665500ab8938657b03fbdba8","66577b1040d04186628e32d6","2644","stimuli/0001110.jpg","1","","prediction_trial","0","","false","","0","false","false","true","true","false","false","[0]","001","110","0","","","","","","",""
"","","","","","image-keyboard-response","241","499606","0.0-216.0","62869a1b7fff9c9a48fe6087","665500ab8938657b03fbdba8","66577b1040d04186628e32d6","885","stimuli/00011100.jpg"," ","","feedback_trial","0","","","","","","","","","","","","","","","","","","","","",""
"","","","","","image-keyboard-response","242","500233","0.0-217.0","62869a1b7fff9c9a48fe6087","665500ab8938657b03fbdba8","66577b1040d04186628e32d6","626","stimuli/2100000.jpg","2","","prediction_trial","2","","true","","2","true","true","true","true","true","true","[2]","100","000","1","","","","","","",""
"","","","","","image-keyboard-response","243","500782","0.0-218.0","62869a1b7fff9c9a48fe6087","665500ab8938657b03fbdba8","66577b1040d04186628e32d6","548","stimuli/21000002.jpg"," ","","feedback_trial","2","","","","","","","","","","","","","","","","","","","","",""
"","","","","","image-keyboard-response","244","501629","0.0-219.0","62869a1b7fff9c9a48fe6087","665500ab8938657b03fbdba8","66577b1040d04186628e32d6","847","stimuli/0000100.jpg","0","","prediction_trial","0","","true","","0","false","true","true","true","false","true","[0]","000","100","1","","","","","","",""
"","","","","","image-keyboard-response","245","502249","0.0-220.0","62869a1b7fff9c9a48fe6087","665500ab8938657b03fbdba8","66577b1040d04186628e32d6","611","stimuli/00001000.jpg"," ","","feedback_trial","0","","","","","","","","","","","","","","","","","","","","",""
"","","","","","image-keyboard-response","246","503171","0.0-221.0","62869a1b7fff9c9a48fe6087","665500ab8938657b03fbdba8","66577b1040d04186628e32d6","920","stimuli/1001101.jpg","0","","prediction_trial","1","","false","","1","true","true","true","true","true","true","[1]","001","101","0","","","","","","",""
"","","","","","image-keyboard-response","247","504198","0.0-222.0","62869a1b7fff9c9a48fe6087","665500ab8938657b03fbdba8","66577b1040d04186628e32d6","1026","stimuli/10011011.jpg"," ","","feedback_trial","1","","","","","","","","","","","","","","","","","","","","",""
"","","","","","image-keyboard-response","248","504781","0.0-223.0","62869a1b7fff9c9a48fe6087","665500ab8938657b03fbdba8","66577b1040d04186628e32d6","582","stimuli/1100000.jpg","1","","prediction_trial","1","","true","","1","true","true","true","true","true","true","[1]","100","000","1","","","","","","",""
"","","","","","image-keyboard-response","249","505314","0.0-224.0","62869a1b7fff9c9a48fe6087","665500ab8938657b03fbdba8","66577b1040d04186628e32d6","532","stimuli/11000001.jpg"," ","","feedback_trial","1","","","","","","","","","","","","","","","","","","","","",""
"","","","","","image-keyboard-response","250","506713","0.0-225.0","62869a1b7fff9c9a48fe6087","665500ab8938657b03fbdba8","66577b1040d04186628e32d6","1398","stimuli/1011001.jpg","1","","prediction_trial","2","","false","","1","true","true","false","false","false","false","[2,1]","011","001","0","","","","","","",""
"","","","","","image-keyboard-response","251","507707","0.0-226.0","62869a1b7fff9c9a48fe6087","665500ab8938657b03fbdba8","66577b1040d04186628e32d6","980","stimuli/10110012.jpg"," ","","feedback_trial","2","","","","","","","","","","","","","","","","","","","","",""
"","","","","","image-keyboard-response","252","508916","0.0-227.0","62869a1b7fff9c9a48fe6087","665500ab8938657b03fbdba8","66577b1040d04186628e32d6","1208","stimuli/2010101.jpg","0","","prediction_trial","2","","false","","2","false","false","true","true","false","false","[2]","010","101","0","","","","","","",""
"","","","","","image-keyboard-response","253","509979","0.0-228.0","62869a1b7fff9c9a48fe6087","665500ab8938657b03fbdba8","66577b1040d04186628e32d6","1061","stimuli/20101012.jpg"," ","","feedback_trial","2","","","","","","","","","","","","","","","","","","","","",""
"","","","","","image-keyboard-response","254","510970","0.0-229.0","62869a1b7fff9c9a48fe6087","665500ab8938657b03fbdba8","66577b1040d04186628e32d6","990","stimuli/1100111.jpg","2","","prediction_trial","1","","false","","1","false","false","true","true","false","false","[1]","100","111","0","","","","","","",""
"","","","","","image-keyboard-response","255","512337","0.0-230.0","62869a1b7fff9c9a48fe6087","665500ab8938657b03fbdba8","66577b1040d04186628e32d6","1366","stimuli/11001111.jpg"," ","","feedback_trial","1","","","","","","","","","","","","","","","","","","","","",""
"","","","","","image-keyboard-response","256","513863","0.0-231.0","62869a1b7fff9c9a48fe6087","665500ab8938657b03fbdba8","66577b1040d04186628e32d6","1525","stimuli/2110001.jpg","2","","prediction_trial","2","","true","","2","false","true","true","true","false","true","[2]","110","001","1","","","","","","",""
"","","","","","image-keyboard-response","257","514699","0.0-232.0","62869a1b7fff9c9a48fe6087","665500ab8938657b03fbdba8","66577b1040d04186628e32d6","818","stimuli/21100012.jpg"," ","","feedback_trial","2","","","","","","","","","","","","","","","","","","","","",""
"","","","","","image-keyboard-response","258","515408","0.0-233.0","62869a1b7fff9c9a48fe6087","665500ab8938657b03fbdba8","66577b1040d04186628e32d6","707","stimuli/2100010.jpg","2","","prediction_trial","2","","true","","2","true","true","true","true","true","true","[2]","100","010","1","","","","","","",""
"","","","","","image-keyboard-response","259","515866","0.0-234.0","62869a1b7fff9c9a48fe6087","665500ab8938657b03fbdba8","66577b1040d04186628e32d6","456","stimuli/21000102.jpg"," ","","feedback_trial","2","","","","","","","","","","","","","","","","","","","","",""
"","","","","","image-keyboard-response","260","517766","0.0-235.0","62869a1b7fff9c9a48fe6087","665500ab8938657b03fbdba8","66577b1040d04186628e32d6","1899","stimuli/1110111.jpg","1","","prediction_trial","0","","false","","1","false","false","false","false","false","false","[0,1]","110","111","0","","","","","","",""
"","","","","","image-keyboard-response","261","518683","0.0-236.0","62869a1b7fff9c9a48fe6087","665500ab8938657b03fbdba8","66577b1040d04186628e32d6","915","stimuli/11101110.jpg"," ","","feedback_trial","0","","","","","","","","","","","","","","","","","","","","",""
"","","","","","image-keyboard-response","262","519638","0.0-237.0","62869a1b7fff9c9a48fe6087","665500ab8938657b03fbdba8","66577b1040d04186628e32d6","954","stimuli/0101000.jpg","0","","prediction_trial","2","","false","","0","true","true","false","false","false","false","[0,2]","101","000","0","","","","","","",""
"","","","","","image-keyboard-response","263","520772","0.0-238.0","62869a1b7fff9c9a48fe6087","665500ab8938657b03fbdba8","66577b1040d04186628e32d6","1122","stimuli/01010002.jpg"," ","","feedback_trial","0","","","","","","","","","","","","","","","","","","","","",""
"","","","","","image-keyboard-response","264","521535","0.0-239.0","62869a1b7fff9c9a48fe6087","665500ab8938657b03fbdba8","66577b1040d04186628e32d6","762","stimuli/0000001.jpg","0","","prediction_trial","0","","true","","0","true","true","true","true","true","true","[0]","000","001","1","","","","","","",""
"","","","","","image-keyboard-response","265","522070","0.0-240.0","62869a1b7fff9c9a48fe6087","665500ab8938657b03fbdba8","66577b1040d04186628e32d6","533","stimuli/00000010.jpg"," ","","feedback_trial","0","","","","","","","","","","","","","","","","","","","","",""
"","","","","","image-keyboard-response","266","522676","0.0-241.0","62869a1b7fff9c9a48fe6087","665500ab8938657b03fbdba8","66577b1040d04186628e32d6","605","stimuli/0000000.jpg","0","","prediction_trial","0","","true","","0","true","true","true","true","true","true","[0]","000","000","1","","","","","","",""
"","","","","","image-keyboard-response","267","523196","0.0-242.0","62869a1b7fff9c9a48fe6087","665500ab8938657b03fbdba8","66577b1040d04186628e32d6","519","stimuli/00000000.jpg"," ","","feedback_trial","0","","","","","","","","","","","","","","","","","","","","",""
"","","","","","image-keyboard-response","268","524034","0.0-243.0","62869a1b7fff9c9a48fe6087","665500ab8938657b03fbdba8","66577b1040d04186628e32d6","837","stimuli/1100001.jpg","1","","prediction_trial","1","","true","","1","true","true","true","true","true","true","[1]","100","001","1","","","","","","",""
"","","","","","image-keyboard-response","269","524520","0.0-244.0","62869a1b7fff9c9a48fe6087","665500ab8938657b03fbdba8","66577b1040d04186628e32d6","472","stimuli/11000011.jpg"," ","","feedback_trial","1","","","","","","","","","","","","","","","","","","","","",""
"","","","","","image-keyboard-response","270","525984","0.0-245.0","62869a1b7fff9c9a48fe6087","665500ab8938657b03fbdba8","66577b1040d04186628e32d6","1463","stimuli/1101010.jpg","1","","prediction_trial","1","","true","","1","false","true","true","true","false","true","[1]","101","010","1","","","","","","",""
"","","","","","image-keyboard-response","271","526518","0.0-246.0","62869a1b7fff9c9a48fe6087","665500ab8938657b03fbdba8","66577b1040d04186628e32d6","534","stimuli/11010101.jpg"," ","","feedback_trial","1","","","","","","","","","","","","","","","","","","","","",""
"","","","","","image-keyboard-response","272","527614","0.0-247.0","62869a1b7fff9c9a48fe6087","665500ab8938657b03fbdba8","66577b1040d04186628e32d6","1095","stimuli/0000101.jpg","0","","prediction_trial","0","","true","","0","false","false","true","true","false","false","[0]","000","101","1","","","","","","",""
"","","","","","image-keyboard-response","273","528525","0.0-248.0","62869a1b7fff9c9a48fe6087","665500ab8938657b03fbdba8","66577b1040d04186628e32d6","910","stimuli/00001010.jpg"," ","","feedback_trial","0","","","","","","","","","","","","","","","","","","","","",""
"","","","","","image-keyboard-response","274","529938","0.0-249.0","62869a1b7fff9c9a48fe6087","665500ab8938657b03fbdba8","66577b1040d04186628e32d6","1411","stimuli/2100011.jpg","1","","prediction_trial","2","","false","","2","false","false","true","true","false","false","[2]","100","011","0","","","","","","",""
"","","","","","image-keyboard-response","275","530957","0.0-250.0","62869a1b7fff9c9a48fe6087","665500ab8938657b03fbdba8","66577b1040d04186628e32d6","1016","stimuli/21000112.jpg"," ","","feedback_trial","2","","","","","","","","","","","","","","","","","","","","",""
"","","","","","image-keyboard-response","276","531712","0.0-251.0","62869a1b7fff9c9a48fe6087","665500ab8938657b03fbdba8","66577b1040d04186628e32d6","755","stimuli/2100100.jpg","2","","prediction_trial","2","","true","","2","true","true","true","true","true","true","[2]","100","100","1","","","","","","",""
"","","","","","image-keyboard-response","277","532259","0.0-252.0","62869a1b7fff9c9a48fe6087","665500ab8938657b03fbdba8","66577b1040d04186628e32d6","546","stimuli/21001002.jpg"," ","","feedback_trial","2","","","","","","","","","","","","","","","","","","","","",""
"","","","","","image-keyboard-response","278","534858","0.0-253.0","62869a1b7fff9c9a48fe6087","665500ab8938657b03fbdba8","66577b1040d04186628e32d6","2598","stimuli/1001111.jpg","1","","prediction_trial","1","","true","","1","false","false","true","true","false","false","[1]","001","111","1","","","","","","",""
"","","","","","image-keyboard-response","279","535783","0.0-254.0","62869a1b7fff9c9a48fe6087","665500ab8938657b03fbdba8","66577b1040d04186628e32d6","923","stimuli/10011111.jpg"," ","","feedback_trial","1","","","","","","","","","","","","","","","","","","","","",""
"","","","","","image-keyboard-response","280","537339","0.0-255.0","62869a1b7fff9c9a48fe6087","665500ab8938657b03fbdba8","66577b1040d04186628e32d6","1556","stimuli/2011111.jpg","0","","prediction_trial","2","","false","","2","false","false","false","false","false","false","[1,2]","011","111","0","","","","","","",""
"","","","","","image-keyboard-response","281","538297","0.0-256.0","62869a1b7fff9c9a48fe6087","665500ab8938657b03fbdba8","66577b1040d04186628e32d6","951","stimuli/20111112.jpg"," ","","feedback_trial","1","","","","","","","","","","","","","","","","","","","","",""
"","","","","","image-keyboard-response","282","539712","0.0-257.0","62869a1b7fff9c9a48fe6087","665500ab8938657b03fbdba8","66577b1040d04186628e32d6","1414","stimuli/0101001.jpg","0","","prediction_trial","0","","true","","0","true","true","false","false","false","false","[2,0]","101","001","1","","","","","","",""
"","","","","","image-keyboard-response","283","540430","0.0-258.0","62869a1b7fff9c9a48fe6087","665500ab8938657b03fbdba8","66577b1040d04186628e32d6","716","stimuli/01010010.jpg"," ","","feedback_trial","2","","","","","","","","","","","","","","","","","","","","",""
"","","","","","image-keyboard-response","284","541517","0.0-259.0","62869a1b7fff9c9a48fe6087","665500ab8938657b03fbdba8","66577b1040d04186628e32d6","1087","stimuli/2010111.jpg","2","","prediction_trial","2","","true","","2","false","false","true","true","false","false","[2]","010","111","1","","","","","","",""
"","","","","","image-keyboard-response","285","542662","0.0-260.0","62869a1b7fff9c9a48fe6087","665500ab8938657b03fbdba8","66577b1040d04186628e32d6","1143","stimuli/20101112.jpg"," ","","feedback_trial","2","","","","","","","","","","","","","","","","","","","","",""
"","","","","","image-keyboard-response","286","544507","0.0-261.0","62869a1b7fff9c9a48fe6087","665500ab8938657b03fbdba8","66577b1040d04186628e32d6","1843","stimuli/0100001.jpg","0","","prediction_trial","0","","true","","0","true","true","false","true","false","true","[0]","100","001","1","","","","","","",""
"","","","","","image-keyboard-response","287","545140","0.0-262.0","62869a1b7fff9c9a48fe6087","665500ab8938657b03fbdba8","66577b1040d04186628e32d6","623","stimuli/01000010.jpg"," ","","feedback_trial","0","","","","","","","","","","","","","","","","","","","","",""
"","","","","","image-keyboard-response","288","546033","0.0-263.0","62869a1b7fff9c9a48fe6087","665500ab8938657b03fbdba8","66577b1040d04186628e32d6","892","stimuli/0011010.jpg","0","","prediction_trial","0","","true","","0","true","true","true","true","true","true","[0]","011","010","1","","","","","","",""
"","","","","","image-keyboard-response","289","546499","0.0-264.0","62869a1b7fff9c9a48fe6087","665500ab8938657b03fbdba8","66577b1040d04186628e32d6","465","stimuli/00110100.jpg"," ","","feedback_trial","0","","","","","","","","","","","","","","","","","","","","",""
"","","","","","image-keyboard-response","290","548615","0.0-265.0","62869a1b7fff9c9a48fe6087","665500ab8938657b03fbdba8","66577b1040d04186628e32d6","2115","stimuli/2111011.jpg","2","","prediction_trial","1","","false","","2","false","false","false","false","false","false","[2,0,1]","111","011","0","","","","","","",""
"","","","","","image-keyboard-response","291","549545","0.0-266.0","62869a1b7fff9c9a48fe6087","665500ab8938657b03fbdba8","66577b1040d04186628e32d6","930","stimuli/21110111.jpg"," ","","feedback_trial","2","","","","","","","","","","","","","","","","","","","","",""
"","","","","","image-keyboard-response","292","550779","0.0-267.0","62869a1b7fff9c9a48fe6087","665500ab8938657b03fbdba8","66577b1040d04186628e32d6","1234","stimuli/1000011.jpg","1","","prediction_trial","1","","true","","1","false","false","true","true","false","false","[1]","000","011","1","","","","","","",""
"","","","","","image-keyboard-response","293","551615","0.0-268.0","62869a1b7fff9c9a48fe6087","665500ab8938657b03fbdba8","66577b1040d04186628e32d6","830","stimuli/10000111.jpg"," ","","feedback_trial","1","","","","","","","","","","","","","","","","","","","","",""
"","","","","","image-keyboard-response","294","552279","0.0-269.0","62869a1b7fff9c9a48fe6087","665500ab8938657b03fbdba8","66577b1040d04186628e32d6","663","stimuli/2101110.jpg","2","","prediction_trial","2","","true","","2","true","true","false","false","false","false","[2,0]","101","110","1","","","","","","",""
"","","","","","image-keyboard-response","295","552900","0.0-270.0","62869a1b7fff9c9a48fe6087","665500ab8938657b03fbdba8","66577b1040d04186628e32d6","620","stimuli/21011102.jpg"," ","","feedback_trial","2","","","","","","","","","","","","","","","","","","","","",""
"","","","","","image-keyboard-response","296","553624","0.0-271.0","62869a1b7fff9c9a48fe6087","665500ab8938657b03fbdba8","66577b1040d04186628e32d6","724","stimuli/1011000.jpg","1","","prediction_trial","1","","true","","1","true","true","false","false","false","false","[2,1]","011","000","1","","","","","","",""
"","","","","","image-keyboard-response","297","554312","0.0-272.0","62869a1b7fff9c9a48fe6087","665500ab8938657b03fbdba8","66577b1040d04186628e32d6","686","stimuli/10110001.jpg"," ","","feedback_trial","2","","","","","","","","","","","","","","","","","","","","",""
"","","","","","image-keyboard-response","298","554872","0.0-273.0","62869a1b7fff9c9a48fe6087","665500ab8938657b03fbdba8","66577b1040d04186628e32d6","559","stimuli/1011100.jpg","1","","prediction_trial","1","","true","","1","true","true","false","false","false","false","[2,1]","011","100","1","","","","","","",""
"","","","","","image-keyboard-response","299","555407","0.0-274.0","62869a1b7fff9c9a48fe6087","665500ab8938657b03fbdba8","66577b1040d04186628e32d6","534","stimuli/10111001.jpg"," ","","feedback_trial","2","","","","","","","","","","","","","","","","","","","","",""
"","","","","","image-keyboard-response","300","556181","0.0-275.0","62869a1b7fff9c9a48fe6087","665500ab8938657b03fbdba8","66577b1040d04186628e32d6","773","stimuli/0011110.jpg","1","","prediction_trial","0","","false","","0","false","false","true","true","false","false","[0]","011","110","0","","","","","","",""
"","","","","","image-keyboard-response","301","557126","0.0-276.0","62869a1b7fff9c9a48fe6087","665500ab8938657b03fbdba8","66577b1040d04186628e32d6","943","stimuli/00111100.jpg"," ","","feedback_trial","0","","","","","","","","","","","","","","","","","","","","",""
"","","","","","image-keyboard-response","302","558113","0.0-277.0","62869a1b7fff9c9a48fe6087","665500ab8938657b03fbdba8","66577b1040d04186628e32d6","986","stimuli/0100000.jpg","0","","prediction_trial","0","","true","","0","true","true","false","true","false","true","[0]","100","000","1","","","","","","",""
"","","","","","image-keyboard-response","303","558707","0.0-278.0","62869a1b7fff9c9a48fe6087","665500ab8938657b03fbdba8","66577b1040d04186628e32d6","593","stimuli/01000000.jpg"," ","","feedback_trial","0","","","","","","","","","","","","","","","","","","","","",""
"","","","","","image-keyboard-response","304","561028","0.0-279.0","62869a1b7fff9c9a48fe6087","665500ab8938657b03fbdba8","66577b1040d04186628e32d6","2319","stimuli/1010011.jpg","2","","prediction_trial","1","","false","","1","false","false","false","true","false","false","[1]","010","011","0","","","","","","",""
"","","","","","image-keyboard-response","305","561929","0.0-280.0","62869a1b7fff9c9a48fe6087","665500ab8938657b03fbdba8","66577b1040d04186628e32d6","900","stimuli/10100111.jpg"," ","","feedback_trial","1","","","","","","","","","","","","","","","","","","","","",""
"","","","","","image-keyboard-response","306","562693","0.0-281.0","62869a1b7fff9c9a48fe6087","665500ab8938657b03fbdba8","66577b1040d04186628e32d6","763","stimuli/0011000.jpg","0","","prediction_trial","0","","true","","0","true","true","true","true","true","true","[0]","011","000","1","","","","","","",""
"","","","","","image-keyboard-response","307","563210","0.0-282.0","62869a1b7fff9c9a48fe6087","665500ab8938657b03fbdba8","66577b1040d04186628e32d6","516","stimuli/00110000.jpg"," ","","feedback_trial","0","","","","","","","","","","","","","","","","","","","","",""
"","","","","","image-keyboard-response","308","564067","0.0-283.0","62869a1b7fff9c9a48fe6087","665500ab8938657b03fbdba8","66577b1040d04186628e32d6","856","stimuli/2000000.jpg","2","","prediction_trial","2","","true","","2","true","true","true","true","true","true","[2]","000","000","1","","","","","","",""
"","","","","","image-keyboard-response","309","564640","0.0-284.0","62869a1b7fff9c9a48fe6087","665500ab8938657b03fbdba8","66577b1040d04186628e32d6","572","stimuli/20000002.jpg"," ","","feedback_trial","2","","","","","","","","","","","","","","","","","","","","",""
"","","","","","image-keyboard-response","310","565804","0.0-285.0","62869a1b7fff9c9a48fe6087","665500ab8938657b03fbdba8","66577b1040d04186628e32d6","1163","stimuli/1010101.jpg","1","","prediction_trial","1","","true","","1","true","true","false","true","false","true","[1]","010","101","1","","","","","","",""
"","","","","","image-keyboard-response","311","566463","0.0-286.0","62869a1b7fff9c9a48fe6087","665500ab8938657b03fbdba8","66577b1040d04186628e32d6","658","stimuli/10101011.jpg"," ","","feedback_trial","1","","","","","","","","","","","","","","","","","","","","",""
"","","","","","image-keyboard-response","312","567158","0.0-287.0","62869a1b7fff9c9a48fe6087","665500ab8938657b03fbdba8","66577b1040d04186628e32d6","694","stimuli/2101000.jpg","2","","prediction_trial","0","","false","","2","true","true","false","false","false","false","[0,2]","101","000","0","","","","","","",""
"","","","","","image-keyboard-response","313","568348","0.0-288.0","62869a1b7fff9c9a48fe6087","665500ab8938657b03fbdba8","66577b1040d04186628e32d6","1188","stimuli/21010000.jpg"," ","","feedback_trial","0","","","","","","","","","","","","","","","","","","","","",""
"","","","","","image-keyboard-response","314","572962","0.0-289.0","62869a1b7fff9c9a48fe6087","665500ab8938657b03fbdba8","66577b1040d04186628e32d6","4613","stimuli/0001101.jpg","2","","prediction_trial","0","","false","","0","false","false","true","true","false","false","[0]","001","101","0","","","","","","",""
"","","","","","image-keyboard-response","315","573861","0.0-290.0","62869a1b7fff9c9a48fe6087","665500ab8938657b03fbdba8","66577b1040d04186628e32d6","896","stimuli/00011010.jpg"," ","","feedback_trial","0","","","","","","","","","","","","","","","","","","","","",""
"","","","","","image-keyboard-response","316","575078","0.0-291.0","62869a1b7fff9c9a48fe6087","665500ab8938657b03fbdba8","66577b1040d04186628e32d6","1216","stimuli/2000011.jpg","1","","prediction_trial","2","","false","","2","false","false","true","true","false","false","[2]","000","011","0","","","","","","",""
"","","","","","image-keyboard-response","317","575991","0.0-292.0","62869a1b7fff9c9a48fe6087","665500ab8938657b03fbdba8","66577b1040d04186628e32d6","900","stimuli/20000112.jpg"," ","","feedback_trial","2","","","","","","","","","","","","","","","","","","","","",""
"","","","","","survey-html-form","318","591736","0.0-293.0","62869a1b7fff9c9a48fe6087","665500ab8938657b03fbdba8","66577b1040d04186628e32d6","15742","","{""feedback"":"""",""age"":""59"",""gender"":""Female"",""other_gender"":"""",""race"":""White"",""other_race"":"""",""ethnicity"":""Non-Hispanic""}","","exit_survey","","","","","","","","","","","","","","","","","59","Non-Hispanic","Female","White","0.6736111111111112","0.6736111111111112"
