"success","timeout","failed_images","failed_audio","failed_video","trial_type","trial_index","time_elapsed","internal_node_id","prolific_id","prolific_study_id","prolific_session_id","rt","stimulus","response","view_history","trial","character_choice","stimulus_dict","accuracy","correct_response","ball_pos","ego_ball_visible","ego_can_infer","alter_ball_visible","alter_can_infer","collective_ball_visible","collective_can_infer","search_locations","alter_occluders","ego_occluders","accuracy_bool","feedback","age","ethnicity","gender","race","overall_accuracy","bonus"
"true","false","[]","[]","[]","preload","0","3210","0.0-0.0","6506f9e821e92759b20c2be6","665500ab8938657b03fbdba8","66579374480d7e783d0b7be5","","","","","","","","","","","","","","","","","","","","","","","","","","",""
"true","","","","","fullscreen","1","9847","0.0-1.0","6506f9e821e92759b20c2be6","665500ab8938657b03fbdba8","66579374480d7e783d0b7be5","","","","","","","","","","","","","","","","","","","","","","","","","","",""
"","","","","","html-button-response","2","13028","0.0-2.0","6506f9e821e92759b20c2be6","665500ab8938657b03fbdba8","66579374480d7e783d0b7be5","3179","<p><b>Consent Form</b></p> <div style=""text-align:left;background-color:lightgrey; padding:20px; max-width:900px;""><p>Please consider this information carefully before deciding whether to participate in this research.</p> <p>The purpose of this research is to examine which factors influence social judgment and decision-making. You will be asked to make judgements about individuals and actions in social scenarios. We are simply interested in your judgement. The study will take less than 1 hour to complete, and you will receive less than $20 on Prolific. Your compensation and time commitment are specified in the study description. There are no anticipated risks associated with participating in this study. The effects of participating should be comparable to those you would ordinarily experience from viewing a computer monitor and using a mouse or keyboard for a similar amount of time. At the end of the study, we will provide an explanation of the questions that motivate this line of research and will describe the potential implications. </p><p> Your participation in this study is completely voluntary and you may refuse to participate or you may choose to withdraw at any time without penalty or loss of benefits to you which are otherwise entitled. Your participation in this study will remain confidential. No personally identifiable information will be associated with your data. Also, all analyses of the data will be averaged across all the participants, so your individual responses will never be specifically analyzed. </p><p> If you have questions or concerns about your participation or payment, or want to request a summary of research findings, please contact Dr. Jonathan Phillips at Jonathan.S.Phillips@dartmouth.edu. </p><p> Please save a copy of this form for your records. </p><p><b>Agreement: </b>The nature and purpose of this research have been sufficiently explained and I agree to participate in this study. I understand that I am free to withdraw at any time without incurring any penalty. Please consent by clicking the button below to continue. Otherwise, please exit the study at any time. </p>","0","","","","","","","","","","","","","","","","","","","","","","","",""
"","","","","","instructions","3","48666","0.0-3.0-0.0","6506f9e821e92759b20c2be6","665500ab8938657b03fbdba8","66579374480d7e783d0b7be5","35637","","","[{""page_index"":0,""viewing_time"":2231},{""page_index"":1,""viewing_time"":1535},{""page_index"":2,""viewing_time"":985},{""page_index"":3,""viewing_time"":4374},{""page_index"":4,""viewing_time"":1192},{""page_index"":5,""viewing_time"":946},{""page_index"":6,""viewing_time"":4660},{""page_index"":7,""viewing_time"":2156},{""page_index"":8,""viewing_time"":1755},{""page_index"":9,""viewing_time"":1187},{""page_index"":10,""viewing_time"":7730},{""page_index"":11,""viewing_time"":2974},{""page_index"":12,""viewing_time"":2665},{""page_index"":13,""viewing_time"":1247}]","intro","","","","","","","","","","","","","","","","","","","","","",""
"","","","","","image-keyboard-response","4","50707","0.0-3.0-1.0","6506f9e821e92759b20c2be6","665500ab8938657b03fbdba8","66579374480d7e783d0b7be5","2024","stimuli/0100011.jpg","0","","prediction_practice","0","{""filepath"":""stimuli/0100011.jpg"",""ball_pos"":0,""ego_ball_visible"":true,""ego_can_infer"":true,""alter_ball_visible"":false,""alter_can_infer"":true,""collective_ball_visible"":false,""collective_can_infer"":true,""search_locations"":[0],""alter_occluders"":""100"",""ego_occluders"":""011""}","true","","","","","","","","","","","","","","","","","","",""
"","","","","","image-keyboard-response","5","52112","0.0-3.0-2.0","6506f9e821e92759b20c2be6","665500ab8938657b03fbdba8","66579374480d7e783d0b7be5","1404","stimuli/01000110.jpg"," ","","practrice_feedback","0","","","","","","","","","","","","","","","","","","","","",""
"","","","","","image-keyboard-response","6","55016","0.0-3.0-3.0","6506f9e821e92759b20c2be6","665500ab8938657b03fbdba8","66579374480d7e783d0b7be5","2902","stimuli/1100111.jpg","2","","prediction_practice","1","{""filepath"":""stimuli/1100111.jpg"",""ball_pos"":1,""ego_ball_visible"":false,""ego_can_infer"":false,""alter_ball_visible"":true,""alter_can_infer"":true,""collective_ball_visible"":false,""collective_can_infer"":false,""search_locations"":[1],""alter_occluders"":""100"",""ego_occluders"":""111""}","false","","","","","","","","","","","","","","","","","","",""
"","","","","","image-keyboard-response","7","56477","0.0-3.0-4.0","6506f9e821e92759b20c2be6","665500ab8938657b03fbdba8","66579374480d7e783d0b7be5","1460","stimuli/11001111.jpg"," ","","practrice_feedback","1","","","","","","","","","","","","","","","","","","","","",""
"","","","","","image-keyboard-response","8","57888","0.0-3.0-5.0","6506f9e821e92759b20c2be6","665500ab8938657b03fbdba8","66579374480d7e783d0b7be5","1409","stimuli/0011000.jpg","0","","prediction_practice","0","{""filepath"":""stimuli/0011000.jpg"",""ball_pos"":0,""ego_ball_visible"":true,""ego_can_infer"":true,""alter_ball_visible"":true,""alter_can_infer"":true,""collective_ball_visible"":true,""collective_can_infer"":true,""search_locations"":[0],""alter_occluders"":""011"",""ego_occluders"":""000""}","true","","","","","","","","","","","","","","","","","","",""
"","","","","","image-keyboard-response","9","58674","0.0-3.0-6.0","6506f9e821e92759b20c2be6","665500ab8938657b03fbdba8","66579374480d7e783d0b7be5","785","stimuli/00110000.jpg"," ","","practrice_feedback","0","","","","","","","","","","","","","","","","","","","","",""
"","","","","","image-keyboard-response","10","59971","0.0-3.0-7.0","6506f9e821e92759b20c2be6","665500ab8938657b03fbdba8","66579374480d7e783d0b7be5","1295","stimuli/1101001.jpg","1","","prediction_practice","1","{""filepath"":""stimuli/1101001.jpg"",""ball_pos"":1,""ego_ball_visible"":true,""ego_can_infer"":true,""alter_ball_visible"":true,""alter_can_infer"":true,""collective_ball_visible"":true,""collective_can_infer"":true,""search_locations"":[1],""alter_occluders"":""101"",""ego_occluders"":""001""}","true","","","","","","","","","","","","","","","","","","",""
"","","","","","image-keyboard-response","11","60642","0.0-3.0-8.0","6506f9e821e92759b20c2be6","665500ab8938657b03fbdba8","66579374480d7e783d0b7be5","670","stimuli/11010011.jpg"," ","","practrice_feedback","1","","","","","","","","","","","","","","","","","","","","",""
"","","","","","image-keyboard-response","12","61523","0.0-3.0-9.0","6506f9e821e92759b20c2be6","665500ab8938657b03fbdba8","66579374480d7e783d0b7be5","880","stimuli/2000100.jpg","2","","prediction_practice","2","{""filepath"":""stimuli/2000100.jpg"",""ball_pos"":2,""ego_ball_visible"":true,""ego_can_infer"":true,""alter_ball_visible"":true,""alter_can_infer"":true,""collective_ball_visible"":true,""collective_can_infer"":true,""search_locations"":[2],""alter_occluders"":""000"",""ego_occluders"":""100""}","true","","","","","","","","","","","","","","","","","","",""
"","","","","","image-keyboard-response","13","62133","0.0-3.0-10.0","6506f9e821e92759b20c2be6","665500ab8938657b03fbdba8","66579374480d7e783d0b7be5","609","stimuli/20001002.jpg"," ","","practrice_feedback","2","","","","","","","","","","","","","","","","","","","","",""
"","","","","","image-keyboard-response","14","62960","0.0-3.0-11.0","6506f9e821e92759b20c2be6","665500ab8938657b03fbdba8","66579374480d7e783d0b7be5","825","stimuli/2100010.jpg","2","","prediction_practice","2","{""filepath"":""stimuli/2100010.jpg"",""ball_pos"":2,""ego_ball_visible"":true,""ego_can_infer"":true,""alter_ball_visible"":true,""alter_can_infer"":true,""collective_ball_visible"":true,""collective_can_infer"":true,""search_locations"":[2],""alter_occluders"":""100"",""ego_occluders"":""010""}","true","","","","","","","","","","","","","","","","","","",""
"","","","","","image-keyboard-response","15","63429","0.0-3.0-12.0","6506f9e821e92759b20c2be6","665500ab8938657b03fbdba8","66579374480d7e783d0b7be5","468","stimuli/21000102.jpg"," ","","practrice_feedback","2","","","","","","","","","","","","","","","","","","","","",""
"","","","","","image-keyboard-response","16","64321","0.0-3.0-13.0","6506f9e821e92759b20c2be6","665500ab8938657b03fbdba8","66579374480d7e783d0b7be5","890","stimuli/0000100.jpg","0","","prediction_practice","0","{""filepath"":""stimuli/0000100.jpg"",""ball_pos"":0,""ego_ball_visible"":false,""ego_can_infer"":true,""alter_ball_visible"":true,""alter_can_infer"":true,""collective_ball_visible"":false,""collective_can_infer"":true,""search_locations"":[0],""alter_occluders"":""000"",""ego_occluders"":""100""}","true","","","","","","","","","","","","","","","","","","",""
"","","","","","image-keyboard-response","17","64787","0.0-3.0-14.0","6506f9e821e92759b20c2be6","665500ab8938657b03fbdba8","66579374480d7e783d0b7be5","465","stimuli/00001000.jpg"," ","","practrice_feedback","0","","","","","","","","","","","","","","","","","","","","",""
"","","","","","image-keyboard-response","18","66929","0.0-3.0-15.0","6506f9e821e92759b20c2be6","665500ab8938657b03fbdba8","66579374480d7e783d0b7be5","2140","stimuli/0001111.jpg","2","","prediction_practice","0","{""filepath"":""stimuli/0001111.jpg"",""ball_pos"":0,""ego_ball_visible"":false,""ego_can_infer"":false,""alter_ball_visible"":true,""alter_can_infer"":true,""collective_ball_visible"":false,""collective_can_infer"":false,""search_locations"":[0],""alter_occluders"":""001"",""ego_occluders"":""111""}","false","","","","","","","","","","","","","","","","","","",""
"","","","","","image-keyboard-response","19","69058","0.0-3.0-16.0","6506f9e821e92759b20c2be6","665500ab8938657b03fbdba8","66579374480d7e783d0b7be5","2128","stimuli/00011110.jpg"," ","","practrice_feedback","0","","","","","","","","","","","","","","","","","","","","",""
"","","","","","image-keyboard-response","20","70539","0.0-3.0-17.0","6506f9e821e92759b20c2be6","665500ab8938657b03fbdba8","66579374480d7e783d0b7be5","1479","stimuli/1101111.jpg","0","","prediction_practice","1","{""filepath"":""stimuli/1101111.jpg"",""ball_pos"":1,""ego_ball_visible"":false,""ego_can_infer"":false,""alter_ball_visible"":true,""alter_can_infer"":true,""collective_ball_visible"":false,""collective_can_infer"":false,""search_locations"":[1],""alter_occluders"":""101"",""ego_occluders"":""111""}","false","","","","","","","","","","","","","","","","","","",""
"","","","","","image-keyboard-response","21","71400","0.0-3.0-18.0","6506f9e821e92759b20c2be6","665500ab8938657b03fbdba8","66579374480d7e783d0b7be5","860","stimuli/11011111.jpg"," ","","practrice_feedback","1","","","","","","","","","","","","","","","","","","","","",""
"","","","","","image-keyboard-response","22","72582","0.0-3.0-19.0","6506f9e821e92759b20c2be6","665500ab8938657b03fbdba8","66579374480d7e783d0b7be5","1180","stimuli/1000010.jpg","1","","prediction_practice","1","{""filepath"":""stimuli/1000010.jpg"",""ball_pos"":1,""ego_ball_visible"":false,""ego_can_infer"":true,""alter_ball_visible"":true,""alter_can_infer"":true,""collective_ball_visible"":false,""collective_can_infer"":true,""search_locations"":[1],""alter_occluders"":""000"",""ego_occluders"":""010""}","true","","","","","","","","","","","","","","","","","","",""
"","","","","","image-keyboard-response","23","73043","0.0-3.0-20.0","6506f9e821e92759b20c2be6","665500ab8938657b03fbdba8","66579374480d7e783d0b7be5","460","stimuli/10000101.jpg"," ","","practrice_feedback","1","","","","","","","","","","","","","","","","","","","","",""
"","","","","","html-button-response","24","75094","0.0-3.0-21.0","6506f9e821e92759b20c2be6","665500ab8938657b03fbdba8","66579374480d7e783d0b7be5","2050","Now that you've had some practice, you'll be tested with a couple of easy trials. If you correctly predict Sam's choice, you'll move on to complete the experiment!","0","","","","","","","","","","","","","","","","","","","","","","","",""
"","","","","","image-keyboard-response","25","76756","0.0-3.0-22.0-0.0","6506f9e821e92759b20c2be6","665500ab8938657b03fbdba8","66579374480d7e783d0b7be5","1661","stimuli/0000011.jpg","arrowleft","","comprehension_quiz","","","true","arrowleft","","","","","","","","","","","","","","","","","",""
"","","","","","image-keyboard-response","26","122587","0.0-3.0-22.0-1.0","6506f9e821e92759b20c2be6","665500ab8938657b03fbdba8","66579374480d7e783d0b7be5","45828","stimuli/00000110.jpg"," ","","comprehension_quiz","","","true"," ","","","","","","","","","","","","","","","","","",""
"","","","","","image-keyboard-response","27","135048","0.0-3.0-22.0-2.0","6506f9e821e92759b20c2be6","665500ab8938657b03fbdba8","66579374480d7e783d0b7be5","12459","stimuli/1010010.jpg","arrowdown","","comprehension_quiz","","","true","arrowdown","","","","","","","","","","","","","","","","","",""
"","","","","","image-keyboard-response","28","135977","0.0-3.0-22.0-3.0","6506f9e821e92759b20c2be6","665500ab8938657b03fbdba8","66579374480d7e783d0b7be5","926","stimuli/10100101.jpg"," ","","comprehension_quiz","","","true"," ","","","","","","","","","","","","","","","","","",""
"","","","","","html-button-response","29","137125","0.0-4.0","6506f9e821e92759b20c2be6","665500ab8938657b03fbdba8","66579374480d7e783d0b7be5","1145","The experiment will now begin.","0","","","","","","","","","","","","","","","","","","","","","","","",""
"","","","","","image-keyboard-response","30","138261","0.0-5.0","6506f9e821e92759b20c2be6","665500ab8938657b03fbdba8","66579374480d7e783d0b7be5","1135","stimuli/0100000.jpg","0","","prediction_trial","0","","true","","0","true","true","false","true","false","true","[0]","100","000","1","","","","","","",""
"","","","","","image-keyboard-response","31","139426","0.0-6.0","6506f9e821e92759b20c2be6","665500ab8938657b03fbdba8","66579374480d7e783d0b7be5","1147","stimuli/01000000.jpg"," ","","feedback_trial","0","","","","","","","","","","","","","","","","","","","","",""
"","","","","","image-keyboard-response","32","140278","0.0-7.0","6506f9e821e92759b20c2be6","665500ab8938657b03fbdba8","66579374480d7e783d0b7be5","850","stimuli/2100100.jpg","2","","prediction_trial","2","","true","","2","true","true","true","true","true","true","[2]","100","100","1","","","","","","",""
"","","","","","image-keyboard-response","33","140859","0.0-8.0","6506f9e821e92759b20c2be6","665500ab8938657b03fbdba8","66579374480d7e783d0b7be5","580","stimuli/21001002.jpg"," ","","feedback_trial","2","","","","","","","","","","","","","","","","","","","","",""
"","","","","","image-keyboard-response","34","141709","0.0-9.0","6506f9e821e92759b20c2be6","665500ab8938657b03fbdba8","66579374480d7e783d0b7be5","849","stimuli/2001001.jpg","2","","prediction_trial","2","","true","","2","false","true","false","true","false","true","[2]","001","001","1","","","","","","",""
"","","","","","image-keyboard-response","35","142306","0.0-10.0","6506f9e821e92759b20c2be6","665500ab8938657b03fbdba8","66579374480d7e783d0b7be5","595","stimuli/20010012.jpg"," ","","feedback_trial","2","","","","","","","","","","","","","","","","","","","","",""
"","","","","","image-keyboard-response","36","143138","0.0-11.0","6506f9e821e92759b20c2be6","665500ab8938657b03fbdba8","66579374480d7e783d0b7be5","831","stimuli/0111001.jpg","0","","prediction_trial","2","","false","","0","true","true","false","false","false","false","[0,2,1]","111","001","0","","","","","","",""
"","","","","","image-keyboard-response","37","143701","0.0-12.0","6506f9e821e92759b20c2be6","665500ab8938657b03fbdba8","66579374480d7e783d0b7be5","561","stimuli/01110012.jpg"," ","","feedback_trial","0","","","","","","","","","","","","","","","","","","","","",""
"","","","","","image-keyboard-response","38","144846","0.0-13.0","6506f9e821e92759b20c2be6","665500ab8938657b03fbdba8","66579374480d7e783d0b7be5","1143","stimuli/1000001.jpg","1","","prediction_trial","1","","true","","1","true","true","true","true","true","true","[1]","000","001","1","","","","","","",""
"","","","","","image-keyboard-response","39","145456","0.0-14.0","6506f9e821e92759b20c2be6","665500ab8938657b03fbdba8","66579374480d7e783d0b7be5","610","stimuli/10000011.jpg"," ","","feedback_trial","1","","","","","","","","","","","","","","","","","","","","",""
"","","","","","image-keyboard-response","40","146279","0.0-15.0","6506f9e821e92759b20c2be6","665500ab8938657b03fbdba8","66579374480d7e783d0b7be5","822","stimuli/1000100.jpg","1","","prediction_trial","1","","true","","1","true","true","true","true","true","true","[1]","000","100","1","","","","","","",""
"","","","","","image-keyboard-response","41","146888","0.0-16.0","6506f9e821e92759b20c2be6","665500ab8938657b03fbdba8","66579374480d7e783d0b7be5","608","stimuli/10001001.jpg"," ","","feedback_trial","1","","","","","","","","","","","","","","","","","","","","",""
"","","","","","image-keyboard-response","42","148275","0.0-17.0","6506f9e821e92759b20c2be6","665500ab8938657b03fbdba8","66579374480d7e783d0b7be5","1387","stimuli/1111111.jpg","2","","prediction_trial","1","","false","","1","false","false","false","false","false","false","[2,1,0]","111","111","0","","","","","","",""
"","","","","","image-keyboard-response","43","149356","0.0-18.0","6506f9e821e92759b20c2be6","665500ab8938657b03fbdba8","66579374480d7e783d0b7be5","1080","stimuli/11111111.jpg"," ","","feedback_trial","2","","","","","","","","","","","","","","","","","","","","",""
"","","","","","image-keyboard-response","44","150301","0.0-19.0","6506f9e821e92759b20c2be6","665500ab8938657b03fbdba8","66579374480d7e783d0b7be5","944","stimuli/2101100.jpg","2","","prediction_trial","2","","true","","2","true","true","false","false","false","false","[0,2]","101","100","1","","","","","","",""
"","","","","","image-keyboard-response","45","151149","0.0-20.0","6506f9e821e92759b20c2be6","665500ab8938657b03fbdba8","66579374480d7e783d0b7be5","847","stimuli/21011002.jpg"," ","","feedback_trial","0","","","","","","","","","","","","","","","","","","","","",""
"","","","","","image-keyboard-response","46","153149","0.0-21.0","6506f9e821e92759b20c2be6","665500ab8938657b03fbdba8","66579374480d7e783d0b7be5","2000","stimuli/1101110.jpg","0","","prediction_trial","1","","false","","1","false","false","true","true","false","false","[1]","101","110","0","","","","","","",""
"","","","","","image-keyboard-response","47","154286","0.0-22.0","6506f9e821e92759b20c2be6","665500ab8938657b03fbdba8","66579374480d7e783d0b7be5","1136","stimuli/11011101.jpg"," ","","feedback_trial","1","","","","","","","","","","","","","","","","","","","","",""
"","","","","","image-keyboard-response","48","156081","0.0-23.0","6506f9e821e92759b20c2be6","665500ab8938657b03fbdba8","66579374480d7e783d0b7be5","1793","stimuli/2000101.jpg","0","","prediction_trial","2","","false","","2","false","false","true","true","false","false","[2]","000","101","0","","","","","","",""
"","","","","","image-keyboard-response","49","156887","0.0-24.0","6506f9e821e92759b20c2be6","665500ab8938657b03fbdba8","66579374480d7e783d0b7be5","806","stimuli/20001012.jpg"," ","","feedback_trial","2","","","","","","","","","","","","","","","","","","","","",""
"","","","","","image-keyboard-response","50","157626","0.0-25.0","6506f9e821e92759b20c2be6","665500ab8938657b03fbdba8","66579374480d7e783d0b7be5","738","stimuli/2001011.jpg","2","","prediction_trial","2","","true","","2","false","false","false","true","false","false","[2]","001","011","1","","","","","","",""
"","","","","","image-keyboard-response","51","158462","0.0-26.0","6506f9e821e92759b20c2be6","665500ab8938657b03fbdba8","66579374480d7e783d0b7be5","834","stimuli/20010112.jpg"," ","","feedback_trial","2","","","","","","","","","","","","","","","","","","","","",""
"","","","","","image-keyboard-response","52","159621","0.0-27.0","6506f9e821e92759b20c2be6","665500ab8938657b03fbdba8","66579374480d7e783d0b7be5","1159","stimuli/0101011.jpg","0","","prediction_trial","0","","true","","0","true","true","false","false","false","false","[2,0]","101","011","1","","","","","","",""
"","","","","","image-keyboard-response","53","160188","0.0-28.0","6506f9e821e92759b20c2be6","665500ab8938657b03fbdba8","66579374480d7e783d0b7be5","566","stimuli/01010110.jpg"," ","","feedback_trial","2","","","","","","","","","","","","","","","","","","","","",""
"","","","","","image-keyboard-response","54","161430","0.0-29.0","6506f9e821e92759b20c2be6","665500ab8938657b03fbdba8","66579374480d7e783d0b7be5","1242","stimuli/1001011.jpg","1","","prediction_trial","1","","true","","1","false","false","true","true","false","false","[1]","001","011","1","","","","","","",""
"","","","","","image-keyboard-response","55","162202","0.0-30.0","6506f9e821e92759b20c2be6","665500ab8938657b03fbdba8","66579374480d7e783d0b7be5","771","stimuli/10010111.jpg"," ","","feedback_trial","1","","","","","","","","","","","","","","","","","","","","",""
"","","","","","image-keyboard-response","56","163419","0.0-31.0","6506f9e821e92759b20c2be6","665500ab8938657b03fbdba8","66579374480d7e783d0b7be5","1217","stimuli/0100010.jpg","0","","prediction_trial","0","","true","","0","true","true","false","true","false","true","[0]","100","010","1","","","","","","",""
"","","","","","image-keyboard-response","57","163954","0.0-32.0","6506f9e821e92759b20c2be6","665500ab8938657b03fbdba8","66579374480d7e783d0b7be5","534","stimuli/01000100.jpg"," ","","feedback_trial","0","","","","","","","","","","","","","","","","","","","","",""
"","","","","","image-keyboard-response","58","164621","0.0-33.0","6506f9e821e92759b20c2be6","665500ab8938657b03fbdba8","66579374480d7e783d0b7be5","666","stimuli/2100000.jpg","2","","prediction_trial","2","","true","","2","true","true","true","true","true","true","[2]","100","000","1","","","","","","",""
"","","","","","image-keyboard-response","59","165336","0.0-34.0","6506f9e821e92759b20c2be6","665500ab8938657b03fbdba8","66579374480d7e783d0b7be5","714","stimuli/21000002.jpg"," ","","feedback_trial","2","","","","","","","","","","","","","","","","","","","","",""
"","","","","","image-keyboard-response","60","166733","0.0-35.0","6506f9e821e92759b20c2be6","665500ab8938657b03fbdba8","66579374480d7e783d0b7be5","1396","stimuli/1010001.jpg","1","","prediction_trial","1","","true","","1","true","true","false","true","false","true","[1]","010","001","1","","","","","","",""
"","","","","","image-keyboard-response","61","168351","0.0-36.0","6506f9e821e92759b20c2be6","665500ab8938657b03fbdba8","66579374480d7e783d0b7be5","1618","stimuli/10100011.jpg"," ","","feedback_trial","1","","","","","","","","","","","","","","","","","","","","",""
"","","","","","image-keyboard-response","62","169185","0.0-37.0","6506f9e821e92759b20c2be6","665500ab8938657b03fbdba8","66579374480d7e783d0b7be5","833","stimuli/2110110.jpg","2","","prediction_trial","2","","true","","2","true","true","true","true","true","true","[2]","110","110","1","","","","","","",""
"","","","","","image-keyboard-response","63","170166","0.0-38.0","6506f9e821e92759b20c2be6","665500ab8938657b03fbdba8","66579374480d7e783d0b7be5","980","stimuli/21101102.jpg"," ","","feedback_trial","2","","","","","","","","","","","","","","","","","","","","",""
"","","","","","image-keyboard-response","64","171195","0.0-39.0","6506f9e821e92759b20c2be6","665500ab8938657b03fbdba8","66579374480d7e783d0b7be5","1029","stimuli/2000001.jpg","2","","prediction_trial","2","","true","","2","false","true","true","true","false","true","[2]","000","001","1","","","","","","",""
"","","","","","image-keyboard-response","65","172112","0.0-40.0","6506f9e821e92759b20c2be6","665500ab8938657b03fbdba8","66579374480d7e783d0b7be5","916","stimuli/20000012.jpg"," ","","feedback_trial","2","","","","","","","","","","","","","","","","","","","","",""
"","","","","","image-keyboard-response","66","173138","0.0-41.0","6506f9e821e92759b20c2be6","665500ab8938657b03fbdba8","66579374480d7e783d0b7be5","1025","stimuli/0001000.jpg","0","","prediction_trial","0","","true","","0","true","true","true","true","true","true","[0]","001","000","1","","","","","","",""
"","","","","","image-keyboard-response","67","173618","0.0-42.0","6506f9e821e92759b20c2be6","665500ab8938657b03fbdba8","66579374480d7e783d0b7be5","479","stimuli/00010000.jpg"," ","","feedback_trial","0","","","","","","","","","","","","","","","","","","","","",""
"","","","","","image-keyboard-response","68","174374","0.0-43.0","6506f9e821e92759b20c2be6","665500ab8938657b03fbdba8","66579374480d7e783d0b7be5","755","stimuli/2010111.jpg","1","","prediction_trial","2","","false","","2","false","false","true","true","false","false","[2]","010","111","0","","","","","","",""
"","","","","","image-keyboard-response","69","175228","0.0-44.0","6506f9e821e92759b20c2be6","665500ab8938657b03fbdba8","66579374480d7e783d0b7be5","853","stimuli/20101112.jpg"," ","","feedback_trial","2","","","","","","","","","","","","","","","","","","","","",""
"","","","","","image-keyboard-response","70","176214","0.0-45.0","6506f9e821e92759b20c2be6","665500ab8938657b03fbdba8","66579374480d7e783d0b7be5","986","stimuli/0110110.jpg","2","","prediction_trial","0","","false","","0","false","false","false","false","false","false","[0,1]","110","110","0","","","","","","",""
"","","","","","image-keyboard-response","71","177607","0.0-46.0","6506f9e821e92759b20c2be6","665500ab8938657b03fbdba8","66579374480d7e783d0b7be5","1392","stimuli/01101100.jpg"," ","","feedback_trial","0","","","","","","","","","","","","","","","","","","","","",""
"","","","","","image-keyboard-response","72","178303","0.0-47.0","6506f9e821e92759b20c2be6","665500ab8938657b03fbdba8","66579374480d7e783d0b7be5","696","stimuli/2111011.jpg","1","","prediction_trial","1","","true","","2","false","false","false","false","false","false","[1,0,2]","111","011","1","","","","","","",""
"","","","","","image-keyboard-response","73","179277","0.0-48.0","6506f9e821e92759b20c2be6","665500ab8938657b03fbdba8","66579374480d7e783d0b7be5","973","stimuli/21110111.jpg"," ","","feedback_trial","1","","","","","","","","","","","","","","","","","","","","",""
"","","","","","image-keyboard-response","74","180106","0.0-49.0","6506f9e821e92759b20c2be6","665500ab8938657b03fbdba8","66579374480d7e783d0b7be5","829","stimuli/0000101.jpg","2","","prediction_trial","0","","false","","0","false","false","true","true","false","false","[0]","000","101","0","","","","","","",""
"","","","","","image-keyboard-response","75","180845","0.0-50.0","6506f9e821e92759b20c2be6","665500ab8938657b03fbdba8","66579374480d7e783d0b7be5","738","stimuli/00001010.jpg"," ","","feedback_trial","0","","","","","","","","","","","","","","","","","","","","",""
"","","","","","image-keyboard-response","76","181463","0.0-51.0","6506f9e821e92759b20c2be6","665500ab8938657b03fbdba8","66579374480d7e783d0b7be5","618","stimuli/2010110.jpg","2","","prediction_trial","2","","true","","2","true","true","true","true","true","true","[2]","010","110","1","","","","","","",""
"","","","","","image-keyboard-response","77","182110","0.0-52.0","6506f9e821e92759b20c2be6","665500ab8938657b03fbdba8","66579374480d7e783d0b7be5","646","stimuli/20101102.jpg"," ","","feedback_trial","2","","","","","","","","","","","","","","","","","","","","",""
"","","","","","image-keyboard-response","78","183399","0.0-53.0","6506f9e821e92759b20c2be6","665500ab8938657b03fbdba8","66579374480d7e783d0b7be5","1289","stimuli/2110101.jpg","0","","prediction_trial","2","","false","","2","false","false","true","true","false","false","[2]","110","101","0","","","","","","",""
"","","","","","image-keyboard-response","79","185110","0.0-54.0","6506f9e821e92759b20c2be6","665500ab8938657b03fbdba8","66579374480d7e783d0b7be5","1709","stimuli/21101012.jpg"," ","","feedback_trial","2","","","","","","","","","","","","","","","","","","","","",""
"","","","","","image-keyboard-response","80","186207","0.0-55.0","6506f9e821e92759b20c2be6","665500ab8938657b03fbdba8","66579374480d7e783d0b7be5","1097","stimuli/2100110.jpg","2","","prediction_trial","2","","true","","2","true","true","true","true","true","true","[2]","100","110","1","","","","","","",""
"","","","","","image-keyboard-response","81","189387","0.0-56.0","6506f9e821e92759b20c2be6","665500ab8938657b03fbdba8","66579374480d7e783d0b7be5","3179","stimuli/21001102.jpg"," ","","feedback_trial","2","","","","","","","","","","","","","","","","","","","","",""
"","","","","","image-keyboard-response","82","192002","0.0-57.0","6506f9e821e92759b20c2be6","665500ab8938657b03fbdba8","66579374480d7e783d0b7be5","2614","stimuli/1101111.jpg","1","","prediction_trial","1","","true","","1","false","false","true","true","false","false","[1]","101","111","1","","","","","","",""
"","","","","","image-keyboard-response","83","193191","0.0-58.0","6506f9e821e92759b20c2be6","665500ab8938657b03fbdba8","66579374480d7e783d0b7be5","1188","stimuli/11011111.jpg"," ","","feedback_trial","1","","","","","","","","","","","","","","","","","","","","",""
"","","","","","image-keyboard-response","84","194867","0.0-59.0","6506f9e821e92759b20c2be6","665500ab8938657b03fbdba8","66579374480d7e783d0b7be5","1675","stimuli/1110101.jpg","1","","prediction_trial","1","","true","","1","true","true","false","false","false","false","[1,0]","110","101","1","","","","","","",""
"","","","","","image-keyboard-response","85","197557","0.0-60.0","6506f9e821e92759b20c2be6","665500ab8938657b03fbdba8","66579374480d7e783d0b7be5","2689","stimuli/11101011.jpg"," ","","feedback_trial","1","","","","","","","","","","","","","","","","","","","","",""
"","","","","","image-keyboard-response","86","199393","0.0-61.0","6506f9e821e92759b20c2be6","665500ab8938657b03fbdba8","66579374480d7e783d0b7be5","1835","stimuli/1101011.jpg","2","","prediction_trial","1","","false","","1","false","false","true","true","false","false","[1]","101","011","0","","","","","","",""
"","","","","","image-keyboard-response","87","200515","0.0-62.0","6506f9e821e92759b20c2be6","665500ab8938657b03fbdba8","66579374480d7e783d0b7be5","1121","stimuli/11010111.jpg"," ","","feedback_trial","1","","","","","","","","","","","","","","","","","","","","",""
"","","","","","image-keyboard-response","88","201414","0.0-63.0","6506f9e821e92759b20c2be6","665500ab8938657b03fbdba8","66579374480d7e783d0b7be5","899","stimuli/1100101.jpg","1","","prediction_trial","1","","true","","1","true","true","true","true","true","true","[1]","100","101","1","","","","","","",""
"","","","","","image-keyboard-response","89","202374","0.0-64.0","6506f9e821e92759b20c2be6","665500ab8938657b03fbdba8","66579374480d7e783d0b7be5","959","stimuli/11001011.jpg"," ","","feedback_trial","1","","","","","","","","","","","","","","","","","","","","",""
"","","","","","image-keyboard-response","90","202900","0.0-65.0","6506f9e821e92759b20c2be6","665500ab8938657b03fbdba8","66579374480d7e783d0b7be5","525","stimuli/2101010.jpg","2","","prediction_trial","2","","true","","2","true","true","false","false","false","false","[2,0]","101","010","1","","","","","","",""
"","","","","","image-keyboard-response","91","203597","0.0-66.0","6506f9e821e92759b20c2be6","665500ab8938657b03fbdba8","66579374480d7e783d0b7be5","696","stimuli/21010102.jpg"," ","","feedback_trial","2","","","","","","","","","","","","","","","","","","","","",""
"","","","","","image-keyboard-response","92","205152","0.0-67.0","6506f9e821e92759b20c2be6","665500ab8938657b03fbdba8","66579374480d7e783d0b7be5","1554","stimuli/0010101.jpg","0","","prediction_trial","0","","true","","0","false","false","true","true","false","false","[0]","010","101","1","","","","","","",""
"","","","","","image-keyboard-response","93","205757","0.0-68.0","6506f9e821e92759b20c2be6","665500ab8938657b03fbdba8","66579374480d7e783d0b7be5","603","stimuli/00101010.jpg"," ","","feedback_trial","0","","","","","","","","","","","","","","","","","","","","",""
"","","","","","image-keyboard-response","94","206384","0.0-69.0","6506f9e821e92759b20c2be6","665500ab8938657b03fbdba8","66579374480d7e783d0b7be5","627","stimuli/1100000.jpg","1","","prediction_trial","1","","true","","1","true","true","true","true","true","true","[1]","100","000","1","","","","","","",""
"","","","","","image-keyboard-response","95","206869","0.0-70.0","6506f9e821e92759b20c2be6","665500ab8938657b03fbdba8","66579374480d7e783d0b7be5","484","stimuli/11000001.jpg"," ","","feedback_trial","1","","","","","","","","","","","","","","","","","","","","",""
"","","","","","image-keyboard-response","96","207826","0.0-71.0","6506f9e821e92759b20c2be6","665500ab8938657b03fbdba8","66579374480d7e783d0b7be5","956","stimuli/2010101.jpg","2","","prediction_trial","2","","true","","2","false","false","true","true","false","false","[2]","010","101","1","","","","","","",""
"","","","","","image-keyboard-response","97","208582","0.0-72.0","6506f9e821e92759b20c2be6","665500ab8938657b03fbdba8","66579374480d7e783d0b7be5","755","stimuli/20101012.jpg"," ","","feedback_trial","2","","","","","","","","","","","","","","","","","","","","",""
"","","","","","image-keyboard-response","98","209684","0.0-73.0","6506f9e821e92759b20c2be6","665500ab8938657b03fbdba8","66579374480d7e783d0b7be5","1102","stimuli/0110111.jpg","0","","prediction_trial","0","","true","","0","false","false","false","false","false","false","[0,1]","110","111","1","","","","","","",""
"","","","","","image-keyboard-response","99","210441","0.0-74.0","6506f9e821e92759b20c2be6","665500ab8938657b03fbdba8","66579374480d7e783d0b7be5","757","stimuli/01101110.jpg"," ","","feedback_trial","0","","","","","","","","","","","","","","","","","","","","",""
"","","","","","image-keyboard-response","100","211262","0.0-75.0","6506f9e821e92759b20c2be6","665500ab8938657b03fbdba8","66579374480d7e783d0b7be5","820","stimuli/0010111.jpg","1","","prediction_trial","0","","false","","0","false","false","true","true","false","false","[0]","010","111","0","","","","","","",""
"","","","","","image-keyboard-response","101","211989","0.0-76.0","6506f9e821e92759b20c2be6","665500ab8938657b03fbdba8","66579374480d7e783d0b7be5","726","stimuli/00101110.jpg"," ","","feedback_trial","0","","","","","","","","","","","","","","","","","","","","",""
"","","","","","image-keyboard-response","102","213257","0.0-77.0","6506f9e821e92759b20c2be6","665500ab8938657b03fbdba8","66579374480d7e783d0b7be5","1267","stimuli/1010011.jpg","1","","prediction_trial","1","","true","","1","false","false","false","true","false","false","[1]","010","011","1","","","","","","",""
"","","","","","image-keyboard-response","103","213784","0.0-78.0","6506f9e821e92759b20c2be6","665500ab8938657b03fbdba8","66579374480d7e783d0b7be5","526","stimuli/10100111.jpg"," ","","feedback_trial","1","","","","","","","","","","","","","","","","","","","","",""
"","","","","","image-keyboard-response","104","214735","0.0-79.0","6506f9e821e92759b20c2be6","665500ab8938657b03fbdba8","66579374480d7e783d0b7be5","950","stimuli/0101010.jpg","0","","prediction_trial","0","","true","","0","true","true","false","false","false","false","[0,2]","101","010","1","","","","","","",""
"","","","","","image-keyboard-response","105","215243","0.0-80.0","6506f9e821e92759b20c2be6","665500ab8938657b03fbdba8","66579374480d7e783d0b7be5","507","stimuli/01010100.jpg"," ","","feedback_trial","0","","","","","","","","","","","","","","","","","","","","",""
"","","","","","image-keyboard-response","106","216247","0.0-81.0","6506f9e821e92759b20c2be6","665500ab8938657b03fbdba8","66579374480d7e783d0b7be5","1003","stimuli/2011101.jpg","2","","prediction_trial","1","","false","","2","false","false","false","false","false","false","[2,1]","011","101","0","","","","","","",""
"","","","","","image-keyboard-response","107","217232","0.0-82.0","6506f9e821e92759b20c2be6","665500ab8938657b03fbdba8","66579374480d7e783d0b7be5","984","stimuli/20111011.jpg"," ","","feedback_trial","2","","","","","","","","","","","","","","","","","","","","",""
"","","","","","image-keyboard-response","108","218570","0.0-83.0","6506f9e821e92759b20c2be6","665500ab8938657b03fbdba8","66579374480d7e783d0b7be5","1337","stimuli/2110001.jpg","2","","prediction_trial","2","","true","","2","false","true","true","true","false","true","[2]","110","001","1","","","","","","",""
"","","","","","image-keyboard-response","109","219071","0.0-84.0","6506f9e821e92759b20c2be6","665500ab8938657b03fbdba8","66579374480d7e783d0b7be5","500","stimuli/21100012.jpg"," ","","feedback_trial","2","","","","","","","","","","","","","","","","","","","","",""
"","","","","","image-keyboard-response","110","219860","0.0-85.0","6506f9e821e92759b20c2be6","665500ab8938657b03fbdba8","66579374480d7e783d0b7be5","789","stimuli/0011100.jpg","0","","prediction_trial","0","","true","","0","false","true","true","true","false","true","[0]","011","100","1","","","","","","",""
"","","","","","image-keyboard-response","111","220239","0.0-86.0","6506f9e821e92759b20c2be6","665500ab8938657b03fbdba8","66579374480d7e783d0b7be5","378","stimuli/00111000.jpg"," ","","feedback_trial","0","","","","","","","","","","","","","","","","","","","","",""
"","","","","","image-keyboard-response","112","220864","0.0-87.0","6506f9e821e92759b20c2be6","665500ab8938657b03fbdba8","66579374480d7e783d0b7be5","624","stimuli/1001000.jpg","1","","prediction_trial","1","","true","","1","true","true","true","true","true","true","[1]","001","000","1","","","","","","",""
"","","","","","image-keyboard-response","113","221227","0.0-88.0","6506f9e821e92759b20c2be6","665500ab8938657b03fbdba8","66579374480d7e783d0b7be5","363","stimuli/10010001.jpg"," ","","feedback_trial","1","","","","","","","","","","","","","","","","","","","","",""
"","","","","","image-keyboard-response","114","221799","0.0-89.0","6506f9e821e92759b20c2be6","665500ab8938657b03fbdba8","66579374480d7e783d0b7be5","570","stimuli/1001001.jpg","1","","prediction_trial","1","","true","","1","true","true","true","true","true","true","[1]","001","001","1","","","","","","",""
"","","","","","image-keyboard-response","115","222108","0.0-90.0","6506f9e821e92759b20c2be6","665500ab8938657b03fbdba8","66579374480d7e783d0b7be5","309","stimuli/10010011.jpg"," ","","feedback_trial","1","","","","","","","","","","","","","","","","","","","","",""
"","","","","","image-keyboard-response","116","223110","0.0-91.0","6506f9e821e92759b20c2be6","665500ab8938657b03fbdba8","66579374480d7e783d0b7be5","1001","stimuli/1110111.jpg","0","","prediction_trial","0","","true","","1","false","false","false","false","false","false","[0,1]","110","111","1","","","","","","",""
"","","","","","image-keyboard-response","117","223852","0.0-92.0","6506f9e821e92759b20c2be6","665500ab8938657b03fbdba8","66579374480d7e783d0b7be5","741","stimuli/11101110.jpg"," ","","feedback_trial","0","","","","","","","","","","","","","","","","","","","","",""
"","","","","","image-keyboard-response","118","224450","0.0-93.0","6506f9e821e92759b20c2be6","665500ab8938657b03fbdba8","66579374480d7e783d0b7be5","597","stimuli/2000000.jpg","2","","prediction_trial","2","","true","","2","true","true","true","true","true","true","[2]","000","000","1","","","","","","",""
"","","","","","image-keyboard-response","119","224871","0.0-94.0","6506f9e821e92759b20c2be6","665500ab8938657b03fbdba8","66579374480d7e783d0b7be5","421","stimuli/20000002.jpg"," ","","feedback_trial","2","","","","","","","","","","","","","","","","","","","","",""
"","","","","","image-keyboard-response","120","226098","0.0-95.0","6506f9e821e92759b20c2be6","665500ab8938657b03fbdba8","66579374480d7e783d0b7be5","1226","stimuli/2100111.jpg","1","","prediction_trial","2","","false","","2","false","false","true","true","false","false","[2]","100","111","0","","","","","","",""
"","","","","","image-keyboard-response","121","226776","0.0-96.0","6506f9e821e92759b20c2be6","665500ab8938657b03fbdba8","66579374480d7e783d0b7be5","678","stimuli/21001112.jpg"," ","","feedback_trial","2","","","","","","","","","","","","","","","","","","","","",""
"","","","","","image-keyboard-response","122","227691","0.0-97.0","6506f9e821e92759b20c2be6","665500ab8938657b03fbdba8","66579374480d7e783d0b7be5","914","stimuli/2100011.jpg","1","","prediction_trial","2","","false","","2","false","false","true","true","false","false","[2]","100","011","0","","","","","","",""
"","","","","","image-keyboard-response","123","228373","0.0-98.0","6506f9e821e92759b20c2be6","665500ab8938657b03fbdba8","66579374480d7e783d0b7be5","682","stimuli/21000112.jpg"," ","","feedback_trial","2","","","","","","","","","","","","","","","","","","","","",""
"","","","","","image-keyboard-response","124","229224","0.0-99.0","6506f9e821e92759b20c2be6","665500ab8938657b03fbdba8","66579374480d7e783d0b7be5","849","stimuli/1101101.jpg","1","","prediction_trial","1","","true","","1","true","true","true","true","true","true","[1]","101","101","1","","","","","","",""
"","","","","","image-keyboard-response","125","229858","0.0-100.0","6506f9e821e92759b20c2be6","665500ab8938657b03fbdba8","66579374480d7e783d0b7be5","634","stimuli/11011011.jpg"," ","","feedback_trial","1","","","","","","","","","","","","","","","","","","","","",""
"","","","","","image-keyboard-response","126","231430","0.0-101.0","6506f9e821e92759b20c2be6","665500ab8938657b03fbdba8","66579374480d7e783d0b7be5","1572","stimuli/1001010.jpg","1","","prediction_trial","1","","true","","1","false","true","true","true","false","true","[1]","001","010","1","","","","","","",""
"","","","","","image-keyboard-response","127","231931","0.0-102.0","6506f9e821e92759b20c2be6","665500ab8938657b03fbdba8","66579374480d7e783d0b7be5","500","stimuli/10010101.jpg"," ","","feedback_trial","1","","","","","","","","","","","","","","","","","","","","",""
"","","","","","image-keyboard-response","128","232713","0.0-103.0","6506f9e821e92759b20c2be6","665500ab8938657b03fbdba8","66579374480d7e783d0b7be5","781","stimuli/0111101.jpg","2","","prediction_trial","0","","false","","0","false","false","false","false","false","false","[1,0,2]","111","101","0","","","","","","",""
"","","","","","image-keyboard-response","129","233241","0.0-104.0","6506f9e821e92759b20c2be6","665500ab8938657b03fbdba8","66579374480d7e783d0b7be5","528","stimuli/01111010.jpg"," ","","feedback_trial","1","","","","","","","","","","","","","","","","","","","","",""
"","","","","","image-keyboard-response","130","233877","0.0-105.0","6506f9e821e92759b20c2be6","665500ab8938657b03fbdba8","66579374480d7e783d0b7be5","635","stimuli/2101110.jpg","2","","prediction_trial","0","","false","","2","true","true","false","false","false","false","[0,2]","101","110","0","","","","","","",""
"","","","","","image-keyboard-response","131","234269","0.0-106.0","6506f9e821e92759b20c2be6","665500ab8938657b03fbdba8","66579374480d7e783d0b7be5","392","stimuli/21011100.jpg"," ","","feedback_trial","0","","","","","","","","","","","","","","","","","","","","",""
"","","","","","image-keyboard-response","132","235339","0.0-107.0","6506f9e821e92759b20c2be6","665500ab8938657b03fbdba8","66579374480d7e783d0b7be5","1069","stimuli/1000110.jpg","0","","prediction_trial","1","","false","","1","false","false","true","true","false","false","[1]","000","110","0","","","","","","",""
"","","","","","image-keyboard-response","133","235918","0.0-108.0","6506f9e821e92759b20c2be6","665500ab8938657b03fbdba8","66579374480d7e783d0b7be5","578","stimuli/10001101.jpg"," ","","feedback_trial","1","","","","","","","","","","","","","","","","","","","","",""
"","","","","","image-keyboard-response","134","236826","0.0-109.0","6506f9e821e92759b20c2be6","665500ab8938657b03fbdba8","66579374480d7e783d0b7be5","907","stimuli/0101101.jpg","2","","prediction_trial","0","","false","","0","false","false","false","false","false","false","[0,2]","101","101","0","","","","","","",""
"","","","","","image-keyboard-response","135","237353","0.0-110.0","6506f9e821e92759b20c2be6","665500ab8938657b03fbdba8","66579374480d7e783d0b7be5","527","stimuli/01011010.jpg"," ","","feedback_trial","0","","","","","","","","","","","","","","","","","","","","",""
"","","","","","image-keyboard-response","136","238077","0.0-111.0","6506f9e821e92759b20c2be6","665500ab8938657b03fbdba8","66579374480d7e783d0b7be5","723","stimuli/1111001.jpg","1","","prediction_trial","2","","false","","1","true","true","false","false","false","false","[1,2,0]","111","001","0","","","","","","",""
"","","","","","image-keyboard-response","137","238483","0.0-112.0","6506f9e821e92759b20c2be6","665500ab8938657b03fbdba8","66579374480d7e783d0b7be5","405","stimuli/11110012.jpg"," ","","feedback_trial","1","","","","","","","","","","","","","","","","","","","","",""
"","","","","","image-keyboard-response","138","239067","0.0-113.0","6506f9e821e92759b20c2be6","665500ab8938657b03fbdba8","66579374480d7e783d0b7be5","583","stimuli/2011000.jpg","2","","prediction_trial","2","","true","","2","true","true","false","false","false","false","[1,2]","011","000","1","","","","","","",""
"","","","","","image-keyboard-response","139","239582","0.0-114.0","6506f9e821e92759b20c2be6","665500ab8938657b03fbdba8","66579374480d7e783d0b7be5","515","stimuli/20110002.jpg"," ","","feedback_trial","1","","","","","","","","","","","","","","","","","","","","",""
"","","","","","image-keyboard-response","140","240297","0.0-115.0","6506f9e821e92759b20c2be6","665500ab8938657b03fbdba8","66579374480d7e783d0b7be5","714","stimuli/1010000.jpg","1","","prediction_trial","1","","true","","1","true","true","false","true","false","true","[1]","010","000","1","","","","","","",""
"","","","","","image-keyboard-response","141","240687","0.0-116.0","6506f9e821e92759b20c2be6","665500ab8938657b03fbdba8","66579374480d7e783d0b7be5","390","stimuli/10100001.jpg"," ","","feedback_trial","1","","","","","","","","","","","","","","","","","","","","",""
"","","","","","image-keyboard-response","142","241481","0.0-117.0","6506f9e821e92759b20c2be6","665500ab8938657b03fbdba8","66579374480d7e783d0b7be5","793","stimuli/2111101.jpg","2","","prediction_trial","1","","false","","2","false","false","false","false","false","false","[2,0,1]","111","101","0","","","","","","",""
"","","","","","image-keyboard-response","143","242384","0.0-118.0","6506f9e821e92759b20c2be6","665500ab8938657b03fbdba8","66579374480d7e783d0b7be5","902","stimuli/21111011.jpg"," ","","feedback_trial","2","","","","","","","","","","","","","","","","","","","","",""
"","","","","","image-keyboard-response","144","243428","0.0-119.0","6506f9e821e92759b20c2be6","665500ab8938657b03fbdba8","66579374480d7e783d0b7be5","1043","stimuli/1100001.jpg","1","","prediction_trial","1","","true","","1","true","true","true","true","true","true","[1]","100","001","1","","","","","","",""
"","","","","","image-keyboard-response","145","244492","0.0-120.0","6506f9e821e92759b20c2be6","665500ab8938657b03fbdba8","66579374480d7e783d0b7be5","1064","stimuli/11000011.jpg"," ","","feedback_trial","1","","","","","","","","","","","","","","","","","","","","",""
"","","","","","image-keyboard-response","146","245389","0.0-121.0","6506f9e821e92759b20c2be6","665500ab8938657b03fbdba8","66579374480d7e783d0b7be5","896","stimuli/2011110.jpg","2","","prediction_trial","2","","true","","2","true","true","false","false","false","false","[1,2]","011","110","1","","","","","","",""
"","","","","","image-keyboard-response","147","246350","0.0-122.0","6506f9e821e92759b20c2be6","665500ab8938657b03fbdba8","66579374480d7e783d0b7be5","960","stimuli/20111102.jpg"," ","","feedback_trial","1","","","","","","","","","","","","","","","","","","","","",""
"","","","","","image-keyboard-response","148","247086","0.0-123.0","6506f9e821e92759b20c2be6","665500ab8938657b03fbdba8","66579374480d7e783d0b7be5","735","stimuli/1101100.jpg","1","","prediction_trial","1","","true","","1","true","true","true","true","true","true","[1]","101","100","1","","","","","","",""
"","","","","","image-keyboard-response","149","247741","0.0-124.0","6506f9e821e92759b20c2be6","665500ab8938657b03fbdba8","66579374480d7e783d0b7be5","655","stimuli/11011001.jpg"," ","","feedback_trial","1","","","","","","","","","","","","","","","","","","","","",""
"","","","","","image-keyboard-response","150","251244","0.0-125.0","6506f9e821e92759b20c2be6","665500ab8938657b03fbdba8","66579374480d7e783d0b7be5","3502","stimuli/1001100.jpg","1","","prediction_trial","1","","true","","1","true","true","true","true","true","true","[1]","001","100","1","","","","","","",""
"","","","","","image-keyboard-response","151","251581","0.0-126.0","6506f9e821e92759b20c2be6","665500ab8938657b03fbdba8","66579374480d7e783d0b7be5","336","stimuli/10011001.jpg"," ","","feedback_trial","1","","","","","","","","","","","","","","","","","","","","",""
"","","","","","image-keyboard-response","152","252389","0.0-127.0","6506f9e821e92759b20c2be6","665500ab8938657b03fbdba8","66579374480d7e783d0b7be5","808","stimuli/0110011.jpg","0","","prediction_trial","1","","false","","0","true","true","false","false","false","false","[0,1]","110","011","0","","","","","","",""
"","","","","","image-keyboard-response","153","252822","0.0-128.0","6506f9e821e92759b20c2be6","665500ab8938657b03fbdba8","66579374480d7e783d0b7be5","432","stimuli/01100111.jpg"," ","","feedback_trial","0","","","","","","","","","","","","","","","","","","","","",""
"","","","","","image-keyboard-response","154","253617","0.0-129.0","6506f9e821e92759b20c2be6","665500ab8938657b03fbdba8","66579374480d7e783d0b7be5","794","stimuli/1111010.jpg","1","","prediction_trial","0","","false","","1","false","true","false","false","false","false","[2,0,1]","111","010","0","","","","","","",""
"","","","","","image-keyboard-response","155","254266","0.0-130.0","6506f9e821e92759b20c2be6","665500ab8938657b03fbdba8","66579374480d7e783d0b7be5","648","stimuli/11110100.jpg"," ","","feedback_trial","2","","","","","","","","","","","","","","","","","","","","",""
"","","","","","image-keyboard-response","156","255987","0.0-131.0","6506f9e821e92759b20c2be6","665500ab8938657b03fbdba8","66579374480d7e783d0b7be5","1720","stimuli/0000010.jpg","0","","prediction_trial","0","","true","","0","true","true","true","true","true","true","[0]","000","010","1","","","","","","",""
"","","","","","image-keyboard-response","157","256412","0.0-132.0","6506f9e821e92759b20c2be6","665500ab8938657b03fbdba8","66579374480d7e783d0b7be5","425","stimuli/00000100.jpg"," ","","feedback_trial","0","","","","","","","","","","","","","","","","","","","","",""
"","","","","","image-keyboard-response","158","257604","0.0-133.0","6506f9e821e92759b20c2be6","665500ab8938657b03fbdba8","66579374480d7e783d0b7be5","1191","stimuli/0010011.jpg","0","","prediction_trial","0","","true","","0","true","true","true","true","true","true","[0]","010","011","1","","","","","","",""
"","","","","","image-keyboard-response","159","258073","0.0-134.0","6506f9e821e92759b20c2be6","665500ab8938657b03fbdba8","66579374480d7e783d0b7be5","469","stimuli/00100110.jpg"," ","","feedback_trial","0","","","","","","","","","","","","","","","","","","","","",""
"","","","","","image-keyboard-response","160","258985","0.0-135.0","6506f9e821e92759b20c2be6","665500ab8938657b03fbdba8","66579374480d7e783d0b7be5","911","stimuli/0011011.jpg","0","","prediction_trial","0","","true","","0","true","true","true","true","true","true","[0]","011","011","1","","","","","","",""
"","","","","","image-keyboard-response","161","259976","0.0-136.0","6506f9e821e92759b20c2be6","665500ab8938657b03fbdba8","66579374480d7e783d0b7be5","990","stimuli/00110110.jpg"," ","","feedback_trial","0","","","","","","","","","","","","","","","","","","","","",""
"","","","","","image-keyboard-response","162","307112","0.0-137.0","6506f9e821e92759b20c2be6","665500ab8938657b03fbdba8","66579374480d7e783d0b7be5","47134","stimuli/2111000.jpg","2","","prediction_trial","0","","false","","2","true","true","false","false","false","false","[0,2,1]","111","000","0","","","","","","",""
"","","","","","image-keyboard-response","163","308086","0.0-138.0","6506f9e821e92759b20c2be6","665500ab8938657b03fbdba8","66579374480d7e783d0b7be5","973","stimuli/21110000.jpg"," ","","feedback_trial","0","","","","","","","","","","","","","","","","","","","","",""
"","","","","","image-keyboard-response","164","309210","0.0-139.0","6506f9e821e92759b20c2be6","665500ab8938657b03fbdba8","66579374480d7e783d0b7be5","1123","stimuli/1010101.jpg","1","","prediction_trial","1","","true","","1","true","true","false","true","false","true","[1]","010","101","1","","","","","","",""
"","","","","","image-keyboard-response","165","309563","0.0-140.0","6506f9e821e92759b20c2be6","665500ab8938657b03fbdba8","66579374480d7e783d0b7be5","352","stimuli/10101011.jpg"," ","","feedback_trial","1","","","","","","","","","","","","","","","","","","","","",""
"","","","","","image-keyboard-response","166","314561","0.0-141.0","6506f9e821e92759b20c2be6","665500ab8938657b03fbdba8","66579374480d7e783d0b7be5","4998","stimuli/1010110.jpg","1","","prediction_trial","1","","true","","1","false","false","false","true","false","false","[1]","010","110","1","","","","","","",""
"","","","","","image-keyboard-response","167","314988","0.0-142.0","6506f9e821e92759b20c2be6","665500ab8938657b03fbdba8","66579374480d7e783d0b7be5","426","stimuli/10101101.jpg"," ","","feedback_trial","1","","","","","","","","","","","","","","","","","","","","",""
"","","","","","image-keyboard-response","168","316340","0.0-143.0","6506f9e821e92759b20c2be6","665500ab8938657b03fbdba8","66579374480d7e783d0b7be5","1351","stimuli/2111111.jpg","1","","prediction_trial","1","","true","","2","false","false","false","false","false","false","[1,0,2]","111","111","1","","","","","","",""
"","","","","","image-keyboard-response","169","317104","0.0-144.0","6506f9e821e92759b20c2be6","665500ab8938657b03fbdba8","66579374480d7e783d0b7be5","763","stimuli/21111111.jpg"," ","","feedback_trial","1","","","","","","","","","","","","","","","","","","","","",""
"","","","","","image-keyboard-response","170","318379","0.0-145.0","6506f9e821e92759b20c2be6","665500ab8938657b03fbdba8","66579374480d7e783d0b7be5","1274","stimuli/2110011.jpg","1","","prediction_trial","2","","false","","2","false","false","true","true","false","false","[2]","110","011","0","","","","","","",""
"","","","","","image-keyboard-response","171","318934","0.0-146.0","6506f9e821e92759b20c2be6","665500ab8938657b03fbdba8","66579374480d7e783d0b7be5","555","stimuli/21100112.jpg"," ","","feedback_trial","2","","","","","","","","","","","","","","","","","","","","",""
"","","","","","image-keyboard-response","172","319810","0.0-147.0","6506f9e821e92759b20c2be6","665500ab8938657b03fbdba8","66579374480d7e783d0b7be5","875","stimuli/1101000.jpg","1","","prediction_trial","1","","true","","1","true","true","true","true","true","true","[1]","101","000","1","","","","","","",""
"","","","","","image-keyboard-response","173","320236","0.0-148.0","6506f9e821e92759b20c2be6","665500ab8938657b03fbdba8","66579374480d7e783d0b7be5","425","stimuli/11010001.jpg"," ","","feedback_trial","1","","","","","","","","","","","","","","","","","","","","",""
"","","","","","image-keyboard-response","174","321190","0.0-149.0","6506f9e821e92759b20c2be6","665500ab8938657b03fbdba8","66579374480d7e783d0b7be5","954","stimuli/2000100.jpg","2","","prediction_trial","2","","true","","2","true","true","true","true","true","true","[2]","000","100","1","","","","","","",""
"","","","","","image-keyboard-response","175","321586","0.0-150.0","6506f9e821e92759b20c2be6","665500ab8938657b03fbdba8","66579374480d7e783d0b7be5","395","stimuli/20001002.jpg"," ","","feedback_trial","2","","","","","","","","","","","","","","","","","","","","",""
"","","","","","image-keyboard-response","176","324346","0.0-151.0","6506f9e821e92759b20c2be6","665500ab8938657b03fbdba8","66579374480d7e783d0b7be5","2759","stimuli/2001000.jpg","2","","prediction_trial","2","","true","","2","true","true","false","true","false","true","[2]","001","000","1","","","","","","",""
"","","","","","image-keyboard-response","177","324559","0.0-152.0","6506f9e821e92759b20c2be6","665500ab8938657b03fbdba8","66579374480d7e783d0b7be5","212","stimuli/20010002.jpg"," ","","feedback_trial","2","","","","","","","","","","","","","","","","","","","","",""
"","","","","","image-keyboard-response","178","326757","0.0-153.0","6506f9e821e92759b20c2be6","665500ab8938657b03fbdba8","66579374480d7e783d0b7be5","2198","stimuli/0010100.jpg","0","","prediction_trial","0","","true","","0","false","true","true","true","false","true","[0]","010","100","1","","","","","","",""
"","","","","","image-keyboard-response","179","327131","0.0-154.0","6506f9e821e92759b20c2be6","665500ab8938657b03fbdba8","66579374480d7e783d0b7be5","374","stimuli/00101000.jpg"," ","","feedback_trial","0","","","","","","","","","","","","","","","","","","","","",""
"","","","","","image-keyboard-response","180","329700","0.0-155.0","6506f9e821e92759b20c2be6","665500ab8938657b03fbdba8","66579374480d7e783d0b7be5","2568","stimuli/2001101.jpg","2","","prediction_trial","2","","true","","2","false","false","false","true","false","false","[2]","001","101","1","","","","","","",""
"","","","","","image-keyboard-response","181","330068","0.0-156.0","6506f9e821e92759b20c2be6","665500ab8938657b03fbdba8","66579374480d7e783d0b7be5","367","stimuli/20011012.jpg"," ","","feedback_trial","2","","","","","","","","","","","","","","","","","","","","",""
"","","","","","image-keyboard-response","182","330962","0.0-157.0","6506f9e821e92759b20c2be6","665500ab8938657b03fbdba8","66579374480d7e783d0b7be5","893","stimuli/2011010.jpg","2","","prediction_trial","1","","false","","2","true","true","false","false","false","false","[2,1]","011","010","0","","","","","","",""
"","","","","","image-keyboard-response","183","331325","0.0-158.0","6506f9e821e92759b20c2be6","665500ab8938657b03fbdba8","66579374480d7e783d0b7be5","363","stimuli/20110101.jpg"," ","","feedback_trial","2","","","","","","","","","","","","","","","","","","","","",""
"","","","","","image-keyboard-response","184","332191","0.0-159.0","6506f9e821e92759b20c2be6","665500ab8938657b03fbdba8","66579374480d7e783d0b7be5","865","stimuli/0111000.jpg","0","","prediction_trial","0","","true","","0","true","true","false","false","false","false","[1,0,2]","111","000","1","","","","","","",""
"","","","","","image-keyboard-response","185","332405","0.0-160.0","6506f9e821e92759b20c2be6","665500ab8938657b03fbdba8","66579374480d7e783d0b7be5","214","stimuli/01110000.jpg"," ","","feedback_trial","1","","","","","","","","","","","","","","","","","","","","",""
"","","","","","image-keyboard-response","186","333238","0.0-161.0","6506f9e821e92759b20c2be6","665500ab8938657b03fbdba8","66579374480d7e783d0b7be5","833","stimuli/0100011.jpg","0","","prediction_trial","0","","true","","0","true","true","false","true","false","true","[0]","100","011","1","","","","","","",""
"","","","","","image-keyboard-response","187","333399","0.0-162.0","6506f9e821e92759b20c2be6","665500ab8938657b03fbdba8","66579374480d7e783d0b7be5","160","stimuli/01000110.jpg"," ","","feedback_trial","0","","","","","","","","","","","","","","","","","","","","",""
"","","","","","image-keyboard-response","188","334375","0.0-163.0","6506f9e821e92759b20c2be6","665500ab8938657b03fbdba8","66579374480d7e783d0b7be5","976","stimuli/1011110.jpg","1","","prediction_trial","2","","false","","1","false","false","false","false","false","false","[1,2]","011","110","0","","","","","","",""
"","","","","","image-keyboard-response","189","334580","0.0-164.0","6506f9e821e92759b20c2be6","665500ab8938657b03fbdba8","66579374480d7e783d0b7be5","204","stimuli/10111102.jpg"," ","","feedback_trial","1","","","","","","","","","","","","","","","","","","","","",""
"","","","","","image-keyboard-response","190","335558","0.0-165.0","6506f9e821e92759b20c2be6","665500ab8938657b03fbdba8","66579374480d7e783d0b7be5","977","stimuli/2101111.jpg","0","","prediction_trial","0","","true","","2","false","false","false","false","false","false","[0,2]","101","111","1","","","","","","",""
"","","","","","image-keyboard-response","191","335854","0.0-166.0","6506f9e821e92759b20c2be6","665500ab8938657b03fbdba8","66579374480d7e783d0b7be5","295","stimuli/21011110.jpg"," ","","feedback_trial","0","","","","","","","","","","","","","","","","","","","","",""
"","","","","","image-keyboard-response","192","336815","0.0-167.0","6506f9e821e92759b20c2be6","665500ab8938657b03fbdba8","66579374480d7e783d0b7be5","960","stimuli/2101011.jpg","1","","prediction_trial","2","","false","","2","false","false","false","false","false","false","[0,2]","101","011","0","","","","","","",""
"","","","","","image-keyboard-response","193","337151","0.0-168.0","6506f9e821e92759b20c2be6","665500ab8938657b03fbdba8","66579374480d7e783d0b7be5","335","stimuli/21010112.jpg"," ","","feedback_trial","0","","","","","","","","","","","","","","","","","","","","",""
"","","","","","image-keyboard-response","194","337989","0.0-169.0","6506f9e821e92759b20c2be6","665500ab8938657b03fbdba8","66579374480d7e783d0b7be5","837","stimuli/0010000.jpg","0","","prediction_trial","0","","true","","0","true","true","true","true","true","true","[0]","010","000","1","","","","","","",""
"","","","","","image-keyboard-response","195","338181","0.0-170.0","6506f9e821e92759b20c2be6","665500ab8938657b03fbdba8","66579374480d7e783d0b7be5","191","stimuli/00100000.jpg"," ","","feedback_trial","0","","","","","","","","","","","","","","","","","","","","",""
"","","","","","image-keyboard-response","196","339075","0.0-171.0","6506f9e821e92759b20c2be6","665500ab8938657b03fbdba8","66579374480d7e783d0b7be5","894","stimuli/2110010.jpg","2","","prediction_trial","2","","true","","2","true","true","true","true","true","true","[2]","110","010","1","","","","","","",""
"","","","","","image-keyboard-response","197","339567","0.0-172.0","6506f9e821e92759b20c2be6","665500ab8938657b03fbdba8","66579374480d7e783d0b7be5","491","stimuli/21100102.jpg"," ","","feedback_trial","2","","","","","","","","","","","","","","","","","","","","",""
"","","","","","image-keyboard-response","198","340748","0.0-173.0","6506f9e821e92759b20c2be6","665500ab8938657b03fbdba8","66579374480d7e783d0b7be5","1180","stimuli/2110111.jpg","0","","prediction_trial","2","","false","","2","false","false","true","true","false","false","[2]","110","111","0","","","","","","",""
"","","","","","image-keyboard-response","199","341572","0.0-174.0","6506f9e821e92759b20c2be6","665500ab8938657b03fbdba8","66579374480d7e783d0b7be5","823","stimuli/21101112.jpg"," ","","feedback_trial","2","","","","","","","","","","","","","","","","","","","","",""
"","","","","","image-keyboard-response","200","342314","0.0-175.0","6506f9e821e92759b20c2be6","665500ab8938657b03fbdba8","66579374480d7e783d0b7be5","741","stimuli/0111011.jpg","0","","prediction_trial","1","","false","","0","true","true","false","false","false","false","[0,1,2]","111","011","0","","","","","","",""
"","","","","","image-keyboard-response","201","342555","0.0-176.0","6506f9e821e92759b20c2be6","665500ab8938657b03fbdba8","66579374480d7e783d0b7be5","240","stimuli/01110111.jpg"," ","","feedback_trial","0","","","","","","","","","","","","","","","","","","","","",""
"","","","","","image-keyboard-response","202","343370","0.0-177.0","6506f9e821e92759b20c2be6","665500ab8938657b03fbdba8","66579374480d7e783d0b7be5","815","stimuli/1110001.jpg","1","","prediction_trial","0","","false","","1","true","true","false","false","false","false","[1,0]","110","001","0","","","","","","",""
"","","","","","image-keyboard-response","203","343567","0.0-178.0","6506f9e821e92759b20c2be6","665500ab8938657b03fbdba8","66579374480d7e783d0b7be5","196","stimuli/11100010.jpg"," ","","feedback_trial","1","","","","","","","","","","","","","","","","","","","","",""
"","","","","","image-keyboard-response","204","344498","0.0-179.0","6506f9e821e92759b20c2be6","665500ab8938657b03fbdba8","66579374480d7e783d0b7be5","931","stimuli/2100101.jpg","0","","prediction_trial","2","","false","","2","false","false","true","true","false","false","[2]","100","101","0","","","","","","",""
"","","","","","image-keyboard-response","205","344874","0.0-180.0","6506f9e821e92759b20c2be6","665500ab8938657b03fbdba8","66579374480d7e783d0b7be5","375","stimuli/21001012.jpg"," ","","feedback_trial","2","","","","","","","","","","","","","","","","","","","","",""
"","","","","","image-keyboard-response","206","348263","0.0-181.0","6506f9e821e92759b20c2be6","665500ab8938657b03fbdba8","66579374480d7e783d0b7be5","3388","stimuli/0011001.jpg","0","","prediction_trial","0","","true","","0","true","true","true","true","true","true","[0]","011","001","1","","","","","","",""
"","","","","","image-keyboard-response","207","348649","0.0-182.0","6506f9e821e92759b20c2be6","665500ab8938657b03fbdba8","66579374480d7e783d0b7be5","386","stimuli/00110010.jpg"," ","","feedback_trial","0","","","","","","","","","","","","","","","","","","","","",""
"","","","","","image-keyboard-response","208","349522","0.0-183.0","6506f9e821e92759b20c2be6","665500ab8938657b03fbdba8","66579374480d7e783d0b7be5","873","stimuli/1000101.jpg","1","","prediction_trial","1","","true","","1","true","true","true","true","true","true","[1]","000","101","1","","","","","","",""
"","","","","","image-keyboard-response","209","350156","0.0-184.0","6506f9e821e92759b20c2be6","665500ab8938657b03fbdba8","66579374480d7e783d0b7be5","633","stimuli/10001011.jpg"," ","","feedback_trial","1","","","","","","","","","","","","","","","","","","","","",""
"","","","","","image-keyboard-response","210","351268","0.0-185.0","6506f9e821e92759b20c2be6","665500ab8938657b03fbdba8","66579374480d7e783d0b7be5","1111","stimuli/1000111.jpg","0","","prediction_trial","1","","false","","1","false","false","true","true","false","false","[1]","000","111","0","","","","","","",""
"","","","","","image-keyboard-response","211","351718","0.0-186.0","6506f9e821e92759b20c2be6","665500ab8938657b03fbdba8","66579374480d7e783d0b7be5","449","stimuli/10001111.jpg"," ","","feedback_trial","1","","","","","","","","","","","","","","","","","","","","",""
"","","","","","image-keyboard-response","212","352580","0.0-187.0","6506f9e821e92759b20c2be6","665500ab8938657b03fbdba8","66579374480d7e783d0b7be5","861","stimuli/2010010.jpg","2","","prediction_trial","2","","true","","2","true","true","true","true","true","true","[2]","010","010","1","","","","","","",""
"","","","","","image-keyboard-response","213","352970","0.0-188.0","6506f9e821e92759b20c2be6","665500ab8938657b03fbdba8","66579374480d7e783d0b7be5","390","stimuli/20100102.jpg"," ","","feedback_trial","2","","","","","","","","","","","","","","","","","","","","",""
"","","","","","image-keyboard-response","214","353877","0.0-189.0","6506f9e821e92759b20c2be6","665500ab8938657b03fbdba8","66579374480d7e783d0b7be5","906","stimuli/2111010.jpg","2","","prediction_trial","0","","false","","2","true","true","false","false","false","false","[1,2,0]","111","010","0","","","","","","",""
"","","","","","image-keyboard-response","215","354226","0.0-190.0","6506f9e821e92759b20c2be6","665500ab8938657b03fbdba8","66579374480d7e783d0b7be5","349","stimuli/21110100.jpg"," ","","feedback_trial","1","","","","","","","","","","","","","","","","","","","","",""
"","","","","","image-keyboard-response","216","355107","0.0-191.0","6506f9e821e92759b20c2be6","665500ab8938657b03fbdba8","66579374480d7e783d0b7be5","881","stimuli/2111100.jpg","2","","prediction_trial","1","","false","","2","true","true","false","false","false","false","[2,0,1]","111","100","0","","","","","","",""
"","","","","","image-keyboard-response","217","355432","0.0-192.0","6506f9e821e92759b20c2be6","665500ab8938657b03fbdba8","66579374480d7e783d0b7be5","324","stimuli/21111001.jpg"," ","","feedback_trial","2","","","","","","","","","","","","","","","","","","","","",""
"","","","","","image-keyboard-response","218","356881","0.0-193.0","6506f9e821e92759b20c2be6","665500ab8938657b03fbdba8","66579374480d7e783d0b7be5","1448","stimuli/0100101.jpg","2","","prediction_trial","0","","false","","0","false","false","false","true","false","false","[0]","100","101","0","","","","","","",""
"","","","","","image-keyboard-response","219","357444","0.0-194.0","6506f9e821e92759b20c2be6","665500ab8938657b03fbdba8","66579374480d7e783d0b7be5","562","stimuli/01001010.jpg"," ","","feedback_trial","0","","","","","","","","","","","","","","","","","","","","",""
"","","","","","image-keyboard-response","220","358682","0.0-195.0","6506f9e821e92759b20c2be6","665500ab8938657b03fbdba8","66579374480d7e783d0b7be5","1237","stimuli/1011111.jpg","2","","prediction_trial","2","","true","","1","false","false","false","false","false","false","[1,2]","011","111","1","","","","","","",""
"","","","","","image-keyboard-response","221","359180","0.0-196.0","6506f9e821e92759b20c2be6","665500ab8938657b03fbdba8","66579374480d7e783d0b7be5","498","stimuli/10111112.jpg"," ","","feedback_trial","1","","","","","","","","","","","","","","","","","","","","",""
"","","","","","image-keyboard-response","222","360054","0.0-197.0","6506f9e821e92759b20c2be6","665500ab8938657b03fbdba8","66579374480d7e783d0b7be5","873","stimuli/2100001.jpg","2","","prediction_trial","2","","true","","2","false","true","true","true","false","true","[2]","100","001","1","","","","","","",""
"","","","","","image-keyboard-response","223","360402","0.0-198.0","6506f9e821e92759b20c2be6","665500ab8938657b03fbdba8","66579374480d7e783d0b7be5","347","stimuli/21000012.jpg"," ","","feedback_trial","2","","","","","","","","","","","","","","","","","","","","",""
"","","","","","image-keyboard-response","224","361369","0.0-199.0","6506f9e821e92759b20c2be6","665500ab8938657b03fbdba8","66579374480d7e783d0b7be5","966","stimuli/1000010.jpg","1","","prediction_trial","1","","true","","1","false","true","true","true","false","true","[1]","000","010","1","","","","","","",""
"","","","","","image-keyboard-response","225","361629","0.0-200.0","6506f9e821e92759b20c2be6","665500ab8938657b03fbdba8","66579374480d7e783d0b7be5","260","stimuli/10000101.jpg"," ","","feedback_trial","1","","","","","","","","","","","","","","","","","","","","",""
"","","","","","image-keyboard-response","226","362731","0.0-201.0","6506f9e821e92759b20c2be6","665500ab8938657b03fbdba8","66579374480d7e783d0b7be5","1102","stimuli/1001110.jpg","0","","prediction_trial","1","","false","","1","false","false","true","true","false","false","[1]","001","110","0","","","","","","",""
"","","","","","image-keyboard-response","227","364648","0.0-202.0","6506f9e821e92759b20c2be6","665500ab8938657b03fbdba8","66579374480d7e783d0b7be5","1916","stimuli/10011101.jpg"," ","","feedback_trial","1","","","","","","","","","","","","","","","","","","","","",""
"","","","","","image-keyboard-response","228","365475","0.0-203.0","6506f9e821e92759b20c2be6","665500ab8938657b03fbdba8","66579374480d7e783d0b7be5","827","stimuli/0101100.jpg","1","","prediction_trial","0","","false","","0","false","true","false","false","false","false","[2,0]","101","100","0","","","","","","",""
"","","","","","image-keyboard-response","229","366644","0.0-204.0","6506f9e821e92759b20c2be6","665500ab8938657b03fbdba8","66579374480d7e783d0b7be5","1168","stimuli/01011000.jpg"," ","","feedback_trial","2","","","","","","","","","","","","","","","","","","","","",""
"","","","","","image-keyboard-response","230","367474","0.0-205.0","6506f9e821e92759b20c2be6","665500ab8938657b03fbdba8","66579374480d7e783d0b7be5","829","stimuli/2001100.jpg","2","","prediction_trial","2","","true","","2","true","true","false","true","false","true","[2]","001","100","1","","","","","","",""
"","","","","","image-keyboard-response","231","368662","0.0-206.0","6506f9e821e92759b20c2be6","665500ab8938657b03fbdba8","66579374480d7e783d0b7be5","1187","stimuli/20011002.jpg"," ","","feedback_trial","2","","","","","","","","","","","","","","","","","","","","",""
"","","","","","image-keyboard-response","232","369604","0.0-207.0","6506f9e821e92759b20c2be6","665500ab8938657b03fbdba8","66579374480d7e783d0b7be5","941","stimuli/0110100.jpg","0","","prediction_trial","0","","true","","0","false","true","false","false","false","false","[0,1]","110","100","1","","","","","","",""
"","","","","","image-keyboard-response","233","370060","0.0-208.0","6506f9e821e92759b20c2be6","665500ab8938657b03fbdba8","66579374480d7e783d0b7be5","455","stimuli/01101000.jpg"," ","","feedback_trial","0","","","","","","","","","","","","","","","","","","","","",""
"","","","","","image-keyboard-response","234","373628","0.0-209.0","6506f9e821e92759b20c2be6","665500ab8938657b03fbdba8","66579374480d7e783d0b7be5","3567","stimuli/1111011.jpg","1","","prediction_trial","2","","false","","1","false","false","false","false","false","false","[2,0,1]","111","011","0","","","","","","",""
"","","","","","image-keyboard-response","235","374515","0.0-210.0","6506f9e821e92759b20c2be6","665500ab8938657b03fbdba8","66579374480d7e783d0b7be5","886","stimuli/11110112.jpg"," ","","feedback_trial","2","","","","","","","","","","","","","","","","","","","","",""
"","","","","","image-keyboard-response","236","375247","0.0-211.0","6506f9e821e92759b20c2be6","665500ab8938657b03fbdba8","66579374480d7e783d0b7be5","731","stimuli/1101001.jpg","1","","prediction_trial","1","","true","","1","true","true","true","true","true","true","[1]","101","001","1","","","","","","",""
"","","","","","image-keyboard-response","237","375665","0.0-212.0","6506f9e821e92759b20c2be6","665500ab8938657b03fbdba8","66579374480d7e783d0b7be5","417","stimuli/11010011.jpg"," ","","feedback_trial","1","","","","","","","","","","","","","","","","","","","","",""
"","","","","","image-keyboard-response","238","376461","0.0-213.0","6506f9e821e92759b20c2be6","665500ab8938657b03fbdba8","66579374480d7e783d0b7be5","796","stimuli/1100100.jpg","1","","prediction_trial","1","","true","","1","true","true","true","true","true","true","[1]","100","100","1","","","","","","",""
"","","","","","image-keyboard-response","239","376791","0.0-214.0","6506f9e821e92759b20c2be6","665500ab8938657b03fbdba8","66579374480d7e783d0b7be5","328","stimuli/11001001.jpg"," ","","feedback_trial","1","","","","","","","","","","","","","","","","","","","","",""
"","","","","","image-keyboard-response","240","378032","0.0-215.0","6506f9e821e92759b20c2be6","665500ab8938657b03fbdba8","66579374480d7e783d0b7be5","1241","stimuli/0001110.jpg","0","","prediction_trial","0","","true","","0","false","false","true","true","false","false","[0]","001","110","1","","","","","","",""
"","","","","","image-keyboard-response","241","378796","0.0-216.0","6506f9e821e92759b20c2be6","665500ab8938657b03fbdba8","66579374480d7e783d0b7be5","763","stimuli/00011100.jpg"," ","","feedback_trial","0","","","","","","","","","","","","","","","","","","","","",""
"","","","","","image-keyboard-response","242","379601","0.0-217.0","6506f9e821e92759b20c2be6","665500ab8938657b03fbdba8","66579374480d7e783d0b7be5","805","stimuli/2110100.jpg","2","","prediction_trial","2","","true","","2","true","true","true","true","true","true","[2]","110","100","1","","","","","","",""
"","","","","","image-keyboard-response","243","379992","0.0-218.0","6506f9e821e92759b20c2be6","665500ab8938657b03fbdba8","66579374480d7e783d0b7be5","390","stimuli/21101002.jpg"," ","","feedback_trial","2","","","","","","","","","","","","","","","","","","","","",""
"","","","","","image-keyboard-response","244","380785","0.0-219.0","6506f9e821e92759b20c2be6","665500ab8938657b03fbdba8","66579374480d7e783d0b7be5","792","stimuli/0000100.jpg","0","","prediction_trial","0","","true","","0","false","true","true","true","false","true","[0]","000","100","1","","","","","","",""
"","","","","","image-keyboard-response","245","381053","0.0-220.0","6506f9e821e92759b20c2be6","665500ab8938657b03fbdba8","66579374480d7e783d0b7be5","267","stimuli/00001000.jpg"," ","","feedback_trial","0","","","","","","","","","","","","","","","","","","","","",""
"","","","","","image-keyboard-response","246","382043","0.0-221.0","6506f9e821e92759b20c2be6","665500ab8938657b03fbdba8","66579374480d7e783d0b7be5","990","stimuli/2011111.jpg","0","","prediction_trial","2","","false","","2","false","false","false","false","false","false","[1,2]","011","111","0","","","","","","",""
"","","","","","image-keyboard-response","247","382536","0.0-222.0","6506f9e821e92759b20c2be6","665500ab8938657b03fbdba8","66579374480d7e783d0b7be5","492","stimuli/20111112.jpg"," ","","feedback_trial","1","","","","","","","","","","","","","","","","","","","","",""
"","","","","","image-keyboard-response","248","383370","0.0-223.0","6506f9e821e92759b20c2be6","665500ab8938657b03fbdba8","66579374480d7e783d0b7be5","833","stimuli/2010011.jpg","1","","prediction_trial","2","","false","","2","false","false","true","true","false","false","[2]","010","011","0","","","","","","",""
"","","","","","image-keyboard-response","249","383655","0.0-224.0","6506f9e821e92759b20c2be6","665500ab8938657b03fbdba8","66579374480d7e783d0b7be5","285","stimuli/20100112.jpg"," ","","feedback_trial","2","","","","","","","","","","","","","","","","","","","","",""
"","","","","","image-keyboard-response","250","384534","0.0-225.0","6506f9e821e92759b20c2be6","665500ab8938657b03fbdba8","66579374480d7e783d0b7be5","878","stimuli/1001111.jpg","1","","prediction_trial","1","","true","","1","false","false","true","true","false","false","[1]","001","111","1","","","","","","",""
"","","","","","image-keyboard-response","251","384856","0.0-226.0","6506f9e821e92759b20c2be6","665500ab8938657b03fbdba8","66579374480d7e783d0b7be5","321","stimuli/10011111.jpg"," ","","feedback_trial","1","","","","","","","","","","","","","","","","","","","","",""
"","","","","","image-keyboard-response","252","385667","0.0-227.0","6506f9e821e92759b20c2be6","665500ab8938657b03fbdba8","66579374480d7e783d0b7be5","811","stimuli/0001100.jpg","0","","prediction_trial","0","","true","","0","false","true","true","true","false","true","[0]","001","100","1","","","","","","",""
"","","","","","image-keyboard-response","253","385938","0.0-228.0","6506f9e821e92759b20c2be6","665500ab8938657b03fbdba8","66579374480d7e783d0b7be5","270","stimuli/00011000.jpg"," ","","feedback_trial","0","","","","","","","","","","","","","","","","","","","","",""
"","","","","","image-keyboard-response","254","386764","0.0-229.0","6506f9e821e92759b20c2be6","665500ab8938657b03fbdba8","66579374480d7e783d0b7be5","826","stimuli/0001001.jpg","0","","prediction_trial","0","","true","","0","true","true","true","true","true","true","[0]","001","001","1","","","","","","",""
"","","","","","image-keyboard-response","255","387000","0.0-230.0","6506f9e821e92759b20c2be6","665500ab8938657b03fbdba8","66579374480d7e783d0b7be5","235","stimuli/00010010.jpg"," ","","feedback_trial","0","","","","","","","","","","","","","","","","","","","","",""
"","","","","","image-keyboard-response","256","388148","0.0-231.0","6506f9e821e92759b20c2be6","665500ab8938657b03fbdba8","66579374480d7e783d0b7be5","1147","stimuli/0111111.jpg","0","","prediction_trial","0","","true","","0","false","false","false","false","false","false","[1,0,2]","111","111","1","","","","","","",""
"","","","","","image-keyboard-response","257","388991","0.0-232.0","6506f9e821e92759b20c2be6","665500ab8938657b03fbdba8","66579374480d7e783d0b7be5","842","stimuli/01111110.jpg"," ","","feedback_trial","1","","","","","","","","","","","","","","","","","","","","",""
"","","","","","image-keyboard-response","258","389831","0.0-233.0","6506f9e821e92759b20c2be6","665500ab8938657b03fbdba8","66579374480d7e783d0b7be5","840","stimuli/2101000.jpg","2","","prediction_trial","2","","true","","2","true","true","false","false","false","false","[0,2]","101","000","1","","","","","","",""
"","","","","","image-keyboard-response","259","390379","0.0-234.0","6506f9e821e92759b20c2be6","665500ab8938657b03fbdba8","66579374480d7e783d0b7be5","547","stimuli/21010002.jpg"," ","","feedback_trial","0","","","","","","","","","","","","","","","","","","","","",""
"","","","","","image-keyboard-response","260","391551","0.0-235.0","6506f9e821e92759b20c2be6","665500ab8938657b03fbdba8","66579374480d7e783d0b7be5","1172","stimuli/2000011.jpg","1","","prediction_trial","2","","false","","2","false","false","true","true","false","false","[2]","000","011","0","","","","","","",""
"","","","","","image-keyboard-response","261","392027","0.0-236.0","6506f9e821e92759b20c2be6","665500ab8938657b03fbdba8","66579374480d7e783d0b7be5","475","stimuli/20000112.jpg"," ","","feedback_trial","2","","","","","","","","","","","","","","","","","","","","",""
"","","","","","image-keyboard-response","262","392914","0.0-237.0","6506f9e821e92759b20c2be6","665500ab8938657b03fbdba8","66579374480d7e783d0b7be5","886","stimuli/0011000.jpg","0","","prediction_trial","0","","true","","0","true","true","true","true","true","true","[0]","011","000","1","","","","","","",""
"","","","","","image-keyboard-response","263","393164","0.0-238.0","6506f9e821e92759b20c2be6","665500ab8938657b03fbdba8","66579374480d7e783d0b7be5","249","stimuli/00110000.jpg"," ","","feedback_trial","0","","","","","","","","","","","","","","","","","","","","",""
"","","","","","image-keyboard-response","264","397185","0.0-239.0","6506f9e821e92759b20c2be6","665500ab8938657b03fbdba8","66579374480d7e783d0b7be5","4020","stimuli/2001111.jpg","0","","prediction_trial","2","","false","","2","false","false","false","true","false","false","[2]","001","111","0","","","","","","",""
"","","","","","image-keyboard-response","265","398178","0.0-240.0","6506f9e821e92759b20c2be6","665500ab8938657b03fbdba8","66579374480d7e783d0b7be5","992","stimuli/20011112.jpg"," ","","feedback_trial","2","","","","","","","","","","","","","","","","","","","","",""
"","","","","","image-keyboard-response","266","399277","0.0-241.0","6506f9e821e92759b20c2be6","665500ab8938657b03fbdba8","66579374480d7e783d0b7be5","1099","stimuli/1110011.jpg","1","","prediction_trial","1","","true","","1","false","false","false","false","false","false","[1,0]","110","011","1","","","","","","",""
"","","","","","image-keyboard-response","267","400090","0.0-242.0","6506f9e821e92759b20c2be6","665500ab8938657b03fbdba8","66579374480d7e783d0b7be5","812","stimuli/11100111.jpg"," ","","feedback_trial","1","","","","","","","","","","","","","","","","","","","","",""
"","","","","","image-keyboard-response","268","400666","0.0-243.0","6506f9e821e92759b20c2be6","665500ab8938657b03fbdba8","66579374480d7e783d0b7be5","575","stimuli/1001101.jpg","1","","prediction_trial","1","","true","","1","true","true","true","true","true","true","[1]","001","101","1","","","","","","",""
"","","","","","image-keyboard-response","269","401086","0.0-244.0","6506f9e821e92759b20c2be6","665500ab8938657b03fbdba8","66579374480d7e783d0b7be5","419","stimuli/10011011.jpg"," ","","feedback_trial","1","","","","","","","","","","","","","","","","","","","","",""
"","","","","","image-keyboard-response","270","402147","0.0-245.0","6506f9e821e92759b20c2be6","665500ab8938657b03fbdba8","66579374480d7e783d0b7be5","1061","stimuli/1100111.jpg","0","","prediction_trial","1","","false","","1","false","false","true","true","false","false","[1]","100","111","0","","","","","","",""
"","","","","","image-keyboard-response","271","402850","0.0-246.0","6506f9e821e92759b20c2be6","665500ab8938657b03fbdba8","66579374480d7e783d0b7be5","702","stimuli/11001111.jpg"," ","","feedback_trial","1","","","","","","","","","","","","","","","","","","","","",""
"","","","","","image-keyboard-response","272","403789","0.0-247.0","6506f9e821e92759b20c2be6","665500ab8938657b03fbdba8","66579374480d7e783d0b7be5","939","stimuli/2000110.jpg","2","","prediction_trial","2","","true","","2","true","true","true","true","true","true","[2]","000","110","1","","","","","","",""
"","","","","","image-keyboard-response","273","404267","0.0-248.0","6506f9e821e92759b20c2be6","665500ab8938657b03fbdba8","66579374480d7e783d0b7be5","477","stimuli/20001102.jpg"," ","","feedback_trial","2","","","","","","","","","","","","","","","","","","","","",""
"","","","","","image-keyboard-response","274","405250","0.0-249.0","6506f9e821e92759b20c2be6","665500ab8938657b03fbdba8","66579374480d7e783d0b7be5","982","stimuli/0111110.jpg","1","","prediction_trial","1","","true","","0","false","false","false","false","false","false","[2,1,0]","111","110","1","","","","","","",""
"","","","","","image-keyboard-response","275","405704","0.0-250.0","6506f9e821e92759b20c2be6","665500ab8938657b03fbdba8","66579374480d7e783d0b7be5","454","stimuli/01111101.jpg"," ","","feedback_trial","2","","","","","","","","","","","","","","","","","","","","",""
"","","","","","image-keyboard-response","276","406883","0.0-251.0","6506f9e821e92759b20c2be6","665500ab8938657b03fbdba8","66579374480d7e783d0b7be5","1178","stimuli/1110110.jpg","0","","prediction_trial","0","","true","","1","false","false","false","false","false","false","[0,1]","110","110","1","","","","","","",""
"","","","","","image-keyboard-response","277","407248","0.0-252.0","6506f9e821e92759b20c2be6","665500ab8938657b03fbdba8","66579374480d7e783d0b7be5","364","stimuli/11101100.jpg"," ","","feedback_trial","0","","","","","","","","","","","","","","","","","","","","",""
"","","","","","image-keyboard-response","278","408321","0.0-253.0","6506f9e821e92759b20c2be6","665500ab8938657b03fbdba8","66579374480d7e783d0b7be5","1073","stimuli/0011110.jpg","1","","prediction_trial","0","","false","","0","false","false","true","true","false","false","[0]","011","110","0","","","","","","",""
"","","","","","image-keyboard-response","279","408681","0.0-254.0","6506f9e821e92759b20c2be6","665500ab8938657b03fbdba8","66579374480d7e783d0b7be5","360","stimuli/00111100.jpg"," ","","feedback_trial","0","","","","","","","","","","","","","","","","","","","","",""
"","","","","","image-keyboard-response","280","409340","0.0-255.0","6506f9e821e92759b20c2be6","665500ab8938657b03fbdba8","66579374480d7e783d0b7be5","657","stimuli/1110100.jpg","1","","prediction_trial","0","","false","","1","true","true","false","false","false","false","[0,1]","110","100","0","","","","","","",""
"","","","","","image-keyboard-response","281","410860","0.0-256.0","6506f9e821e92759b20c2be6","665500ab8938657b03fbdba8","66579374480d7e783d0b7be5","1519","stimuli/11101000.jpg"," ","","feedback_trial","0","","","","","","","","","","","","","","","","","","","","",""
"","","","","","image-keyboard-response","282","411689","0.0-257.0","6506f9e821e92759b20c2be6","665500ab8938657b03fbdba8","66579374480d7e783d0b7be5","829","stimuli/1011101.jpg","1","","prediction_trial","2","","false","","1","true","true","false","false","false","false","[1,2]","011","101","0","","","","","","",""
"","","","","","image-keyboard-response","283","412752","0.0-258.0","6506f9e821e92759b20c2be6","665500ab8938657b03fbdba8","66579374480d7e783d0b7be5","1062","stimuli/10111012.jpg"," ","","feedback_trial","1","","","","","","","","","","","","","","","","","","","","",""
"","","","","","image-keyboard-response","284","413615","0.0-259.0","6506f9e821e92759b20c2be6","665500ab8938657b03fbdba8","66579374480d7e783d0b7be5","862","stimuli/2011100.jpg","2","","prediction_trial","1","","false","","2","true","true","false","false","false","false","[2,1]","011","100","0","","","","","","",""
"","","","","","image-keyboard-response","285","414485","0.0-260.0","6506f9e821e92759b20c2be6","665500ab8938657b03fbdba8","66579374480d7e783d0b7be5","869","stimuli/20111001.jpg"," ","","feedback_trial","2","","","","","","","","","","","","","","","","","","","","",""
"","","","","","image-keyboard-response","286","419920","0.0-261.0","6506f9e821e92759b20c2be6","665500ab8938657b03fbdba8","66579374480d7e783d0b7be5","5435","stimuli/0001101.jpg","0","","prediction_trial","0","","true","","0","false","false","true","true","false","false","[0]","001","101","1","","","","","","",""
"","","","","","image-keyboard-response","287","420429","0.0-262.0","6506f9e821e92759b20c2be6","665500ab8938657b03fbdba8","66579374480d7e783d0b7be5","508","stimuli/00011010.jpg"," ","","feedback_trial","0","","","","","","","","","","","","","","","","","","","","",""
"","","","","","image-keyboard-response","288","421583","0.0-263.0","6506f9e821e92759b20c2be6","665500ab8938657b03fbdba8","66579374480d7e783d0b7be5","1154","stimuli/2000010.jpg","2","","prediction_trial","2","","true","","2","true","true","true","true","true","true","[2]","000","010","1","","","","","","",""
"","","","","","image-keyboard-response","289","422195","0.0-264.0","6506f9e821e92759b20c2be6","665500ab8938657b03fbdba8","66579374480d7e783d0b7be5","611","stimuli/20000102.jpg"," ","","feedback_trial","2","","","","","","","","","","","","","","","","","","","","",""
"","","","","","image-keyboard-response","290","423177","0.0-265.0","6506f9e821e92759b20c2be6","665500ab8938657b03fbdba8","66579374480d7e783d0b7be5","981","stimuli/0110001.jpg","0","","prediction_trial","0","","true","","0","true","true","false","false","false","false","[0,1]","110","001","1","","","","","","",""
"","","","","","image-keyboard-response","291","423507","0.0-266.0","6506f9e821e92759b20c2be6","665500ab8938657b03fbdba8","66579374480d7e783d0b7be5","329","stimuli/01100010.jpg"," ","","feedback_trial","0","","","","","","","","","","","","","","","","","","","","",""
"","","","","","image-keyboard-response","292","425079","0.0-267.0","6506f9e821e92759b20c2be6","665500ab8938657b03fbdba8","66579374480d7e783d0b7be5","1571","stimuli/0111100.jpg","0","","prediction_trial","2","","false","","0","false","true","false","false","false","false","[2,0,1]","111","100","0","","","","","","",""
"","","","","","image-keyboard-response","293","425379","0.0-268.0","6506f9e821e92759b20c2be6","665500ab8938657b03fbdba8","66579374480d7e783d0b7be5","299","stimuli/01111002.jpg"," ","","feedback_trial","2","","","","","","","","","","","","","","","","","","","","",""
"","","","","","image-keyboard-response","294","426328","0.0-269.0","6506f9e821e92759b20c2be6","665500ab8938657b03fbdba8","66579374480d7e783d0b7be5","948","stimuli/0110000.jpg","0","","prediction_trial","1","","false","","0","true","true","false","false","false","false","[0,1]","110","000","0","","","","","","",""
"","","","","","image-keyboard-response","295","426615","0.0-270.0","6506f9e821e92759b20c2be6","665500ab8938657b03fbdba8","66579374480d7e783d0b7be5","286","stimuli/01100001.jpg"," ","","feedback_trial","0","","","","","","","","","","","","","","","","","","","","",""
"","","","","","image-keyboard-response","296","427499","0.0-271.0","6506f9e821e92759b20c2be6","665500ab8938657b03fbdba8","66579374480d7e783d0b7be5","883","stimuli/1011001.jpg","1","","prediction_trial","1","","true","","1","true","true","false","false","false","false","[1,2]","011","001","1","","","","","","",""
"","","","","","image-keyboard-response","297","427813","0.0-272.0","6506f9e821e92759b20c2be6","665500ab8938657b03fbdba8","66579374480d7e783d0b7be5","313","stimuli/10110011.jpg"," ","","feedback_trial","1","","","","","","","","","","","","","","","","","","","","",""
"","","","","","image-keyboard-response","298","428752","0.0-273.0","6506f9e821e92759b20c2be6","665500ab8938657b03fbdba8","66579374480d7e783d0b7be5","938","stimuli/0100100.jpg","0","","prediction_trial","0","","true","","0","false","true","false","true","false","true","[0]","100","100","1","","","","","","",""
"","","","","","image-keyboard-response","299","428982","0.0-274.0","6506f9e821e92759b20c2be6","665500ab8938657b03fbdba8","66579374480d7e783d0b7be5","229","stimuli/01001000.jpg"," ","","feedback_trial","0","","","","","","","","","","","","","","","","","","","","",""
"","","","","","image-keyboard-response","300","429779","0.0-275.0","6506f9e821e92759b20c2be6","665500ab8938657b03fbdba8","66579374480d7e783d0b7be5","797","stimuli/1111101.jpg","1","","prediction_trial","2","","false","","1","true","true","false","false","false","false","[2,1,0]","111","101","0","","","","","","",""
"","","","","","image-keyboard-response","301","430131","0.0-276.0","6506f9e821e92759b20c2be6","665500ab8938657b03fbdba8","66579374480d7e783d0b7be5","351","stimuli/11111012.jpg"," ","","feedback_trial","2","","","","","","","","","","","","","","","","","","","","",""
"","","","","","image-keyboard-response","302","431049","0.0-277.0","6506f9e821e92759b20c2be6","665500ab8938657b03fbdba8","66579374480d7e783d0b7be5","918","stimuli/0111010.jpg","0","","prediction_trial","0","","true","","0","true","true","false","false","false","false","[1,2,0]","111","010","1","","","","","","",""
"","","","","","image-keyboard-response","303","431369","0.0-278.0","6506f9e821e92759b20c2be6","665500ab8938657b03fbdba8","66579374480d7e783d0b7be5","319","stimuli/01110100.jpg"," ","","feedback_trial","1","","","","","","","","","","","","","","","","","","","","",""
"","","","","","image-keyboard-response","304","433306","0.0-279.0","6506f9e821e92759b20c2be6","665500ab8938657b03fbdba8","66579374480d7e783d0b7be5","1936","stimuli/2111001.jpg","2","","prediction_trial","2","","true","","2","false","true","false","false","false","false","[2,1,0]","111","001","1","","","","","","",""
"","","","","","image-keyboard-response","305","433949","0.0-280.0","6506f9e821e92759b20c2be6","665500ab8938657b03fbdba8","66579374480d7e783d0b7be5","643","stimuli/21110012.jpg"," ","","feedback_trial","2","","","","","","","","","","","","","","","","","","","","",""
"","","","","","image-keyboard-response","306","435000","0.0-281.0","6506f9e821e92759b20c2be6","665500ab8938657b03fbdba8","66579374480d7e783d0b7be5","1051","stimuli/1010111.jpg","1","","prediction_trial","1","","true","","1","false","false","false","true","false","false","[1]","010","111","1","","","","","","",""
"","","","","","image-keyboard-response","307","435298","0.0-282.0","6506f9e821e92759b20c2be6","665500ab8938657b03fbdba8","66579374480d7e783d0b7be5","297","stimuli/10101111.jpg"," ","","feedback_trial","1","","","","","","","","","","","","","","","","","","","","",""
"","","","","","image-keyboard-response","308","436828","0.0-283.0","6506f9e821e92759b20c2be6","665500ab8938657b03fbdba8","66579374480d7e783d0b7be5","1529","stimuli/2011001.jpg","2","","prediction_trial","1","","false","","2","false","true","false","false","false","false","[1,2]","011","001","0","","","","","","",""
"","","","","","image-keyboard-response","309","437399","0.0-284.0","6506f9e821e92759b20c2be6","665500ab8938657b03fbdba8","66579374480d7e783d0b7be5","571","stimuli/20110011.jpg"," ","","feedback_trial","1","","","","","","","","","","","","","","","","","","","","",""
"","","","","","image-keyboard-response","310","438226","0.0-285.0","6506f9e821e92759b20c2be6","665500ab8938657b03fbdba8","66579374480d7e783d0b7be5","826","stimuli/1011100.jpg","1","","prediction_trial","2","","false","","1","true","true","false","false","false","false","[1,2]","011","100","0","","","","","","",""
"","","","","","image-keyboard-response","311","438759","0.0-286.0","6506f9e821e92759b20c2be6","665500ab8938657b03fbdba8","66579374480d7e783d0b7be5","532","stimuli/10111002.jpg"," ","","feedback_trial","1","","","","","","","","","","","","","","","","","","","","",""
"","","","","","image-keyboard-response","312","439426","0.0-287.0","6506f9e821e92759b20c2be6","665500ab8938657b03fbdba8","66579374480d7e783d0b7be5","666","stimuli/1010100.jpg","1","","prediction_trial","1","","true","","1","true","true","false","true","false","true","[1]","010","100","1","","","","","","",""
"","","","","","image-keyboard-response","313","439719","0.0-288.0","6506f9e821e92759b20c2be6","665500ab8938657b03fbdba8","66579374480d7e783d0b7be5","292","stimuli/10101001.jpg"," ","","feedback_trial","1","","","","","","","","","","","","","","","","","","","","",""
"","","","","","image-keyboard-response","314","440570","0.0-289.0","6506f9e821e92759b20c2be6","665500ab8938657b03fbdba8","66579374480d7e783d0b7be5","851","stimuli/0110010.jpg","0","","prediction_trial","0","","true","","0","true","true","false","false","false","false","[0,1]","110","010","1","","","","","","",""
"","","","","","image-keyboard-response","315","440789","0.0-290.0","6506f9e821e92759b20c2be6","665500ab8938657b03fbdba8","66579374480d7e783d0b7be5","218","stimuli/01100100.jpg"," ","","feedback_trial","0","","","","","","","","","","","","","","","","","","","","",""
"","","","","","image-keyboard-response","316","441638","0.0-291.0","6506f9e821e92759b20c2be6","665500ab8938657b03fbdba8","66579374480d7e783d0b7be5","849","stimuli/0000000.jpg","0","","prediction_trial","0","","true","","0","true","true","true","true","true","true","[0]","000","000","1","","","","","","",""
"","","","","","image-keyboard-response","317","441873","0.0-292.0","6506f9e821e92759b20c2be6","665500ab8938657b03fbdba8","66579374480d7e783d0b7be5","234","stimuli/00000000.jpg"," ","","feedback_trial","0","","","","","","","","","","","","","","","","","","","","",""
"","","","","","survey-html-form","318","481663","0.0-293.0","6506f9e821e92759b20c2be6","665500ab8938657b03fbdba8","66579374480d7e783d0b7be5","39787","","{""feedback"":""Tried to see if it was obvious and if not, went with my gut."",""age"":""39"",""gender"":""Female"",""other_gender"":"""",""race"":""Multiracial"",""other_race"":"""",""ethnicity"":""Hispanic""}","","exit_survey","","","","","","","","","","","","","","","","Tried to see if it was obvious and if not, went with my gut.","39","Hispanic","Female","Multiracial","0.6458333333333334","0.6458333333333334"
