"success","timeout","failed_images","failed_audio","failed_video","trial_type","trial_index","time_elapsed","internal_node_id","prolific_id","prolific_study_id","prolific_session_id","rt","stimulus","response","view_history","trial","character_choice","stimulus_dict","accuracy","correct_response","ball_pos","ego_ball_visible","ego_can_infer","alter_ball_visible","alter_can_infer","collective_ball_visible","collective_can_infer","search_locations","alter_occluders","ego_occluders","accuracy_bool","feedback","age","ethnicity","gender","race","overall_accuracy","bonus"
"true","false","[]","[]","[]","preload","0","3001","0.0-0.0","6400eea126c44543bb49dc75","665500ab8938657b03fbdba8","66578186bd7671fa41307188","","","","","","","","","","","","","","","","","","","","","","","","","","",""
"true","","","","","fullscreen","1","5790","0.0-1.0","6400eea126c44543bb49dc75","665500ab8938657b03fbdba8","66578186bd7671fa41307188","","","","","","","","","","","","","","","","","","","","","","","","","","",""
"","","","","","html-button-response","2","14472","0.0-2.0","6400eea126c44543bb49dc75","665500ab8938657b03fbdba8","66578186bd7671fa41307188","8678","<p><b>Consent Form</b></p> <div style=""text-align:left;background-color:lightgrey; padding:20px; max-width:900px;""><p>Please consider this information carefully before deciding whether to participate in this research.</p> <p>The purpose of this research is to examine which factors influence social judgment and decision-making. You will be asked to make judgements about individuals and actions in social scenarios. We are simply interested in your judgement. The study will take less than 1 hour to complete, and you will receive less than $20 on Prolific. Your compensation and time commitment are specified in the study description. There are no anticipated risks associated with participating in this study. The effects of participating should be comparable to those you would ordinarily experience from viewing a computer monitor and using a mouse or keyboard for a similar amount of time. At the end of the study, we will provide an explanation of the questions that motivate this line of research and will describe the potential implications. </p><p> Your participation in this study is completely voluntary and you may refuse to participate or you may choose to withdraw at any time without penalty or loss of benefits to you which are otherwise entitled. Your participation in this study will remain confidential. No personally identifiable information will be associated with your data. Also, all analyses of the data will be averaged across all the participants, so your individual responses will never be specifically analyzed. </p><p> If you have questions or concerns about your participation or payment, or want to request a summary of research findings, please contact Dr. Jonathan Phillips at Jonathan.S.Phillips@dartmouth.edu. </p><p> Please save a copy of this form for your records. </p><p><b>Agreement: </b>The nature and purpose of this research have been sufficiently explained and I agree to participate in this study. I understand that I am free to withdraw at any time without incurring any penalty. Please consent by clicking the button below to continue. Otherwise, please exit the study at any time. </p>","0","","","","","","","","","","","","","","","","","","","","","","","",""
"","","","","","instructions","3","70987","0.0-3.0-0.0","6400eea126c44543bb49dc75","665500ab8938657b03fbdba8","66578186bd7671fa41307188","56516","","","[{""page_index"":0,""viewing_time"":1598},{""page_index"":1,""viewing_time"":1817},{""page_index"":2,""viewing_time"":2000},{""page_index"":3,""viewing_time"":4216},{""page_index"":4,""viewing_time"":4584},{""page_index"":5,""viewing_time"":2499},{""page_index"":6,""viewing_time"":4168},{""page_index"":7,""viewing_time"":3582},{""page_index"":8,""viewing_time"":3135},{""page_index"":9,""viewing_time"":1916},{""page_index"":10,""viewing_time"":15051},{""page_index"":11,""viewing_time"":5900},{""page_index"":12,""viewing_time"":4901},{""page_index"":13,""viewing_time"":1148}]","intro","","","","","","","","","","","","","","","","","","","","","",""
"","","","","","image-keyboard-response","4","72464","0.0-3.0-1.0","6400eea126c44543bb49dc75","665500ab8938657b03fbdba8","66578186bd7671fa41307188","1470","stimuli/1010101.jpg","1","","prediction_practice","1","{""filepath"":""stimuli/1010101.jpg"",""ball_pos"":1,""ego_ball_visible"":true,""ego_can_infer"":true,""alter_ball_visible"":false,""alter_can_infer"":true,""collective_ball_visible"":false,""collective_can_infer"":true,""search_locations"":[1],""alter_occluders"":""010"",""ego_occluders"":""101""}","true","","","","","","","","","","","","","","","","","","",""
"","","","","","image-keyboard-response","5","73890","0.0-3.0-2.0","6400eea126c44543bb49dc75","665500ab8938657b03fbdba8","66578186bd7671fa41307188","1419","stimuli/10101011.jpg"," ","","practrice_feedback","1","","","","","","","","","","","","","","","","","","","","",""
"","","","","","image-keyboard-response","6","76961","0.0-3.0-3.0","6400eea126c44543bb49dc75","665500ab8938657b03fbdba8","66578186bd7671fa41307188","3064","stimuli/0111101.jpg","2","","prediction_practice","0","{""filepath"":""stimuli/0111101.jpg"",""ball_pos"":0,""ego_ball_visible"":false,""ego_can_infer"":false,""alter_ball_visible"":false,""alter_can_infer"":false,""collective_ball_visible"":false,""collective_can_infer"":false,""search_locations"":[0,1,2],""alter_occluders"":""111"",""ego_occluders"":""101""}","false","","","","","","","","","","","","","","","","","","",""
"","","","","","image-keyboard-response","7","78556","0.0-3.0-4.0","6400eea126c44543bb49dc75","665500ab8938657b03fbdba8","66578186bd7671fa41307188","1587","stimuli/01111010.jpg"," ","","practrice_feedback","0","","","","","","","","","","","","","","","","","","","","",""
"","","","","","image-keyboard-response","8","84370","0.0-3.0-5.0","6400eea126c44543bb49dc75","665500ab8938657b03fbdba8","66578186bd7671fa41307188","5807","stimuli/1010110.jpg","1","","prediction_practice","1","{""filepath"":""stimuli/1010110.jpg"",""ball_pos"":1,""ego_ball_visible"":false,""ego_can_infer"":false,""alter_ball_visible"":false,""alter_can_infer"":true,""collective_ball_visible"":false,""collective_can_infer"":false,""search_locations"":[1],""alter_occluders"":""010"",""ego_occluders"":""110""}","true","","","","","","","","","","","","","","","","","","",""
"","","","","","image-keyboard-response","9","85348","0.0-3.0-6.0","6400eea126c44543bb49dc75","665500ab8938657b03fbdba8","66578186bd7671fa41307188","971","stimuli/10101101.jpg"," ","","practrice_feedback","1","","","","","","","","","","","","","","","","","","","","",""
"","","","","","image-keyboard-response","10","90207","0.0-3.0-7.0","6400eea126c44543bb49dc75","665500ab8938657b03fbdba8","66578186bd7671fa41307188","4852","stimuli/0000110.jpg","0","","prediction_practice","0","{""filepath"":""stimuli/0000110.jpg"",""ball_pos"":0,""ego_ball_visible"":false,""ego_can_infer"":false,""alter_ball_visible"":true,""alter_can_infer"":true,""collective_ball_visible"":false,""collective_can_infer"":false,""search_locations"":[0],""alter_occluders"":""000"",""ego_occluders"":""110""}","true","","","","","","","","","","","","","","","","","","",""
"","","","","","image-keyboard-response","11","91476","0.0-3.0-8.0","6400eea126c44543bb49dc75","665500ab8938657b03fbdba8","66578186bd7671fa41307188","1263","stimuli/00001100.jpg"," ","","practrice_feedback","0","","","","","","","","","","","","","","","","","","","","",""
"","","","","","image-keyboard-response","12","94002","0.0-3.0-9.0","6400eea126c44543bb49dc75","665500ab8938657b03fbdba8","66578186bd7671fa41307188","2519","stimuli/1111110.jpg","1","","prediction_practice","0","{""filepath"":""stimuli/1111110.jpg"",""ball_pos"":1,""ego_ball_visible"":false,""ego_can_infer"":false,""alter_ball_visible"":false,""alter_can_infer"":false,""collective_ball_visible"":false,""collective_can_infer"":false,""search_locations"":[2,0,1],""alter_occluders"":""111"",""ego_occluders"":""110""}","false","","","","","","","","","","","","","","","","","","",""
"","","","","","image-keyboard-response","13","97135","0.0-3.0-10.0","6400eea126c44543bb49dc75","665500ab8938657b03fbdba8","66578186bd7671fa41307188","3125","stimuli/11111100.jpg"," ","","practrice_feedback","2","","","","","","","","","","","","","","","","","","","","",""
"","","","","","image-keyboard-response","14","98664","0.0-3.0-11.0","6400eea126c44543bb49dc75","665500ab8938657b03fbdba8","66578186bd7671fa41307188","1523","stimuli/2101101.jpg","2","","prediction_practice","2","{""filepath"":""stimuli/2101101.jpg"",""ball_pos"":2,""ego_ball_visible"":false,""ego_can_infer"":false,""alter_ball_visible"":false,""alter_can_infer"":false,""collective_ball_visible"":false,""collective_can_infer"":false,""search_locations"":[2,0],""alter_occluders"":""101"",""ego_occluders"":""101""}","true","","","","","","","","","","","","","","","","","","",""
"","","","","","image-keyboard-response","15","99569","0.0-3.0-12.0","6400eea126c44543bb49dc75","665500ab8938657b03fbdba8","66578186bd7671fa41307188","898","stimuli/21011012.jpg"," ","","practrice_feedback","2","","","","","","","","","","","","","","","","","","","","",""
"","","","","","image-keyboard-response","16","103193","0.0-3.0-13.0","6400eea126c44543bb49dc75","665500ab8938657b03fbdba8","66578186bd7671fa41307188","3618","stimuli/2101001.jpg","0","","prediction_practice","2","{""filepath"":""stimuli/2101001.jpg"",""ball_pos"":2,""ego_ball_visible"":false,""ego_can_infer"":true,""alter_ball_visible"":false,""alter_can_infer"":false,""collective_ball_visible"":false,""collective_can_infer"":false,""search_locations"":[2,0],""alter_occluders"":""101"",""ego_occluders"":""001""}","false","","","","","","","","","","","","","","","","","","",""
"","","","","","image-keyboard-response","17","104069","0.0-3.0-14.0","6400eea126c44543bb49dc75","665500ab8938657b03fbdba8","66578186bd7671fa41307188","867","stimuli/21010012.jpg"," ","","practrice_feedback","2","","","","","","","","","","","","","","","","","","","","",""
"","","","","","image-keyboard-response","18","105622","0.0-3.0-15.0","6400eea126c44543bb49dc75","665500ab8938657b03fbdba8","66578186bd7671fa41307188","1545","stimuli/1011111.jpg","1","","prediction_practice","2","{""filepath"":""stimuli/1011111.jpg"",""ball_pos"":1,""ego_ball_visible"":false,""ego_can_infer"":false,""alter_ball_visible"":false,""alter_can_infer"":false,""collective_ball_visible"":false,""collective_can_infer"":false,""search_locations"":[2,1],""alter_occluders"":""011"",""ego_occluders"":""111""}","false","","","","","","","","","","","","","","","","","","",""
"","","","","","image-keyboard-response","19","106432","0.0-3.0-16.0","6400eea126c44543bb49dc75","665500ab8938657b03fbdba8","66578186bd7671fa41307188","803","stimuli/10111112.jpg"," ","","practrice_feedback","2","","","","","","","","","","","","","","","","","","","","",""
"","","","","","image-keyboard-response","20","108585","0.0-3.0-17.0","6400eea126c44543bb49dc75","665500ab8938657b03fbdba8","66578186bd7671fa41307188","2147","stimuli/2100011.jpg","0","","prediction_practice","2","{""filepath"":""stimuli/2100011.jpg"",""ball_pos"":2,""ego_ball_visible"":false,""ego_can_infer"":false,""alter_ball_visible"":true,""alter_can_infer"":true,""collective_ball_visible"":false,""collective_can_infer"":false,""search_locations"":[2],""alter_occluders"":""100"",""ego_occluders"":""011""}","false","","","","","","","","","","","","","","","","","","",""
"","","","","","image-keyboard-response","21","112047","0.0-3.0-18.0","6400eea126c44543bb49dc75","665500ab8938657b03fbdba8","66578186bd7671fa41307188","3457","stimuli/21000112.jpg"," ","","practrice_feedback","2","","","","","","","","","","","","","","","","","","","","",""
"","","","","","image-keyboard-response","22","113602","0.0-3.0-19.0","6400eea126c44543bb49dc75","665500ab8938657b03fbdba8","66578186bd7671fa41307188","1548","stimuli/2111111.jpg","1","","prediction_practice","0","{""filepath"":""stimuli/2111111.jpg"",""ball_pos"":2,""ego_ball_visible"":false,""ego_can_infer"":false,""alter_ball_visible"":false,""alter_can_infer"":false,""collective_ball_visible"":false,""collective_can_infer"":false,""search_locations"":[1,0,2],""alter_occluders"":""111"",""ego_occluders"":""111""}","false","","","","","","","","","","","","","","","","","","",""
"","","","","","image-keyboard-response","23","114322","0.0-3.0-20.0","6400eea126c44543bb49dc75","665500ab8938657b03fbdba8","66578186bd7671fa41307188","713","stimuli/21111110.jpg"," ","","practrice_feedback","1","","","","","","","","","","","","","","","","","","","","",""
"","","","","","html-button-response","24","118904","0.0-3.0-21.0","6400eea126c44543bb49dc75","665500ab8938657b03fbdba8","66578186bd7671fa41307188","4579","Now that you've had some practice, you'll be tested with a couple of easy trials. If you correctly predict Sam's choice, you'll move on to complete the experiment!","0","","","","","","","","","","","","","","","","","","","","","","","",""
"","","","","","image-keyboard-response","25","120627","0.0-3.0-22.0-0.0","6400eea126c44543bb49dc75","665500ab8938657b03fbdba8","66578186bd7671fa41307188","1715","stimuli/0000011.jpg","arrowleft","","comprehension_quiz","","","true","arrowleft","","","","","","","","","","","","","","","","","",""
"","","","","","image-keyboard-response","26","121735","0.0-3.0-22.0-1.0","6400eea126c44543bb49dc75","665500ab8938657b03fbdba8","66578186bd7671fa41307188","1100","stimuli/00000110.jpg"," ","","comprehension_quiz","","","true"," ","","","","","","","","","","","","","","","","","",""
"","","","","","image-keyboard-response","27","124462","0.0-3.0-22.0-2.0","6400eea126c44543bb49dc75","665500ab8938657b03fbdba8","66578186bd7671fa41307188","2720","stimuli/1010010.jpg","arrowdown","","comprehension_quiz","","","true","arrowdown","","","","","","","","","","","","","","","","","",""
"","","","","","image-keyboard-response","28","125977","0.0-3.0-22.0-3.0","6400eea126c44543bb49dc75","665500ab8938657b03fbdba8","66578186bd7671fa41307188","1509","stimuli/10100101.jpg"," ","","comprehension_quiz","","","true"," ","","","","","","","","","","","","","","","","","",""
"","","","","","html-button-response","29","127371","0.0-4.0","6400eea126c44543bb49dc75","665500ab8938657b03fbdba8","66578186bd7671fa41307188","1391","The experiment will now begin.","0","","","","","","","","","","","","","","","","","","","","","","","",""
"","","","","","image-keyboard-response","30","129964","0.0-5.0","6400eea126c44543bb49dc75","665500ab8938657b03fbdba8","66578186bd7671fa41307188","2587","stimuli/2001110.jpg","2","","prediction_trial","2","","true","","2","true","true","false","true","false","true","[2]","001","110","1","","","","","","",""
"","","","","","image-keyboard-response","31","131076","0.0-6.0","6400eea126c44543bb49dc75","665500ab8938657b03fbdba8","66578186bd7671fa41307188","1106","stimuli/20011102.jpg"," ","","feedback_trial","2","","","","","","","","","","","","","","","","","","","","",""
"","","","","","image-keyboard-response","32","134086","0.0-7.0","6400eea126c44543bb49dc75","665500ab8938657b03fbdba8","66578186bd7671fa41307188","3004","stimuli/2011010.jpg","2","","prediction_trial","1","","false","","2","true","true","false","false","false","false","[1,2]","011","010","0","","","","","","",""
"","","","","","image-keyboard-response","33","135081","0.0-8.0","6400eea126c44543bb49dc75","665500ab8938657b03fbdba8","66578186bd7671fa41307188","988","stimuli/20110101.jpg"," ","","feedback_trial","1","","","","","","","","","","","","","","","","","","","","",""
"","","","","","image-keyboard-response","34","137394","0.0-9.0","6400eea126c44543bb49dc75","665500ab8938657b03fbdba8","66578186bd7671fa41307188","2306","stimuli/2101011.jpg","1","","prediction_trial","2","","false","","2","false","false","false","false","false","false","[2,0]","101","011","0","","","","","","",""
"","","","","","image-keyboard-response","35","139769","0.0-10.0","6400eea126c44543bb49dc75","665500ab8938657b03fbdba8","66578186bd7671fa41307188","2367","stimuli/21010112.jpg"," ","","feedback_trial","2","","","","","","","","","","","","","","","","","","","","",""
"","","","","","image-keyboard-response","36","143326","0.0-11.0","6400eea126c44543bb49dc75","665500ab8938657b03fbdba8","66578186bd7671fa41307188","3549","stimuli/1000110.jpg","1","","prediction_trial","1","","true","","1","false","false","true","true","false","false","[1]","000","110","1","","","","","","",""
"","","","","","image-keyboard-response","37","144187","0.0-12.0","6400eea126c44543bb49dc75","665500ab8938657b03fbdba8","66578186bd7671fa41307188","855","stimuli/10001101.jpg"," ","","feedback_trial","1","","","","","","","","","","","","","","","","","","","","",""
"","","","","","image-keyboard-response","38","146594","0.0-13.0","6400eea126c44543bb49dc75","665500ab8938657b03fbdba8","66578186bd7671fa41307188","2398","stimuli/0011100.jpg","0","","prediction_trial","0","","true","","0","false","true","true","true","false","true","[0]","011","100","1","","","","","","",""
"","","","","","image-keyboard-response","39","147303","0.0-14.0","6400eea126c44543bb49dc75","665500ab8938657b03fbdba8","66578186bd7671fa41307188","702","stimuli/00111000.jpg"," ","","feedback_trial","0","","","","","","","","","","","","","","","","","","","","",""
"","","","","","image-keyboard-response","40","150605","0.0-15.0","6400eea126c44543bb49dc75","665500ab8938657b03fbdba8","66578186bd7671fa41307188","3297","stimuli/0011110.jpg","1","","prediction_trial","0","","false","","0","false","false","true","true","false","false","[0]","011","110","0","","","","","","",""
"","","","","","image-keyboard-response","41","151371","0.0-16.0","6400eea126c44543bb49dc75","665500ab8938657b03fbdba8","66578186bd7671fa41307188","760","stimuli/00111100.jpg"," ","","feedback_trial","0","","","","","","","","","","","","","","","","","","","","",""
"","","","","","image-keyboard-response","42","153021","0.0-17.0","6400eea126c44543bb49dc75","665500ab8938657b03fbdba8","66578186bd7671fa41307188","1643","stimuli/0001001.jpg","0","","prediction_trial","0","","true","","0","true","true","true","true","true","true","[0]","001","001","1","","","","","","",""
"","","","","","image-keyboard-response","43","153696","0.0-18.0","6400eea126c44543bb49dc75","665500ab8938657b03fbdba8","66578186bd7671fa41307188","667","stimuli/00010010.jpg"," ","","feedback_trial","0","","","","","","","","","","","","","","","","","","","","",""
"","","","","","image-keyboard-response","44","155559","0.0-19.0","6400eea126c44543bb49dc75","665500ab8938657b03fbdba8","66578186bd7671fa41307188","1856","stimuli/0000100.jpg","0","","prediction_trial","0","","true","","0","false","true","true","true","false","true","[0]","000","100","1","","","","","","",""
"","","","","","image-keyboard-response","45","156279","0.0-20.0","6400eea126c44543bb49dc75","665500ab8938657b03fbdba8","66578186bd7671fa41307188","712","stimuli/00001000.jpg"," ","","feedback_trial","0","","","","","","","","","","","","","","","","","","","","",""
"","","","","","image-keyboard-response","46","158755","0.0-21.0","6400eea126c44543bb49dc75","665500ab8938657b03fbdba8","66578186bd7671fa41307188","2468","stimuli/2100101.jpg","2","","prediction_trial","2","","true","","2","false","false","true","true","false","false","[2]","100","101","1","","","","","","",""
"","","","","","image-keyboard-response","47","159573","0.0-22.0","6400eea126c44543bb49dc75","665500ab8938657b03fbdba8","66578186bd7671fa41307188","810","stimuli/21001012.jpg"," ","","feedback_trial","2","","","","","","","","","","","","","","","","","","","","",""
"","","","","","image-keyboard-response","48","160680","0.0-23.0","6400eea126c44543bb49dc75","665500ab8938657b03fbdba8","66578186bd7671fa41307188","1099","stimuli/2000110.jpg","2","","prediction_trial","2","","true","","2","true","true","true","true","true","true","[2]","000","110","1","","","","","","",""
"","","","","","image-keyboard-response","49","161314","0.0-24.0","6400eea126c44543bb49dc75","665500ab8938657b03fbdba8","66578186bd7671fa41307188","627","stimuli/20001102.jpg"," ","","feedback_trial","2","","","","","","","","","","","","","","","","","","","","",""
"","","","","","image-keyboard-response","50","163186","0.0-25.0","6400eea126c44543bb49dc75","665500ab8938657b03fbdba8","66578186bd7671fa41307188","1869","stimuli/1010101.jpg","1","","prediction_trial","1","","true","","1","true","true","false","true","false","true","[1]","010","101","1","","","","","","",""
"","","","","","image-keyboard-response","51","163716","0.0-26.0","6400eea126c44543bb49dc75","665500ab8938657b03fbdba8","66578186bd7671fa41307188","528","stimuli/10101011.jpg"," ","","feedback_trial","1","","","","","","","","","","","","","","","","","","","","",""
"","","","","","image-keyboard-response","52","164987","0.0-27.0","6400eea126c44543bb49dc75","665500ab8938657b03fbdba8","66578186bd7671fa41307188","1264","stimuli/1000010.jpg","1","","prediction_trial","1","","true","","1","false","true","true","true","false","true","[1]","000","010","1","","","","","","",""
"","","","","","image-keyboard-response","53","165450","0.0-28.0","6400eea126c44543bb49dc75","665500ab8938657b03fbdba8","66578186bd7671fa41307188","455","stimuli/10000101.jpg"," ","","feedback_trial","1","","","","","","","","","","","","","","","","","","","","",""
"","","","","","image-keyboard-response","54","167088","0.0-29.0","6400eea126c44543bb49dc75","665500ab8938657b03fbdba8","66578186bd7671fa41307188","1631","stimuli/0101010.jpg","2","","prediction_trial","2","","true","","0","true","true","false","false","false","false","[2,0]","101","010","1","","","","","","",""
"","","","","","image-keyboard-response","55","167793","0.0-30.0","6400eea126c44543bb49dc75","665500ab8938657b03fbdba8","66578186bd7671fa41307188","698","stimuli/01010102.jpg"," ","","feedback_trial","2","","","","","","","","","","","","","","","","","","","","",""
"","","","","","image-keyboard-response","56","169895","0.0-31.0","6400eea126c44543bb49dc75","665500ab8938657b03fbdba8","66578186bd7671fa41307188","2094","stimuli/1011011.jpg","1","","prediction_trial","2","","false","","1","false","false","false","false","false","false","[2,1]","011","011","0","","","","","","",""
"","","","","","image-keyboard-response","57","170591","0.0-32.0","6400eea126c44543bb49dc75","665500ab8938657b03fbdba8","66578186bd7671fa41307188","689","stimuli/10110112.jpg"," ","","feedback_trial","2","","","","","","","","","","","","","","","","","","","","",""
"","","","","","image-keyboard-response","58","171727","0.0-33.0","6400eea126c44543bb49dc75","665500ab8938657b03fbdba8","66578186bd7671fa41307188","1129","stimuli/1001101.jpg","1","","prediction_trial","1","","true","","1","true","true","true","true","true","true","[1]","001","101","1","","","","","","",""
"","","","","","image-keyboard-response","59","172263","0.0-34.0","6400eea126c44543bb49dc75","665500ab8938657b03fbdba8","66578186bd7671fa41307188","528","stimuli/10011011.jpg"," ","","feedback_trial","1","","","","","","","","","","","","","","","","","","","","",""
"","","","","","image-keyboard-response","60","173534","0.0-35.0","6400eea126c44543bb49dc75","665500ab8938657b03fbdba8","66578186bd7671fa41307188","1265","stimuli/2011011.jpg","1","","prediction_trial","1","","true","","2","false","false","false","false","false","false","[2,1]","011","011","1","","","","","","",""
"","","","","","image-keyboard-response","61","174109","0.0-36.0","6400eea126c44543bb49dc75","665500ab8938657b03fbdba8","66578186bd7671fa41307188","568","stimuli/20110111.jpg"," ","","feedback_trial","2","","","","","","","","","","","","","","","","","","","","",""
"","","","","","image-keyboard-response","62","175060","0.0-37.0","6400eea126c44543bb49dc75","665500ab8938657b03fbdba8","66578186bd7671fa41307188","944","stimuli/1001001.jpg","1","","prediction_trial","1","","true","","1","true","true","true","true","true","true","[1]","001","001","1","","","","","","",""
"","","","","","image-keyboard-response","63","175554","0.0-38.0","6400eea126c44543bb49dc75","665500ab8938657b03fbdba8","66578186bd7671fa41307188","488","stimuli/10010011.jpg"," ","","feedback_trial","1","","","","","","","","","","","","","","","","","","","","",""
"","","","","","image-keyboard-response","64","176515","0.0-39.0","6400eea126c44543bb49dc75","665500ab8938657b03fbdba8","66578186bd7671fa41307188","953","stimuli/0010000.jpg","0","","prediction_trial","0","","true","","0","true","true","true","true","true","true","[0]","010","000","1","","","","","","",""
"","","","","","image-keyboard-response","65","177102","0.0-40.0","6400eea126c44543bb49dc75","665500ab8938657b03fbdba8","66578186bd7671fa41307188","577","stimuli/00100000.jpg"," ","","feedback_trial","0","","","","","","","","","","","","","","","","","","","","",""
"","","","","","image-keyboard-response","66","178903","0.0-41.0","6400eea126c44543bb49dc75","665500ab8938657b03fbdba8","66578186bd7671fa41307188","1793","stimuli/0110100.jpg","1","","prediction_trial","0","","false","","0","false","true","false","false","false","false","[0,1]","110","100","0","","","","","","",""
"","","","","","image-keyboard-response","67","179606","0.0-42.0","6400eea126c44543bb49dc75","665500ab8938657b03fbdba8","66578186bd7671fa41307188","696","stimuli/01101000.jpg"," ","","feedback_trial","0","","","","","","","","","","","","","","","","","","","","",""
"","","","","","image-keyboard-response","68","182089","0.0-43.0","6400eea126c44543bb49dc75","665500ab8938657b03fbdba8","66578186bd7671fa41307188","2474","stimuli/1010100.jpg","1","","prediction_trial","1","","true","","1","true","true","false","true","false","true","[1]","010","100","1","","","","","","",""
"","","","","","image-keyboard-response","69","182680","0.0-44.0","6400eea126c44543bb49dc75","665500ab8938657b03fbdba8","66578186bd7671fa41307188","583","stimuli/10101001.jpg"," ","","feedback_trial","1","","","","","","","","","","","","","","","","","","","","",""
"","","","","","image-keyboard-response","70","183390","0.0-45.0","6400eea126c44543bb49dc75","665500ab8938657b03fbdba8","66578186bd7671fa41307188","704","stimuli/2100000.jpg","2","","prediction_trial","2","","true","","2","true","true","true","true","true","true","[2]","100","000","1","","","","","","",""
"","","","","","image-keyboard-response","71","183975","0.0-46.0","6400eea126c44543bb49dc75","665500ab8938657b03fbdba8","66578186bd7671fa41307188","577","stimuli/21000002.jpg"," ","","feedback_trial","2","","","","","","","","","","","","","","","","","","","","",""
"","","","","","image-keyboard-response","72","184727","0.0-47.0","6400eea126c44543bb49dc75","665500ab8938657b03fbdba8","66578186bd7671fa41307188","744","stimuli/2110000.jpg","2","","prediction_trial","2","","true","","2","true","true","true","true","true","true","[2]","110","000","1","","","","","","",""
"","","","","","image-keyboard-response","73","185249","0.0-48.0","6400eea126c44543bb49dc75","665500ab8938657b03fbdba8","66578186bd7671fa41307188","514","stimuli/21100002.jpg"," ","","feedback_trial","2","","","","","","","","","","","","","","","","","","","","",""
"","","","","","image-keyboard-response","74","186446","0.0-49.0","6400eea126c44543bb49dc75","665500ab8938657b03fbdba8","66578186bd7671fa41307188","1191","stimuli/2110011.jpg","2","","prediction_trial","2","","true","","2","false","false","true","true","false","false","[2]","110","011","1","","","","","","",""
"","","","","","image-keyboard-response","75","187081","0.0-50.0","6400eea126c44543bb49dc75","665500ab8938657b03fbdba8","66578186bd7671fa41307188","628","stimuli/21100112.jpg"," ","","feedback_trial","2","","","","","","","","","","","","","","","","","","","","",""
"","","","","","image-keyboard-response","76","188504","0.0-51.0","6400eea126c44543bb49dc75","665500ab8938657b03fbdba8","66578186bd7671fa41307188","1415","stimuli/1111101.jpg","1","","prediction_trial","0","","false","","1","true","true","false","false","false","false","[0,1,2]","111","101","0","","","","","","",""
"","","","","","image-keyboard-response","77","189086","0.0-52.0","6400eea126c44543bb49dc75","665500ab8938657b03fbdba8","66578186bd7671fa41307188","575","stimuli/11111010.jpg"," ","","feedback_trial","0","","","","","","","","","","","","","","","","","","","","",""
"","","","","","image-keyboard-response","78","190262","0.0-53.0","6400eea126c44543bb49dc75","665500ab8938657b03fbdba8","66578186bd7671fa41307188","1169","stimuli/1001111.jpg","1","","prediction_trial","1","","true","","1","false","false","true","true","false","false","[1]","001","111","1","","","","","","",""
"","","","","","image-keyboard-response","79","190859","0.0-54.0","6400eea126c44543bb49dc75","665500ab8938657b03fbdba8","66578186bd7671fa41307188","589","stimuli/10011111.jpg"," ","","feedback_trial","1","","","","","","","","","","","","","","","","","","","","",""
"","","","","","image-keyboard-response","80","191839","0.0-55.0","6400eea126c44543bb49dc75","665500ab8938657b03fbdba8","66578186bd7671fa41307188","975","stimuli/2010010.jpg","2","","prediction_trial","2","","true","","2","true","true","true","true","true","true","[2]","010","010","1","","","","","","",""
"","","","","","image-keyboard-response","81","192489","0.0-56.0","6400eea126c44543bb49dc75","665500ab8938657b03fbdba8","66578186bd7671fa41307188","643","stimuli/20100102.jpg"," ","","feedback_trial","2","","","","","","","","","","","","","","","","","","","","",""
"","","","","","image-keyboard-response","82","194467","0.0-57.0","6400eea126c44543bb49dc75","665500ab8938657b03fbdba8","66578186bd7671fa41307188","1970","stimuli/2101010.jpg","2","","prediction_trial","2","","true","","2","true","true","false","false","false","false","[0,2]","101","010","1","","","","","","",""
"","","","","","image-keyboard-response","83","195128","0.0-58.0","6400eea126c44543bb49dc75","665500ab8938657b03fbdba8","66578186bd7671fa41307188","653","stimuli/21010102.jpg"," ","","feedback_trial","0","","","","","","","","","","","","","","","","","","","","",""
"","","","","","image-keyboard-response","84","195990","0.0-59.0","6400eea126c44543bb49dc75","665500ab8938657b03fbdba8","66578186bd7671fa41307188","854","stimuli/0010010.jpg","0","","prediction_trial","0","","true","","0","true","true","true","true","true","true","[0]","010","010","1","","","","","","",""
"","","","","","image-keyboard-response","85","196626","0.0-60.0","6400eea126c44543bb49dc75","665500ab8938657b03fbdba8","66578186bd7671fa41307188","629","stimuli/00100100.jpg"," ","","feedback_trial","0","","","","","","","","","","","","","","","","","","","","",""
"","","","","","image-keyboard-response","86","197392","0.0-61.0","6400eea126c44543bb49dc75","665500ab8938657b03fbdba8","66578186bd7671fa41307188","757","stimuli/0001011.jpg","0","","prediction_trial","0","","true","","0","true","true","true","true","true","true","[0]","001","011","1","","","","","","",""
"","","","","","image-keyboard-response","87","198018","0.0-62.0","6400eea126c44543bb49dc75","665500ab8938657b03fbdba8","66578186bd7671fa41307188","619","stimuli/00010110.jpg"," ","","feedback_trial","0","","","","","","","","","","","","","","","","","","","","",""
"","","","","","image-keyboard-response","88","199326","0.0-63.0","6400eea126c44543bb49dc75","665500ab8938657b03fbdba8","66578186bd7671fa41307188","1300","stimuli/2001011.jpg","1","","prediction_trial","2","","false","","2","false","false","false","true","false","false","[2]","001","011","0","","","","","","",""
"","","","","","image-keyboard-response","89","200141","0.0-64.0","6400eea126c44543bb49dc75","665500ab8938657b03fbdba8","66578186bd7671fa41307188","808","stimuli/20010112.jpg"," ","","feedback_trial","2","","","","","","","","","","","","","","","","","","","","",""
"","","","","","image-keyboard-response","90","201623","0.0-65.0","6400eea126c44543bb49dc75","665500ab8938657b03fbdba8","66578186bd7671fa41307188","1475","stimuli/2011001.jpg","2","","prediction_trial","2","","true","","2","false","true","false","false","false","false","[1,2]","011","001","1","","","","","","",""
"","","","","","image-keyboard-response","91","202296","0.0-66.0","6400eea126c44543bb49dc75","665500ab8938657b03fbdba8","66578186bd7671fa41307188","665","stimuli/20110012.jpg"," ","","feedback_trial","1","","","","","","","","","","","","","","","","","","","","",""
"","","","","","image-keyboard-response","92","204609","0.0-67.0","6400eea126c44543bb49dc75","665500ab8938657b03fbdba8","66578186bd7671fa41307188","2306","stimuli/0100111.jpg","0","","prediction_trial","0","","true","","0","false","false","false","true","false","false","[0]","100","111","1","","","","","","",""
"","","","","","image-keyboard-response","93","205259","0.0-68.0","6400eea126c44543bb49dc75","665500ab8938657b03fbdba8","66578186bd7671fa41307188","644","stimuli/01001110.jpg"," ","","feedback_trial","0","","","","","","","","","","","","","","","","","","","","",""
"","","","","","image-keyboard-response","94","205910","0.0-69.0","6400eea126c44543bb49dc75","665500ab8938657b03fbdba8","66578186bd7671fa41307188","644","stimuli/0000010.jpg","0","","prediction_trial","0","","true","","0","true","true","true","true","true","true","[0]","000","010","1","","","","","","",""
"","","","","","image-keyboard-response","95","206521","0.0-70.0","6400eea126c44543bb49dc75","665500ab8938657b03fbdba8","66578186bd7671fa41307188","603","stimuli/00000100.jpg"," ","","feedback_trial","0","","","","","","","","","","","","","","","","","","","","",""
"","","","","","image-keyboard-response","96","207087","0.0-71.0","6400eea126c44543bb49dc75","665500ab8938657b03fbdba8","66578186bd7671fa41307188","558","stimuli/0001000.jpg","0","","prediction_trial","0","","true","","0","true","true","true","true","true","true","[0]","001","000","1","","","","","","",""
"","","","","","image-keyboard-response","97","207534","0.0-72.0","6400eea126c44543bb49dc75","665500ab8938657b03fbdba8","66578186bd7671fa41307188","439","stimuli/00010000.jpg"," ","","feedback_trial","0","","","","","","","","","","","","","","","","","","","","",""
"","","","","","image-keyboard-response","98","209561","0.0-73.0","6400eea126c44543bb49dc75","665500ab8938657b03fbdba8","66578186bd7671fa41307188","2020","stimuli/0010100.jpg","0","","prediction_trial","0","","true","","0","false","true","true","true","false","true","[0]","010","100","1","","","","","","",""
"","","","","","image-keyboard-response","99","210238","0.0-74.0","6400eea126c44543bb49dc75","665500ab8938657b03fbdba8","66578186bd7671fa41307188","670","stimuli/00101000.jpg"," ","","feedback_trial","0","","","","","","","","","","","","","","","","","","","","",""
"","","","","","image-keyboard-response","100","211320","0.0-75.0","6400eea126c44543bb49dc75","665500ab8938657b03fbdba8","66578186bd7671fa41307188","1075","stimuli/0010111.jpg","2","","prediction_trial","0","","false","","0","false","false","true","true","false","false","[0]","010","111","0","","","","","","",""
"","","","","","image-keyboard-response","101","212144","0.0-76.0","6400eea126c44543bb49dc75","665500ab8938657b03fbdba8","66578186bd7671fa41307188","816","stimuli/00101110.jpg"," ","","feedback_trial","0","","","","","","","","","","","","","","","","","","","","",""
"","","","","","image-keyboard-response","102","213072","0.0-77.0","6400eea126c44543bb49dc75","665500ab8938657b03fbdba8","66578186bd7671fa41307188","921","stimuli/2101111.jpg","1","","prediction_trial","2","","false","","2","false","false","false","false","false","false","[0,2]","101","111","0","","","","","","",""
"","","","","","image-keyboard-response","103","213818","0.0-78.0","6400eea126c44543bb49dc75","665500ab8938657b03fbdba8","66578186bd7671fa41307188","738","stimuli/21011112.jpg"," ","","feedback_trial","0","","","","","","","","","","","","","","","","","","","","",""
"","","","","","image-keyboard-response","104","214532","0.0-79.0","6400eea126c44543bb49dc75","665500ab8938657b03fbdba8","66578186bd7671fa41307188","706","stimuli/1010111.jpg","2","","prediction_trial","1","","false","","1","false","false","false","true","false","false","[1]","010","111","0","","","","","","",""
"","","","","","image-keyboard-response","105","215271","0.0-80.0","6400eea126c44543bb49dc75","665500ab8938657b03fbdba8","66578186bd7671fa41307188","732","stimuli/10101111.jpg"," ","","feedback_trial","1","","","","","","","","","","","","","","","","","","","","",""
"","","","","","image-keyboard-response","106","216364","0.0-81.0","6400eea126c44543bb49dc75","665500ab8938657b03fbdba8","66578186bd7671fa41307188","1085","stimuli/2001001.jpg","2","","prediction_trial","2","","true","","2","false","true","false","true","false","true","[2]","001","001","1","","","","","","",""
"","","","","","image-keyboard-response","107","217048","0.0-82.0","6400eea126c44543bb49dc75","665500ab8938657b03fbdba8","66578186bd7671fa41307188","678","stimuli/20010012.jpg"," ","","feedback_trial","2","","","","","","","","","","","","","","","","","","","","",""
"","","","","","image-keyboard-response","108","218755","0.0-83.0","6400eea126c44543bb49dc75","665500ab8938657b03fbdba8","66578186bd7671fa41307188","1701","stimuli/2101100.jpg","0","","prediction_trial","0","","true","","2","true","true","false","false","false","false","[0,2]","101","100","1","","","","","","",""
"","","","","","image-keyboard-response","109","219403","0.0-84.0","6400eea126c44543bb49dc75","665500ab8938657b03fbdba8","66578186bd7671fa41307188","640","stimuli/21011000.jpg"," ","","feedback_trial","0","","","","","","","","","","","","","","","","","","","","",""
"","","","","","image-keyboard-response","110","220863","0.0-85.0","6400eea126c44543bb49dc75","665500ab8938657b03fbdba8","66578186bd7671fa41307188","1452","stimuli/2110101.jpg","1","","prediction_trial","2","","false","","2","false","false","true","true","false","false","[2]","110","101","0","","","","","","",""
"","","","","","image-keyboard-response","111","221587","0.0-86.0","6400eea126c44543bb49dc75","665500ab8938657b03fbdba8","66578186bd7671fa41307188","718","stimuli/21101012.jpg"," ","","feedback_trial","2","","","","","","","","","","","","","","","","","","","","",""
"","","","","","image-keyboard-response","112","223493","0.0-87.0","6400eea126c44543bb49dc75","665500ab8938657b03fbdba8","66578186bd7671fa41307188","1899","stimuli/2000101.jpg","2","","prediction_trial","2","","true","","2","false","false","true","true","false","false","[2]","000","101","1","","","","","","",""
"","","","","","image-keyboard-response","113","224158","0.0-88.0","6400eea126c44543bb49dc75","665500ab8938657b03fbdba8","66578186bd7671fa41307188","660","stimuli/20001012.jpg"," ","","feedback_trial","2","","","","","","","","","","","","","","","","","","","","",""
"","","","","","image-keyboard-response","114","226094","0.0-89.0","6400eea126c44543bb49dc75","665500ab8938657b03fbdba8","66578186bd7671fa41307188","1930","stimuli/1010001.jpg","2","","prediction_trial","1","","false","","1","true","true","false","true","false","true","[1]","010","001","0","","","","","","",""
"","","","","","image-keyboard-response","115","228387","0.0-90.0","6400eea126c44543bb49dc75","665500ab8938657b03fbdba8","66578186bd7671fa41307188","2286","stimuli/10100011.jpg"," ","","feedback_trial","1","","","","","","","","","","","","","","","","","","","","",""
"","","","","","image-keyboard-response","116","231280","0.0-91.0","6400eea126c44543bb49dc75","665500ab8938657b03fbdba8","66578186bd7671fa41307188","2886","stimuli/0110010.jpg","1","","prediction_trial","1","","true","","0","true","true","false","false","false","false","[0,1]","110","010","1","","","","","","",""
"","","","","","image-keyboard-response","117","231861","0.0-92.0","6400eea126c44543bb49dc75","665500ab8938657b03fbdba8","66578186bd7671fa41307188","574","stimuli/01100101.jpg"," ","","feedback_trial","0","","","","","","","","","","","","","","","","","","","","",""
"","","","","","image-keyboard-response","118","233387","0.0-93.0","6400eea126c44543bb49dc75","665500ab8938657b03fbdba8","66578186bd7671fa41307188","1518","stimuli/0101000.jpg","0","","prediction_trial","0","","true","","0","true","true","false","false","false","false","[2,0]","101","000","1","","","","","","",""
"","","","","","image-keyboard-response","119","233981","0.0-94.0","6400eea126c44543bb49dc75","665500ab8938657b03fbdba8","66578186bd7671fa41307188","585","stimuli/01010000.jpg"," ","","feedback_trial","2","","","","","","","","","","","","","","","","","","","","",""
"","","","","","image-keyboard-response","120","237773","0.0-95.0","6400eea126c44543bb49dc75","665500ab8938657b03fbdba8","66578186bd7671fa41307188","3785","stimuli/0101110.jpg","2","","prediction_trial","0","","false","","0","false","false","false","false","false","false","[2,0]","101","110","0","","","","","","",""
"","","","","","image-keyboard-response","121","238611","0.0-96.0","6400eea126c44543bb49dc75","665500ab8938657b03fbdba8","66578186bd7671fa41307188","831","stimuli/01011100.jpg"," ","","feedback_trial","2","","","","","","","","","","","","","","","","","","","","",""
"","","","","","image-keyboard-response","122","239423","0.0-97.0","6400eea126c44543bb49dc75","665500ab8938657b03fbdba8","66578186bd7671fa41307188","804","stimuli/1101100.jpg","1","","prediction_trial","1","","true","","1","true","true","true","true","true","true","[1]","101","100","1","","","","","","",""
"","","","","","image-keyboard-response","123","240023","0.0-98.0","6400eea126c44543bb49dc75","665500ab8938657b03fbdba8","66578186bd7671fa41307188","592","stimuli/11011001.jpg"," ","","feedback_trial","1","","","","","","","","","","","","","","","","","","","","",""
"","","","","","image-keyboard-response","124","241995","0.0-99.0","6400eea126c44543bb49dc75","665500ab8938657b03fbdba8","66578186bd7671fa41307188","1964","stimuli/1001010.jpg","2","","prediction_trial","1","","false","","1","false","true","true","true","false","true","[1]","001","010","0","","","","","","",""
"","","","","","image-keyboard-response","125","242601","0.0-100.0","6400eea126c44543bb49dc75","665500ab8938657b03fbdba8","66578186bd7671fa41307188","599","stimuli/10010101.jpg"," ","","feedback_trial","1","","","","","","","","","","","","","","","","","","","","",""
"","","","","","image-keyboard-response","126","246191","0.0-101.0","6400eea126c44543bb49dc75","665500ab8938657b03fbdba8","66578186bd7671fa41307188","3581","stimuli/1101110.jpg","0","","prediction_trial","1","","false","","1","false","false","true","true","false","false","[1]","101","110","0","","","","","","",""
"","","","","","image-keyboard-response","127","246831","0.0-102.0","6400eea126c44543bb49dc75","665500ab8938657b03fbdba8","66578186bd7671fa41307188","634","stimuli/11011101.jpg"," ","","feedback_trial","1","","","","","","","","","","","","","","","","","","","","",""
"","","","","","image-keyboard-response","128","248018","0.0-103.0","6400eea126c44543bb49dc75","665500ab8938657b03fbdba8","66578186bd7671fa41307188","1181","stimuli/1111001.jpg","1","","prediction_trial","2","","false","","1","true","true","false","false","false","false","[2,0,1]","111","001","0","","","","","","",""
"","","","","","image-keyboard-response","129","248793","0.0-104.0","6400eea126c44543bb49dc75","665500ab8938657b03fbdba8","66578186bd7671fa41307188","767","stimuli/11110012.jpg"," ","","feedback_trial","2","","","","","","","","","","","","","","","","","","","","",""
"","","","","","image-keyboard-response","130","249921","0.0-105.0","6400eea126c44543bb49dc75","665500ab8938657b03fbdba8","66578186bd7671fa41307188","1119","stimuli/2111101.jpg","2","","prediction_trial","0","","false","","2","false","false","false","false","false","false","[2,1,0]","111","101","0","","","","","","",""
"","","","","","image-keyboard-response","131","250524","0.0-106.0","6400eea126c44543bb49dc75","665500ab8938657b03fbdba8","66578186bd7671fa41307188","595","stimuli/21111010.jpg"," ","","feedback_trial","2","","","","","","","","","","","","","","","","","","","","",""
"","","","","","image-keyboard-response","132","251762","0.0-107.0","6400eea126c44543bb49dc75","665500ab8938657b03fbdba8","66578186bd7671fa41307188","1232","stimuli/1110101.jpg","1","","prediction_trial","1","","true","","1","true","true","false","false","false","false","[0,1]","110","101","1","","","","","","",""
"","","","","","image-keyboard-response","133","252370","0.0-108.0","6400eea126c44543bb49dc75","665500ab8938657b03fbdba8","66578186bd7671fa41307188","601","stimuli/11101011.jpg"," ","","feedback_trial","0","","","","","","","","","","","","","","","","","","","","",""
"","","","","","image-keyboard-response","134","253518","0.0-109.0","6400eea126c44543bb49dc75","665500ab8938657b03fbdba8","66578186bd7671fa41307188","1141","stimuli/0110101.jpg","1","","prediction_trial","0","","false","","0","false","false","false","false","false","false","[0,1]","110","101","0","","","","","","",""
"","","","","","image-keyboard-response","135","254287","0.0-110.0","6400eea126c44543bb49dc75","665500ab8938657b03fbdba8","66578186bd7671fa41307188","762","stimuli/01101010.jpg"," ","","feedback_trial","0","","","","","","","","","","","","","","","","","","","","",""
"","","","","","image-keyboard-response","136","256103","0.0-111.0","6400eea126c44543bb49dc75","665500ab8938657b03fbdba8","66578186bd7671fa41307188","1808","stimuli/0100001.jpg","0","","prediction_trial","0","","true","","0","true","true","false","true","false","true","[0]","100","001","1","","","","","","",""
"","","","","","image-keyboard-response","137","256784","0.0-112.0","6400eea126c44543bb49dc75","665500ab8938657b03fbdba8","66578186bd7671fa41307188","673","stimuli/01000010.jpg"," ","","feedback_trial","0","","","","","","","","","","","","","","","","","","","","",""
"","","","","","image-keyboard-response","138","259663","0.0-113.0","6400eea126c44543bb49dc75","665500ab8938657b03fbdba8","66578186bd7671fa41307188","2872","stimuli/0011000.jpg","0","","prediction_trial","0","","true","","0","true","true","true","true","true","true","[0]","011","000","1","","","","","","",""
"","","","","","image-keyboard-response","139","260162","0.0-114.0","6400eea126c44543bb49dc75","665500ab8938657b03fbdba8","66578186bd7671fa41307188","492","stimuli/00110000.jpg"," ","","feedback_trial","0","","","","","","","","","","","","","","","","","","","","",""
"","","","","","image-keyboard-response","140","261004","0.0-115.0","6400eea126c44543bb49dc75","665500ab8938657b03fbdba8","66578186bd7671fa41307188","834","stimuli/1101101.jpg","1","","prediction_trial","1","","true","","1","true","true","true","true","true","true","[1]","101","101","1","","","","","","",""
"","","","","","image-keyboard-response","141","261567","0.0-116.0","6400eea126c44543bb49dc75","665500ab8938657b03fbdba8","66578186bd7671fa41307188","558","stimuli/11011011.jpg"," ","","feedback_trial","1","","","","","","","","","","","","","","","","","","","","",""
"","","","","","image-keyboard-response","142","262942","0.0-117.0","6400eea126c44543bb49dc75","665500ab8938657b03fbdba8","66578186bd7671fa41307188","1367","stimuli/1011001.jpg","1","","prediction_trial","1","","true","","1","true","true","false","false","false","false","[1,2]","011","001","1","","","","","","",""
"","","","","","image-keyboard-response","143","263470","0.0-118.0","6400eea126c44543bb49dc75","665500ab8938657b03fbdba8","66578186bd7671fa41307188","521","stimuli/10110011.jpg"," ","","feedback_trial","1","","","","","","","","","","","","","","","","","","","","",""
"","","","","","image-keyboard-response","144","264944","0.0-119.0","6400eea126c44543bb49dc75","665500ab8938657b03fbdba8","66578186bd7671fa41307188","1466","stimuli/2110001.jpg","2","","prediction_trial","2","","true","","2","false","true","true","true","false","true","[2]","110","001","1","","","","","","",""
"","","","","","image-keyboard-response","145","265579","0.0-120.0","6400eea126c44543bb49dc75","665500ab8938657b03fbdba8","66578186bd7671fa41307188","628","stimuli/21100012.jpg"," ","","feedback_trial","2","","","","","","","","","","","","","","","","","","","","",""
"","","","","","image-keyboard-response","146","266625","0.0-121.0","6400eea126c44543bb49dc75","665500ab8938657b03fbdba8","66578186bd7671fa41307188","1039","stimuli/1100000.jpg","1","","prediction_trial","1","","true","","1","true","true","true","true","true","true","[1]","100","000","1","","","","","","",""
"","","","","","image-keyboard-response","147","267168","0.0-122.0","6400eea126c44543bb49dc75","665500ab8938657b03fbdba8","66578186bd7671fa41307188","535","stimuli/11000001.jpg"," ","","feedback_trial","1","","","","","","","","","","","","","","","","","","","","",""
"","","","","","image-keyboard-response","148","268409","0.0-123.0","6400eea126c44543bb49dc75","665500ab8938657b03fbdba8","66578186bd7671fa41307188","1233","stimuli/1111010.jpg","2","","prediction_trial","0","","false","","1","false","true","false","false","false","false","[1,2,0]","111","010","0","","","","","","",""
"","","","","","image-keyboard-response","149","268970","0.0-124.0","6400eea126c44543bb49dc75","665500ab8938657b03fbdba8","66578186bd7671fa41307188","553","stimuli/11110100.jpg"," ","","feedback_trial","1","","","","","","","","","","","","","","","","","","","","",""
"","","","","","image-keyboard-response","150","270732","0.0-125.0","6400eea126c44543bb49dc75","665500ab8938657b03fbdba8","66578186bd7671fa41307188","1755","stimuli/0100011.jpg","0","","prediction_trial","0","","true","","0","true","true","false","true","false","true","[0]","100","011","1","","","","","","",""
"","","","","","image-keyboard-response","151","271257","0.0-126.0","6400eea126c44543bb49dc75","665500ab8938657b03fbdba8","66578186bd7671fa41307188","517","stimuli/01000110.jpg"," ","","feedback_trial","0","","","","","","","","","","","","","","","","","","","","",""
"","","","","","image-keyboard-response","152","272796","0.0-127.0","6400eea126c44543bb49dc75","665500ab8938657b03fbdba8","66578186bd7671fa41307188","1529","stimuli/0000101.jpg","2","","prediction_trial","0","","false","","0","false","false","true","true","false","false","[0]","000","101","0","","","","","","",""
"","","","","","image-keyboard-response","153","273359","0.0-128.0","6400eea126c44543bb49dc75","665500ab8938657b03fbdba8","66578186bd7671fa41307188","556","stimuli/00001010.jpg"," ","","feedback_trial","0","","","","","","","","","","","","","","","","","","","","",""
"","","","","","image-keyboard-response","154","278784","0.0-129.0","6400eea126c44543bb49dc75","665500ab8938657b03fbdba8","66578186bd7671fa41307188","5417","stimuli/2010011.jpg","1","","prediction_trial","2","","false","","2","false","false","true","true","false","false","[2]","010","011","0","","","","","","",""
"","","","","","image-keyboard-response","155","279919","0.0-130.0","6400eea126c44543bb49dc75","665500ab8938657b03fbdba8","66578186bd7671fa41307188","1128","stimuli/20100112.jpg"," ","","feedback_trial","2","","","","","","","","","","","","","","","","","","","","",""
"","","","","","image-keyboard-response","156","280996","0.0-131.0","6400eea126c44543bb49dc75","665500ab8938657b03fbdba8","66578186bd7671fa41307188","1068","stimuli/0100000.jpg","0","","prediction_trial","0","","true","","0","true","true","false","true","false","true","[0]","100","000","1","","","","","","",""
"","","","","","image-keyboard-response","157","281476","0.0-132.0","6400eea126c44543bb49dc75","665500ab8938657b03fbdba8","66578186bd7671fa41307188","473","stimuli/01000000.jpg"," ","","feedback_trial","0","","","","","","","","","","","","","","","","","","","","",""
"","","","","","image-keyboard-response","158","282682","0.0-133.0","6400eea126c44543bb49dc75","665500ab8938657b03fbdba8","66578186bd7671fa41307188","1199","stimuli/0101111.jpg","2","","prediction_trial","2","","true","","0","false","false","false","false","false","false","[2,0]","101","111","1","","","","","","",""
"","","","","","image-keyboard-response","159","283349","0.0-134.0","6400eea126c44543bb49dc75","665500ab8938657b03fbdba8","66578186bd7671fa41307188","658","stimuli/01011112.jpg"," ","","feedback_trial","2","","","","","","","","","","","","","","","","","","","","",""
"","","","","","image-keyboard-response","160","284568","0.0-135.0","6400eea126c44543bb49dc75","665500ab8938657b03fbdba8","66578186bd7671fa41307188","1211","stimuli/2100011.jpg","0","","prediction_trial","2","","false","","2","false","false","true","true","false","false","[2]","100","011","0","","","","","","",""
"","","","","","image-keyboard-response","161","285441","0.0-136.0","6400eea126c44543bb49dc75","665500ab8938657b03fbdba8","66578186bd7671fa41307188","866","stimuli/21000112.jpg"," ","","feedback_trial","2","","","","","","","","","","","","","","","","","","","","",""
"","","","","","image-keyboard-response","162","286277","0.0-137.0","6400eea126c44543bb49dc75","665500ab8938657b03fbdba8","66578186bd7671fa41307188","828","stimuli/2000010.jpg","2","","prediction_trial","2","","true","","2","true","true","true","true","true","true","[2]","000","010","1","","","","","","",""
"","","","","","image-keyboard-response","163","287038","0.0-138.0","6400eea126c44543bb49dc75","665500ab8938657b03fbdba8","66578186bd7671fa41307188","751","stimuli/20000102.jpg"," ","","feedback_trial","2","","","","","","","","","","","","","","","","","","","","",""
"","","","","","image-keyboard-response","164","288370","0.0-139.0","6400eea126c44543bb49dc75","665500ab8938657b03fbdba8","66578186bd7671fa41307188","1325","stimuli/2010101.jpg","1","","prediction_trial","2","","false","","2","false","false","true","true","false","false","[2]","010","101","0","","","","","","",""
"","","","","","image-keyboard-response","165","289076","0.0-140.0","6400eea126c44543bb49dc75","665500ab8938657b03fbdba8","66578186bd7671fa41307188","699","stimuli/20101012.jpg"," ","","feedback_trial","2","","","","","","","","","","","","","","","","","","","","",""
"","","","","","image-keyboard-response","166","290523","0.0-141.0","6400eea126c44543bb49dc75","665500ab8938657b03fbdba8","66578186bd7671fa41307188","1439","stimuli/0101101.jpg","2","","prediction_trial","2","","true","","0","false","false","false","false","false","false","[0,2]","101","101","1","","","","","","",""
"","","","","","image-keyboard-response","167","291182","0.0-142.0","6400eea126c44543bb49dc75","665500ab8938657b03fbdba8","66578186bd7671fa41307188","652","stimuli/01011012.jpg"," ","","feedback_trial","0","","","","","","","","","","","","","","","","","","","","",""
"","","","","","image-keyboard-response","168","291922","0.0-143.0","6400eea126c44543bb49dc75","665500ab8938657b03fbdba8","66578186bd7671fa41307188","732","stimuli/0011011.jpg","0","","prediction_trial","0","","true","","0","true","true","true","true","true","true","[0]","011","011","1","","","","","","",""
"","","","","","image-keyboard-response","169","292555","0.0-144.0","6400eea126c44543bb49dc75","665500ab8938657b03fbdba8","66578186bd7671fa41307188","627","stimuli/00110110.jpg"," ","","feedback_trial","0","","","","","","","","","","","","","","","","","","","","",""
"","","","","","image-keyboard-response","170","293767","0.0-145.0","6400eea126c44543bb49dc75","665500ab8938657b03fbdba8","66578186bd7671fa41307188","1204","stimuli/2001100.jpg","2","","prediction_trial","2","","true","","2","true","true","false","true","false","true","[2]","001","100","1","","","","","","",""
"","","","","","image-keyboard-response","171","294355","0.0-146.0","6400eea126c44543bb49dc75","665500ab8938657b03fbdba8","66578186bd7671fa41307188","581","stimuli/20011002.jpg"," ","","feedback_trial","2","","","","","","","","","","","","","","","","","","","","",""
"","","","","","image-keyboard-response","172","297656","0.0-147.0","6400eea126c44543bb49dc75","665500ab8938657b03fbdba8","66578186bd7671fa41307188","3293","stimuli/0001111.jpg","2","","prediction_trial","0","","false","","0","false","false","true","true","false","false","[0]","001","111","0","","","","","","",""
"","","","","","image-keyboard-response","173","298302","0.0-148.0","6400eea126c44543bb49dc75","665500ab8938657b03fbdba8","66578186bd7671fa41307188","640","stimuli/00011110.jpg"," ","","feedback_trial","0","","","","","","","","","","","","","","","","","","","","",""
"","","","","","image-keyboard-response","174","299764","0.0-149.0","6400eea126c44543bb49dc75","665500ab8938657b03fbdba8","66578186bd7671fa41307188","1454","stimuli/1010110.jpg","1","","prediction_trial","1","","true","","1","false","false","false","true","false","false","[1]","010","110","1","","","","","","",""
"","","","","","image-keyboard-response","175","300408","0.0-150.0","6400eea126c44543bb49dc75","665500ab8938657b03fbdba8","66578186bd7671fa41307188","637","stimuli/10101101.jpg"," ","","feedback_trial","1","","","","","","","","","","","","","","","","","","","","",""
"","","","","","image-keyboard-response","176","301188","0.0-151.0","6400eea126c44543bb49dc75","665500ab8938657b03fbdba8","66578186bd7671fa41307188","772","stimuli/2010100.jpg","2","","prediction_trial","2","","true","","2","true","true","true","true","true","true","[2]","010","100","1","","","","","","",""
"","","","","","image-keyboard-response","177","301862","0.0-152.0","6400eea126c44543bb49dc75","665500ab8938657b03fbdba8","66578186bd7671fa41307188","666","stimuli/20101002.jpg"," ","","feedback_trial","2","","","","","","","","","","","","","","","","","","","","",""
"","","","","","image-keyboard-response","178","302671","0.0-153.0","6400eea126c44543bb49dc75","665500ab8938657b03fbdba8","66578186bd7671fa41307188","802","stimuli/2100010.jpg","2","","prediction_trial","2","","true","","2","true","true","true","true","true","true","[2]","100","010","1","","","","","","",""
"","","","","","image-keyboard-response","179","303237","0.0-154.0","6400eea126c44543bb49dc75","665500ab8938657b03fbdba8","66578186bd7671fa41307188","557","stimuli/21000102.jpg"," ","","feedback_trial","2","","","","","","","","","","","","","","","","","","","","",""
"","","","","","image-keyboard-response","180","304379","0.0-155.0","6400eea126c44543bb49dc75","665500ab8938657b03fbdba8","66578186bd7671fa41307188","1135","stimuli/2000001.jpg","2","","prediction_trial","2","","true","","2","false","true","true","true","false","true","[2]","000","001","1","","","","","","",""
"","","","","","image-keyboard-response","181","304997","0.0-156.0","6400eea126c44543bb49dc75","665500ab8938657b03fbdba8","66578186bd7671fa41307188","610","stimuli/20000012.jpg"," ","","feedback_trial","2","","","","","","","","","","","","","","","","","","","","",""
"","","","","","image-keyboard-response","182","306266","0.0-157.0","6400eea126c44543bb49dc75","665500ab8938657b03fbdba8","66578186bd7671fa41307188","1261","stimuli/1101010.jpg","1","","prediction_trial","1","","true","","1","false","true","true","true","false","true","[1]","101","010","1","","","","","","",""
"","","","","","image-keyboard-response","183","306859","0.0-158.0","6400eea126c44543bb49dc75","665500ab8938657b03fbdba8","66578186bd7671fa41307188","587","stimuli/11010101.jpg"," ","","feedback_trial","1","","","","","","","","","","","","","","","","","","","","",""
"","","","","","image-keyboard-response","184","308081","0.0-159.0","6400eea126c44543bb49dc75","665500ab8938657b03fbdba8","66578186bd7671fa41307188","1214","stimuli/2100001.jpg","2","","prediction_trial","2","","true","","2","false","true","true","true","false","true","[2]","100","001","1","","","","","","",""
"","","","","","image-keyboard-response","185","308714","0.0-160.0","6400eea126c44543bb49dc75","665500ab8938657b03fbdba8","66578186bd7671fa41307188","626","stimuli/21000012.jpg"," ","","feedback_trial","2","","","","","","","","","","","","","","","","","","","","",""
"","","","","","image-keyboard-response","186","310385","0.0-161.0","6400eea126c44543bb49dc75","665500ab8938657b03fbdba8","66578186bd7671fa41307188","1663","stimuli/0111010.jpg","0","","prediction_trial","0","","true","","0","true","true","false","false","false","false","[1,0,2]","111","010","1","","","","","","",""
"","","","","","image-keyboard-response","187","311044","0.0-162.0","6400eea126c44543bb49dc75","665500ab8938657b03fbdba8","66578186bd7671fa41307188","654","stimuli/01110100.jpg"," ","","feedback_trial","1","","","","","","","","","","","","","","","","","","","","",""
"","","","","","image-keyboard-response","188","311818","0.0-163.0","6400eea126c44543bb49dc75","665500ab8938657b03fbdba8","66578186bd7671fa41307188","769","stimuli/2001000.jpg","2","","prediction_trial","2","","true","","2","true","true","false","true","false","true","[2]","001","000","1","","","","","","",""
"","","","","","image-keyboard-response","189","312583","0.0-164.0","6400eea126c44543bb49dc75","665500ab8938657b03fbdba8","66578186bd7671fa41307188","758","stimuli/20010002.jpg"," ","","feedback_trial","2","","","","","","","","","","","","","","","","","","","","",""
"","","","","","image-keyboard-response","190","313918","0.0-165.0","6400eea126c44543bb49dc75","665500ab8938657b03fbdba8","66578186bd7671fa41307188","1328","stimuli/1111110.jpg","0","","prediction_trial","0","","true","","1","false","false","false","false","false","false","[2,0,1]","111","110","1","","","","","","",""
"","","","","","image-keyboard-response","191","314528","0.0-166.0","6400eea126c44543bb49dc75","665500ab8938657b03fbdba8","66578186bd7671fa41307188","602","stimuli/11111100.jpg"," ","","feedback_trial","2","","","","","","","","","","","","","","","","","","","","",""
"","","","","","image-keyboard-response","192","315249","0.0-167.0","6400eea126c44543bb49dc75","665500ab8938657b03fbdba8","66578186bd7671fa41307188","715","stimuli/0111111.jpg","1","","prediction_trial","1","","true","","0","false","false","false","false","false","false","[2,1,0]","111","111","1","","","","","","",""
"","","","","","image-keyboard-response","193","315873","0.0-168.0","6400eea126c44543bb49dc75","665500ab8938657b03fbdba8","66578186bd7671fa41307188","617","stimuli/01111111.jpg"," ","","feedback_trial","2","","","","","","","","","","","","","","","","","","","","",""
"","","","","","image-keyboard-response","194","317003","0.0-169.0","6400eea126c44543bb49dc75","665500ab8938657b03fbdba8","66578186bd7671fa41307188","1123","stimuli/1000111.jpg","1","","prediction_trial","1","","true","","1","false","false","true","true","false","false","[1]","000","111","1","","","","","","",""
"","","","","","image-keyboard-response","195","317696","0.0-170.0","6400eea126c44543bb49dc75","665500ab8938657b03fbdba8","66578186bd7671fa41307188","686","stimuli/10001111.jpg"," ","","feedback_trial","1","","","","","","","","","","","","","","","","","","","","",""
"","","","","","image-keyboard-response","196","318285","0.0-171.0","6400eea126c44543bb49dc75","665500ab8938657b03fbdba8","66578186bd7671fa41307188","580","stimuli/0000011.jpg","0","","prediction_trial","0","","true","","0","true","true","true","true","true","true","[0]","000","011","1","","","","","","",""
"","","","","","image-keyboard-response","197","318929","0.0-172.0","6400eea126c44543bb49dc75","665500ab8938657b03fbdba8","66578186bd7671fa41307188","637","stimuli/00000110.jpg"," ","","feedback_trial","0","","","","","","","","","","","","","","","","","","","","",""
"","","","","","image-keyboard-response","198","319576","0.0-173.0","6400eea126c44543bb49dc75","665500ab8938657b03fbdba8","66578186bd7671fa41307188","638","stimuli/0001010.jpg","0","","prediction_trial","0","","true","","0","true","true","true","true","true","true","[0]","001","010","1","","","","","","",""
"","","","","","image-keyboard-response","199","320171","0.0-174.0","6400eea126c44543bb49dc75","665500ab8938657b03fbdba8","66578186bd7671fa41307188","587","stimuli/00010100.jpg"," ","","feedback_trial","0","","","","","","","","","","","","","","","","","","","","",""
"","","","","","image-keyboard-response","200","320958","0.0-175.0","6400eea126c44543bb49dc75","665500ab8938657b03fbdba8","66578186bd7671fa41307188","780","stimuli/2101110.jpg","2","","prediction_trial","0","","false","","2","true","true","false","false","false","false","[2,0]","101","110","0","","","","","","",""
"","","","","","image-keyboard-response","201","321638","0.0-176.0","6400eea126c44543bb49dc75","665500ab8938657b03fbdba8","66578186bd7671fa41307188","673","stimuli/21011100.jpg"," ","","feedback_trial","2","","","","","","","","","","","","","","","","","","","","",""
"","","","","","image-keyboard-response","202","322307","0.0-177.0","6400eea126c44543bb49dc75","665500ab8938657b03fbdba8","66578186bd7671fa41307188","661","stimuli/1111011.jpg","2","","prediction_trial","1","","false","","1","false","false","false","false","false","false","[1,2,0]","111","011","0","","","","","","",""
"","","","","","image-keyboard-response","203","322889","0.0-178.0","6400eea126c44543bb49dc75","665500ab8938657b03fbdba8","66578186bd7671fa41307188","575","stimuli/11110111.jpg"," ","","feedback_trial","1","","","","","","","","","","","","","","","","","","","","",""
"","","","","","image-keyboard-response","204","323462","0.0-179.0","6400eea126c44543bb49dc75","665500ab8938657b03fbdba8","66578186bd7671fa41307188","566","stimuli/0010011.jpg","0","","prediction_trial","0","","true","","0","true","true","true","true","true","true","[0]","010","011","1","","","","","","",""
"","","","","","image-keyboard-response","205","324016","0.0-180.0","6400eea126c44543bb49dc75","665500ab8938657b03fbdba8","66578186bd7671fa41307188","546","stimuli/00100110.jpg"," ","","feedback_trial","0","","","","","","","","","","","","","","","","","","","","",""
"","","","","","image-keyboard-response","206","324817","0.0-181.0","6400eea126c44543bb49dc75","665500ab8938657b03fbdba8","66578186bd7671fa41307188","794","stimuli/1111000.jpg","1","","prediction_trial","0","","false","","1","true","true","false","false","false","false","[1,0,2]","111","000","0","","","","","","",""
"","","","","","image-keyboard-response","207","325439","0.0-182.0","6400eea126c44543bb49dc75","665500ab8938657b03fbdba8","66578186bd7671fa41307188","615","stimuli/11110000.jpg"," ","","feedback_trial","1","","","","","","","","","","","","","","","","","","","","",""
"","","","","","image-keyboard-response","208","327205","0.0-183.0","6400eea126c44543bb49dc75","665500ab8938657b03fbdba8","66578186bd7671fa41307188","1759","stimuli/1100010.jpg","1","","prediction_trial","1","","true","","1","false","true","true","true","false","true","[1]","100","010","1","","","","","","",""
"","","","","","image-keyboard-response","209","327950","0.0-184.0","6400eea126c44543bb49dc75","665500ab8938657b03fbdba8","66578186bd7671fa41307188","738","stimuli/11000101.jpg"," ","","feedback_trial","1","","","","","","","","","","","","","","","","","","","","",""
"","","","","","image-keyboard-response","210","329368","0.0-185.0","6400eea126c44543bb49dc75","665500ab8938657b03fbdba8","66578186bd7671fa41307188","1411","stimuli/2010001.jpg","2","","prediction_trial","2","","true","","2","false","true","true","true","false","true","[2]","010","001","1","","","","","","",""
"","","","","","image-keyboard-response","211","329895","0.0-186.0","6400eea126c44543bb49dc75","665500ab8938657b03fbdba8","66578186bd7671fa41307188","521","stimuli/20100012.jpg"," ","","feedback_trial","2","","","","","","","","","","","","","","","","","","","","",""
"","","","","","image-keyboard-response","212","332242","0.0-187.0","6400eea126c44543bb49dc75","665500ab8938657b03fbdba8","66578186bd7671fa41307188","2339","stimuli/0100100.jpg","0","","prediction_trial","0","","true","","0","false","true","false","true","false","true","[0]","100","100","1","","","","","","",""
"","","","","","image-keyboard-response","213","333150","0.0-188.0","6400eea126c44543bb49dc75","665500ab8938657b03fbdba8","66578186bd7671fa41307188","903","stimuli/01001000.jpg"," ","","feedback_trial","0","","","","","","","","","","","","","","","","","","","","",""
"","","","","","image-keyboard-response","214","334976","0.0-189.0","6400eea126c44543bb49dc75","665500ab8938657b03fbdba8","66578186bd7671fa41307188","1818","stimuli/1110010.jpg","1","","prediction_trial","0","","false","","1","false","true","false","false","false","false","[1,0]","110","010","0","","","","","","",""
"","","","","","image-keyboard-response","215","335602","0.0-190.0","6400eea126c44543bb49dc75","665500ab8938657b03fbdba8","66578186bd7671fa41307188","618","stimuli/11100100.jpg"," ","","feedback_trial","1","","","","","","","","","","","","","","","","","","","","",""
"","","","","","image-keyboard-response","216","336453","0.0-191.0","6400eea126c44543bb49dc75","665500ab8938657b03fbdba8","66578186bd7671fa41307188","844","stimuli/2011101.jpg","0","","prediction_trial","2","","false","","2","false","false","false","false","false","false","[2,1]","011","101","0","","","","","","",""
"","","","","","image-keyboard-response","217","337462","0.0-192.0","6400eea126c44543bb49dc75","665500ab8938657b03fbdba8","66578186bd7671fa41307188","1001","stimuli/20111012.jpg"," ","","feedback_trial","2","","","","","","","","","","","","","","","","","","","","",""
"","","","","","image-keyboard-response","218","338079","0.0-193.0","6400eea126c44543bb49dc75","665500ab8938657b03fbdba8","66578186bd7671fa41307188","609","stimuli/2011111.jpg","0","","prediction_trial","2","","false","","2","false","false","false","false","false","false","[2,1]","011","111","0","","","","","","",""
"","","","","","image-keyboard-response","219","338781","0.0-194.0","6400eea126c44543bb49dc75","665500ab8938657b03fbdba8","66578186bd7671fa41307188","695","stimuli/20111112.jpg"," ","","feedback_trial","2","","","","","","","","","","","","","","","","","","","","",""
"","","","","","image-keyboard-response","220","339546","0.0-195.0","6400eea126c44543bb49dc75","665500ab8938657b03fbdba8","66578186bd7671fa41307188","758","stimuli/2111001.jpg","2","","prediction_trial","0","","false","","2","false","true","false","false","false","false","[0,1,2]","111","001","0","","","","","","",""
"","","","","","image-keyboard-response","221","340194","0.0-196.0","6400eea126c44543bb49dc75","665500ab8938657b03fbdba8","66578186bd7671fa41307188","639","stimuli/21110010.jpg"," ","","feedback_trial","0","","","","","","","","","","","","","","","","","","","","",""
"","","","","","image-keyboard-response","222","341438","0.0-197.0","6400eea126c44543bb49dc75","665500ab8938657b03fbdba8","66578186bd7671fa41307188","1237","stimuli/1010011.jpg","1","","prediction_trial","1","","true","","1","false","false","false","true","false","false","[1]","010","011","1","","","","","","",""
"","","","","","image-keyboard-response","223","342091","0.0-198.0","6400eea126c44543bb49dc75","665500ab8938657b03fbdba8","66578186bd7671fa41307188","647","stimuli/10100111.jpg"," ","","feedback_trial","1","","","","","","","","","","","","","","","","","","","","",""
"","","","","","image-keyboard-response","224","342834","0.0-199.0","6400eea126c44543bb49dc75","665500ab8938657b03fbdba8","66578186bd7671fa41307188","735","stimuli/0011010.jpg","0","","prediction_trial","0","","true","","0","true","true","true","true","true","true","[0]","011","010","1","","","","","","",""
"","","","","","image-keyboard-response","225","343416","0.0-200.0","6400eea126c44543bb49dc75","665500ab8938657b03fbdba8","66578186bd7671fa41307188","575","stimuli/00110100.jpg"," ","","feedback_trial","0","","","","","","","","","","","","","","","","","","","","",""
"","","","","","image-keyboard-response","226","344703","0.0-201.0","6400eea126c44543bb49dc75","665500ab8938657b03fbdba8","66578186bd7671fa41307188","1280","stimuli/2001111.jpg","1","","prediction_trial","2","","false","","2","false","false","false","true","false","false","[2]","001","111","0","","","","","","",""
"","","","","","image-keyboard-response","227","345304","0.0-202.0","6400eea126c44543bb49dc75","665500ab8938657b03fbdba8","66578186bd7671fa41307188","594","stimuli/20011112.jpg"," ","","feedback_trial","2","","","","","","","","","","","","","","","","","","","","",""
"","","","","","image-keyboard-response","228","346475","0.0-203.0","6400eea126c44543bb49dc75","665500ab8938657b03fbdba8","66578186bd7671fa41307188","1163","stimuli/0101100.jpg","0","","prediction_trial","2","","false","","0","false","true","false","false","false","false","[2,0]","101","100","0","","","","","","",""
"","","","","","image-keyboard-response","229","347117","0.0-204.0","6400eea126c44543bb49dc75","665500ab8938657b03fbdba8","66578186bd7671fa41307188","634","stimuli/01011002.jpg"," ","","feedback_trial","2","","","","","","","","","","","","","","","","","","","","",""
"","","","","","image-keyboard-response","230","347891","0.0-205.0","6400eea126c44543bb49dc75","665500ab8938657b03fbdba8","66578186bd7671fa41307188","767","stimuli/1100100.jpg","1","","prediction_trial","1","","true","","1","true","true","true","true","true","true","[1]","100","100","1","","","","","","",""
"","","","","","image-keyboard-response","231","348448","0.0-206.0","6400eea126c44543bb49dc75","665500ab8938657b03fbdba8","66578186bd7671fa41307188","550","stimuli/11001001.jpg"," ","","feedback_trial","1","","","","","","","","","","","","","","","","","","","","",""
"","","","","","image-keyboard-response","232","350899","0.0-207.0","6400eea126c44543bb49dc75","665500ab8938657b03fbdba8","66578186bd7671fa41307188","2445","stimuli/0110111.jpg","2","","prediction_trial","0","","false","","0","false","false","false","false","false","false","[0,1]","110","111","0","","","","","","",""
"","","","","","image-keyboard-response","233","351626","0.0-208.0","6400eea126c44543bb49dc75","665500ab8938657b03fbdba8","66578186bd7671fa41307188","721","stimuli/01101110.jpg"," ","","feedback_trial","0","","","","","","","","","","","","","","","","","","","","",""
"","","","","","image-keyboard-response","234","352135","0.0-209.0","6400eea126c44543bb49dc75","665500ab8938657b03fbdba8","66578186bd7671fa41307188","501","stimuli/1110100.jpg","1","","prediction_trial","1","","true","","1","true","true","false","false","false","false","[1,0]","110","100","1","","","","","","",""
"","","","","","image-keyboard-response","235","352659","0.0-210.0","6400eea126c44543bb49dc75","665500ab8938657b03fbdba8","66578186bd7671fa41307188","517","stimuli/11101001.jpg"," ","","feedback_trial","1","","","","","","","","","","","","","","","","","","","","",""
"","","","","","image-keyboard-response","236","353577","0.0-211.0","6400eea126c44543bb49dc75","665500ab8938657b03fbdba8","66578186bd7671fa41307188","909","stimuli/0111100.jpg","0","","prediction_trial","2","","false","","0","false","true","false","false","false","false","[2,1,0]","111","100","0","","","","","","",""
"","","","","","image-keyboard-response","237","354414","0.0-212.0","6400eea126c44543bb49dc75","665500ab8938657b03fbdba8","66578186bd7671fa41307188","831","stimuli/01111002.jpg"," ","","feedback_trial","2","","","","","","","","","","","","","","","","","","","","",""
"","","","","","image-keyboard-response","238","355092","0.0-213.0","6400eea126c44543bb49dc75","665500ab8938657b03fbdba8","66578186bd7671fa41307188","669","stimuli/2101000.jpg","2","","prediction_trial","2","","true","","2","true","true","false","false","false","false","[2,0]","101","000","1","","","","","","",""
"","","","","","image-keyboard-response","239","355873","0.0-214.0","6400eea126c44543bb49dc75","665500ab8938657b03fbdba8","66578186bd7671fa41307188","774","stimuli/21010002.jpg"," ","","feedback_trial","2","","","","","","","","","","","","","","","","","","","","",""
"","","","","","image-keyboard-response","240","356570","0.0-215.0","6400eea126c44543bb49dc75","665500ab8938657b03fbdba8","66578186bd7671fa41307188","689","stimuli/2000100.jpg","2","","prediction_trial","2","","true","","2","true","true","true","true","true","true","[2]","000","100","1","","","","","","",""
"","","","","","image-keyboard-response","241","357201","0.0-216.0","6400eea126c44543bb49dc75","665500ab8938657b03fbdba8","66578186bd7671fa41307188","623","stimuli/20001002.jpg"," ","","feedback_trial","2","","","","","","","","","","","","","","","","","","","","",""
"","","","","","image-keyboard-response","242","358023","0.0-217.0","6400eea126c44543bb49dc75","665500ab8938657b03fbdba8","66578186bd7671fa41307188","816","stimuli/2111000.jpg","2","","prediction_trial","0","","false","","2","true","true","false","false","false","false","[2,1,0]","111","000","0","","","","","","",""
"","","","","","image-keyboard-response","243","358558","0.0-218.0","6400eea126c44543bb49dc75","665500ab8938657b03fbdba8","66578186bd7671fa41307188","530","stimuli/21110000.jpg"," ","","feedback_trial","2","","","","","","","","","","","","","","","","","","","","",""
"","","","","","image-keyboard-response","244","359862","0.0-219.0","6400eea126c44543bb49dc75","665500ab8938657b03fbdba8","66578186bd7671fa41307188","1300","stimuli/0111001.jpg","1","","prediction_trial","2","","false","","0","true","true","false","false","false","false","[1,2,0]","111","001","0","","","","","","",""
"","","","","","image-keyboard-response","245","360445","0.0-220.0","6400eea126c44543bb49dc75","665500ab8938657b03fbdba8","66578186bd7671fa41307188","577","stimuli/01110012.jpg"," ","","feedback_trial","1","","","","","","","","","","","","","","","","","","","","",""
"","","","","","image-keyboard-response","246","361830","0.0-221.0","6400eea126c44543bb49dc75","665500ab8938657b03fbdba8","66578186bd7671fa41307188","1381","stimuli/1110111.jpg","1","","prediction_trial","1","","true","","1","false","false","false","false","false","false","[0,1]","110","111","1","","","","","","",""
"","","","","","image-keyboard-response","247","362457","0.0-222.0","6400eea126c44543bb49dc75","665500ab8938657b03fbdba8","66578186bd7671fa41307188","624","stimuli/11101111.jpg"," ","","feedback_trial","0","","","","","","","","","","","","","","","","","","","","",""
"","","","","","image-keyboard-response","248","363491","0.0-223.0","6400eea126c44543bb49dc75","665500ab8938657b03fbdba8","66578186bd7671fa41307188","1029","stimuli/2111100.jpg","1","","prediction_trial","0","","false","","2","true","true","false","false","false","false","[1,0,2]","111","100","0","","","","","","",""
"","","","","","image-keyboard-response","249","364127","0.0-224.0","6400eea126c44543bb49dc75","665500ab8938657b03fbdba8","66578186bd7671fa41307188","630","stimuli/21111000.jpg"," ","","feedback_trial","1","","","","","","","","","","","","","","","","","","","","",""
"","","","","","image-keyboard-response","250","365300","0.0-225.0","6400eea126c44543bb49dc75","665500ab8938657b03fbdba8","66578186bd7671fa41307188","1168","stimuli/0001101.jpg","2","","prediction_trial","0","","false","","0","false","false","true","true","false","false","[0]","001","101","0","","","","","","",""
"","","","","","image-keyboard-response","251","365944","0.0-226.0","6400eea126c44543bb49dc75","665500ab8938657b03fbdba8","66578186bd7671fa41307188","637","stimuli/00011010.jpg"," ","","feedback_trial","0","","","","","","","","","","","","","","","","","","","","",""
"","","","","","image-keyboard-response","252","366608","0.0-227.0","6400eea126c44543bb49dc75","665500ab8938657b03fbdba8","66578186bd7671fa41307188","659","stimuli/0000000.jpg","0","","prediction_trial","0","","true","","0","true","true","true","true","true","true","[0]","000","000","1","","","","","","",""
"","","","","","image-keyboard-response","253","367224","0.0-228.0","6400eea126c44543bb49dc75","665500ab8938657b03fbdba8","66578186bd7671fa41307188","611","stimuli/00000000.jpg"," ","","feedback_trial","0","","","","","","","","","","","","","","","","","","","","",""
"","","","","","image-keyboard-response","254","368308","0.0-229.0","6400eea126c44543bb49dc75","665500ab8938657b03fbdba8","66578186bd7671fa41307188","1078","stimuli/2011100.jpg","2","","prediction_trial","2","","true","","2","true","true","false","false","false","false","[2,1]","011","100","1","","","","","","",""
"","","","","","image-keyboard-response","255","368971","0.0-230.0","6400eea126c44543bb49dc75","665500ab8938657b03fbdba8","66578186bd7671fa41307188","657","stimuli/20111002.jpg"," ","","feedback_trial","2","","","","","","","","","","","","","","","","","","","","",""
"","","","","","image-keyboard-response","256","370057","0.0-231.0","6400eea126c44543bb49dc75","665500ab8938657b03fbdba8","66578186bd7671fa41307188","1081","stimuli/0010101.jpg","2","","prediction_trial","0","","false","","0","false","false","true","true","false","false","[0]","010","101","0","","","","","","",""
"","","","","","image-keyboard-response","257","370680","0.0-232.0","6400eea126c44543bb49dc75","665500ab8938657b03fbdba8","66578186bd7671fa41307188","617","stimuli/00101010.jpg"," ","","feedback_trial","0","","","","","","","","","","","","","","","","","","","","",""
"","","","","","image-keyboard-response","258","371286","0.0-233.0","6400eea126c44543bb49dc75","665500ab8938657b03fbdba8","66578186bd7671fa41307188","600","stimuli/1001000.jpg","1","","prediction_trial","1","","true","","1","true","true","true","true","true","true","[1]","001","000","1","","","","","","",""
"","","","","","image-keyboard-response","259","371819","0.0-234.0","6400eea126c44543bb49dc75","665500ab8938657b03fbdba8","66578186bd7671fa41307188","526","stimuli/10010001.jpg"," ","","feedback_trial","1","","","","","","","","","","","","","","","","","","","","",""
"","","","","","image-keyboard-response","260","372717","0.0-235.0","6400eea126c44543bb49dc75","665500ab8938657b03fbdba8","66578186bd7671fa41307188","892","stimuli/0111110.jpg","2","","prediction_trial","2","","true","","0","false","false","false","false","false","false","[2,1,0]","111","110","1","","","","","","",""
"","","","","","image-keyboard-response","261","373454","0.0-236.0","6400eea126c44543bb49dc75","665500ab8938657b03fbdba8","66578186bd7671fa41307188","731","stimuli/01111102.jpg"," ","","feedback_trial","2","","","","","","","","","","","","","","","","","","","","",""
"","","","","","image-keyboard-response","262","374054","0.0-237.0","6400eea126c44543bb49dc75","665500ab8938657b03fbdba8","66578186bd7671fa41307188","594","stimuli/2110111.jpg","2","","prediction_trial","2","","true","","2","false","false","true","true","false","false","[2]","110","111","1","","","","","","",""
"","","","","","image-keyboard-response","263","374799","0.0-238.0","6400eea126c44543bb49dc75","665500ab8938657b03fbdba8","66578186bd7671fa41307188","740","stimuli/21101112.jpg"," ","","feedback_trial","2","","","","","","","","","","","","","","","","","","","","",""
"","","","","","image-keyboard-response","264","376176","0.0-239.0","6400eea126c44543bb49dc75","665500ab8938657b03fbdba8","66578186bd7671fa41307188","1371","stimuli/0001100.jpg","0","","prediction_trial","0","","true","","0","false","true","true","true","false","true","[0]","001","100","1","","","","","","",""
"","","","","","image-keyboard-response","265","376875","0.0-240.0","6400eea126c44543bb49dc75","665500ab8938657b03fbdba8","66578186bd7671fa41307188","693","stimuli/00011000.jpg"," ","","feedback_trial","0","","","","","","","","","","","","","","","","","","","","",""
"","","","","","image-keyboard-response","266","377653","0.0-241.0","6400eea126c44543bb49dc75","665500ab8938657b03fbdba8","66578186bd7671fa41307188","773","stimuli/2101101.jpg","1","","prediction_trial","0","","false","","2","false","false","false","false","false","false","[2,0]","101","101","0","","","","","","",""
"","","","","","image-keyboard-response","267","378351","0.0-242.0","6400eea126c44543bb49dc75","665500ab8938657b03fbdba8","66578186bd7671fa41307188","692","stimuli/21011010.jpg"," ","","feedback_trial","2","","","","","","","","","","","","","","","","","","","","",""
"","","","","","image-keyboard-response","268","378970","0.0-243.0","6400eea126c44543bb49dc75","665500ab8938657b03fbdba8","66578186bd7671fa41307188","615","stimuli/1110110.jpg","2","","prediction_trial","1","","false","","1","false","false","false","false","false","false","[0,1]","110","110","0","","","","","","",""
"","","","","","image-keyboard-response","269","379752","0.0-244.0","6400eea126c44543bb49dc75","665500ab8938657b03fbdba8","66578186bd7671fa41307188","777","stimuli/11101101.jpg"," ","","feedback_trial","0","","","","","","","","","","","","","","","","","","","","",""
"","","","","","image-keyboard-response","270","380535","0.0-245.0","6400eea126c44543bb49dc75","665500ab8938657b03fbdba8","66578186bd7671fa41307188","778","stimuli/2110100.jpg","2","","prediction_trial","2","","true","","2","true","true","true","true","true","true","[2]","110","100","1","","","","","","",""
"","","","","","image-keyboard-response","271","381227","0.0-246.0","6400eea126c44543bb49dc75","665500ab8938657b03fbdba8","66578186bd7671fa41307188","687","stimuli/21101002.jpg"," ","","feedback_trial","2","","","","","","","","","","","","","","","","","","","","",""
"","","","","","image-keyboard-response","272","382254","0.0-247.0","6400eea126c44543bb49dc75","665500ab8938657b03fbdba8","66578186bd7671fa41307188","1021","stimuli/1011101.jpg","1","","prediction_trial","2","","false","","1","true","true","false","false","false","false","[2,1]","011","101","0","","","","","","",""
"","","","","","image-keyboard-response","273","382924","0.0-248.0","6400eea126c44543bb49dc75","665500ab8938657b03fbdba8","66578186bd7671fa41307188","665","stimuli/10111012.jpg"," ","","feedback_trial","2","","","","","","","","","","","","","","","","","","","","",""
"","","","","","image-keyboard-response","274","383746","0.0-249.0","6400eea126c44543bb49dc75","665500ab8938657b03fbdba8","66578186bd7671fa41307188","817","stimuli/2010111.jpg","2","","prediction_trial","2","","true","","2","false","false","true","true","false","false","[2]","010","111","1","","","","","","",""
"","","","","","image-keyboard-response","275","384300","0.0-250.0","6400eea126c44543bb49dc75","665500ab8938657b03fbdba8","66578186bd7671fa41307188","549","stimuli/20101112.jpg"," ","","feedback_trial","2","","","","","","","","","","","","","","","","","","","","",""
"","","","","","image-keyboard-response","276","385040","0.0-251.0","6400eea126c44543bb49dc75","665500ab8938657b03fbdba8","66578186bd7671fa41307188","736","stimuli/0011111.jpg","1","","prediction_trial","0","","false","","0","false","false","true","true","false","false","[0]","011","111","0","","","","","","",""
"","","","","","image-keyboard-response","277","385657","0.0-252.0","6400eea126c44543bb49dc75","665500ab8938657b03fbdba8","66578186bd7671fa41307188","612","stimuli/00111110.jpg"," ","","feedback_trial","0","","","","","","","","","","","","","","","","","","","","",""
"","","","","","image-keyboard-response","278","387610","0.0-253.0","6400eea126c44543bb49dc75","665500ab8938657b03fbdba8","66578186bd7671fa41307188","1947","stimuli/1110011.jpg","1","","prediction_trial","0","","false","","1","false","false","false","false","false","false","[1,0]","110","011","0","","","","","","",""
"","","","","","image-keyboard-response","279","388304","0.0-254.0","6400eea126c44543bb49dc75","665500ab8938657b03fbdba8","66578186bd7671fa41307188","685","stimuli/11100110.jpg"," ","","feedback_trial","1","","","","","","","","","","","","","","","","","","","","",""
"","","","","","image-keyboard-response","280","388980","0.0-255.0","6400eea126c44543bb49dc75","665500ab8938657b03fbdba8","66578186bd7671fa41307188","669","stimuli/2000000.jpg","2","","prediction_trial","2","","true","","2","true","true","true","true","true","true","[2]","000","000","1","","","","","","",""
"","","","","","image-keyboard-response","281","389700","0.0-256.0","6400eea126c44543bb49dc75","665500ab8938657b03fbdba8","66578186bd7671fa41307188","714","stimuli/20000002.jpg"," ","","feedback_trial","2","","","","","","","","","","","","","","","","","","","","",""
"","","","","","image-keyboard-response","282","390608","0.0-257.0","6400eea126c44543bb49dc75","665500ab8938657b03fbdba8","66578186bd7671fa41307188","899","stimuli/0011101.jpg","1","","prediction_trial","0","","false","","0","false","false","true","true","false","false","[0]","011","101","0","","","","","","",""
"","","","","","image-keyboard-response","283","391371","0.0-258.0","6400eea126c44543bb49dc75","665500ab8938657b03fbdba8","66578186bd7671fa41307188","756","stimuli/00111010.jpg"," ","","feedback_trial","0","","","","","","","","","","","","","","","","","","","","",""
"","","","","","image-keyboard-response","284","392270","0.0-259.0","6400eea126c44543bb49dc75","665500ab8938657b03fbdba8","66578186bd7671fa41307188","891","stimuli/2110010.jpg","2","","prediction_trial","2","","true","","2","true","true","true","true","true","true","[2]","110","010","1","","","","","","",""
"","","","","","image-keyboard-response","285","392916","0.0-260.0","6400eea126c44543bb49dc75","665500ab8938657b03fbdba8","66578186bd7671fa41307188","639","stimuli/21100102.jpg"," ","","feedback_trial","2","","","","","","","","","","","","","","","","","","","","",""
"","","","","","image-keyboard-response","286","393581","0.0-261.0","6400eea126c44543bb49dc75","665500ab8938657b03fbdba8","66578186bd7671fa41307188","658","stimuli/1010010.jpg","1","","prediction_trial","1","","true","","1","false","true","false","true","false","true","[1]","010","010","1","","","","","","",""
"","","","","","image-keyboard-response","287","394244","0.0-262.0","6400eea126c44543bb49dc75","665500ab8938657b03fbdba8","66578186bd7671fa41307188","656","stimuli/10100101.jpg"," ","","feedback_trial","1","","","","","","","","","","","","","","","","","","","","",""
"","","","","","image-keyboard-response","288","395062","0.0-263.0","6400eea126c44543bb49dc75","665500ab8938657b03fbdba8","66578186bd7671fa41307188","813","stimuli/0101001.jpg","0","","prediction_trial","0","","true","","0","true","true","false","false","false","false","[0,2]","101","001","1","","","","","","",""
"","","","","","image-keyboard-response","289","395906","0.0-264.0","6400eea126c44543bb49dc75","665500ab8938657b03fbdba8","66578186bd7671fa41307188","839","stimuli/01010010.jpg"," ","","feedback_trial","0","","","","","","","","","","","","","","","","","","","","",""
"","","","","","image-keyboard-response","290","397166","0.0-265.0","6400eea126c44543bb49dc75","665500ab8938657b03fbdba8","66578186bd7671fa41307188","1253","stimuli/1101001.jpg","1","","prediction_trial","1","","true","","1","true","true","true","true","true","true","[1]","101","001","1","","","","","","",""
"","","","","","image-keyboard-response","291","397825","0.0-266.0","6400eea126c44543bb49dc75","665500ab8938657b03fbdba8","66578186bd7671fa41307188","653","stimuli/11010011.jpg"," ","","feedback_trial","1","","","","","","","","","","","","","","","","","","","","",""
"","","","","","image-keyboard-response","292","398975","0.0-267.0","6400eea126c44543bb49dc75","665500ab8938657b03fbdba8","66578186bd7671fa41307188","1147","stimuli/1000011.jpg","1","","prediction_trial","1","","true","","1","false","false","true","true","false","false","[1]","000","011","1","","","","","","",""
"","","","","","image-keyboard-response","293","400115","0.0-268.0","6400eea126c44543bb49dc75","665500ab8938657b03fbdba8","66578186bd7671fa41307188","1136","stimuli/10000111.jpg"," ","","feedback_trial","1","","","","","","","","","","","","","","","","","","","","",""
"","","","","","image-keyboard-response","294","401200","0.0-269.0","6400eea126c44543bb49dc75","665500ab8938657b03fbdba8","66578186bd7671fa41307188","1079","stimuli/2000111.jpg","1","","prediction_trial","2","","false","","2","false","false","true","true","false","false","[2]","000","111","0","","","","","","",""
"","","","","","image-keyboard-response","295","401751","0.0-270.0","6400eea126c44543bb49dc75","665500ab8938657b03fbdba8","66578186bd7671fa41307188","545","stimuli/20001112.jpg"," ","","feedback_trial","2","","","","","","","","","","","","","","","","","","","","",""
"","","","","","image-keyboard-response","296","402371","0.0-271.0","6400eea126c44543bb49dc75","665500ab8938657b03fbdba8","66578186bd7671fa41307188","615","stimuli/1111100.jpg","1","","prediction_trial","2","","false","","1","true","true","false","false","false","false","[0,1,2]","111","100","0","","","","","","",""
"","","","","","image-keyboard-response","297","402975","0.0-272.0","6400eea126c44543bb49dc75","665500ab8938657b03fbdba8","66578186bd7671fa41307188","599","stimuli/11111002.jpg"," ","","feedback_trial","0","","","","","","","","","","","","","","","","","","","","",""
"","","","","","image-keyboard-response","298","403548","0.0-273.0","6400eea126c44543bb49dc75","665500ab8938657b03fbdba8","66578186bd7671fa41307188","568","stimuli/1000000.jpg","1","","prediction_trial","1","","true","","1","true","true","true","true","true","true","[1]","000","000","1","","","","","","",""
"","","","","","image-keyboard-response","299","404141","0.0-274.0","6400eea126c44543bb49dc75","665500ab8938657b03fbdba8","66578186bd7671fa41307188","587","stimuli/10000001.jpg"," ","","feedback_trial","1","","","","","","","","","","","","","","","","","","","","",""
"","","","","","image-keyboard-response","300","404810","0.0-275.0","6400eea126c44543bb49dc75","665500ab8938657b03fbdba8","66578186bd7671fa41307188","664","stimuli/1010000.jpg","1","","prediction_trial","1","","true","","1","true","true","false","true","false","true","[1]","010","000","1","","","","","","",""
"","","","","","image-keyboard-response","301","405414","0.0-276.0","6400eea126c44543bb49dc75","665500ab8938657b03fbdba8","66578186bd7671fa41307188","599","stimuli/10100001.jpg"," ","","feedback_trial","1","","","","","","","","","","","","","","","","","","","","",""
"","","","","","image-keyboard-response","302","406289","0.0-277.0","6400eea126c44543bb49dc75","665500ab8938657b03fbdba8","66578186bd7671fa41307188","869","stimuli/0010001.jpg","0","","prediction_trial","0","","true","","0","true","true","true","true","true","true","[0]","010","001","1","","","","","","",""
"","","","","","image-keyboard-response","303","406825","0.0-278.0","6400eea126c44543bb49dc75","665500ab8938657b03fbdba8","66578186bd7671fa41307188","530","stimuli/00100010.jpg"," ","","feedback_trial","0","","","","","","","","","","","","","","","","","","","","",""
"","","","","","image-keyboard-response","304","407477","0.0-279.0","6400eea126c44543bb49dc75","665500ab8938657b03fbdba8","66578186bd7671fa41307188","647","stimuli/1100101.jpg","1","","prediction_trial","1","","true","","1","true","true","true","true","true","true","[1]","100","101","1","","","","","","",""
"","","","","","image-keyboard-response","305","408052","0.0-280.0","6400eea126c44543bb49dc75","665500ab8938657b03fbdba8","66578186bd7671fa41307188","570","stimuli/11001011.jpg"," ","","feedback_trial","1","","","","","","","","","","","","","","","","","","","","",""
"","","","","","image-keyboard-response","306","409324","0.0-281.0","6400eea126c44543bb49dc75","665500ab8938657b03fbdba8","66578186bd7671fa41307188","1266","stimuli/0110001.jpg","0","","prediction_trial","1","","false","","0","true","true","false","false","false","false","[1,0]","110","001","0","","","","","","",""
"","","","","","image-keyboard-response","307","409876","0.0-282.0","6400eea126c44543bb49dc75","665500ab8938657b03fbdba8","66578186bd7671fa41307188","548","stimuli/01100011.jpg"," ","","feedback_trial","1","","","","","","","","","","","","","","","","","","","","",""
"","","","","","image-keyboard-response","308","411065","0.0-283.0","6400eea126c44543bb49dc75","665500ab8938657b03fbdba8","66578186bd7671fa41307188","1185","stimuli/2101001.jpg","2","","prediction_trial","0","","false","","2","false","true","false","false","false","false","[2,0]","101","001","0","","","","","","",""
"","","","","","image-keyboard-response","309","411700","0.0-284.0","6400eea126c44543bb49dc75","665500ab8938657b03fbdba8","66578186bd7671fa41307188","629","stimuli/21010010.jpg"," ","","feedback_trial","2","","","","","","","","","","","","","","","","","","","","",""
"","","","","","image-keyboard-response","310","412305","0.0-285.0","6400eea126c44543bb49dc75","665500ab8938657b03fbdba8","66578186bd7671fa41307188","599","stimuli/1101000.jpg","1","","prediction_trial","1","","true","","1","true","true","true","true","true","true","[1]","101","000","1","","","","","","",""
"","","","","","image-keyboard-response","311","412795","0.0-286.0","6400eea126c44543bb49dc75","665500ab8938657b03fbdba8","66578186bd7671fa41307188","484","stimuli/11010001.jpg"," ","","feedback_trial","1","","","","","","","","","","","","","","","","","","","","",""
"","","","","","image-keyboard-response","312","413506","0.0-287.0","6400eea126c44543bb49dc75","665500ab8938657b03fbdba8","66578186bd7671fa41307188","707","stimuli/0100010.jpg","0","","prediction_trial","0","","true","","0","true","true","false","true","false","true","[0]","100","010","1","","","","","","",""
"","","","","","image-keyboard-response","313","414067","0.0-288.0","6400eea126c44543bb49dc75","665500ab8938657b03fbdba8","66578186bd7671fa41307188","556","stimuli/01000100.jpg"," ","","feedback_trial","0","","","","","","","","","","","","","","","","","","","","",""
"","","","","","image-keyboard-response","314","414728","0.0-289.0","6400eea126c44543bb49dc75","665500ab8938657b03fbdba8","66578186bd7671fa41307188","656","stimuli/0000111.jpg","1","","prediction_trial","0","","false","","0","false","false","true","true","false","false","[0]","000","111","0","","","","","","",""
"","","","","","image-keyboard-response","315","415236","0.0-290.0","6400eea126c44543bb49dc75","665500ab8938657b03fbdba8","66578186bd7671fa41307188","502","stimuli/00001110.jpg"," ","","feedback_trial","0","","","","","","","","","","","","","","","","","","","","",""
"","","","","","image-keyboard-response","316","415743","0.0-291.0","6400eea126c44543bb49dc75","665500ab8938657b03fbdba8","66578186bd7671fa41307188","503","stimuli/2001101.jpg","1","","prediction_trial","2","","false","","2","false","false","false","true","false","false","[2]","001","101","0","","","","","","",""
"","","","","","image-keyboard-response","317","416461","0.0-292.0","6400eea126c44543bb49dc75","665500ab8938657b03fbdba8","66578186bd7671fa41307188","714","stimuli/20011012.jpg"," ","","feedback_trial","2","","","","","","","","","","","","","","","","","","","","",""
"","","","","","survey-html-form","318","448707","0.0-293.0","6400eea126c44543bb49dc75","665500ab8938657b03fbdba8","66578186bd7671fa41307188","32246","","{""feedback"":""I tried to pay attention to what Sam could see to determine where he would guess."",""age"":""40"",""gender"":""Male"",""other_gender"":"""",""race"":""White"",""other_race"":"""",""ethnicity"":""Non-Hispanic""}","","exit_survey","","","","","","","","","","","","","","","","I tried to pay attention to what Sam could see to determine where he would guess.","40","Non-Hispanic","Male","White","0.6388888888888888","0.6388888888888888"
