"success","timeout","failed_images","failed_audio","failed_video","trial_type","trial_index","time_elapsed","internal_node_id","prolific_id","prolific_study_id","prolific_session_id","rt","stimulus","response","view_history","trial","character_choice","stimulus_dict","accuracy","correct_response","ball_pos","ego_ball_visible","ego_can_infer","alter_ball_visible","alter_can_infer","collective_ball_visible","collective_can_infer","search_locations","alter_occluders","ego_occluders","accuracy_bool","feedback","age","ethnicity","gender","race","overall_accuracy","bonus"
"true","false","[]","[]","[]","preload","0","1281","0.0-0.0","6402682f1a17d6c87f4f3a89","665500ab8938657b03fbdba8","6657925993aac0c4805dc949","","","","","","","","","","","","","","","","","","","","","","","","","","",""
"true","","","","","fullscreen","1","4147","0.0-1.0","6402682f1a17d6c87f4f3a89","665500ab8938657b03fbdba8","6657925993aac0c4805dc949","","","","","","","","","","","","","","","","","","","","","","","","","","",""
"","","","","","html-button-response","2","34667","0.0-2.0","6402682f1a17d6c87f4f3a89","665500ab8938657b03fbdba8","6657925993aac0c4805dc949","30519","<p><b>Consent Form</b></p> <div style=""text-align:left;background-color:lightgrey; padding:20px; max-width:900px;""><p>Please consider this information carefully before deciding whether to participate in this research.</p> <p>The purpose of this research is to examine which factors influence social judgment and decision-making. You will be asked to make judgements about individuals and actions in social scenarios. We are simply interested in your judgement. The study will take less than 1 hour to complete, and you will receive less than $20 on Prolific. Your compensation and time commitment are specified in the study description. There are no anticipated risks associated with participating in this study. The effects of participating should be comparable to those you would ordinarily experience from viewing a computer monitor and using a mouse or keyboard for a similar amount of time. At the end of the study, we will provide an explanation of the questions that motivate this line of research and will describe the potential implications. </p><p> Your participation in this study is completely voluntary and you may refuse to participate or you may choose to withdraw at any time without penalty or loss of benefits to you which are otherwise entitled. Your participation in this study will remain confidential. No personally identifiable information will be associated with your data. Also, all analyses of the data will be averaged across all the participants, so your individual responses will never be specifically analyzed. </p><p> If you have questions or concerns about your participation or payment, or want to request a summary of research findings, please contact Dr. Jonathan Phillips at Jonathan.S.Phillips@dartmouth.edu. </p><p> Please save a copy of this form for your records. </p><p><b>Agreement: </b>The nature and purpose of this research have been sufficiently explained and I agree to participate in this study. I understand that I am free to withdraw at any time without incurring any penalty. Please consent by clicking the button below to continue. Otherwise, please exit the study at any time. </p>","0","","","","","","","","","","","","","","","","","","","","","","","",""
"","","","","","instructions","3","231912","0.0-3.0-0.0","6402682f1a17d6c87f4f3a89","665500ab8938657b03fbdba8","6657925993aac0c4805dc949","197246","","","[{""page_index"":0,""viewing_time"":104749},{""page_index"":1,""viewing_time"":1318},{""page_index"":2,""viewing_time"":2228},{""page_index"":3,""viewing_time"":27296},{""page_index"":4,""viewing_time"":4908},{""page_index"":5,""viewing_time"":1892},{""page_index"":6,""viewing_time"":5558},{""page_index"":7,""viewing_time"":6192},{""page_index"":8,""viewing_time"":5596},{""page_index"":9,""viewing_time"":2300},{""page_index"":10,""viewing_time"":20654},{""page_index"":11,""viewing_time"":8552},{""page_index"":12,""viewing_time"":4522},{""page_index"":13,""viewing_time"":1480}]","intro","","","","","","","","","","","","","","","","","","","","","",""
"","","","","","image-keyboard-response","4","233498","0.0-3.0-1.0","6402682f1a17d6c87f4f3a89","665500ab8938657b03fbdba8","6657925993aac0c4805dc949","1583","stimuli/0000000.jpg","0","","prediction_practice","0","{""filepath"":""stimuli/0000000.jpg"",""ball_pos"":0,""ego_ball_visible"":true,""ego_can_infer"":true,""alter_ball_visible"":true,""alter_can_infer"":true,""collective_ball_visible"":true,""collective_can_infer"":true,""search_locations"":[0],""alter_occluders"":""000"",""ego_occluders"":""000""}","true","","","","","","","","","","","","","","","","","","",""
"","","","","","image-keyboard-response","5","235464","0.0-3.0-2.0","6402682f1a17d6c87f4f3a89","665500ab8938657b03fbdba8","6657925993aac0c4805dc949","1964","stimuli/00000000.jpg"," ","","practrice_feedback","0","","","","","","","","","","","","","","","","","","","","",""
"","","","","","image-keyboard-response","6","239576","0.0-3.0-3.0","6402682f1a17d6c87f4f3a89","665500ab8938657b03fbdba8","6657925993aac0c4805dc949","4111","stimuli/2011111.jpg","0","","prediction_practice","1","{""filepath"":""stimuli/2011111.jpg"",""ball_pos"":2,""ego_ball_visible"":false,""ego_can_infer"":false,""alter_ball_visible"":false,""alter_can_infer"":false,""collective_ball_visible"":false,""collective_can_infer"":false,""search_locations"":[2,1],""alter_occluders"":""011"",""ego_occluders"":""111""}","false","","","","","","","","","","","","","","","","","","",""
"","","","","","image-keyboard-response","7","241601","0.0-3.0-4.0","6402682f1a17d6c87f4f3a89","665500ab8938657b03fbdba8","6657925993aac0c4805dc949","2025","stimuli/20111111.jpg"," ","","practrice_feedback","2","","","","","","","","","","","","","","","","","","","","",""
"","","","","","image-keyboard-response","8","244872","0.0-3.0-5.0","6402682f1a17d6c87f4f3a89","665500ab8938657b03fbdba8","6657925993aac0c4805dc949","3269","stimuli/2010101.jpg","2","","prediction_practice","2","{""filepath"":""stimuli/2010101.jpg"",""ball_pos"":2,""ego_ball_visible"":false,""ego_can_infer"":false,""alter_ball_visible"":true,""alter_can_infer"":true,""collective_ball_visible"":false,""collective_can_infer"":false,""search_locations"":[2],""alter_occluders"":""010"",""ego_occluders"":""101""}","true","","","","","","","","","","","","","","","","","","",""
"","","","","","image-keyboard-response","9","246713","0.0-3.0-6.0","6402682f1a17d6c87f4f3a89","665500ab8938657b03fbdba8","6657925993aac0c4805dc949","1840","stimuli/20101012.jpg"," ","","practrice_feedback","2","","","","","","","","","","","","","","","","","","","","",""
"","","","","","image-keyboard-response","10","249634","0.0-3.0-7.0","6402682f1a17d6c87f4f3a89","665500ab8938657b03fbdba8","6657925993aac0c4805dc949","2919","stimuli/0101111.jpg","1","","prediction_practice","2","{""filepath"":""stimuli/0101111.jpg"",""ball_pos"":0,""ego_ball_visible"":false,""ego_can_infer"":false,""alter_ball_visible"":false,""alter_can_infer"":false,""collective_ball_visible"":false,""collective_can_infer"":false,""search_locations"":[0,2],""alter_occluders"":""101"",""ego_occluders"":""111""}","false","","","","","","","","","","","","","","","","","","",""
"","","","","","image-keyboard-response","11","250736","0.0-3.0-8.0","6402682f1a17d6c87f4f3a89","665500ab8938657b03fbdba8","6657925993aac0c4805dc949","1101","stimuli/01011112.jpg"," ","","practrice_feedback","0","","","","","","","","","","","","","","","","","","","","",""
"","","","","","image-keyboard-response","12","254218","0.0-3.0-9.0","6402682f1a17d6c87f4f3a89","665500ab8938657b03fbdba8","6657925993aac0c4805dc949","3482","stimuli/2101001.jpg","2","","prediction_practice","2","{""filepath"":""stimuli/2101001.jpg"",""ball_pos"":2,""ego_ball_visible"":false,""ego_can_infer"":true,""alter_ball_visible"":false,""alter_can_infer"":false,""collective_ball_visible"":false,""collective_can_infer"":false,""search_locations"":[2,0],""alter_occluders"":""101"",""ego_occluders"":""001""}","true","","","","","","","","","","","","","","","","","","",""
"","","","","","image-keyboard-response","13","255649","0.0-3.0-10.0","6402682f1a17d6c87f4f3a89","665500ab8938657b03fbdba8","6657925993aac0c4805dc949","1430","stimuli/21010012.jpg"," ","","practrice_feedback","2","","","","","","","","","","","","","","","","","","","","",""
"","","","","","image-keyboard-response","14","257623","0.0-3.0-11.0","6402682f1a17d6c87f4f3a89","665500ab8938657b03fbdba8","6657925993aac0c4805dc949","1974","stimuli/0000111.jpg","0","","prediction_practice","0","{""filepath"":""stimuli/0000111.jpg"",""ball_pos"":0,""ego_ball_visible"":false,""ego_can_infer"":false,""alter_ball_visible"":true,""alter_can_infer"":true,""collective_ball_visible"":false,""collective_can_infer"":false,""search_locations"":[0],""alter_occluders"":""000"",""ego_occluders"":""111""}","true","","","","","","","","","","","","","","","","","","",""
"","","","","","image-keyboard-response","15","258992","0.0-3.0-12.0","6402682f1a17d6c87f4f3a89","665500ab8938657b03fbdba8","6657925993aac0c4805dc949","1368","stimuli/00001110.jpg"," ","","practrice_feedback","0","","","","","","","","","","","","","","","","","","","","",""
"","","","","","image-keyboard-response","16","260465","0.0-3.0-13.0","6402682f1a17d6c87f4f3a89","665500ab8938657b03fbdba8","6657925993aac0c4805dc949","1473","stimuli/1010000.jpg","1","","prediction_practice","1","{""filepath"":""stimuli/1010000.jpg"",""ball_pos"":1,""ego_ball_visible"":true,""ego_can_infer"":true,""alter_ball_visible"":false,""alter_can_infer"":true,""collective_ball_visible"":false,""collective_can_infer"":true,""search_locations"":[1],""alter_occluders"":""010"",""ego_occluders"":""000""}","true","","","","","","","","","","","","","","","","","","",""
"","","","","","image-keyboard-response","17","262129","0.0-3.0-14.0","6402682f1a17d6c87f4f3a89","665500ab8938657b03fbdba8","6657925993aac0c4805dc949","1663","stimuli/10100001.jpg"," ","","practrice_feedback","1","","","","","","","","","","","","","","","","","","","","",""
"","","","","","image-keyboard-response","18","263160","0.0-3.0-15.0","6402682f1a17d6c87f4f3a89","665500ab8938657b03fbdba8","6657925993aac0c4805dc949","1030","stimuli/1000100.jpg","1","","prediction_practice","1","{""filepath"":""stimuli/1000100.jpg"",""ball_pos"":1,""ego_ball_visible"":true,""ego_can_infer"":true,""alter_ball_visible"":true,""alter_can_infer"":true,""collective_ball_visible"":true,""collective_can_infer"":true,""search_locations"":[1],""alter_occluders"":""000"",""ego_occluders"":""100""}","true","","","","","","","","","","","","","","","","","","",""
"","","","","","image-keyboard-response","19","264999","0.0-3.0-16.0","6402682f1a17d6c87f4f3a89","665500ab8938657b03fbdba8","6657925993aac0c4805dc949","1839","stimuli/10001001.jpg"," ","","practrice_feedback","1","","","","","","","","","","","","","","","","","","","","",""
"","","","","","image-keyboard-response","20","265720","0.0-3.0-17.0","6402682f1a17d6c87f4f3a89","665500ab8938657b03fbdba8","6657925993aac0c4805dc949","720","stimuli/2101000.jpg","2","","prediction_practice","2","{""filepath"":""stimuli/2101000.jpg"",""ball_pos"":2,""ego_ball_visible"":true,""ego_can_infer"":true,""alter_ball_visible"":false,""alter_can_infer"":false,""collective_ball_visible"":false,""collective_can_infer"":false,""search_locations"":[0,2],""alter_occluders"":""101"",""ego_occluders"":""000""}","true","","","","","","","","","","","","","","","","","","",""
"","","","","","image-keyboard-response","21","267336","0.0-3.0-18.0","6402682f1a17d6c87f4f3a89","665500ab8938657b03fbdba8","6657925993aac0c4805dc949","1615","stimuli/21010002.jpg"," ","","practrice_feedback","0","","","","","","","","","","","","","","","","","","","","",""
"","","","","","image-keyboard-response","22","268305","0.0-3.0-19.0","6402682f1a17d6c87f4f3a89","665500ab8938657b03fbdba8","6657925993aac0c4805dc949","969","stimuli/0100001.jpg","0","","prediction_practice","0","{""filepath"":""stimuli/0100001.jpg"",""ball_pos"":0,""ego_ball_visible"":true,""ego_can_infer"":true,""alter_ball_visible"":false,""alter_can_infer"":true,""collective_ball_visible"":false,""collective_can_infer"":true,""search_locations"":[0],""alter_occluders"":""100"",""ego_occluders"":""001""}","true","","","","","","","","","","","","","","","","","","",""
"","","","","","image-keyboard-response","23","270720","0.0-3.0-20.0","6402682f1a17d6c87f4f3a89","665500ab8938657b03fbdba8","6657925993aac0c4805dc949","2414","stimuli/01000010.jpg"," ","","practrice_feedback","0","","","","","","","","","","","","","","","","","","","","",""
"","","","","","html-button-response","24","274450","0.0-3.0-21.0","6402682f1a17d6c87f4f3a89","665500ab8938657b03fbdba8","6657925993aac0c4805dc949","3729","Now that you've had some practice, you'll be tested with a couple of easy trials. If you correctly predict Sam's choice, you'll move on to complete the experiment!","0","","","","","","","","","","","","","","","","","","","","","","","",""
"","","","","","image-keyboard-response","25","278721","0.0-3.0-22.0-0.0","6402682f1a17d6c87f4f3a89","665500ab8938657b03fbdba8","6657925993aac0c4805dc949","4270","stimuli/0000011.jpg","arrowleft","","comprehension_quiz","","","true","arrowleft","","","","","","","","","","","","","","","","","",""
"","","","","","image-keyboard-response","26","282071","0.0-3.0-22.0-1.0","6402682f1a17d6c87f4f3a89","665500ab8938657b03fbdba8","6657925993aac0c4805dc949","3350","stimuli/00000110.jpg"," ","","comprehension_quiz","","","true"," ","","","","","","","","","","","","","","","","","",""
"","","","","","image-keyboard-response","27","283703","0.0-3.0-22.0-2.0","6402682f1a17d6c87f4f3a89","665500ab8938657b03fbdba8","6657925993aac0c4805dc949","1631","stimuli/1010010.jpg","arrowdown","","comprehension_quiz","","","true","arrowdown","","","","","","","","","","","","","","","","","",""
"","","","","","image-keyboard-response","28","284576","0.0-3.0-22.0-3.0","6402682f1a17d6c87f4f3a89","665500ab8938657b03fbdba8","6657925993aac0c4805dc949","872","stimuli/10100101.jpg"," ","","comprehension_quiz","","","true"," ","","","","","","","","","","","","","","","","","",""
"","","","","","html-button-response","29","286706","0.0-4.0","6402682f1a17d6c87f4f3a89","665500ab8938657b03fbdba8","6657925993aac0c4805dc949","2129","The experiment will now begin.","0","","","","","","","","","","","","","","","","","","","","","","","",""
"","","","","","image-keyboard-response","30","287696","0.0-5.0","6402682f1a17d6c87f4f3a89","665500ab8938657b03fbdba8","6657925993aac0c4805dc949","989","stimuli/2111001.jpg","2","","prediction_trial","1","","false","","2","false","true","false","false","false","false","[0,1,2]","111","001","0","","","","","","",""
"","","","","","image-keyboard-response","31","291656","0.0-6.0","6402682f1a17d6c87f4f3a89","665500ab8938657b03fbdba8","6657925993aac0c4805dc949","3959","stimuli/21110011.jpg"," ","","feedback_trial","0","","","","","","","","","","","","","","","","","","","","",""
"","","","","","image-keyboard-response","32","293913","0.0-7.0","6402682f1a17d6c87f4f3a89","665500ab8938657b03fbdba8","6657925993aac0c4805dc949","2257","stimuli/2100101.jpg","2","","prediction_trial","2","","true","","2","false","false","true","true","false","false","[2]","100","101","1","","","","","","",""
"","","","","","image-keyboard-response","33","295048","0.0-8.0","6402682f1a17d6c87f4f3a89","665500ab8938657b03fbdba8","6657925993aac0c4805dc949","1134","stimuli/21001012.jpg"," ","","feedback_trial","2","","","","","","","","","","","","","","","","","","","","",""
"","","","","","image-keyboard-response","34","296064","0.0-9.0","6402682f1a17d6c87f4f3a89","665500ab8938657b03fbdba8","6657925993aac0c4805dc949","1015","stimuli/2010001.jpg","2","","prediction_trial","2","","true","","2","false","true","true","true","false","true","[2]","010","001","1","","","","","","",""
"","","","","","image-keyboard-response","35","296728","0.0-10.0","6402682f1a17d6c87f4f3a89","665500ab8938657b03fbdba8","6657925993aac0c4805dc949","664","stimuli/20100012.jpg"," ","","feedback_trial","2","","","","","","","","","","","","","","","","","","","","",""
"","","","","","image-keyboard-response","36","297907","0.0-11.0","6402682f1a17d6c87f4f3a89","665500ab8938657b03fbdba8","6657925993aac0c4805dc949","1179","stimuli/2010101.jpg","0","","prediction_trial","2","","false","","2","false","false","true","true","false","false","[2]","010","101","0","","","","","","",""
"","","","","","image-keyboard-response","37","299001","0.0-12.0","6402682f1a17d6c87f4f3a89","665500ab8938657b03fbdba8","6657925993aac0c4805dc949","1093","stimuli/20101012.jpg"," ","","feedback_trial","2","","","","","","","","","","","","","","","","","","","","",""
"","","","","","image-keyboard-response","38","300657","0.0-13.0","6402682f1a17d6c87f4f3a89","665500ab8938657b03fbdba8","6657925993aac0c4805dc949","1655","stimuli/1101111.jpg","0","","prediction_trial","1","","false","","1","false","false","true","true","false","false","[1]","101","111","0","","","","","","",""
"","","","","","image-keyboard-response","39","301730","0.0-14.0","6402682f1a17d6c87f4f3a89","665500ab8938657b03fbdba8","6657925993aac0c4805dc949","1072","stimuli/11011111.jpg"," ","","feedback_trial","1","","","","","","","","","","","","","","","","","","","","",""
"","","","","","image-keyboard-response","40","302576","0.0-15.0","6402682f1a17d6c87f4f3a89","665500ab8938657b03fbdba8","6657925993aac0c4805dc949","845","stimuli/2001000.jpg","2","","prediction_trial","2","","true","","2","true","true","false","true","false","true","[2]","001","000","1","","","","","","",""
"","","","","","image-keyboard-response","41","304480","0.0-16.0","6402682f1a17d6c87f4f3a89","665500ab8938657b03fbdba8","6657925993aac0c4805dc949","1904","stimuli/20010002.jpg"," ","","feedback_trial","2","","","","","","","","","","","","","","","","","","","","",""
"","","","","","image-keyboard-response","42","307464","0.0-17.0","6402682f1a17d6c87f4f3a89","665500ab8938657b03fbdba8","6657925993aac0c4805dc949","2984","stimuli/2000011.jpg","1","","prediction_trial","2","","false","","2","false","false","true","true","false","false","[2]","000","011","0","","","","","","",""
"","","","","","image-keyboard-response","43","308512","0.0-18.0","6402682f1a17d6c87f4f3a89","665500ab8938657b03fbdba8","6657925993aac0c4805dc949","1047","stimuli/20000112.jpg"," ","","feedback_trial","2","","","","","","","","","","","","","","","","","","","","",""
"","","","","","image-keyboard-response","44","309840","0.0-19.0","6402682f1a17d6c87f4f3a89","665500ab8938657b03fbdba8","6657925993aac0c4805dc949","1327","stimuli/2010111.jpg","1","","prediction_trial","2","","false","","2","false","false","true","true","false","false","[2]","010","111","0","","","","","","",""
"","","","","","image-keyboard-response","45","310560","0.0-20.0","6402682f1a17d6c87f4f3a89","665500ab8938657b03fbdba8","6657925993aac0c4805dc949","720","stimuli/20101112.jpg"," ","","feedback_trial","2","","","","","","","","","","","","","","","","","","","","",""
"","","","","","image-keyboard-response","46","311536","0.0-21.0","6402682f1a17d6c87f4f3a89","665500ab8938657b03fbdba8","6657925993aac0c4805dc949","976","stimuli/2010000.jpg","2","","prediction_trial","2","","true","","2","true","true","true","true","true","true","[2]","010","000","1","","","","","","",""
"","","","","","image-keyboard-response","47","313146","0.0-22.0","6402682f1a17d6c87f4f3a89","665500ab8938657b03fbdba8","6657925993aac0c4805dc949","1608","stimuli/20100002.jpg"," ","","feedback_trial","2","","","","","","","","","","","","","","","","","","","","",""
"","","","","","image-keyboard-response","48","313769","0.0-23.0","6402682f1a17d6c87f4f3a89","665500ab8938657b03fbdba8","6657925993aac0c4805dc949","623","stimuli/2001010.jpg","2","","prediction_trial","2","","true","","2","true","true","false","true","false","true","[2]","001","010","1","","","","","","",""
"","","","","","image-keyboard-response","49","314568","0.0-24.0","6402682f1a17d6c87f4f3a89","665500ab8938657b03fbdba8","6657925993aac0c4805dc949","798","stimuli/20010102.jpg"," ","","feedback_trial","2","","","","","","","","","","","","","","","","","","","","",""
"","","","","","image-keyboard-response","50","316288","0.0-25.0","6402682f1a17d6c87f4f3a89","665500ab8938657b03fbdba8","6657925993aac0c4805dc949","1720","stimuli/2100011.jpg","1","","prediction_trial","2","","false","","2","false","false","true","true","false","false","[2]","100","011","0","","","","","","",""
"","","","","","image-keyboard-response","51","317208","0.0-26.0","6402682f1a17d6c87f4f3a89","665500ab8938657b03fbdba8","6657925993aac0c4805dc949","919","stimuli/21000112.jpg"," ","","feedback_trial","2","","","","","","","","","","","","","","","","","","","","",""
"","","","","","image-keyboard-response","52","318152","0.0-27.0","6402682f1a17d6c87f4f3a89","665500ab8938657b03fbdba8","6657925993aac0c4805dc949","944","stimuli/2111000.jpg","2","","prediction_trial","2","","true","","2","true","true","false","false","false","false","[2,0,1]","111","000","1","","","","","","",""
"","","","","","image-keyboard-response","53","320137","0.0-28.0","6402682f1a17d6c87f4f3a89","665500ab8938657b03fbdba8","6657925993aac0c4805dc949","1985","stimuli/21110002.jpg"," ","","feedback_trial","2","","","","","","","","","","","","","","","","","","","","",""
"","","","","","image-keyboard-response","54","321234","0.0-29.0","6402682f1a17d6c87f4f3a89","665500ab8938657b03fbdba8","6657925993aac0c4805dc949","1095","stimuli/1100111.jpg","1","","prediction_trial","1","","true","","1","false","false","true","true","false","false","[1]","100","111","1","","","","","","",""
"","","","","","image-keyboard-response","55","322232","0.0-30.0","6402682f1a17d6c87f4f3a89","665500ab8938657b03fbdba8","6657925993aac0c4805dc949","997","stimuli/11001111.jpg"," ","","feedback_trial","1","","","","","","","","","","","","","","","","","","","","",""
"","","","","","image-keyboard-response","56","322946","0.0-31.0","6402682f1a17d6c87f4f3a89","665500ab8938657b03fbdba8","6657925993aac0c4805dc949","713","stimuli/1000101.jpg","1","","prediction_trial","1","","true","","1","true","true","true","true","true","true","[1]","000","101","1","","","","","","",""
"","","","","","image-keyboard-response","57","323488","0.0-32.0","6402682f1a17d6c87f4f3a89","665500ab8938657b03fbdba8","6657925993aac0c4805dc949","542","stimuli/10001011.jpg"," ","","feedback_trial","1","","","","","","","","","","","","","","","","","","","","",""
"","","","","","image-keyboard-response","58","325080","0.0-33.0","6402682f1a17d6c87f4f3a89","665500ab8938657b03fbdba8","6657925993aac0c4805dc949","1591","stimuli/1001101.jpg","1","","prediction_trial","1","","true","","1","true","true","true","true","true","true","[1]","001","101","1","","","","","","",""
"","","","","","image-keyboard-response","59","325648","0.0-34.0","6402682f1a17d6c87f4f3a89","665500ab8938657b03fbdba8","6657925993aac0c4805dc949","567","stimuli/10011011.jpg"," ","","feedback_trial","1","","","","","","","","","","","","","","","","","","","","",""
"","","","","","image-keyboard-response","60","326320","0.0-35.0","6402682f1a17d6c87f4f3a89","665500ab8938657b03fbdba8","6657925993aac0c4805dc949","671","stimuli/0001000.jpg","0","","prediction_trial","0","","true","","0","true","true","true","true","true","true","[0]","001","000","1","","","","","","",""
"","","","","","image-keyboard-response","61","326841","0.0-36.0","6402682f1a17d6c87f4f3a89","665500ab8938657b03fbdba8","6657925993aac0c4805dc949","521","stimuli/00010000.jpg"," ","","feedback_trial","0","","","","","","","","","","","","","","","","","","","","",""
"","","","","","image-keyboard-response","62","329088","0.0-37.0","6402682f1a17d6c87f4f3a89","665500ab8938657b03fbdba8","6657925993aac0c4805dc949","2246","stimuli/2100111.jpg","2","","prediction_trial","2","","true","","2","false","false","true","true","false","false","[2]","100","111","1","","","","","","",""
"","","","","","image-keyboard-response","63","330033","0.0-38.0","6402682f1a17d6c87f4f3a89","665500ab8938657b03fbdba8","6657925993aac0c4805dc949","944","stimuli/21001112.jpg"," ","","feedback_trial","2","","","","","","","","","","","","","","","","","","","","",""
"","","","","","image-keyboard-response","64","331458","0.0-39.0","6402682f1a17d6c87f4f3a89","665500ab8938657b03fbdba8","6657925993aac0c4805dc949","1423","stimuli/1101110.jpg","0","","prediction_trial","1","","false","","1","false","false","true","true","false","false","[1]","101","110","0","","","","","","",""
"","","","","","image-keyboard-response","65","332360","0.0-40.0","6402682f1a17d6c87f4f3a89","665500ab8938657b03fbdba8","6657925993aac0c4805dc949","901","stimuli/11011101.jpg"," ","","feedback_trial","1","","","","","","","","","","","","","","","","","","","","",""
"","","","","","image-keyboard-response","66","333481","0.0-41.0","6402682f1a17d6c87f4f3a89","665500ab8938657b03fbdba8","6657925993aac0c4805dc949","1120","stimuli/0010100.jpg","0","","prediction_trial","0","","true","","0","false","true","true","true","false","true","[0]","010","100","1","","","","","","",""
"","","","","","image-keyboard-response","67","334593","0.0-42.0","6402682f1a17d6c87f4f3a89","665500ab8938657b03fbdba8","6657925993aac0c4805dc949","1111","stimuli/00101000.jpg"," ","","feedback_trial","0","","","","","","","","","","","","","","","","","","","","",""
"","","","","","image-keyboard-response","68","336018","0.0-43.0","6402682f1a17d6c87f4f3a89","665500ab8938657b03fbdba8","6657925993aac0c4805dc949","1425","stimuli/2001111.jpg","1","","prediction_trial","2","","false","","2","false","false","false","true","false","false","[2]","001","111","0","","","","","","",""
"","","","","","image-keyboard-response","69","336936","0.0-44.0","6402682f1a17d6c87f4f3a89","665500ab8938657b03fbdba8","6657925993aac0c4805dc949","917","stimuli/20011112.jpg"," ","","feedback_trial","2","","","","","","","","","","","","","","","","","","","","",""
"","","","","","image-keyboard-response","70","338056","0.0-45.0","6402682f1a17d6c87f4f3a89","665500ab8938657b03fbdba8","6657925993aac0c4805dc949","1120","stimuli/1100010.jpg","1","","prediction_trial","1","","true","","1","false","true","true","true","false","true","[1]","100","010","1","","","","","","",""
"","","","","","image-keyboard-response","71","338439","0.0-46.0","6402682f1a17d6c87f4f3a89","665500ab8938657b03fbdba8","6657925993aac0c4805dc949","382","stimuli/11000101.jpg"," ","","feedback_trial","1","","","","","","","","","","","","","","","","","","","","",""
"","","","","","image-keyboard-response","72","339327","0.0-47.0","6402682f1a17d6c87f4f3a89","665500ab8938657b03fbdba8","6657925993aac0c4805dc949","887","stimuli/2111111.jpg","1","","prediction_trial","2","","false","","2","false","false","false","false","false","false","[1,2,0]","111","111","0","","","","","","",""
"","","","","","image-keyboard-response","73","340199","0.0-48.0","6402682f1a17d6c87f4f3a89","665500ab8938657b03fbdba8","6657925993aac0c4805dc949","872","stimuli/21111112.jpg"," ","","feedback_trial","1","","","","","","","","","","","","","","","","","","","","",""
"","","","","","image-keyboard-response","74","341431","0.0-49.0","6402682f1a17d6c87f4f3a89","665500ab8938657b03fbdba8","6657925993aac0c4805dc949","1232","stimuli/0110101.jpg","2","","prediction_trial","1","","false","","0","false","false","false","false","false","false","[0,1]","110","101","0","","","","","","",""
"","","","","","image-keyboard-response","75","345199","0.0-50.0","6402682f1a17d6c87f4f3a89","665500ab8938657b03fbdba8","6657925993aac0c4805dc949","3768","stimuli/01101011.jpg"," ","","feedback_trial","0","","","","","","","","","","","","","","","","","","","","",""
"","","","","","image-keyboard-response","76","345991","0.0-51.0","6402682f1a17d6c87f4f3a89","665500ab8938657b03fbdba8","6657925993aac0c4805dc949","791","stimuli/0111111.jpg","2","","prediction_trial","2","","true","","0","false","false","false","false","false","false","[0,1,2]","111","111","1","","","","","","",""
"","","","","","image-keyboard-response","77","346761","0.0-52.0","6402682f1a17d6c87f4f3a89","665500ab8938657b03fbdba8","6657925993aac0c4805dc949","769","stimuli/01111112.jpg"," ","","feedback_trial","0","","","","","","","","","","","","","","","","","","","","",""
"","","","","","image-keyboard-response","78","348809","0.0-53.0","6402682f1a17d6c87f4f3a89","665500ab8938657b03fbdba8","6657925993aac0c4805dc949","2046","stimuli/1110111.jpg","0","","prediction_trial","1","","false","","1","false","false","false","false","false","false","[1,0]","110","111","0","","","","","","",""
"","","","","","image-keyboard-response","79","349576","0.0-54.0","6402682f1a17d6c87f4f3a89","665500ab8938657b03fbdba8","6657925993aac0c4805dc949","766","stimuli/11101111.jpg"," ","","feedback_trial","1","","","","","","","","","","","","","","","","","","","","",""
"","","","","","image-keyboard-response","80","350552","0.0-55.0","6402682f1a17d6c87f4f3a89","665500ab8938657b03fbdba8","6657925993aac0c4805dc949","976","stimuli/1100001.jpg","1","","prediction_trial","1","","true","","1","true","true","true","true","true","true","[1]","100","001","1","","","","","","",""
"","","","","","image-keyboard-response","81","351129","0.0-56.0","6402682f1a17d6c87f4f3a89","665500ab8938657b03fbdba8","6657925993aac0c4805dc949","576","stimuli/11000011.jpg"," ","","feedback_trial","1","","","","","","","","","","","","","","","","","","","","",""
"","","","","","image-keyboard-response","82","351873","0.0-57.0","6402682f1a17d6c87f4f3a89","665500ab8938657b03fbdba8","6657925993aac0c4805dc949","743","stimuli/2011100.jpg","2","","prediction_trial","1","","false","","2","true","true","false","false","false","false","[2,1]","011","100","0","","","","","","",""
"","","","","","image-keyboard-response","83","355543","0.0-58.0","6402682f1a17d6c87f4f3a89","665500ab8938657b03fbdba8","6657925993aac0c4805dc949","3669","stimuli/20111001.jpg"," ","","feedback_trial","2","","","","","","","","","","","","","","","","","","","","",""
"","","","","","image-keyboard-response","84","356377","0.0-59.0","6402682f1a17d6c87f4f3a89","665500ab8938657b03fbdba8","6657925993aac0c4805dc949","833","stimuli/0100000.jpg","0","","prediction_trial","0","","true","","0","true","true","false","true","false","true","[0]","100","000","1","","","","","","",""
"","","","","","image-keyboard-response","85","357617","0.0-60.0","6402682f1a17d6c87f4f3a89","665500ab8938657b03fbdba8","6657925993aac0c4805dc949","1238","stimuli/01000000.jpg"," ","","feedback_trial","0","","","","","","","","","","","","","","","","","","","","",""
"","","","","","image-keyboard-response","86","358569","0.0-61.0","6402682f1a17d6c87f4f3a89","665500ab8938657b03fbdba8","6657925993aac0c4805dc949","951","stimuli/1110000.jpg","1","","prediction_trial","0","","false","","1","true","true","false","false","false","false","[1,0]","110","000","0","","","","","","",""
"","","","","","image-keyboard-response","87","361583","0.0-62.0","6402682f1a17d6c87f4f3a89","665500ab8938657b03fbdba8","6657925993aac0c4805dc949","3014","stimuli/11100000.jpg"," ","","feedback_trial","1","","","","","","","","","","","","","","","","","","","","",""
"","","","","","image-keyboard-response","88","362384","0.0-63.0","6402682f1a17d6c87f4f3a89","665500ab8938657b03fbdba8","6657925993aac0c4805dc949","801","stimuli/2011000.jpg","2","","prediction_trial","2","","true","","2","true","true","false","false","false","false","[1,2]","011","000","1","","","","","","",""
"","","","","","image-keyboard-response","89","363009","0.0-64.0","6402682f1a17d6c87f4f3a89","665500ab8938657b03fbdba8","6657925993aac0c4805dc949","623","stimuli/20110002.jpg"," ","","feedback_trial","1","","","","","","","","","","","","","","","","","","","","",""
"","","","","","image-keyboard-response","90","363833","0.0-65.0","6402682f1a17d6c87f4f3a89","665500ab8938657b03fbdba8","6657925993aac0c4805dc949","823","stimuli/1010100.jpg","1","","prediction_trial","1","","true","","1","true","true","false","true","false","true","[1]","010","100","1","","","","","","",""
"","","","","","image-keyboard-response","91","364784","0.0-66.0","6402682f1a17d6c87f4f3a89","665500ab8938657b03fbdba8","6657925993aac0c4805dc949","950","stimuli/10101001.jpg"," ","","feedback_trial","1","","","","","","","","","","","","","","","","","","","","",""
"","","","","","image-keyboard-response","92","365599","0.0-67.0","6402682f1a17d6c87f4f3a89","665500ab8938657b03fbdba8","6657925993aac0c4805dc949","815","stimuli/1101001.jpg","1","","prediction_trial","1","","true","","1","true","true","true","true","true","true","[1]","101","001","1","","","","","","",""
"","","","","","image-keyboard-response","93","366439","0.0-68.0","6402682f1a17d6c87f4f3a89","665500ab8938657b03fbdba8","6657925993aac0c4805dc949","839","stimuli/11010011.jpg"," ","","feedback_trial","1","","","","","","","","","","","","","","","","","","","","",""
"","","","","","image-keyboard-response","94","367935","0.0-69.0","6402682f1a17d6c87f4f3a89","665500ab8938657b03fbdba8","6657925993aac0c4805dc949","1495","stimuli/1000011.jpg","2","","prediction_trial","1","","false","","1","false","false","true","true","false","false","[1]","000","011","0","","","","","","",""
"","","","","","image-keyboard-response","95","369552","0.0-70.0","6402682f1a17d6c87f4f3a89","665500ab8938657b03fbdba8","6657925993aac0c4805dc949","1616","stimuli/10000111.jpg"," ","","feedback_trial","1","","","","","","","","","","","","","","","","","","","","",""
"","","","","","image-keyboard-response","96","370288","0.0-71.0","6402682f1a17d6c87f4f3a89","665500ab8938657b03fbdba8","6657925993aac0c4805dc949","736","stimuli/0011000.jpg","0","","prediction_trial","0","","true","","0","true","true","true","true","true","true","[0]","011","000","1","","","","","","",""
"","","","","","image-keyboard-response","97","371033","0.0-72.0","6402682f1a17d6c87f4f3a89","665500ab8938657b03fbdba8","6657925993aac0c4805dc949","743","stimuli/00110000.jpg"," ","","feedback_trial","0","","","","","","","","","","","","","","","","","","","","",""
"","","","","","image-keyboard-response","98","372313","0.0-73.0","6402682f1a17d6c87f4f3a89","665500ab8938657b03fbdba8","6657925993aac0c4805dc949","1278","stimuli/1011010.jpg","1","","prediction_trial","2","","false","","1","false","true","false","false","false","false","[2,1]","011","010","0","","","","","","",""
"","","","","","image-keyboard-response","99","373529","0.0-74.0","6402682f1a17d6c87f4f3a89","665500ab8938657b03fbdba8","6657925993aac0c4805dc949","1215","stimuli/10110102.jpg"," ","","feedback_trial","2","","","","","","","","","","","","","","","","","","","","",""
"","","","","","image-keyboard-response","100","374207","0.0-75.0","6402682f1a17d6c87f4f3a89","665500ab8938657b03fbdba8","6657925993aac0c4805dc949","677","stimuli/2000110.jpg","2","","prediction_trial","2","","true","","2","true","true","true","true","true","true","[2]","000","110","1","","","","","","",""
"","","","","","image-keyboard-response","101","374735","0.0-76.0","6402682f1a17d6c87f4f3a89","665500ab8938657b03fbdba8","6657925993aac0c4805dc949","528","stimuli/20001102.jpg"," ","","feedback_trial","2","","","","","","","","","","","","","","","","","","","","",""
"","","","","","image-keyboard-response","102","375481","0.0-77.0","6402682f1a17d6c87f4f3a89","665500ab8938657b03fbdba8","6657925993aac0c4805dc949","745","stimuli/1000000.jpg","1","","prediction_trial","1","","true","","1","true","true","true","true","true","true","[1]","000","000","1","","","","","","",""
"","","","","","image-keyboard-response","103","376016","0.0-78.0","6402682f1a17d6c87f4f3a89","665500ab8938657b03fbdba8","6657925993aac0c4805dc949","534","stimuli/10000001.jpg"," ","","feedback_trial","1","","","","","","","","","","","","","","","","","","","","",""
"","","","","","image-keyboard-response","104","377551","0.0-79.0","6402682f1a17d6c87f4f3a89","665500ab8938657b03fbdba8","6657925993aac0c4805dc949","1535","stimuli/0100110.jpg","1","","prediction_trial","0","","false","","0","false","false","false","true","false","false","[0]","100","110","0","","","","","","",""
"","","","","","image-keyboard-response","105","378610","0.0-80.0","6402682f1a17d6c87f4f3a89","665500ab8938657b03fbdba8","6657925993aac0c4805dc949","1057","stimuli/01001100.jpg"," ","","feedback_trial","0","","","","","","","","","","","","","","","","","","","","",""
"","","","","","image-keyboard-response","106","379416","0.0-81.0","6402682f1a17d6c87f4f3a89","665500ab8938657b03fbdba8","6657925993aac0c4805dc949","806","stimuli/0101001.jpg","0","","prediction_trial","2","","false","","0","true","true","false","false","false","false","[0,2]","101","001","0","","","","","","",""
"","","","","","image-keyboard-response","107","380648","0.0-82.0","6402682f1a17d6c87f4f3a89","665500ab8938657b03fbdba8","6657925993aac0c4805dc949","1230","stimuli/01010012.jpg"," ","","feedback_trial","0","","","","","","","","","","","","","","","","","","","","",""
"","","","","","image-keyboard-response","108","381767","0.0-83.0","6402682f1a17d6c87f4f3a89","665500ab8938657b03fbdba8","6657925993aac0c4805dc949","1119","stimuli/1101100.jpg","1","","prediction_trial","1","","true","","1","true","true","true","true","true","true","[1]","101","100","1","","","","","","",""
"","","","","","image-keyboard-response","109","382536","0.0-84.0","6402682f1a17d6c87f4f3a89","665500ab8938657b03fbdba8","6657925993aac0c4805dc949","768","stimuli/11011001.jpg"," ","","feedback_trial","1","","","","","","","","","","","","","","","","","","","","",""
"","","","","","image-keyboard-response","110","383497","0.0-85.0","6402682f1a17d6c87f4f3a89","665500ab8938657b03fbdba8","6657925993aac0c4805dc949","960","stimuli/0011101.jpg","0","","prediction_trial","0","","true","","0","false","false","true","true","false","false","[0]","011","101","1","","","","","","",""
"","","","","","image-keyboard-response","111","384615","0.0-86.0","6402682f1a17d6c87f4f3a89","665500ab8938657b03fbdba8","6657925993aac0c4805dc949","1117","stimuli/00111010.jpg"," ","","feedback_trial","0","","","","","","","","","","","","","","","","","","","","",""
"","","","","","image-keyboard-response","112","385327","0.0-87.0","6402682f1a17d6c87f4f3a89","665500ab8938657b03fbdba8","6657925993aac0c4805dc949","711","stimuli/2001110.jpg","2","","prediction_trial","2","","true","","2","true","true","false","true","false","true","[2]","001","110","1","","","","","","",""
"","","","","","image-keyboard-response","113","386151","0.0-88.0","6402682f1a17d6c87f4f3a89","665500ab8938657b03fbdba8","6657925993aac0c4805dc949","823","stimuli/20011102.jpg"," ","","feedback_trial","2","","","","","","","","","","","","","","","","","","","","",""
"","","","","","image-keyboard-response","114","387753","0.0-89.0","6402682f1a17d6c87f4f3a89","665500ab8938657b03fbdba8","6657925993aac0c4805dc949","1601","stimuli/1110011.jpg","2","","prediction_trial","1","","false","","1","false","false","false","false","false","false","[1,0]","110","011","0","","","","","","",""
"","","","","","image-keyboard-response","115","388591","0.0-90.0","6402682f1a17d6c87f4f3a89","665500ab8938657b03fbdba8","6657925993aac0c4805dc949","837","stimuli/11100111.jpg"," ","","feedback_trial","1","","","","","","","","","","","","","","","","","","","","",""
"","","","","","image-keyboard-response","116","389457","0.0-91.0","6402682f1a17d6c87f4f3a89","665500ab8938657b03fbdba8","6657925993aac0c4805dc949","865","stimuli/2101101.jpg","2","","prediction_trial","2","","true","","2","false","false","false","false","false","false","[0,2]","101","101","1","","","","","","",""
"","","","","","image-keyboard-response","117","390257","0.0-92.0","6402682f1a17d6c87f4f3a89","665500ab8938657b03fbdba8","6657925993aac0c4805dc949","798","stimuli/21011012.jpg"," ","","feedback_trial","0","","","","","","","","","","","","","","","","","","","","",""
"","","","","","image-keyboard-response","118","390919","0.0-93.0","6402682f1a17d6c87f4f3a89","665500ab8938657b03fbdba8","6657925993aac0c4805dc949","662","stimuli/2001100.jpg","2","","prediction_trial","2","","true","","2","true","true","false","true","false","true","[2]","001","100","1","","","","","","",""
"","","","","","image-keyboard-response","119","391567","0.0-94.0","6402682f1a17d6c87f4f3a89","665500ab8938657b03fbdba8","6657925993aac0c4805dc949","648","stimuli/20011002.jpg"," ","","feedback_trial","2","","","","","","","","","","","","","","","","","","","","",""
"","","","","","image-keyboard-response","120","392359","0.0-95.0","6402682f1a17d6c87f4f3a89","665500ab8938657b03fbdba8","6657925993aac0c4805dc949","791","stimuli/1000100.jpg","1","","prediction_trial","1","","true","","1","true","true","true","true","true","true","[1]","000","100","1","","","","","","",""
"","","","","","image-keyboard-response","121","392881","0.0-96.0","6402682f1a17d6c87f4f3a89","665500ab8938657b03fbdba8","6657925993aac0c4805dc949","521","stimuli/10001001.jpg"," ","","feedback_trial","1","","","","","","","","","","","","","","","","","","","","",""
"","","","","","image-keyboard-response","122","394193","0.0-97.0","6402682f1a17d6c87f4f3a89","665500ab8938657b03fbdba8","6657925993aac0c4805dc949","1311","stimuli/0001101.jpg","0","","prediction_trial","0","","true","","0","false","false","true","true","false","false","[0]","001","101","1","","","","","","",""
"","","","","","image-keyboard-response","123","395063","0.0-98.0","6402682f1a17d6c87f4f3a89","665500ab8938657b03fbdba8","6657925993aac0c4805dc949","869","stimuli/00011010.jpg"," ","","feedback_trial","0","","","","","","","","","","","","","","","","","","","","",""
"","","","","","image-keyboard-response","124","395807","0.0-99.0","6402682f1a17d6c87f4f3a89","665500ab8938657b03fbdba8","6657925993aac0c4805dc949","743","stimuli/0011010.jpg","0","","prediction_trial","0","","true","","0","true","true","true","true","true","true","[0]","011","010","1","","","","","","",""
"","","","","","image-keyboard-response","125","396408","0.0-100.0","6402682f1a17d6c87f4f3a89","665500ab8938657b03fbdba8","6657925993aac0c4805dc949","600","stimuli/00110100.jpg"," ","","feedback_trial","0","","","","","","","","","","","","","","","","","","","","",""
"","","","","","image-keyboard-response","126","398359","0.0-101.0","6402682f1a17d6c87f4f3a89","665500ab8938657b03fbdba8","6657925993aac0c4805dc949","1951","stimuli/2111011.jpg","2","","prediction_trial","2","","true","","2","false","false","false","false","false","false","[2,0,1]","111","011","1","","","","","","",""
"","","","","","image-keyboard-response","127","399144","0.0-102.0","6402682f1a17d6c87f4f3a89","665500ab8938657b03fbdba8","6657925993aac0c4805dc949","785","stimuli/21110112.jpg"," ","","feedback_trial","2","","","","","","","","","","","","","","","","","","","","",""
"","","","","","image-keyboard-response","128","400415","0.0-103.0","6402682f1a17d6c87f4f3a89","665500ab8938657b03fbdba8","6657925993aac0c4805dc949","1270","stimuli/0001111.jpg","2","","prediction_trial","0","","false","","0","false","false","true","true","false","false","[0]","001","111","0","","","","","","",""
"","","","","","image-keyboard-response","129","401103","0.0-104.0","6402682f1a17d6c87f4f3a89","665500ab8938657b03fbdba8","6657925993aac0c4805dc949","687","stimuli/00011110.jpg"," ","","feedback_trial","0","","","","","","","","","","","","","","","","","","","","",""
"","","","","","image-keyboard-response","130","402207","0.0-105.0","6402682f1a17d6c87f4f3a89","665500ab8938657b03fbdba8","6657925993aac0c4805dc949","1104","stimuli/0111110.jpg","0","","prediction_trial","1","","false","","0","false","false","false","false","false","false","[1,0,2]","111","110","0","","","","","","",""
"","","","","","image-keyboard-response","131","402896","0.0-106.0","6402682f1a17d6c87f4f3a89","665500ab8938657b03fbdba8","6657925993aac0c4805dc949","688","stimuli/01111101.jpg"," ","","feedback_trial","1","","","","","","","","","","","","","","","","","","","","",""
"","","","","","image-keyboard-response","132","403977","0.0-107.0","6402682f1a17d6c87f4f3a89","665500ab8938657b03fbdba8","6657925993aac0c4805dc949","1079","stimuli/2011101.jpg","2","","prediction_trial","1","","false","","2","false","false","false","false","false","false","[2,1]","011","101","0","","","","","","",""
"","","","","","image-keyboard-response","133","405057","0.0-108.0","6402682f1a17d6c87f4f3a89","665500ab8938657b03fbdba8","6657925993aac0c4805dc949","1079","stimuli/20111011.jpg"," ","","feedback_trial","2","","","","","","","","","","","","","","","","","","","","",""
"","","","","","image-keyboard-response","134","405911","0.0-109.0","6402682f1a17d6c87f4f3a89","665500ab8938657b03fbdba8","6657925993aac0c4805dc949","853","stimuli/1001001.jpg","1","","prediction_trial","1","","true","","1","true","true","true","true","true","true","[1]","001","001","1","","","","","","",""
"","","","","","image-keyboard-response","135","406384","0.0-110.0","6402682f1a17d6c87f4f3a89","665500ab8938657b03fbdba8","6657925993aac0c4805dc949","473","stimuli/10010011.jpg"," ","","feedback_trial","1","","","","","","","","","","","","","","","","","","","","",""
"","","","","","image-keyboard-response","136","407295","0.0-111.0","6402682f1a17d6c87f4f3a89","665500ab8938657b03fbdba8","6657925993aac0c4805dc949","910","stimuli/2010011.jpg","1","","prediction_trial","2","","false","","2","false","false","true","true","false","false","[2]","010","011","0","","","","","","",""
"","","","","","image-keyboard-response","137","408112","0.0-112.0","6402682f1a17d6c87f4f3a89","665500ab8938657b03fbdba8","6657925993aac0c4805dc949","816","stimuli/20100112.jpg"," ","","feedback_trial","2","","","","","","","","","","","","","","","","","","","","",""
"","","","","","image-keyboard-response","138","409080","0.0-113.0","6402682f1a17d6c87f4f3a89","665500ab8938657b03fbdba8","6657925993aac0c4805dc949","968","stimuli/1101011.jpg","1","","prediction_trial","1","","true","","1","false","false","true","true","false","false","[1]","101","011","1","","","","","","",""
"","","","","","image-keyboard-response","139","409722","0.0-114.0","6402682f1a17d6c87f4f3a89","665500ab8938657b03fbdba8","6657925993aac0c4805dc949","641","stimuli/11010111.jpg"," ","","feedback_trial","1","","","","","","","","","","","","","","","","","","","","",""
"","","","","","image-keyboard-response","140","410778","0.0-115.0","6402682f1a17d6c87f4f3a89","665500ab8938657b03fbdba8","6657925993aac0c4805dc949","1056","stimuli/1011110.jpg","0","","prediction_trial","2","","false","","1","false","false","false","false","false","false","[2,1]","011","110","0","","","","","","",""
"","","","","","image-keyboard-response","141","411618","0.0-116.0","6402682f1a17d6c87f4f3a89","665500ab8938657b03fbdba8","6657925993aac0c4805dc949","839","stimuli/10111102.jpg"," ","","feedback_trial","2","","","","","","","","","","","","","","","","","","","","",""
"","","","","","image-keyboard-response","142","412319","0.0-117.0","6402682f1a17d6c87f4f3a89","665500ab8938657b03fbdba8","6657925993aac0c4805dc949","701","stimuli/2001001.jpg","2","","prediction_trial","2","","true","","2","false","true","false","true","false","true","[2]","001","001","1","","","","","","",""
"","","","","","image-keyboard-response","143","412841","0.0-118.0","6402682f1a17d6c87f4f3a89","665500ab8938657b03fbdba8","6657925993aac0c4805dc949","521","stimuli/20010012.jpg"," ","","feedback_trial","2","","","","","","","","","","","","","","","","","","","","",""
"","","","","","image-keyboard-response","144","413656","0.0-119.0","6402682f1a17d6c87f4f3a89","665500ab8938657b03fbdba8","6657925993aac0c4805dc949","815","stimuli/0000000.jpg","0","","prediction_trial","0","","true","","0","true","true","true","true","true","true","[0]","000","000","1","","","","","","",""
"","","","","","image-keyboard-response","145","414175","0.0-120.0","6402682f1a17d6c87f4f3a89","665500ab8938657b03fbdba8","6657925993aac0c4805dc949","518","stimuli/00000000.jpg"," ","","feedback_trial","0","","","","","","","","","","","","","","","","","","","","",""
"","","","","","image-keyboard-response","146","415136","0.0-121.0","6402682f1a17d6c87f4f3a89","665500ab8938657b03fbdba8","6657925993aac0c4805dc949","960","stimuli/2011011.jpg","2","","prediction_trial","2","","true","","2","false","false","false","false","false","false","[2,1]","011","011","1","","","","","","",""
"","","","","","image-keyboard-response","147","416015","0.0-122.0","6402682f1a17d6c87f4f3a89","665500ab8938657b03fbdba8","6657925993aac0c4805dc949","879","stimuli/20110112.jpg"," ","","feedback_trial","2","","","","","","","","","","","","","","","","","","","","",""
"","","","","","image-keyboard-response","148","416872","0.0-123.0","6402682f1a17d6c87f4f3a89","665500ab8938657b03fbdba8","6657925993aac0c4805dc949","856","stimuli/0110011.jpg","0","","prediction_trial","0","","true","","0","true","true","false","false","false","false","[1,0]","110","011","1","","","","","","",""
"","","","","","image-keyboard-response","149","419240","0.0-124.0","6402682f1a17d6c87f4f3a89","665500ab8938657b03fbdba8","6657925993aac0c4805dc949","2368","stimuli/01100110.jpg"," ","","feedback_trial","1","","","","","","","","","","","","","","","","","","","","",""
"","","","","","image-keyboard-response","150","420400","0.0-125.0","6402682f1a17d6c87f4f3a89","665500ab8938657b03fbdba8","6657925993aac0c4805dc949","1159","stimuli/0101111.jpg","1","","prediction_trial","0","","false","","0","false","false","false","false","false","false","[0,2]","101","111","0","","","","","","",""
"","","","","","image-keyboard-response","151","425863","0.0-126.0","6402682f1a17d6c87f4f3a89","665500ab8938657b03fbdba8","6657925993aac0c4805dc949","5463","stimuli/01011110.jpg"," ","","feedback_trial","0","","","","","","","","","","","","","","","","","","","","",""
"","","","","","image-keyboard-response","152","426721","0.0-127.0","6402682f1a17d6c87f4f3a89","665500ab8938657b03fbdba8","6657925993aac0c4805dc949","857","stimuli/1101010.jpg","1","","prediction_trial","1","","true","","1","false","true","true","true","false","true","[1]","101","010","1","","","","","","",""
"","","","","","image-keyboard-response","153","427289","0.0-128.0","6402682f1a17d6c87f4f3a89","665500ab8938657b03fbdba8","6657925993aac0c4805dc949","566","stimuli/11010101.jpg"," ","","feedback_trial","1","","","","","","","","","","","","","","","","","","","","",""
"","","","","","image-keyboard-response","154","428239","0.0-129.0","6402682f1a17d6c87f4f3a89","665500ab8938657b03fbdba8","6657925993aac0c4805dc949","950","stimuli/0101011.jpg","0","","prediction_trial","0","","true","","0","true","true","false","false","false","false","[0,2]","101","011","1","","","","","","",""
"","","","","","image-keyboard-response","155","428727","0.0-130.0","6402682f1a17d6c87f4f3a89","665500ab8938657b03fbdba8","6657925993aac0c4805dc949","487","stimuli/01010110.jpg"," ","","feedback_trial","0","","","","","","","","","","","","","","","","","","","","",""
"","","","","","image-keyboard-response","156","429489","0.0-131.0","6402682f1a17d6c87f4f3a89","665500ab8938657b03fbdba8","6657925993aac0c4805dc949","762","stimuli/0010111.jpg","0","","prediction_trial","0","","true","","0","false","false","true","true","false","false","[0]","010","111","1","","","","","","",""
"","","","","","image-keyboard-response","157","430298","0.0-132.0","6402682f1a17d6c87f4f3a89","665500ab8938657b03fbdba8","6657925993aac0c4805dc949","808","stimuli/00101110.jpg"," ","","feedback_trial","0","","","","","","","","","","","","","","","","","","","","",""
"","","","","","image-keyboard-response","158","431079","0.0-133.0","6402682f1a17d6c87f4f3a89","665500ab8938657b03fbdba8","6657925993aac0c4805dc949","780","stimuli/2001101.jpg","2","","prediction_trial","2","","true","","2","false","false","false","true","false","false","[2]","001","101","1","","","","","","",""
"","","","","","image-keyboard-response","159","431880","0.0-134.0","6402682f1a17d6c87f4f3a89","665500ab8938657b03fbdba8","6657925993aac0c4805dc949","801","stimuli/20011012.jpg"," ","","feedback_trial","2","","","","","","","","","","","","","","","","","","","","",""
"","","","","","image-keyboard-response","160","432567","0.0-135.0","6402682f1a17d6c87f4f3a89","665500ab8938657b03fbdba8","6657925993aac0c4805dc949","686","stimuli/1111001.jpg","1","","prediction_trial","2","","false","","1","true","true","false","false","false","false","[2,0,1]","111","001","0","","","","","","",""
"","","","","","image-keyboard-response","161","433409","0.0-136.0","6402682f1a17d6c87f4f3a89","665500ab8938657b03fbdba8","6657925993aac0c4805dc949","841","stimuli/11110012.jpg"," ","","feedback_trial","2","","","","","","","","","","","","","","","","","","","","",""
"","","","","","image-keyboard-response","162","434553","0.0-137.0","6402682f1a17d6c87f4f3a89","665500ab8938657b03fbdba8","6657925993aac0c4805dc949","1143","stimuli/0000101.jpg","2","","prediction_trial","0","","false","","0","false","false","true","true","false","false","[0]","000","101","0","","","","","","",""
"","","","","","image-keyboard-response","163","435288","0.0-138.0","6402682f1a17d6c87f4f3a89","665500ab8938657b03fbdba8","6657925993aac0c4805dc949","734","stimuli/00001010.jpg"," ","","feedback_trial","0","","","","","","","","","","","","","","","","","","","","",""
"","","","","","image-keyboard-response","164","436057","0.0-139.0","6402682f1a17d6c87f4f3a89","665500ab8938657b03fbdba8","6657925993aac0c4805dc949","767","stimuli/0100101.jpg","2","","prediction_trial","0","","false","","0","false","false","false","true","false","false","[0]","100","101","0","","","","","","",""
"","","","","","image-keyboard-response","165","436672","0.0-140.0","6402682f1a17d6c87f4f3a89","665500ab8938657b03fbdba8","6657925993aac0c4805dc949","614","stimuli/01001010.jpg"," ","","feedback_trial","0","","","","","","","","","","","","","","","","","","","","",""
"","","","","","image-keyboard-response","166","437359","0.0-141.0","6402682f1a17d6c87f4f3a89","665500ab8938657b03fbdba8","6657925993aac0c4805dc949","686","stimuli/1011011.jpg","2","","prediction_trial","2","","true","","1","false","false","false","false","false","false","[2,1]","011","011","1","","","","","","",""
"","","","","","image-keyboard-response","167","438016","0.0-142.0","6402682f1a17d6c87f4f3a89","665500ab8938657b03fbdba8","6657925993aac0c4805dc949","656","stimuli/10110112.jpg"," ","","feedback_trial","2","","","","","","","","","","","","","","","","","","","","",""
"","","","","","image-keyboard-response","168","438681","0.0-143.0","6402682f1a17d6c87f4f3a89","665500ab8938657b03fbdba8","6657925993aac0c4805dc949","665","stimuli/1000001.jpg","1","","prediction_trial","1","","true","","1","true","true","true","true","true","true","[1]","000","001","1","","","","","","",""
"","","","","","image-keyboard-response","169","439151","0.0-144.0","6402682f1a17d6c87f4f3a89","665500ab8938657b03fbdba8","6657925993aac0c4805dc949","470","stimuli/10000011.jpg"," ","","feedback_trial","1","","","","","","","","","","","","","","","","","","","","",""
"","","","","","image-keyboard-response","170","439954","0.0-145.0","6402682f1a17d6c87f4f3a89","665500ab8938657b03fbdba8","6657925993aac0c4805dc949","802","stimuli/0000110.jpg","0","","prediction_trial","0","","true","","0","false","false","true","true","false","false","[0]","000","110","1","","","","","","",""
"","","","","","image-keyboard-response","171","440617","0.0-146.0","6402682f1a17d6c87f4f3a89","665500ab8938657b03fbdba8","6657925993aac0c4805dc949","662","stimuli/00001100.jpg"," ","","feedback_trial","0","","","","","","","","","","","","","","","","","","","","",""
"","","","","","image-keyboard-response","172","441697","0.0-147.0","6402682f1a17d6c87f4f3a89","665500ab8938657b03fbdba8","6657925993aac0c4805dc949","1079","stimuli/0100100.jpg","0","","prediction_trial","0","","true","","0","false","true","false","true","false","true","[0]","100","100","1","","","","","","",""
"","","","","","image-keyboard-response","173","442289","0.0-148.0","6402682f1a17d6c87f4f3a89","665500ab8938657b03fbdba8","6657925993aac0c4805dc949","591","stimuli/01001000.jpg"," ","","feedback_trial","0","","","","","","","","","","","","","","","","","","","","",""
"","","","","","image-keyboard-response","174","442977","0.0-149.0","6402682f1a17d6c87f4f3a89","665500ab8938657b03fbdba8","6657925993aac0c4805dc949","686","stimuli/2110111.jpg","1","","prediction_trial","2","","false","","2","false","false","true","true","false","false","[2]","110","111","0","","","","","","",""
"","","","","","image-keyboard-response","175","443551","0.0-150.0","6402682f1a17d6c87f4f3a89","665500ab8938657b03fbdba8","6657925993aac0c4805dc949","574","stimuli/21101112.jpg"," ","","feedback_trial","2","","","","","","","","","","","","","","","","","","","","",""
"","","","","","image-keyboard-response","176","444521","0.0-151.0","6402682f1a17d6c87f4f3a89","665500ab8938657b03fbdba8","6657925993aac0c4805dc949","969","stimuli/0010110.jpg","1","","prediction_trial","0","","false","","0","false","false","true","true","false","false","[0]","010","110","0","","","","","","",""
"","","","","","image-keyboard-response","177","445046","0.0-152.0","6402682f1a17d6c87f4f3a89","665500ab8938657b03fbdba8","6657925993aac0c4805dc949","523","stimuli/00101100.jpg"," ","","feedback_trial","0","","","","","","","","","","","","","","","","","","","","",""
"","","","","","image-keyboard-response","178","445847","0.0-153.0","6402682f1a17d6c87f4f3a89","665500ab8938657b03fbdba8","6657925993aac0c4805dc949","801","stimuli/0010001.jpg","0","","prediction_trial","0","","true","","0","true","true","true","true","true","true","[0]","010","001","1","","","","","","",""
"","","","","","image-keyboard-response","179","446288","0.0-154.0","6402682f1a17d6c87f4f3a89","665500ab8938657b03fbdba8","6657925993aac0c4805dc949","440","stimuli/00100010.jpg"," ","","feedback_trial","0","","","","","","","","","","","","","","","","","","","","",""
"","","","","","image-keyboard-response","180","446943","0.0-155.0","6402682f1a17d6c87f4f3a89","665500ab8938657b03fbdba8","6657925993aac0c4805dc949","655","stimuli/1111100.jpg","1","","prediction_trial","2","","false","","1","true","true","false","false","false","false","[0,2,1]","111","100","0","","","","","","",""
"","","","","","image-keyboard-response","181","447761","0.0-156.0","6402682f1a17d6c87f4f3a89","665500ab8938657b03fbdba8","6657925993aac0c4805dc949","817","stimuli/11111002.jpg"," ","","feedback_trial","0","","","","","","","","","","","","","","","","","","","","",""
"","","","","","image-keyboard-response","182","448407","0.0-157.0","6402682f1a17d6c87f4f3a89","665500ab8938657b03fbdba8","6657925993aac0c4805dc949","646","stimuli/2010100.jpg","2","","prediction_trial","2","","true","","2","true","true","true","true","true","true","[2]","010","100","1","","","","","","",""
"","","","","","image-keyboard-response","183","448879","0.0-158.0","6402682f1a17d6c87f4f3a89","665500ab8938657b03fbdba8","6657925993aac0c4805dc949","471","stimuli/20101002.jpg"," ","","feedback_trial","2","","","","","","","","","","","","","","","","","","","","",""
"","","","","","image-keyboard-response","184","449512","0.0-159.0","6402682f1a17d6c87f4f3a89","665500ab8938657b03fbdba8","6657925993aac0c4805dc949","633","stimuli/1110101.jpg","1","","prediction_trial","0","","false","","1","true","true","false","false","false","false","[1,0]","110","101","0","","","","","","",""
"","","","","","image-keyboard-response","185","450081","0.0-160.0","6402682f1a17d6c87f4f3a89","665500ab8938657b03fbdba8","6657925993aac0c4805dc949","567","stimuli/11101010.jpg"," ","","feedback_trial","1","","","","","","","","","","","","","","","","","","","","",""
"","","","","","image-keyboard-response","186","450529","0.0-161.0","6402682f1a17d6c87f4f3a89","665500ab8938657b03fbdba8","6657925993aac0c4805dc949","448","stimuli/1101101.jpg","1","","prediction_trial","1","","true","","1","true","true","true","true","true","true","[1]","101","101","1","","","","","","",""
"","","","","","image-keyboard-response","187","451473","0.0-162.0","6402682f1a17d6c87f4f3a89","665500ab8938657b03fbdba8","6657925993aac0c4805dc949","943","stimuli/11011011.jpg"," ","","feedback_trial","1","","","","","","","","","","","","","","","","","","","","",""
"","","","","","image-keyboard-response","188","452242","0.0-163.0","6402682f1a17d6c87f4f3a89","665500ab8938657b03fbdba8","6657925993aac0c4805dc949","768","stimuli/0000100.jpg","0","","prediction_trial","0","","true","","0","false","true","true","true","false","true","[0]","000","100","1","","","","","","",""
"","","","","","image-keyboard-response","189","452857","0.0-164.0","6402682f1a17d6c87f4f3a89","665500ab8938657b03fbdba8","6657925993aac0c4805dc949","613","stimuli/00001000.jpg"," ","","feedback_trial","0","","","","","","","","","","","","","","","","","","","","",""
"","","","","","image-keyboard-response","190","453562","0.0-165.0","6402682f1a17d6c87f4f3a89","665500ab8938657b03fbdba8","6657925993aac0c4805dc949","704","stimuli/2111110.jpg","2","","prediction_trial","1","","false","","2","true","true","false","false","false","false","[1,0,2]","111","110","0","","","","","","",""
"","","","","","image-keyboard-response","191","454527","0.0-166.0","6402682f1a17d6c87f4f3a89","665500ab8938657b03fbdba8","6657925993aac0c4805dc949","964","stimuli/21111101.jpg"," ","","feedback_trial","1","","","","","","","","","","","","","","","","","","","","",""
"","","","","","image-keyboard-response","192","458081","0.0-167.0","6402682f1a17d6c87f4f3a89","665500ab8938657b03fbdba8","6657925993aac0c4805dc949","3553","stimuli/1111101.jpg","1","","prediction_trial","2","","false","","1","true","true","false","false","false","false","[0,1,2]","111","101","0","","","","","","",""
"","","","","","image-keyboard-response","193","460136","0.0-168.0","6402682f1a17d6c87f4f3a89","665500ab8938657b03fbdba8","6657925993aac0c4805dc949","2054","stimuli/11111012.jpg"," ","","feedback_trial","0","","","","","","","","","","","","","","","","","","","","",""
"","","","","","image-keyboard-response","194","460895","0.0-169.0","6402682f1a17d6c87f4f3a89","665500ab8938657b03fbdba8","6657925993aac0c4805dc949","759","stimuli/2101010.jpg","2","","prediction_trial","2","","true","","2","true","true","false","false","false","false","[2,0]","101","010","1","","","","","","",""
"","","","","","image-keyboard-response","195","489975","0.0-170.0","6402682f1a17d6c87f4f3a89","665500ab8938657b03fbdba8","6657925993aac0c4805dc949","29079","stimuli/21010102.jpg"," ","","feedback_trial","2","","","","","","","","","","","","","","","","","","","","",""
"","","","","","image-keyboard-response","196","490832","0.0-171.0","6402682f1a17d6c87f4f3a89","665500ab8938657b03fbdba8","6657925993aac0c4805dc949","856","stimuli/1001111.jpg","2","","prediction_trial","1","","false","","1","false","false","true","true","false","false","[1]","001","111","0","","","","","","",""
"","","","","","image-keyboard-response","197","491399","0.0-172.0","6402682f1a17d6c87f4f3a89","665500ab8938657b03fbdba8","6657925993aac0c4805dc949","567","stimuli/10011111.jpg"," ","","feedback_trial","1","","","","","","","","","","","","","","","","","","","","",""
"","","","","","image-keyboard-response","198","492119","0.0-173.0","6402682f1a17d6c87f4f3a89","665500ab8938657b03fbdba8","6657925993aac0c4805dc949","720","stimuli/0110100.jpg","0","","prediction_trial","1","","false","","0","false","true","false","false","false","false","[1,0]","110","100","0","","","","","","",""
"","","","","","image-keyboard-response","199","492752","0.0-174.0","6402682f1a17d6c87f4f3a89","665500ab8938657b03fbdba8","6657925993aac0c4805dc949","632","stimuli/01101001.jpg"," ","","feedback_trial","1","","","","","","","","","","","","","","","","","","","","",""
"","","","","","image-keyboard-response","200","493456","0.0-175.0","6402682f1a17d6c87f4f3a89","665500ab8938657b03fbdba8","6657925993aac0c4805dc949","704","stimuli/0101000.jpg","0","","prediction_trial","2","","false","","0","true","true","false","false","false","false","[2,0]","101","000","0","","","","","","",""
"","","","","","image-keyboard-response","201","494729","0.0-176.0","6402682f1a17d6c87f4f3a89","665500ab8938657b03fbdba8","6657925993aac0c4805dc949","1271","stimuli/01010002.jpg"," ","","feedback_trial","2","","","","","","","","","","","","","","","","","","","","",""
"","","","","","image-keyboard-response","202","496479","0.0-177.0","6402682f1a17d6c87f4f3a89","665500ab8938657b03fbdba8","6657925993aac0c4805dc949","1749","stimuli/0001110.jpg","1","","prediction_trial","0","","false","","0","false","false","true","true","false","false","[0]","001","110","0","","","","","","",""
"","","","","","image-keyboard-response","203","497143","0.0-178.0","6402682f1a17d6c87f4f3a89","665500ab8938657b03fbdba8","6657925993aac0c4805dc949","664","stimuli/00011100.jpg"," ","","feedback_trial","0","","","","","","","","","","","","","","","","","","","","",""
"","","","","","image-keyboard-response","204","498376","0.0-179.0","6402682f1a17d6c87f4f3a89","665500ab8938657b03fbdba8","6657925993aac0c4805dc949","1232","stimuli/0001011.jpg","0","","prediction_trial","0","","true","","0","true","true","true","true","true","true","[0]","001","011","1","","","","","","",""
"","","","","","image-keyboard-response","205","499207","0.0-180.0","6402682f1a17d6c87f4f3a89","665500ab8938657b03fbdba8","6657925993aac0c4805dc949","831","stimuli/00010110.jpg"," ","","feedback_trial","0","","","","","","","","","","","","","","","","","","","","",""
"","","","","","image-keyboard-response","206","499911","0.0-181.0","6402682f1a17d6c87f4f3a89","665500ab8938657b03fbdba8","6657925993aac0c4805dc949","704","stimuli/1111111.jpg","0","","prediction_trial","0","","true","","1","false","false","false","false","false","false","[2,1,0]","111","111","1","","","","","","",""
"","","","","","image-keyboard-response","207","500943","0.0-182.0","6402682f1a17d6c87f4f3a89","665500ab8938657b03fbdba8","6657925993aac0c4805dc949","1031","stimuli/11111110.jpg"," ","","feedback_trial","2","","","","","","","","","","","","","","","","","","","","",""
"","","","","","image-keyboard-response","208","502295","0.0-183.0","6402682f1a17d6c87f4f3a89","665500ab8938657b03fbdba8","6657925993aac0c4805dc949","1352","stimuli/0001010.jpg","0","","prediction_trial","0","","true","","0","true","true","true","true","true","true","[0]","001","010","1","","","","","","",""
"","","","","","image-keyboard-response","209","502992","0.0-184.0","6402682f1a17d6c87f4f3a89","665500ab8938657b03fbdba8","6657925993aac0c4805dc949","696","stimuli/00010100.jpg"," ","","feedback_trial","0","","","","","","","","","","","","","","","","","","","","",""
"","","","","","image-keyboard-response","210","503623","0.0-185.0","6402682f1a17d6c87f4f3a89","665500ab8938657b03fbdba8","6657925993aac0c4805dc949","631","stimuli/1010010.jpg","1","","prediction_trial","1","","true","","1","false","true","false","true","false","true","[1]","010","010","1","","","","","","",""
"","","","","","image-keyboard-response","211","504656","0.0-186.0","6402682f1a17d6c87f4f3a89","665500ab8938657b03fbdba8","6657925993aac0c4805dc949","1033","stimuli/10100101.jpg"," ","","feedback_trial","1","","","","","","","","","","","","","","","","","","","","",""
"","","","","","image-keyboard-response","212","505785","0.0-187.0","6402682f1a17d6c87f4f3a89","665500ab8938657b03fbdba8","6657925993aac0c4805dc949","1127","stimuli/0000011.jpg","0","","prediction_trial","0","","true","","0","true","true","true","true","true","true","[0]","000","011","1","","","","","","",""
"","","","","","image-keyboard-response","213","506785","0.0-188.0","6402682f1a17d6c87f4f3a89","665500ab8938657b03fbdba8","6657925993aac0c4805dc949","999","stimuli/00000110.jpg"," ","","feedback_trial","0","","","","","","","","","","","","","","","","","","","","",""
"","","","","","image-keyboard-response","214","507609","0.0-189.0","6402682f1a17d6c87f4f3a89","665500ab8938657b03fbdba8","6657925993aac0c4805dc949","823","stimuli/1011001.jpg","1","","prediction_trial","2","","false","","1","true","true","false","false","false","false","[1,2]","011","001","0","","","","","","",""
"","","","","","image-keyboard-response","215","508568","0.0-190.0","6402682f1a17d6c87f4f3a89","665500ab8938657b03fbdba8","6657925993aac0c4805dc949","958","stimuli/10110012.jpg"," ","","feedback_trial","1","","","","","","","","","","","","","","","","","","","","",""
"","","","","","image-keyboard-response","216","509311","0.0-191.0","6402682f1a17d6c87f4f3a89","665500ab8938657b03fbdba8","6657925993aac0c4805dc949","742","stimuli/1000111.jpg","1","","prediction_trial","1","","true","","1","false","false","true","true","false","false","[1]","000","111","1","","","","","","",""
"","","","","","image-keyboard-response","217","510033","0.0-192.0","6402682f1a17d6c87f4f3a89","665500ab8938657b03fbdba8","6657925993aac0c4805dc949","721","stimuli/10001111.jpg"," ","","feedback_trial","1","","","","","","","","","","","","","","","","","","","","",""
"","","","","","image-keyboard-response","218","510448","0.0-193.0","6402682f1a17d6c87f4f3a89","665500ab8938657b03fbdba8","6657925993aac0c4805dc949","413","stimuli/0001100.jpg","2","","prediction_trial","0","","false","","0","false","true","true","true","false","true","[0]","001","100","0","","","","","","",""
"","","","","","image-keyboard-response","219","511792","0.0-194.0","6402682f1a17d6c87f4f3a89","665500ab8938657b03fbdba8","6657925993aac0c4805dc949","1344","stimuli/00011000.jpg"," ","","feedback_trial","0","","","","","","","","","","","","","","","","","","","","",""
"","","","","","image-keyboard-response","220","512671","0.0-195.0","6402682f1a17d6c87f4f3a89","665500ab8938657b03fbdba8","6657925993aac0c4805dc949","879","stimuli/2011110.jpg","2","","prediction_trial","2","","true","","2","true","true","false","false","false","false","[1,2]","011","110","1","","","","","","",""
"","","","","","image-keyboard-response","221","513207","0.0-196.0","6402682f1a17d6c87f4f3a89","665500ab8938657b03fbdba8","6657925993aac0c4805dc949","536","stimuli/20111102.jpg"," ","","feedback_trial","1","","","","","","","","","","","","","","","","","","","","",""
"","","","","","image-keyboard-response","222","514097","0.0-197.0","6402682f1a17d6c87f4f3a89","665500ab8938657b03fbdba8","6657925993aac0c4805dc949","889","stimuli/2000111.jpg","1","","prediction_trial","2","","false","","2","false","false","true","true","false","false","[2]","000","111","0","","","","","","",""
"","","","","","image-keyboard-response","223","514968","0.0-198.0","6402682f1a17d6c87f4f3a89","665500ab8938657b03fbdba8","6657925993aac0c4805dc949","871","stimuli/20001112.jpg"," ","","feedback_trial","2","","","","","","","","","","","","","","","","","","","","",""
"","","","","","image-keyboard-response","224","516081","0.0-199.0","6402682f1a17d6c87f4f3a89","665500ab8938657b03fbdba8","6657925993aac0c4805dc949","1111","stimuli/2111101.jpg","0","","prediction_trial","0","","true","","2","false","false","false","false","false","false","[1,0,2]","111","101","1","","","","","","",""
"","","","","","image-keyboard-response","225","517040","0.0-200.0","6402682f1a17d6c87f4f3a89","665500ab8938657b03fbdba8","6657925993aac0c4805dc949","957","stimuli/21111010.jpg"," ","","feedback_trial","1","","","","","","","","","","","","","","","","","","","","",""
"","","","","","image-keyboard-response","226","517753","0.0-201.0","6402682f1a17d6c87f4f3a89","665500ab8938657b03fbdba8","6657925993aac0c4805dc949","712","stimuli/0101100.jpg","0","","prediction_trial","2","","false","","0","false","true","false","false","false","false","[2,0]","101","100","0","","","","","","",""
"","","","","","image-keyboard-response","227","518713","0.0-202.0","6402682f1a17d6c87f4f3a89","665500ab8938657b03fbdba8","6657925993aac0c4805dc949","959","stimuli/01011002.jpg"," ","","feedback_trial","2","","","","","","","","","","","","","","","","","","","","",""
"","","","","","image-keyboard-response","228","519608","0.0-203.0","6402682f1a17d6c87f4f3a89","665500ab8938657b03fbdba8","6657925993aac0c4805dc949","894","stimuli/0110010.jpg","0","","prediction_trial","0","","true","","0","true","true","false","false","false","false","[0,1]","110","010","1","","","","","","",""
"","","","","","image-keyboard-response","229","520472","0.0-204.0","6402682f1a17d6c87f4f3a89","665500ab8938657b03fbdba8","6657925993aac0c4805dc949","863","stimuli/01100100.jpg"," ","","feedback_trial","0","","","","","","","","","","","","","","","","","","","","",""
"","","","","","image-keyboard-response","230","522145","0.0-205.0","6402682f1a17d6c87f4f3a89","665500ab8938657b03fbdba8","6657925993aac0c4805dc949","1672","stimuli/2001011.jpg","1","","prediction_trial","2","","false","","2","false","false","false","true","false","false","[2]","001","011","0","","","","","","",""
"","","","","","image-keyboard-response","231","522928","0.0-206.0","6402682f1a17d6c87f4f3a89","665500ab8938657b03fbdba8","6657925993aac0c4805dc949","783","stimuli/20010112.jpg"," ","","feedback_trial","2","","","","","","","","","","","","","","","","","","","","",""
"","","","","","image-keyboard-response","232","523800","0.0-207.0","6402682f1a17d6c87f4f3a89","665500ab8938657b03fbdba8","6657925993aac0c4805dc949","871","stimuli/0111100.jpg","0","","prediction_trial","1","","false","","0","false","true","false","false","false","false","[1,0,2]","111","100","0","","","","","","",""
"","","","","","image-keyboard-response","233","524705","0.0-208.0","6402682f1a17d6c87f4f3a89","665500ab8938657b03fbdba8","6657925993aac0c4805dc949","903","stimuli/01111001.jpg"," ","","feedback_trial","1","","","","","","","","","","","","","","","","","","","","",""
"","","","","","image-keyboard-response","234","525377","0.0-209.0","6402682f1a17d6c87f4f3a89","665500ab8938657b03fbdba8","6657925993aac0c4805dc949","671","stimuli/2111100.jpg","2","","prediction_trial","0","","false","","2","true","true","false","false","false","false","[0,1,2]","111","100","0","","","","","","",""
"","","","","","image-keyboard-response","235","526175","0.0-210.0","6402682f1a17d6c87f4f3a89","665500ab8938657b03fbdba8","6657925993aac0c4805dc949","798","stimuli/21111000.jpg"," ","","feedback_trial","0","","","","","","","","","","","","","","","","","","","","",""
"","","","","","image-keyboard-response","236","527183","0.0-211.0","6402682f1a17d6c87f4f3a89","665500ab8938657b03fbdba8","6657925993aac0c4805dc949","1007","stimuli/0100001.jpg","0","","prediction_trial","0","","true","","0","true","true","false","true","false","true","[0]","100","001","1","","","","","","",""
"","","","","","image-keyboard-response","237","528255","0.0-212.0","6402682f1a17d6c87f4f3a89","665500ab8938657b03fbdba8","6657925993aac0c4805dc949","1071","stimuli/01000010.jpg"," ","","feedback_trial","0","","","","","","","","","","","","","","","","","","","","",""
"","","","","","image-keyboard-response","238","528896","0.0-213.0","6402682f1a17d6c87f4f3a89","665500ab8938657b03fbdba8","6657925993aac0c4805dc949","640","stimuli/2011010.jpg","2","","prediction_trial","2","","true","","2","true","true","false","false","false","false","[2,1]","011","010","1","","","","","","",""
"","","","","","image-keyboard-response","239","529591","0.0-214.0","6402682f1a17d6c87f4f3a89","665500ab8938657b03fbdba8","6657925993aac0c4805dc949","695","stimuli/20110102.jpg"," ","","feedback_trial","2","","","","","","","","","","","","","","","","","","","","",""
"","","","","","image-keyboard-response","240","530503","0.0-215.0","6402682f1a17d6c87f4f3a89","665500ab8938657b03fbdba8","6657925993aac0c4805dc949","911","stimuli/0010101.jpg","2","","prediction_trial","0","","false","","0","false","false","true","true","false","false","[0]","010","101","0","","","","","","",""
"","","","","","image-keyboard-response","241","531080","0.0-216.0","6402682f1a17d6c87f4f3a89","665500ab8938657b03fbdba8","6657925993aac0c4805dc949","576","stimuli/00101010.jpg"," ","","feedback_trial","0","","","","","","","","","","","","","","","","","","","","",""
"","","","","","image-keyboard-response","242","531921","0.0-217.0","6402682f1a17d6c87f4f3a89","665500ab8938657b03fbdba8","6657925993aac0c4805dc949","839","stimuli/0101110.jpg","1","","prediction_trial","2","","false","","0","false","false","false","false","false","false","[0,2]","101","110","0","","","","","","",""
"","","","","","image-keyboard-response","243","532447","0.0-218.0","6402682f1a17d6c87f4f3a89","665500ab8938657b03fbdba8","6657925993aac0c4805dc949","526","stimuli/01011102.jpg"," ","","feedback_trial","0","","","","","","","","","","","","","","","","","","","","",""
"","","","","","image-keyboard-response","244","532944","0.0-219.0","6402682f1a17d6c87f4f3a89","665500ab8938657b03fbdba8","6657925993aac0c4805dc949","496","stimuli/0100111.jpg","0","","prediction_trial","0","","true","","0","false","false","false","true","false","false","[0]","100","111","1","","","","","","",""
"","","","","","image-keyboard-response","245","533663","0.0-220.0","6402682f1a17d6c87f4f3a89","665500ab8938657b03fbdba8","6657925993aac0c4805dc949","718","stimuli/01001110.jpg"," ","","feedback_trial","0","","","","","","","","","","","","","","","","","","","","",""
"","","","","","image-keyboard-response","246","534415","0.0-221.0","6402682f1a17d6c87f4f3a89","665500ab8938657b03fbdba8","6657925993aac0c4805dc949","752","stimuli/2100000.jpg","2","","prediction_trial","2","","true","","2","true","true","true","true","true","true","[2]","100","000","1","","","","","","",""
"","","","","","image-keyboard-response","247","534951","0.0-222.0","6402682f1a17d6c87f4f3a89","665500ab8938657b03fbdba8","6657925993aac0c4805dc949","535","stimuli/21000002.jpg"," ","","feedback_trial","2","","","","","","","","","","","","","","","","","","","","",""
"","","","","","image-keyboard-response","248","535625","0.0-223.0","6402682f1a17d6c87f4f3a89","665500ab8938657b03fbdba8","6657925993aac0c4805dc949","673","stimuli/1100000.jpg","1","","prediction_trial","1","","true","","1","true","true","true","true","true","true","[1]","100","000","1","","","","","","",""
"","","","","","image-keyboard-response","249","536136","0.0-224.0","6402682f1a17d6c87f4f3a89","665500ab8938657b03fbdba8","6657925993aac0c4805dc949","510","stimuli/11000001.jpg"," ","","feedback_trial","1","","","","","","","","","","","","","","","","","","","","",""
"","","","","","image-keyboard-response","250","536831","0.0-225.0","6402682f1a17d6c87f4f3a89","665500ab8938657b03fbdba8","6657925993aac0c4805dc949","694","stimuli/2110101.jpg","2","","prediction_trial","2","","true","","2","false","false","true","true","false","false","[2]","110","101","1","","","","","","",""
"","","","","","image-keyboard-response","251","537561","0.0-226.0","6402682f1a17d6c87f4f3a89","665500ab8938657b03fbdba8","6657925993aac0c4805dc949","729","stimuli/21101012.jpg"," ","","feedback_trial","2","","","","","","","","","","","","","","","","","","","","",""
"","","","","","image-keyboard-response","252","538183","0.0-227.0","6402682f1a17d6c87f4f3a89","665500ab8938657b03fbdba8","6657925993aac0c4805dc949","621","stimuli/0000001.jpg","0","","prediction_trial","0","","true","","0","true","true","true","true","true","true","[0]","000","001","1","","","","","","",""
"","","","","","image-keyboard-response","253","538856","0.0-228.0","6402682f1a17d6c87f4f3a89","665500ab8938657b03fbdba8","6657925993aac0c4805dc949","672","stimuli/00000010.jpg"," ","","feedback_trial","0","","","","","","","","","","","","","","","","","","","","",""
"","","","","","image-keyboard-response","254","539625","0.0-229.0","6402682f1a17d6c87f4f3a89","665500ab8938657b03fbdba8","6657925993aac0c4805dc949","768","stimuli/2110110.jpg","2","","prediction_trial","2","","true","","2","true","true","true","true","true","true","[2]","110","110","1","","","","","","",""
"","","","","","image-keyboard-response","255","540489","0.0-230.0","6402682f1a17d6c87f4f3a89","665500ab8938657b03fbdba8","6657925993aac0c4805dc949","863","stimuli/21101102.jpg"," ","","feedback_trial","2","","","","","","","","","","","","","","","","","","","","",""
"","","","","","image-keyboard-response","256","541071","0.0-231.0","6402682f1a17d6c87f4f3a89","665500ab8938657b03fbdba8","6657925993aac0c4805dc949","581","stimuli/1011100.jpg","1","","prediction_trial","1","","true","","1","true","true","false","false","false","false","[1,2]","011","100","1","","","","","","",""
"","","","","","image-keyboard-response","257","541577","0.0-232.0","6402682f1a17d6c87f4f3a89","665500ab8938657b03fbdba8","6657925993aac0c4805dc949","505","stimuli/10111001.jpg"," ","","feedback_trial","1","","","","","","","","","","","","","","","","","","","","",""
"","","","","","image-keyboard-response","258","542513","0.0-233.0","6402682f1a17d6c87f4f3a89","665500ab8938657b03fbdba8","6657925993aac0c4805dc949","935","stimuli/1010001.jpg","1","","prediction_trial","1","","true","","1","true","true","false","true","false","true","[1]","010","001","1","","","","","","",""
"","","","","","image-keyboard-response","259","543305","0.0-234.0","6402682f1a17d6c87f4f3a89","665500ab8938657b03fbdba8","6657925993aac0c4805dc949","791","stimuli/10100011.jpg"," ","","feedback_trial","1","","","","","","","","","","","","","","","","","","","","",""
"","","","","","image-keyboard-response","260","544009","0.0-235.0","6402682f1a17d6c87f4f3a89","665500ab8938657b03fbdba8","6657925993aac0c4805dc949","703","stimuli/2100010.jpg","2","","prediction_trial","2","","true","","2","true","true","true","true","true","true","[2]","100","010","1","","","","","","",""
"","","","","","image-keyboard-response","261","544639","0.0-236.0","6402682f1a17d6c87f4f3a89","665500ab8938657b03fbdba8","6657925993aac0c4805dc949","630","stimuli/21000102.jpg"," ","","feedback_trial","2","","","","","","","","","","","","","","","","","","","","",""
"","","","","","image-keyboard-response","262","545312","0.0-237.0","6402682f1a17d6c87f4f3a89","665500ab8938657b03fbdba8","6657925993aac0c4805dc949","673","stimuli/1101000.jpg","1","","prediction_trial","1","","true","","1","true","true","true","true","true","true","[1]","101","000","1","","","","","","",""
"","","","","","image-keyboard-response","263","545903","0.0-238.0","6402682f1a17d6c87f4f3a89","665500ab8938657b03fbdba8","6657925993aac0c4805dc949","590","stimuli/11010001.jpg"," ","","feedback_trial","1","","","","","","","","","","","","","","","","","","","","",""
"","","","","","image-keyboard-response","264","546521","0.0-239.0","6402682f1a17d6c87f4f3a89","665500ab8938657b03fbdba8","6657925993aac0c4805dc949","617","stimuli/0011001.jpg","0","","prediction_trial","0","","true","","0","true","true","true","true","true","true","[0]","011","001","1","","","","","","",""
"","","","","","image-keyboard-response","265","547103","0.0-240.0","6402682f1a17d6c87f4f3a89","665500ab8938657b03fbdba8","6657925993aac0c4805dc949","581","stimuli/00110010.jpg"," ","","feedback_trial","0","","","","","","","","","","","","","","","","","","","","",""
"","","","","","image-keyboard-response","266","548935","0.0-241.0","6402682f1a17d6c87f4f3a89","665500ab8938657b03fbdba8","6657925993aac0c4805dc949","1832","stimuli/0011111.jpg","2","","prediction_trial","0","","false","","0","false","false","true","true","false","false","[0]","011","111","0","","","","","","",""
"","","","","","image-keyboard-response","267","549959","0.0-242.0","6402682f1a17d6c87f4f3a89","665500ab8938657b03fbdba8","6657925993aac0c4805dc949","1023","stimuli/00111110.jpg"," ","","feedback_trial","0","","","","","","","","","","","","","","","","","","","","",""
"","","","","","image-keyboard-response","268","550841","0.0-243.0","6402682f1a17d6c87f4f3a89","665500ab8938657b03fbdba8","6657925993aac0c4805dc949","881","stimuli/2111010.jpg","2","","prediction_trial","0","","false","","2","true","true","false","false","false","false","[0,1,2]","111","010","0","","","","","","",""
"","","","","","image-keyboard-response","269","551512","0.0-244.0","6402682f1a17d6c87f4f3a89","665500ab8938657b03fbdba8","6657925993aac0c4805dc949","670","stimuli/21110100.jpg"," ","","feedback_trial","0","","","","","","","","","","","","","","","","","","","","",""
"","","","","","image-keyboard-response","270","552615","0.0-245.0","6402682f1a17d6c87f4f3a89","665500ab8938657b03fbdba8","6657925993aac0c4805dc949","1102","stimuli/1110010.jpg","1","","prediction_trial","1","","true","","1","false","true","false","false","false","false","[1,0]","110","010","1","","","","","","",""
"","","","","","image-keyboard-response","271","553183","0.0-246.0","6402682f1a17d6c87f4f3a89","665500ab8938657b03fbdba8","6657925993aac0c4805dc949","568","stimuli/11100101.jpg"," ","","feedback_trial","1","","","","","","","","","","","","","","","","","","","","",""
"","","","","","image-keyboard-response","272","553937","0.0-247.0","6402682f1a17d6c87f4f3a89","665500ab8938657b03fbdba8","6657925993aac0c4805dc949","752","stimuli/2101000.jpg","2","","prediction_trial","2","","true","","2","true","true","false","false","false","false","[0,2]","101","000","1","","","","","","",""
"","","","","","image-keyboard-response","273","554472","0.0-248.0","6402682f1a17d6c87f4f3a89","665500ab8938657b03fbdba8","6657925993aac0c4805dc949","534","stimuli/21010002.jpg"," ","","feedback_trial","0","","","","","","","","","","","","","","","","","","","","",""
"","","","","","image-keyboard-response","274","555520","0.0-249.0","6402682f1a17d6c87f4f3a89","665500ab8938657b03fbdba8","6657925993aac0c4805dc949","1047","stimuli/2101111.jpg","1","","prediction_trial","0","","false","","2","false","false","false","false","false","false","[0,2]","101","111","0","","","","","","",""
"","","","","","image-keyboard-response","275","556256","0.0-250.0","6402682f1a17d6c87f4f3a89","665500ab8938657b03fbdba8","6657925993aac0c4805dc949","735","stimuli/21011110.jpg"," ","","feedback_trial","0","","","","","","","","","","","","","","","","","","","","",""
"","","","","","image-keyboard-response","276","556960","0.0-251.0","6402682f1a17d6c87f4f3a89","665500ab8938657b03fbdba8","6657925993aac0c4805dc949","703","stimuli/0001001.jpg","0","","prediction_trial","0","","true","","0","true","true","true","true","true","true","[0]","001","001","1","","","","","","",""
"","","","","","image-keyboard-response","277","557512","0.0-252.0","6402682f1a17d6c87f4f3a89","665500ab8938657b03fbdba8","6657925993aac0c4805dc949","551","stimuli/00010010.jpg"," ","","feedback_trial","0","","","","","","","","","","","","","","","","","","","","",""
"","","","","","image-keyboard-response","278","558599","0.0-253.0","6402682f1a17d6c87f4f3a89","665500ab8938657b03fbdba8","6657925993aac0c4805dc949","1086","stimuli/0010010.jpg","0","","prediction_trial","0","","true","","0","true","true","true","true","true","true","[0]","010","010","1","","","","","","",""
"","","","","","image-keyboard-response","279","559297","0.0-254.0","6402682f1a17d6c87f4f3a89","665500ab8938657b03fbdba8","6657925993aac0c4805dc949","697","stimuli/00100100.jpg"," ","","feedback_trial","0","","","","","","","","","","","","","","","","","","","","",""
"","","","","","image-keyboard-response","280","560103","0.0-255.0","6402682f1a17d6c87f4f3a89","665500ab8938657b03fbdba8","6657925993aac0c4805dc949","806","stimuli/2110000.jpg","2","","prediction_trial","2","","true","","2","true","true","true","true","true","true","[2]","110","000","1","","","","","","",""
"","","","","","image-keyboard-response","281","561192","0.0-256.0","6402682f1a17d6c87f4f3a89","665500ab8938657b03fbdba8","6657925993aac0c4805dc949","1088","stimuli/21100002.jpg"," ","","feedback_trial","2","","","","","","","","","","","","","","","","","","","","",""
"","","","","","image-keyboard-response","282","561850","0.0-257.0","6402682f1a17d6c87f4f3a89","665500ab8938657b03fbdba8","6657925993aac0c4805dc949","657","stimuli/1010000.jpg","1","","prediction_trial","1","","true","","1","true","true","false","true","false","true","[1]","010","000","1","","","","","","",""
"","","","","","image-keyboard-response","283","562400","0.0-258.0","6402682f1a17d6c87f4f3a89","665500ab8938657b03fbdba8","6657925993aac0c4805dc949","549","stimuli/10100001.jpg"," ","","feedback_trial","1","","","","","","","","","","","","","","","","","","","","",""
"","","","","","image-keyboard-response","284","564257","0.0-259.0","6402682f1a17d6c87f4f3a89","665500ab8938657b03fbdba8","6657925993aac0c4805dc949","1855","stimuli/1010111.jpg","0","","prediction_trial","1","","false","","1","false","false","false","true","false","false","[1]","010","111","0","","","","","","",""
"","","","","","image-keyboard-response","285","564993","0.0-260.0","6402682f1a17d6c87f4f3a89","665500ab8938657b03fbdba8","6657925993aac0c4805dc949","735","stimuli/10101111.jpg"," ","","feedback_trial","1","","","","","","","","","","","","","","","","","","","","",""
"","","","","","image-keyboard-response","286","565664","0.0-261.0","6402682f1a17d6c87f4f3a89","665500ab8938657b03fbdba8","6657925993aac0c4805dc949","671","stimuli/2011111.jpg","0","","prediction_trial","1","","false","","2","false","false","false","false","false","false","[2,1]","011","111","0","","","","","","",""
"","","","","","image-keyboard-response","287","566305","0.0-262.0","6402682f1a17d6c87f4f3a89","665500ab8938657b03fbdba8","6657925993aac0c4805dc949","639","stimuli/20111111.jpg"," ","","feedback_trial","2","","","","","","","","","","","","","","","","","","","","",""
"","","","","","image-keyboard-response","288","567105","0.0-263.0","6402682f1a17d6c87f4f3a89","665500ab8938657b03fbdba8","6657925993aac0c4805dc949","799","stimuli/1001000.jpg","1","","prediction_trial","1","","true","","1","true","true","true","true","true","true","[1]","001","000","1","","","","","","",""
"","","","","","image-keyboard-response","289","567593","0.0-264.0","6402682f1a17d6c87f4f3a89","665500ab8938657b03fbdba8","6657925993aac0c4805dc949","486","stimuli/10010001.jpg"," ","","feedback_trial","1","","","","","","","","","","","","","","","","","","","","",""
"","","","","","image-keyboard-response","290","568223","0.0-265.0","6402682f1a17d6c87f4f3a89","665500ab8938657b03fbdba8","6657925993aac0c4805dc949","629","stimuli/1010101.jpg","1","","prediction_trial","1","","true","","1","true","true","false","true","false","true","[1]","010","101","1","","","","","","",""
"","","","","","image-keyboard-response","291","568737","0.0-266.0","6402682f1a17d6c87f4f3a89","665500ab8938657b03fbdba8","6657925993aac0c4805dc949","513","stimuli/10101011.jpg"," ","","feedback_trial","1","","","","","","","","","","","","","","","","","","","","",""
"","","","","","image-keyboard-response","292","569793","0.0-267.0","6402682f1a17d6c87f4f3a89","665500ab8938657b03fbdba8","6657925993aac0c4805dc949","1055","stimuli/0110110.jpg","0","","prediction_trial","0","","true","","0","false","false","false","false","false","false","[1,0]","110","110","1","","","","","","",""
"","","","","","image-keyboard-response","293","570375","0.0-268.0","6402682f1a17d6c87f4f3a89","665500ab8938657b03fbdba8","6657925993aac0c4805dc949","582","stimuli/01101100.jpg"," ","","feedback_trial","1","","","","","","","","","","","","","","","","","","","","",""
"","","","","","image-keyboard-response","294","571111","0.0-269.0","6402682f1a17d6c87f4f3a89","665500ab8938657b03fbdba8","6657925993aac0c4805dc949","735","stimuli/0011100.jpg","0","","prediction_trial","0","","true","","0","false","true","true","true","false","true","[0]","011","100","1","","","","","","",""
"","","","","","image-keyboard-response","295","571631","0.0-270.0","6402682f1a17d6c87f4f3a89","665500ab8938657b03fbdba8","6657925993aac0c4805dc949","519","stimuli/00111000.jpg"," ","","feedback_trial","0","","","","","","","","","","","","","","","","","","","","",""
"","","","","","image-keyboard-response","296","572511","0.0-271.0","6402682f1a17d6c87f4f3a89","665500ab8938657b03fbdba8","6657925993aac0c4805dc949","879","stimuli/0110111.jpg","0","","prediction_trial","1","","false","","0","false","false","false","false","false","false","[1,0]","110","111","0","","","","","","",""
"","","","","","image-keyboard-response","297","573248","0.0-272.0","6402682f1a17d6c87f4f3a89","665500ab8938657b03fbdba8","6657925993aac0c4805dc949","736","stimuli/01101111.jpg"," ","","feedback_trial","1","","","","","","","","","","","","","","","","","","","","",""
"","","","","","image-keyboard-response","298","574553","0.0-273.0","6402682f1a17d6c87f4f3a89","665500ab8938657b03fbdba8","6657925993aac0c4805dc949","1304","stimuli/1010110.jpg","1","","prediction_trial","1","","true","","1","false","false","false","true","false","false","[1]","010","110","1","","","","","","",""
"","","","","","image-keyboard-response","299","575127","0.0-274.0","6402682f1a17d6c87f4f3a89","665500ab8938657b03fbdba8","6657925993aac0c4805dc949","574","stimuli/10101101.jpg"," ","","feedback_trial","1","","","","","","","","","","","","","","","","","","","","",""
"","","","","","image-keyboard-response","300","576007","0.0-275.0","6402682f1a17d6c87f4f3a89","665500ab8938657b03fbdba8","6657925993aac0c4805dc949","880","stimuli/0100010.jpg","0","","prediction_trial","0","","true","","0","true","true","false","true","false","true","[0]","100","010","1","","","","","","",""
"","","","","","image-keyboard-response","301","576543","0.0-276.0","6402682f1a17d6c87f4f3a89","665500ab8938657b03fbdba8","6657925993aac0c4805dc949","535","stimuli/01000100.jpg"," ","","feedback_trial","0","","","","","","","","","","","","","","","","","","","","",""
"","","","","","image-keyboard-response","302","577112","0.0-277.0","6402682f1a17d6c87f4f3a89","665500ab8938657b03fbdba8","6657925993aac0c4805dc949","568","stimuli/1100100.jpg","1","","prediction_trial","1","","true","","1","true","true","true","true","true","true","[1]","100","100","1","","","","","","",""
"","","","","","image-keyboard-response","303","577551","0.0-278.0","6402682f1a17d6c87f4f3a89","665500ab8938657b03fbdba8","6657925993aac0c4805dc949","439","stimuli/11001001.jpg"," ","","feedback_trial","1","","","","","","","","","","","","","","","","","","","","",""
"","","","","","image-keyboard-response","304","578319","0.0-279.0","6402682f1a17d6c87f4f3a89","665500ab8938657b03fbdba8","6657925993aac0c4805dc949","768","stimuli/1110001.jpg","1","","prediction_trial","0","","false","","1","true","true","false","false","false","false","[1,0]","110","001","0","","","","","","",""
"","","","","","image-keyboard-response","305","579288","0.0-280.0","6402682f1a17d6c87f4f3a89","665500ab8938657b03fbdba8","6657925993aac0c4805dc949","969","stimuli/11100010.jpg"," ","","feedback_trial","1","","","","","","","","","","","","","","","","","","","","",""
"","","","","","image-keyboard-response","306","579911","0.0-281.0","6402682f1a17d6c87f4f3a89","665500ab8938657b03fbdba8","6657925993aac0c4805dc949","621","stimuli/2110100.jpg","2","","prediction_trial","2","","true","","2","true","true","true","true","true","true","[2]","110","100","1","","","","","","",""
"","","","","","image-keyboard-response","307","580470","0.0-282.0","6402682f1a17d6c87f4f3a89","665500ab8938657b03fbdba8","6657925993aac0c4805dc949","559","stimuli/21101002.jpg"," ","","feedback_trial","2","","","","","","","","","","","","","","","","","","","","",""
"","","","","","image-keyboard-response","308","581200","0.0-283.0","6402682f1a17d6c87f4f3a89","665500ab8938657b03fbdba8","6657925993aac0c4805dc949","728","stimuli/1001110.jpg","1","","prediction_trial","1","","true","","1","false","false","true","true","false","false","[1]","001","110","1","","","","","","",""
"","","","","","image-keyboard-response","309","581760","0.0-284.0","6402682f1a17d6c87f4f3a89","665500ab8938657b03fbdba8","6657925993aac0c4805dc949","559","stimuli/10011101.jpg"," ","","feedback_trial","1","","","","","","","","","","","","","","","","","","","","",""
"","","","","","image-keyboard-response","310","582559","0.0-285.0","6402682f1a17d6c87f4f3a89","665500ab8938657b03fbdba8","6657925993aac0c4805dc949","798","stimuli/2101110.jpg","2","","prediction_trial","0","","false","","2","true","true","false","false","false","false","[0,2]","101","110","0","","","","","","",""
"","","","","","image-keyboard-response","311","583872","0.0-286.0","6402682f1a17d6c87f4f3a89","665500ab8938657b03fbdba8","6657925993aac0c4805dc949","1313","stimuli/21011100.jpg"," ","","feedback_trial","0","","","","","","","","","","","","","","","","","","","","",""
"","","","","","image-keyboard-response","312","584886","0.0-287.0","6402682f1a17d6c87f4f3a89","665500ab8938657b03fbdba8","6657925993aac0c4805dc949","1013","stimuli/0101101.jpg","0","","prediction_trial","2","","false","","0","false","false","false","false","false","false","[2,0]","101","101","0","","","","","","",""
"","","","","","image-keyboard-response","313","585614","0.0-288.0","6402682f1a17d6c87f4f3a89","665500ab8938657b03fbdba8","6657925993aac0c4805dc949","727","stimuli/01011012.jpg"," ","","feedback_trial","2","","","","","","","","","","","","","","","","","","","","",""
"","","","","","image-keyboard-response","314","586353","0.0-289.0","6402682f1a17d6c87f4f3a89","665500ab8938657b03fbdba8","6657925993aac0c4805dc949","737","stimuli/2000101.jpg","0","","prediction_trial","2","","false","","2","false","false","true","true","false","false","[2]","000","101","0","","","","","","",""
"","","","","","image-keyboard-response","315","587615","0.0-290.0","6402682f1a17d6c87f4f3a89","665500ab8938657b03fbdba8","6657925993aac0c4805dc949","1261","stimuli/20001012.jpg"," ","","feedback_trial","2","","","","","","","","","","","","","","","","","","","","",""
"","","","","","image-keyboard-response","316","588192","0.0-291.0","6402682f1a17d6c87f4f3a89","665500ab8938657b03fbdba8","6657925993aac0c4805dc949","576","stimuli/1011111.jpg","0","","prediction_trial","1","","false","","1","false","false","false","false","false","false","[2,1]","011","111","0","","","","","","",""
"","","","","","image-keyboard-response","317","588912","0.0-292.0","6402682f1a17d6c87f4f3a89","665500ab8938657b03fbdba8","6657925993aac0c4805dc949","718","stimuli/10111111.jpg"," ","","feedback_trial","2","","","","","","","","","","","","","","","","","","","","",""
"","","","","","survey-html-form","318","634585","0.0-293.0","6402682f1a17d6c87f4f3a89","665500ab8938657b03fbdba8","6657925993aac0c4805dc949","45670","","{""feedback"":""I tried to stick to one basket when I was making a random guess. "",""age"":""40"",""gender"":""Male"",""other_gender"":"""",""race"":""White"",""other_race"":"""",""ethnicity"":""Non-Hispanic""}","","exit_survey","","","","","","","","","","","","","","","","I tried to stick to one basket when I was making a random guess. ","40","Non-Hispanic","Male","White","0.6041666666666666","0.6041666666666666"
