"success","timeout","failed_images","failed_audio","failed_video","trial_type","trial_index","time_elapsed","internal_node_id","prolific_id","prolific_study_id","prolific_session_id","rt","stimulus","response","view_history","trial","character_choice","stimulus_dict","accuracy","correct_response","ball_pos","ego_ball_visible","ego_can_infer","alter_ball_visible","alter_can_infer","collective_ball_visible","collective_can_infer","search_locations","alter_occluders","ego_occluders","accuracy_bool","feedback","age","ethnicity","gender","race","overall_accuracy","bonus"
"true","false","[]","[]","[]","preload","0","1267","0.0-0.0","59f22a9fd6380600018b2929","665500ab8938657b03fbdba8","665792b0b9254b075ddfeebf","","","","","","","","","","","","","","","","","","","","","","","","","","",""
"true","","","","","fullscreen","1","3481","0.0-1.0","59f22a9fd6380600018b2929","665500ab8938657b03fbdba8","665792b0b9254b075ddfeebf","","","","","","","","","","","","","","","","","","","","","","","","","","",""
"","","","","","html-button-response","2","21192","0.0-2.0","59f22a9fd6380600018b2929","665500ab8938657b03fbdba8","665792b0b9254b075ddfeebf","17711","<p><b>Consent Form</b></p> <div style=""text-align:left;background-color:lightgrey; padding:20px; max-width:900px;""><p>Please consider this information carefully before deciding whether to participate in this research.</p> <p>The purpose of this research is to examine which factors influence social judgment and decision-making. You will be asked to make judgements about individuals and actions in social scenarios. We are simply interested in your judgement. The study will take less than 1 hour to complete, and you will receive less than $20 on Prolific. Your compensation and time commitment are specified in the study description. There are no anticipated risks associated with participating in this study. The effects of participating should be comparable to those you would ordinarily experience from viewing a computer monitor and using a mouse or keyboard for a similar amount of time. At the end of the study, we will provide an explanation of the questions that motivate this line of research and will describe the potential implications. </p><p> Your participation in this study is completely voluntary and you may refuse to participate or you may choose to withdraw at any time without penalty or loss of benefits to you which are otherwise entitled. Your participation in this study will remain confidential. No personally identifiable information will be associated with your data. Also, all analyses of the data will be averaged across all the participants, so your individual responses will never be specifically analyzed. </p><p> If you have questions or concerns about your participation or payment, or want to request a summary of research findings, please contact Dr. Jonathan Phillips at Jonathan.S.Phillips@dartmouth.edu. </p><p> Please save a copy of this form for your records. </p><p><b>Agreement: </b>The nature and purpose of this research have been sufficiently explained and I agree to participate in this study. I understand that I am free to withdraw at any time without incurring any penalty. Please consent by clicking the button below to continue. Otherwise, please exit the study at any time. </p>","0","","","","","","","","","","","","","","","","","","","","","","","",""
"","","","","","instructions","3","71617","0.0-3.0-0.0","59f22a9fd6380600018b2929","665500ab8938657b03fbdba8","665792b0b9254b075ddfeebf","50424","","","[{""page_index"":0,""viewing_time"":1503},{""page_index"":1,""viewing_time"":1464},{""page_index"":2,""viewing_time"":1592},{""page_index"":3,""viewing_time"":3584},{""page_index"":4,""viewing_time"":3568},{""page_index"":5,""viewing_time"":4712},{""page_index"":6,""viewing_time"":3640},{""page_index"":7,""viewing_time"":2872},{""page_index"":8,""viewing_time"":3384},{""page_index"":9,""viewing_time"":2816},{""page_index"":10,""viewing_time"":8264},{""page_index"":11,""viewing_time"":7872},{""page_index"":12,""viewing_time"":4136},{""page_index"":13,""viewing_time"":1016}]","intro","","","","","","","","","","","","","","","","","","","","","",""
"","","","","","image-keyboard-response","4","78437","0.0-3.0-1.0","59f22a9fd6380600018b2929","665500ab8938657b03fbdba8","665792b0b9254b075ddfeebf","6817","stimuli/1111100.jpg","2","","prediction_practice","2","{""filepath"":""stimuli/1111100.jpg"",""ball_pos"":1,""ego_ball_visible"":true,""ego_can_infer"":true,""alter_ball_visible"":false,""alter_can_infer"":false,""collective_ball_visible"":false,""collective_can_infer"":false,""search_locations"":[0,2,1],""alter_occluders"":""111"",""ego_occluders"":""100""}","true","","","","","","","","","","","","","","","","","","",""
"","","","","","image-keyboard-response","5","82232","0.0-3.0-2.0","59f22a9fd6380600018b2929","665500ab8938657b03fbdba8","665792b0b9254b075ddfeebf","3793","stimuli/11111002.jpg"," ","","practrice_feedback","0","","","","","","","","","","","","","","","","","","","","",""
"","","","","","image-keyboard-response","6","83481","0.0-3.0-3.0","59f22a9fd6380600018b2929","665500ab8938657b03fbdba8","665792b0b9254b075ddfeebf","1248","stimuli/2110100.jpg","2","","prediction_practice","2","{""filepath"":""stimuli/2110100.jpg"",""ball_pos"":2,""ego_ball_visible"":true,""ego_can_infer"":true,""alter_ball_visible"":true,""alter_can_infer"":true,""collective_ball_visible"":true,""collective_can_infer"":true,""search_locations"":[2],""alter_occluders"":""110"",""ego_occluders"":""100""}","true","","","","","","","","","","","","","","","","","","",""
"","","","","","image-keyboard-response","7","85272","0.0-3.0-4.0","59f22a9fd6380600018b2929","665500ab8938657b03fbdba8","665792b0b9254b075ddfeebf","1789","stimuli/21101002.jpg"," ","","practrice_feedback","2","","","","","","","","","","","","","","","","","","","","",""
"","","","","","image-keyboard-response","8","87041","0.0-3.0-5.0","59f22a9fd6380600018b2929","665500ab8938657b03fbdba8","665792b0b9254b075ddfeebf","1768","stimuli/0101010.jpg","1","","prediction_practice","2","{""filepath"":""stimuli/0101010.jpg"",""ball_pos"":0,""ego_ball_visible"":true,""ego_can_infer"":true,""alter_ball_visible"":false,""alter_can_infer"":false,""collective_ball_visible"":false,""collective_can_infer"":false,""search_locations"":[0,2],""alter_occluders"":""101"",""ego_occluders"":""010""}","false","","","","","","","","","","","","","","","","","","",""
"","","","","","image-keyboard-response","9","88800","0.0-3.0-6.0","59f22a9fd6380600018b2929","665500ab8938657b03fbdba8","665792b0b9254b075ddfeebf","1756","stimuli/01010102.jpg"," ","","practrice_feedback","0","","","","","","","","","","","","","","","","","","","","",""
"","","","","","image-keyboard-response","10","91986","0.0-3.0-7.0","59f22a9fd6380600018b2929","665500ab8938657b03fbdba8","665792b0b9254b075ddfeebf","3184","stimuli/0101100.jpg","0","","prediction_practice","2","{""filepath"":""stimuli/0101100.jpg"",""ball_pos"":0,""ego_ball_visible"":false,""ego_can_infer"":true,""alter_ball_visible"":false,""alter_can_infer"":false,""collective_ball_visible"":false,""collective_can_infer"":false,""search_locations"":[2,0],""alter_occluders"":""101"",""ego_occluders"":""100""}","false","","","","","","","","","","","","","","","","","","",""
"","","","","","image-keyboard-response","11","94330","0.0-3.0-8.0","59f22a9fd6380600018b2929","665500ab8938657b03fbdba8","665792b0b9254b075ddfeebf","2342","stimuli/01011002.jpg"," ","","practrice_feedback","2","","","","","","","","","","","","","","","","","","","","",""
"","","","","","image-keyboard-response","12","96601","0.0-3.0-9.0","59f22a9fd6380600018b2929","665500ab8938657b03fbdba8","665792b0b9254b075ddfeebf","2269","stimuli/2110010.jpg","2","","prediction_practice","2","{""filepath"":""stimuli/2110010.jpg"",""ball_pos"":2,""ego_ball_visible"":true,""ego_can_infer"":true,""alter_ball_visible"":true,""alter_can_infer"":true,""collective_ball_visible"":true,""collective_can_infer"":true,""search_locations"":[2],""alter_occluders"":""110"",""ego_occluders"":""010""}","true","","","","","","","","","","","","","","","","","","",""
"","","","","","image-keyboard-response","13","97945","0.0-3.0-10.0","59f22a9fd6380600018b2929","665500ab8938657b03fbdba8","665792b0b9254b075ddfeebf","1343","stimuli/21100102.jpg"," ","","practrice_feedback","2","","","","","","","","","","","","","","","","","","","","",""
"","","","","","image-keyboard-response","14","102970","0.0-3.0-11.0","59f22a9fd6380600018b2929","665500ab8938657b03fbdba8","665792b0b9254b075ddfeebf","5022","stimuli/2000011.jpg","1","","prediction_practice","2","{""filepath"":""stimuli/2000011.jpg"",""ball_pos"":2,""ego_ball_visible"":false,""ego_can_infer"":false,""alter_ball_visible"":true,""alter_can_infer"":true,""collective_ball_visible"":false,""collective_can_infer"":false,""search_locations"":[2],""alter_occluders"":""000"",""ego_occluders"":""011""}","false","","","","","","","","","","","","","","","","","","",""
"","","","","","image-keyboard-response","15","107176","0.0-3.0-12.0","59f22a9fd6380600018b2929","665500ab8938657b03fbdba8","665792b0b9254b075ddfeebf","4205","stimuli/20000112.jpg"," ","","practrice_feedback","2","","","","","","","","","","","","","","","","","","","","",""
"","","","","","image-keyboard-response","16","111424","0.0-3.0-13.0","59f22a9fd6380600018b2929","665500ab8938657b03fbdba8","665792b0b9254b075ddfeebf","4247","stimuli/0111110.jpg","1","","prediction_practice","1","{""filepath"":""stimuli/0111110.jpg"",""ball_pos"":0,""ego_ball_visible"":false,""ego_can_infer"":false,""alter_ball_visible"":false,""alter_can_infer"":false,""collective_ball_visible"":false,""collective_can_infer"":false,""search_locations"":[1,0,2],""alter_occluders"":""111"",""ego_occluders"":""110""}","true","","","","","","","","","","","","","","","","","","",""
"","","","","","image-keyboard-response","17","112665","0.0-3.0-14.0","59f22a9fd6380600018b2929","665500ab8938657b03fbdba8","665792b0b9254b075ddfeebf","1240","stimuli/01111101.jpg"," ","","practrice_feedback","1","","","","","","","","","","","","","","","","","","","","",""
"","","","","","image-keyboard-response","18","113625","0.0-3.0-15.0","59f22a9fd6380600018b2929","665500ab8938657b03fbdba8","665792b0b9254b075ddfeebf","958","stimuli/1100100.jpg","1","","prediction_practice","1","{""filepath"":""stimuli/1100100.jpg"",""ball_pos"":1,""ego_ball_visible"":true,""ego_can_infer"":true,""alter_ball_visible"":true,""alter_can_infer"":true,""collective_ball_visible"":true,""collective_can_infer"":true,""search_locations"":[1],""alter_occluders"":""100"",""ego_occluders"":""100""}","true","","","","","","","","","","","","","","","","","","",""
"","","","","","image-keyboard-response","19","115337","0.0-3.0-16.0","59f22a9fd6380600018b2929","665500ab8938657b03fbdba8","665792b0b9254b075ddfeebf","1710","stimuli/11001001.jpg"," ","","practrice_feedback","1","","","","","","","","","","","","","","","","","","","","",""
"","","","","","image-keyboard-response","20","119464","0.0-3.0-17.0","59f22a9fd6380600018b2929","665500ab8938657b03fbdba8","665792b0b9254b075ddfeebf","4125","stimuli/1011100.jpg","2","","prediction_practice","2","{""filepath"":""stimuli/1011100.jpg"",""ball_pos"":1,""ego_ball_visible"":true,""ego_can_infer"":true,""alter_ball_visible"":false,""alter_can_infer"":false,""collective_ball_visible"":false,""collective_can_infer"":false,""search_locations"":[1,2],""alter_occluders"":""011"",""ego_occluders"":""100""}","true","","","","","","","","","","","","","","","","","","",""
"","","","","","image-keyboard-response","21","120553","0.0-3.0-18.0","59f22a9fd6380600018b2929","665500ab8938657b03fbdba8","665792b0b9254b075ddfeebf","1088","stimuli/10111002.jpg"," ","","practrice_feedback","1","","","","","","","","","","","","","","","","","","","","",""
"","","","","","image-keyboard-response","22","121521","0.0-3.0-19.0","59f22a9fd6380600018b2929","665500ab8938657b03fbdba8","665792b0b9254b075ddfeebf","966","stimuli/1000101.jpg","0","","prediction_practice","1","{""filepath"":""stimuli/1000101.jpg"",""ball_pos"":1,""ego_ball_visible"":true,""ego_can_infer"":true,""alter_ball_visible"":true,""alter_can_infer"":true,""collective_ball_visible"":true,""collective_can_infer"":true,""search_locations"":[1],""alter_occluders"":""000"",""ego_occluders"":""101""}","false","","","","","","","","","","","","","","","","","","",""
"","","","","","image-keyboard-response","23","122641","0.0-3.0-20.0","59f22a9fd6380600018b2929","665500ab8938657b03fbdba8","665792b0b9254b075ddfeebf","1119","stimuli/10001011.jpg"," ","","practrice_feedback","1","","","","","","","","","","","","","","","","","","","","",""
"","","","","","html-button-response","24","130712","0.0-3.0-21.0","59f22a9fd6380600018b2929","665500ab8938657b03fbdba8","665792b0b9254b075ddfeebf","8069","Now that you've had some practice, you'll be tested with a couple of easy trials. If you correctly predict Sam's choice, you'll move on to complete the experiment!","0","","","","","","","","","","","","","","","","","","","","","","","",""
"","","","","","image-keyboard-response","25","132017","0.0-3.0-22.0-0.0","59f22a9fd6380600018b2929","665500ab8938657b03fbdba8","665792b0b9254b075ddfeebf","1304","stimuli/0000011.jpg","arrowleft","","comprehension_quiz","","","true","arrowleft","","","","","","","","","","","","","","","","","",""
"","","","","","image-keyboard-response","26","133025","0.0-3.0-22.0-1.0","59f22a9fd6380600018b2929","665500ab8938657b03fbdba8","665792b0b9254b075ddfeebf","1005","stimuli/00000110.jpg"," ","","comprehension_quiz","","","true"," ","","","","","","","","","","","","","","","","","",""
"","","","","","image-keyboard-response","27","134689","0.0-3.0-22.0-2.0","59f22a9fd6380600018b2929","665500ab8938657b03fbdba8","665792b0b9254b075ddfeebf","1662","stimuli/1010010.jpg","arrowdown","","comprehension_quiz","","","true","arrowdown","","","","","","","","","","","","","","","","","",""
"","","","","","image-keyboard-response","28","135962","0.0-3.0-22.0-3.0","59f22a9fd6380600018b2929","665500ab8938657b03fbdba8","665792b0b9254b075ddfeebf","1270","stimuli/10100101.jpg"," ","","comprehension_quiz","","","true"," ","","","","","","","","","","","","","","","","","",""
"","","","","","html-button-response","29","138344","0.0-4.0","59f22a9fd6380600018b2929","665500ab8938657b03fbdba8","665792b0b9254b075ddfeebf","2379","The experiment will now begin.","0","","","","","","","","","","","","","","","","","","","","","","","",""
"","","","","","image-keyboard-response","30","139617","0.0-5.0","59f22a9fd6380600018b2929","665500ab8938657b03fbdba8","665792b0b9254b075ddfeebf","1272","stimuli/1000000.jpg","1","","prediction_trial","1","","true","","1","true","true","true","true","true","true","[1]","000","000","1","","","","","","",""
"","","","","","image-keyboard-response","31","140449","0.0-6.0","59f22a9fd6380600018b2929","665500ab8938657b03fbdba8","665792b0b9254b075ddfeebf","829","stimuli/10000001.jpg"," ","","feedback_trial","1","","","","","","","","","","","","","","","","","","","","",""
"","","","","","image-keyboard-response","32","142792","0.0-7.0","59f22a9fd6380600018b2929","665500ab8938657b03fbdba8","665792b0b9254b075ddfeebf","2341","stimuli/2000011.jpg","2","","prediction_trial","2","","true","","2","false","false","true","true","false","false","[2]","000","011","1","","","","","","",""
"","","","","","image-keyboard-response","33","143585","0.0-8.0","59f22a9fd6380600018b2929","665500ab8938657b03fbdba8","665792b0b9254b075ddfeebf","792","stimuli/20000112.jpg"," ","","feedback_trial","2","","","","","","","","","","","","","","","","","","","","",""
"","","","","","image-keyboard-response","34","146345","0.0-9.0","59f22a9fd6380600018b2929","665500ab8938657b03fbdba8","665792b0b9254b075ddfeebf","2759","stimuli/2110101.jpg","2","","prediction_trial","2","","true","","2","false","false","true","true","false","false","[2]","110","101","1","","","","","","",""
"","","","","","image-keyboard-response","35","146992","0.0-10.0","59f22a9fd6380600018b2929","665500ab8938657b03fbdba8","665792b0b9254b075ddfeebf","645","stimuli/21101012.jpg"," ","","feedback_trial","2","","","","","","","","","","","","","","","","","","","","",""
"","","","","","image-keyboard-response","36","148129","0.0-11.0","59f22a9fd6380600018b2929","665500ab8938657b03fbdba8","665792b0b9254b075ddfeebf","1136","stimuli/2000110.jpg","2","","prediction_trial","2","","true","","2","true","true","true","true","true","true","[2]","000","110","1","","","","","","",""
"","","","","","image-keyboard-response","37","149401","0.0-12.0","59f22a9fd6380600018b2929","665500ab8938657b03fbdba8","665792b0b9254b075ddfeebf","1270","stimuli/20001102.jpg"," ","","feedback_trial","2","","","","","","","","","","","","","","","","","","","","",""
"","","","","","image-keyboard-response","38","152984","0.0-13.0","59f22a9fd6380600018b2929","665500ab8938657b03fbdba8","665792b0b9254b075ddfeebf","3581","stimuli/0000110.jpg","0","","prediction_trial","0","","true","","0","false","false","true","true","false","false","[0]","000","110","1","","","","","","",""
"","","","","","image-keyboard-response","39","153809","0.0-14.0","59f22a9fd6380600018b2929","665500ab8938657b03fbdba8","665792b0b9254b075ddfeebf","824","stimuli/00001100.jpg"," ","","feedback_trial","0","","","","","","","","","","","","","","","","","","","","",""
"","","","","","image-keyboard-response","40","155425","0.0-15.0","59f22a9fd6380600018b2929","665500ab8938657b03fbdba8","665792b0b9254b075ddfeebf","1614","stimuli/1110011.jpg","1","","prediction_trial","1","","true","","1","false","false","false","false","false","false","[1,0]","110","011","1","","","","","","",""
"","","","","","image-keyboard-response","41","156265","0.0-16.0","59f22a9fd6380600018b2929","665500ab8938657b03fbdba8","665792b0b9254b075ddfeebf","838","stimuli/11100111.jpg"," ","","feedback_trial","1","","","","","","","","","","","","","","","","","","","","",""
"","","","","","image-keyboard-response","42","157705","0.0-17.0","59f22a9fd6380600018b2929","665500ab8938657b03fbdba8","665792b0b9254b075ddfeebf","1438","stimuli/1110101.jpg","1","","prediction_trial","1","","true","","1","true","true","false","false","false","false","[0,1]","110","101","1","","","","","","",""
"","","","","","image-keyboard-response","43","158465","0.0-18.0","59f22a9fd6380600018b2929","665500ab8938657b03fbdba8","665792b0b9254b075ddfeebf","758","stimuli/11101011.jpg"," ","","feedback_trial","0","","","","","","","","","","","","","","","","","","","","",""
"","","","","","image-keyboard-response","44","161073","0.0-19.0","59f22a9fd6380600018b2929","665500ab8938657b03fbdba8","665792b0b9254b075ddfeebf","2606","stimuli/1000011.jpg","2","","prediction_trial","1","","false","","1","false","false","true","true","false","false","[1]","000","011","0","","","","","","",""
"","","","","","image-keyboard-response","45","162161","0.0-20.0","59f22a9fd6380600018b2929","665500ab8938657b03fbdba8","665792b0b9254b075ddfeebf","1086","stimuli/10000111.jpg"," ","","feedback_trial","1","","","","","","","","","","","","","","","","","","","","",""
"","","","","","image-keyboard-response","46","163290","0.0-21.0","59f22a9fd6380600018b2929","665500ab8938657b03fbdba8","665792b0b9254b075ddfeebf","1126","stimuli/0010111.jpg","1","","prediction_trial","0","","false","","0","false","false","true","true","false","false","[0]","010","111","0","","","","","","",""
"","","","","","image-keyboard-response","47","164881","0.0-22.0","59f22a9fd6380600018b2929","665500ab8938657b03fbdba8","665792b0b9254b075ddfeebf","1589","stimuli/00101110.jpg"," ","","feedback_trial","0","","","","","","","","","","","","","","","","","","","","",""
"","","","","","image-keyboard-response","48","167320","0.0-23.0","59f22a9fd6380600018b2929","665500ab8938657b03fbdba8","665792b0b9254b075ddfeebf","2437","stimuli/0111001.jpg","2","","prediction_trial","2","","true","","0","true","true","false","false","false","false","[1,2,0]","111","001","1","","","","","","",""
"","","","","","image-keyboard-response","49","168162","0.0-24.0","59f22a9fd6380600018b2929","665500ab8938657b03fbdba8","665792b0b9254b075ddfeebf","841","stimuli/01110012.jpg"," ","","feedback_trial","1","","","","","","","","","","","","","","","","","","","","",""
"","","","","","image-keyboard-response","50","170393","0.0-25.0","59f22a9fd6380600018b2929","665500ab8938657b03fbdba8","665792b0b9254b075ddfeebf","2230","stimuli/2011011.jpg","1","","prediction_trial","1","","true","","2","false","false","false","false","false","false","[1,2]","011","011","1","","","","","","",""
"","","","","","image-keyboard-response","51","171144","0.0-26.0","59f22a9fd6380600018b2929","665500ab8938657b03fbdba8","665792b0b9254b075ddfeebf","750","stimuli/20110111.jpg"," ","","feedback_trial","1","","","","","","","","","","","","","","","","","","","","",""
"","","","","","image-keyboard-response","52","174129","0.0-27.0","59f22a9fd6380600018b2929","665500ab8938657b03fbdba8","665792b0b9254b075ddfeebf","2984","stimuli/1011001.jpg","2","","prediction_trial","2","","true","","1","true","true","false","false","false","false","[2,1]","011","001","1","","","","","","",""
"","","","","","image-keyboard-response","53","174793","0.0-28.0","59f22a9fd6380600018b2929","665500ab8938657b03fbdba8","665792b0b9254b075ddfeebf","662","stimuli/10110012.jpg"," ","","feedback_trial","2","","","","","","","","","","","","","","","","","","","","",""
"","","","","","image-keyboard-response","54","175744","0.0-29.0","59f22a9fd6380600018b2929","665500ab8938657b03fbdba8","665792b0b9254b075ddfeebf","949","stimuli/1111100.jpg","1","","prediction_trial","2","","false","","1","true","true","false","false","false","false","[0,2,1]","111","100","0","","","","","","",""
"","","","","","image-keyboard-response","55","176665","0.0-30.0","59f22a9fd6380600018b2929","665500ab8938657b03fbdba8","665792b0b9254b075ddfeebf","920","stimuli/11111002.jpg"," ","","feedback_trial","0","","","","","","","","","","","","","","","","","","","","",""
"","","","","","image-keyboard-response","56","179073","0.0-31.0","59f22a9fd6380600018b2929","665500ab8938657b03fbdba8","665792b0b9254b075ddfeebf","2407","stimuli/1101111.jpg","1","","prediction_trial","1","","true","","1","false","false","true","true","false","false","[1]","101","111","1","","","","","","",""
"","","","","","image-keyboard-response","57","179753","0.0-32.0","59f22a9fd6380600018b2929","665500ab8938657b03fbdba8","665792b0b9254b075ddfeebf","678","stimuli/11011111.jpg"," ","","feedback_trial","1","","","","","","","","","","","","","","","","","","","","",""
"","","","","","image-keyboard-response","58","183233","0.0-33.0","59f22a9fd6380600018b2929","665500ab8938657b03fbdba8","665792b0b9254b075ddfeebf","3480","stimuli/2100011.jpg","1","","prediction_trial","2","","false","","2","false","false","true","true","false","false","[2]","100","011","0","","","","","","",""
"","","","","","image-keyboard-response","59","184136","0.0-34.0","59f22a9fd6380600018b2929","665500ab8938657b03fbdba8","665792b0b9254b075ddfeebf","901","stimuli/21000112.jpg"," ","","feedback_trial","2","","","","","","","","","","","","","","","","","","","","",""
"","","","","","image-keyboard-response","60","185530","0.0-35.0","59f22a9fd6380600018b2929","665500ab8938657b03fbdba8","665792b0b9254b075ddfeebf","1392","stimuli/2111100.jpg","1","","prediction_trial","0","","false","","2","true","true","false","false","false","false","[0,1,2]","111","100","0","","","","","","",""
"","","","","","image-keyboard-response","61","186864","0.0-36.0","59f22a9fd6380600018b2929","665500ab8938657b03fbdba8","665792b0b9254b075ddfeebf","1332","stimuli/21111000.jpg"," ","","feedback_trial","0","","","","","","","","","","","","","","","","","","","","",""
"","","","","","image-keyboard-response","62","187801","0.0-37.0","59f22a9fd6380600018b2929","665500ab8938657b03fbdba8","665792b0b9254b075ddfeebf","936","stimuli/2010100.jpg","2","","prediction_trial","2","","true","","2","true","true","true","true","true","true","[2]","010","100","1","","","","","","",""
"","","","","","image-keyboard-response","63","188553","0.0-38.0","59f22a9fd6380600018b2929","665500ab8938657b03fbdba8","665792b0b9254b075ddfeebf","751","stimuli/20101002.jpg"," ","","feedback_trial","2","","","","","","","","","","","","","","","","","","","","",""
"","","","","","image-keyboard-response","64","189874","0.0-39.0","59f22a9fd6380600018b2929","665500ab8938657b03fbdba8","665792b0b9254b075ddfeebf","1321","stimuli/1010011.jpg","1","","prediction_trial","1","","true","","1","false","false","false","true","false","false","[1]","010","011","1","","","","","","",""
"","","","","","image-keyboard-response","65","190522","0.0-40.0","59f22a9fd6380600018b2929","665500ab8938657b03fbdba8","665792b0b9254b075ddfeebf","645","stimuli/10100111.jpg"," ","","feedback_trial","1","","","","","","","","","","","","","","","","","","","","",""
"","","","","","image-keyboard-response","66","191578","0.0-41.0","59f22a9fd6380600018b2929","665500ab8938657b03fbdba8","665792b0b9254b075ddfeebf","1054","stimuli/2110100.jpg","2","","prediction_trial","2","","true","","2","true","true","true","true","true","true","[2]","110","100","1","","","","","","",""
"","","","","","image-keyboard-response","67","192514","0.0-42.0","59f22a9fd6380600018b2929","665500ab8938657b03fbdba8","665792b0b9254b075ddfeebf","935","stimuli/21101002.jpg"," ","","feedback_trial","2","","","","","","","","","","","","","","","","","","","","",""
"","","","","","image-keyboard-response","68","195490","0.0-43.0","59f22a9fd6380600018b2929","665500ab8938657b03fbdba8","665792b0b9254b075ddfeebf","2974","stimuli/0110001.jpg","1","","prediction_trial","0","","false","","0","true","true","false","false","false","false","[0,1]","110","001","0","","","","","","",""
"","","","","","image-keyboard-response","69","196722","0.0-44.0","59f22a9fd6380600018b2929","665500ab8938657b03fbdba8","665792b0b9254b075ddfeebf","1231","stimuli/01100010.jpg"," ","","feedback_trial","0","","","","","","","","","","","","","","","","","","","","",""
"","","","","","image-keyboard-response","70","198201","0.0-45.0","59f22a9fd6380600018b2929","665500ab8938657b03fbdba8","665792b0b9254b075ddfeebf","1477","stimuli/2010001.jpg","2","","prediction_trial","2","","true","","2","false","true","true","true","false","true","[2]","010","001","1","","","","","","",""
"","","","","","image-keyboard-response","71","198938","0.0-46.0","59f22a9fd6380600018b2929","665500ab8938657b03fbdba8","665792b0b9254b075ddfeebf","736","stimuli/20100012.jpg"," ","","feedback_trial","2","","","","","","","","","","","","","","","","","","","","",""
"","","","","","image-keyboard-response","72","199857","0.0-47.0","59f22a9fd6380600018b2929","665500ab8938657b03fbdba8","665792b0b9254b075ddfeebf","917","stimuli/2110000.jpg","2","","prediction_trial","2","","true","","2","true","true","true","true","true","true","[2]","110","000","1","","","","","","",""
"","","","","","image-keyboard-response","73","200393","0.0-48.0","59f22a9fd6380600018b2929","665500ab8938657b03fbdba8","665792b0b9254b075ddfeebf","536","stimuli/21100002.jpg"," ","","feedback_trial","2","","","","","","","","","","","","","","","","","","","","",""
"","","","","","image-keyboard-response","74","202097","0.0-49.0","59f22a9fd6380600018b2929","665500ab8938657b03fbdba8","665792b0b9254b075ddfeebf","1703","stimuli/2111001.jpg","2","","prediction_trial","0","","false","","2","false","true","false","false","false","false","[0,1,2]","111","001","0","","","","","","",""
"","","","","","image-keyboard-response","75","202969","0.0-50.0","59f22a9fd6380600018b2929","665500ab8938657b03fbdba8","665792b0b9254b075ddfeebf","871","stimuli/21110010.jpg"," ","","feedback_trial","0","","","","","","","","","","","","","","","","","","","","",""
"","","","","","image-keyboard-response","76","203938","0.0-51.0","59f22a9fd6380600018b2929","665500ab8938657b03fbdba8","665792b0b9254b075ddfeebf","968","stimuli/0100110.jpg","0","","prediction_trial","0","","true","","0","false","false","false","true","false","false","[0]","100","110","1","","","","","","",""
"","","","","","image-keyboard-response","77","204586","0.0-52.0","59f22a9fd6380600018b2929","665500ab8938657b03fbdba8","665792b0b9254b075ddfeebf","646","stimuli/01001100.jpg"," ","","feedback_trial","0","","","","","","","","","","","","","","","","","","","","",""
"","","","","","image-keyboard-response","78","207002","0.0-53.0","59f22a9fd6380600018b2929","665500ab8938657b03fbdba8","665792b0b9254b075ddfeebf","2414","stimuli/1110010.jpg","1","","prediction_trial","0","","false","","1","false","true","false","false","false","false","[1,0]","110","010","0","","","","","","",""
"","","","","","image-keyboard-response","79","207722","0.0-54.0","59f22a9fd6380600018b2929","665500ab8938657b03fbdba8","665792b0b9254b075ddfeebf","718","stimuli/11100100.jpg"," ","","feedback_trial","1","","","","","","","","","","","","","","","","","","","","",""
"","","","","","image-keyboard-response","80","208714","0.0-55.0","59f22a9fd6380600018b2929","665500ab8938657b03fbdba8","665792b0b9254b075ddfeebf","991","stimuli/1001100.jpg","1","","prediction_trial","1","","true","","1","true","true","true","true","true","true","[1]","001","100","1","","","","","","",""
"","","","","","image-keyboard-response","81","209194","0.0-56.0","59f22a9fd6380600018b2929","665500ab8938657b03fbdba8","665792b0b9254b075ddfeebf","478","stimuli/10011001.jpg"," ","","feedback_trial","1","","","","","","","","","","","","","","","","","","","","",""
"","","","","","image-keyboard-response","82","210170","0.0-57.0","59f22a9fd6380600018b2929","665500ab8938657b03fbdba8","665792b0b9254b075ddfeebf","974","stimuli/0000111.jpg","1","","prediction_trial","0","","false","","0","false","false","true","true","false","false","[0]","000","111","0","","","","","","",""
"","","","","","image-keyboard-response","83","210938","0.0-58.0","59f22a9fd6380600018b2929","665500ab8938657b03fbdba8","665792b0b9254b075ddfeebf","766","stimuli/00001110.jpg"," ","","feedback_trial","0","","","","","","","","","","","","","","","","","","","","",""
"","","","","","image-keyboard-response","84","211929","0.0-59.0","59f22a9fd6380600018b2929","665500ab8938657b03fbdba8","665792b0b9254b075ddfeebf","989","stimuli/0011011.jpg","0","","prediction_trial","0","","true","","0","true","true","true","true","true","true","[0]","011","011","1","","","","","","",""
"","","","","","image-keyboard-response","85","212426","0.0-60.0","59f22a9fd6380600018b2929","665500ab8938657b03fbdba8","665792b0b9254b075ddfeebf","496","stimuli/00110110.jpg"," ","","feedback_trial","0","","","","","","","","","","","","","","","","","","","","",""
"","","","","","image-keyboard-response","86","214498","0.0-61.0","59f22a9fd6380600018b2929","665500ab8938657b03fbdba8","665792b0b9254b075ddfeebf","2071","stimuli/0010101.jpg","2","","prediction_trial","0","","false","","0","false","false","true","true","false","false","[0]","010","101","0","","","","","","",""
"","","","","","image-keyboard-response","87","215226","0.0-62.0","59f22a9fd6380600018b2929","665500ab8938657b03fbdba8","665792b0b9254b075ddfeebf","726","stimuli/00101010.jpg"," ","","feedback_trial","0","","","","","","","","","","","","","","","","","","","","",""
"","","","","","image-keyboard-response","88","216546","0.0-63.0","59f22a9fd6380600018b2929","665500ab8938657b03fbdba8","665792b0b9254b075ddfeebf","1318","stimuli/2111111.jpg","1","","prediction_trial","0","","false","","2","false","false","false","false","false","false","[0,1,2]","111","111","0","","","","","","",""
"","","","","","image-keyboard-response","89","217322","0.0-64.0","59f22a9fd6380600018b2929","665500ab8938657b03fbdba8","665792b0b9254b075ddfeebf","774","stimuli/21111110.jpg"," ","","feedback_trial","0","","","","","","","","","","","","","","","","","","","","",""
"","","","","","image-keyboard-response","90","218808","0.0-65.0","59f22a9fd6380600018b2929","665500ab8938657b03fbdba8","665792b0b9254b075ddfeebf","1485","stimuli/0111110.jpg","0","","prediction_trial","2","","false","","0","false","false","false","false","false","false","[1,0,2]","111","110","0","","","","","","",""
"","","","","","image-keyboard-response","91","219890","0.0-66.0","59f22a9fd6380600018b2929","665500ab8938657b03fbdba8","665792b0b9254b075ddfeebf","1081","stimuli/01111102.jpg"," ","","feedback_trial","1","","","","","","","","","","","","","","","","","","","","",""
"","","","","","image-keyboard-response","92","222345","0.0-67.0","59f22a9fd6380600018b2929","665500ab8938657b03fbdba8","665792b0b9254b075ddfeebf","2454","stimuli/2101010.jpg","2","","prediction_trial","0","","false","","2","true","true","false","false","false","false","[2,0]","101","010","0","","","","","","",""
"","","","","","image-keyboard-response","93","223002","0.0-68.0","59f22a9fd6380600018b2929","665500ab8938657b03fbdba8","665792b0b9254b075ddfeebf","655","stimuli/21010100.jpg"," ","","feedback_trial","2","","","","","","","","","","","","","","","","","","","","",""
"","","","","","image-keyboard-response","94","230042","0.0-69.0","59f22a9fd6380600018b2929","665500ab8938657b03fbdba8","665792b0b9254b075ddfeebf","7038","stimuli/0001111.jpg","1","","prediction_trial","0","","false","","0","false","false","true","true","false","false","[0]","001","111","0","","","","","","",""
"","","","","","image-keyboard-response","95","230705","0.0-70.0","59f22a9fd6380600018b2929","665500ab8938657b03fbdba8","665792b0b9254b075ddfeebf","661","stimuli/00011110.jpg"," ","","feedback_trial","0","","","","","","","","","","","","","","","","","","","","",""
"","","","","","image-keyboard-response","96","233042","0.0-71.0","59f22a9fd6380600018b2929","665500ab8938657b03fbdba8","665792b0b9254b075ddfeebf","2336","stimuli/0101001.jpg","0","","prediction_trial","0","","true","","0","true","true","false","false","false","false","[2,0]","101","001","1","","","","","","",""
"","","","","","image-keyboard-response","97","233642","0.0-72.0","59f22a9fd6380600018b2929","665500ab8938657b03fbdba8","665792b0b9254b075ddfeebf","598","stimuli/01010010.jpg"," ","","feedback_trial","2","","","","","","","","","","","","","","","","","","","","",""
"","","","","","image-keyboard-response","98","234954","0.0-73.0","59f22a9fd6380600018b2929","665500ab8938657b03fbdba8","665792b0b9254b075ddfeebf","1310","stimuli/1101001.jpg","1","","prediction_trial","1","","true","","1","true","true","true","true","true","true","[1]","101","001","1","","","","","","",""
"","","","","","image-keyboard-response","99","235418","0.0-74.0","59f22a9fd6380600018b2929","665500ab8938657b03fbdba8","665792b0b9254b075ddfeebf","462","stimuli/11010011.jpg"," ","","feedback_trial","1","","","","","","","","","","","","","","","","","","","","",""
"","","","","","image-keyboard-response","100","236721","0.0-75.0","59f22a9fd6380600018b2929","665500ab8938657b03fbdba8","665792b0b9254b075ddfeebf","1301","stimuli/0100111.jpg","1","","prediction_trial","0","","false","","0","false","false","false","true","false","false","[0]","100","111","0","","","","","","",""
"","","","","","image-keyboard-response","101","237394","0.0-76.0","59f22a9fd6380600018b2929","665500ab8938657b03fbdba8","665792b0b9254b075ddfeebf","672","stimuli/01001110.jpg"," ","","feedback_trial","0","","","","","","","","","","","","","","","","","","","","",""
"","","","","","image-keyboard-response","102","238458","0.0-77.0","59f22a9fd6380600018b2929","665500ab8938657b03fbdba8","665792b0b9254b075ddfeebf","1062","stimuli/0001100.jpg","0","","prediction_trial","0","","true","","0","false","true","true","true","false","true","[0]","001","100","1","","","","","","",""
"","","","","","image-keyboard-response","103","239250","0.0-78.0","59f22a9fd6380600018b2929","665500ab8938657b03fbdba8","665792b0b9254b075ddfeebf","790","stimuli/00011000.jpg"," ","","feedback_trial","0","","","","","","","","","","","","","","","","","","","","",""
"","","","","","image-keyboard-response","104","241778","0.0-79.0","59f22a9fd6380600018b2929","665500ab8938657b03fbdba8","665792b0b9254b075ddfeebf","2526","stimuli/0011110.jpg","0","","prediction_trial","0","","true","","0","false","false","true","true","false","false","[0]","011","110","1","","","","","","",""
"","","","","","image-keyboard-response","105","242498","0.0-80.0","59f22a9fd6380600018b2929","665500ab8938657b03fbdba8","665792b0b9254b075ddfeebf","718","stimuli/00111100.jpg"," ","","feedback_trial","0","","","","","","","","","","","","","","","","","","","","",""
"","","","","","image-keyboard-response","106","243850","0.0-81.0","59f22a9fd6380600018b2929","665500ab8938657b03fbdba8","665792b0b9254b075ddfeebf","1350","stimuli/2011000.jpg","2","","prediction_trial","1","","false","","2","true","true","false","false","false","false","[2,1]","011","000","0","","","","","","",""
"","","","","","image-keyboard-response","107","244465","0.0-82.0","59f22a9fd6380600018b2929","665500ab8938657b03fbdba8","665792b0b9254b075ddfeebf","613","stimuli/20110001.jpg"," ","","feedback_trial","2","","","","","","","","","","","","","","","","","","","","",""
"","","","","","image-keyboard-response","108","247161","0.0-83.0","59f22a9fd6380600018b2929","665500ab8938657b03fbdba8","665792b0b9254b075ddfeebf","2695","stimuli/1011011.jpg","1","","prediction_trial","2","","false","","1","false","false","false","false","false","false","[2,1]","011","011","0","","","","","","",""
"","","","","","image-keyboard-response","109","247777","0.0-84.0","59f22a9fd6380600018b2929","665500ab8938657b03fbdba8","665792b0b9254b075ddfeebf","616","stimuli/10110112.jpg"," ","","feedback_trial","2","","","","","","","","","","","","","","","","","","","","",""
"","","","","","image-keyboard-response","110","249122","0.0-85.0","59f22a9fd6380600018b2929","665500ab8938657b03fbdba8","665792b0b9254b075ddfeebf","1344","stimuli/0010110.jpg","1","","prediction_trial","0","","false","","0","false","false","true","true","false","false","[0]","010","110","0","","","","","","",""
"","","","","","image-keyboard-response","111","249826","0.0-86.0","59f22a9fd6380600018b2929","665500ab8938657b03fbdba8","665792b0b9254b075ddfeebf","702","stimuli/00101100.jpg"," ","","feedback_trial","0","","","","","","","","","","","","","","","","","","","","",""
"","","","","","image-keyboard-response","112","251026","0.0-87.0","59f22a9fd6380600018b2929","665500ab8938657b03fbdba8","665792b0b9254b075ddfeebf","1198","stimuli/0001000.jpg","0","","prediction_trial","0","","true","","0","true","true","true","true","true","true","[0]","001","000","1","","","","","","",""
"","","","","","image-keyboard-response","113","251426","0.0-88.0","59f22a9fd6380600018b2929","665500ab8938657b03fbdba8","665792b0b9254b075ddfeebf","398","stimuli/00010000.jpg"," ","","feedback_trial","0","","","","","","","","","","","","","","","","","","","","",""
"","","","","","image-keyboard-response","114","252729","0.0-89.0","59f22a9fd6380600018b2929","665500ab8938657b03fbdba8","665792b0b9254b075ddfeebf","1301","stimuli/0000000.jpg","0","","prediction_trial","0","","true","","0","true","true","true","true","true","true","[0]","000","000","1","","","","","","",""
"","","","","","image-keyboard-response","115","253193","0.0-90.0","59f22a9fd6380600018b2929","665500ab8938657b03fbdba8","665792b0b9254b075ddfeebf","463","stimuli/00000000.jpg"," ","","feedback_trial","0","","","","","","","","","","","","","","","","","","","","",""
"","","","","","image-keyboard-response","116","254042","0.0-91.0","59f22a9fd6380600018b2929","665500ab8938657b03fbdba8","665792b0b9254b075ddfeebf","849","stimuli/2100000.jpg","2","","prediction_trial","2","","true","","2","true","true","true","true","true","true","[2]","100","000","1","","","","","","",""
"","","","","","image-keyboard-response","117","254658","0.0-92.0","59f22a9fd6380600018b2929","665500ab8938657b03fbdba8","665792b0b9254b075ddfeebf","614","stimuli/21000002.jpg"," ","","feedback_trial","2","","","","","","","","","","","","","","","","","","","","",""
"","","","","","image-keyboard-response","118","256914","0.0-93.0","59f22a9fd6380600018b2929","665500ab8938657b03fbdba8","665792b0b9254b075ddfeebf","2255","stimuli/0110000.jpg","0","","prediction_trial","1","","false","","0","true","true","false","false","false","false","[1,0]","110","000","0","","","","","","",""
"","","","","","image-keyboard-response","119","258314","0.0-94.0","59f22a9fd6380600018b2929","665500ab8938657b03fbdba8","665792b0b9254b075ddfeebf","1398","stimuli/01100001.jpg"," ","","feedback_trial","1","","","","","","","","","","","","","","","","","","","","",""
"","","","","","image-keyboard-response","120","259818","0.0-95.0","59f22a9fd6380600018b2929","665500ab8938657b03fbdba8","665792b0b9254b075ddfeebf","1502","stimuli/0110111.jpg","2","","prediction_trial","1","","false","","0","false","false","false","false","false","false","[1,0]","110","111","0","","","","","","",""
"","","","","","image-keyboard-response","121","260362","0.0-96.0","59f22a9fd6380600018b2929","665500ab8938657b03fbdba8","665792b0b9254b075ddfeebf","542","stimuli/01101111.jpg"," ","","feedback_trial","1","","","","","","","","","","","","","","","","","","","","",""
"","","","","","image-keyboard-response","122","266250","0.0-97.0","59f22a9fd6380600018b2929","665500ab8938657b03fbdba8","665792b0b9254b075ddfeebf","5887","stimuli/0111100.jpg","0","","prediction_trial","1","","false","","0","false","true","false","false","false","false","[0,1,2]","111","100","0","","","","","","",""
"","","","","","image-keyboard-response","123","266970","0.0-98.0","59f22a9fd6380600018b2929","665500ab8938657b03fbdba8","665792b0b9254b075ddfeebf","718","stimuli/01111001.jpg"," ","","feedback_trial","0","","","","","","","","","","","","","","","","","","","","",""
"","","","","","image-keyboard-response","124","268202","0.0-99.0","59f22a9fd6380600018b2929","665500ab8938657b03fbdba8","665792b0b9254b075ddfeebf","1230","stimuli/0101110.jpg","1","","prediction_trial","0","","false","","0","false","false","false","false","false","false","[0,2]","101","110","0","","","","","","",""
"","","","","","image-keyboard-response","125","268777","0.0-100.0","59f22a9fd6380600018b2929","665500ab8938657b03fbdba8","665792b0b9254b075ddfeebf","573","stimuli/01011100.jpg"," ","","feedback_trial","0","","","","","","","","","","","","","","","","","","","","",""
"","","","","","image-keyboard-response","126","271107","0.0-101.0","59f22a9fd6380600018b2929","665500ab8938657b03fbdba8","665792b0b9254b075ddfeebf","2329","stimuli/0110110.jpg","0","","prediction_trial","1","","false","","0","false","false","false","false","false","false","[1,0]","110","110","0","","","","","","",""
"","","","","","image-keyboard-response","127","271713","0.0-102.0","59f22a9fd6380600018b2929","665500ab8938657b03fbdba8","665792b0b9254b075ddfeebf","604","stimuli/01101101.jpg"," ","","feedback_trial","1","","","","","","","","","","","","","","","","","","","","",""
"","","","","","image-keyboard-response","128","274890","0.0-103.0","59f22a9fd6380600018b2929","665500ab8938657b03fbdba8","665792b0b9254b075ddfeebf","3176","stimuli/0101100.jpg","2","","prediction_trial","2","","true","","0","false","true","false","false","false","false","[2,0]","101","100","1","","","","","","",""
"","","","","","image-keyboard-response","129","275506","0.0-104.0","59f22a9fd6380600018b2929","665500ab8938657b03fbdba8","665792b0b9254b075ddfeebf","614","stimuli/01011002.jpg"," ","","feedback_trial","2","","","","","","","","","","","","","","","","","","","","",""
"","","","","","image-keyboard-response","130","276531","0.0-105.0","59f22a9fd6380600018b2929","665500ab8938657b03fbdba8","665792b0b9254b075ddfeebf","1023","stimuli/1011100.jpg","2","","prediction_trial","2","","true","","1","true","true","false","false","false","false","[1,2]","011","100","1","","","","","","",""
"","","","","","image-keyboard-response","131","277219","0.0-106.0","59f22a9fd6380600018b2929","665500ab8938657b03fbdba8","665792b0b9254b075ddfeebf","686","stimuli/10111002.jpg"," ","","feedback_trial","1","","","","","","","","","","","","","","","","","","","","",""
"","","","","","image-keyboard-response","132","281114","0.0-107.0","59f22a9fd6380600018b2929","665500ab8938657b03fbdba8","665792b0b9254b075ddfeebf","3893","stimuli/1010100.jpg","1","","prediction_trial","1","","true","","1","true","true","false","true","false","true","[1]","010","100","1","","","","","","",""
"","","","","","image-keyboard-response","133","281785","0.0-108.0","59f22a9fd6380600018b2929","665500ab8938657b03fbdba8","665792b0b9254b075ddfeebf","669","stimuli/10101001.jpg"," ","","feedback_trial","1","","","","","","","","","","","","","","","","","","","","",""
"","","","","","image-keyboard-response","134","282801","0.0-109.0","59f22a9fd6380600018b2929","665500ab8938657b03fbdba8","665792b0b9254b075ddfeebf","1015","stimuli/1111111.jpg","1","","prediction_trial","0","","false","","1","false","false","false","false","false","false","[0,1,2]","111","111","0","","","","","","",""
"","","","","","image-keyboard-response","135","283522","0.0-110.0","59f22a9fd6380600018b2929","665500ab8938657b03fbdba8","665792b0b9254b075ddfeebf","721","stimuli/11111110.jpg"," ","","feedback_trial","0","","","","","","","","","","","","","","","","","","","","",""
"","","","","","image-keyboard-response","136","285202","0.0-111.0","59f22a9fd6380600018b2929","665500ab8938657b03fbdba8","665792b0b9254b075ddfeebf","1678","stimuli/1011101.jpg","1","","prediction_trial","2","","false","","1","true","true","false","false","false","false","[2,1]","011","101","0","","","","","","",""
"","","","","","image-keyboard-response","137","285890","0.0-112.0","59f22a9fd6380600018b2929","665500ab8938657b03fbdba8","665792b0b9254b075ddfeebf","686","stimuli/10111012.jpg"," ","","feedback_trial","2","","","","","","","","","","","","","","","","","","","","",""
"","","","","","image-keyboard-response","138","287042","0.0-113.0","59f22a9fd6380600018b2929","665500ab8938657b03fbdba8","665792b0b9254b075ddfeebf","1150","stimuli/0111011.jpg","0","","prediction_trial","0","","true","","0","true","true","false","false","false","false","[2,0,1]","111","011","1","","","","","","",""
"","","","","","image-keyboard-response","139","287731","0.0-114.0","59f22a9fd6380600018b2929","665500ab8938657b03fbdba8","665792b0b9254b075ddfeebf","687","stimuli/01110110.jpg"," ","","feedback_trial","2","","","","","","","","","","","","","","","","","","","","",""
"","","","","","image-keyboard-response","140","288833","0.0-115.0","59f22a9fd6380600018b2929","665500ab8938657b03fbdba8","665792b0b9254b075ddfeebf","1101","stimuli/0011010.jpg","0","","prediction_trial","0","","true","","0","true","true","true","true","true","true","[0]","011","010","1","","","","","","",""
"","","","","","image-keyboard-response","141","289490","0.0-116.0","59f22a9fd6380600018b2929","665500ab8938657b03fbdba8","665792b0b9254b075ddfeebf","656","stimuli/00110100.jpg"," ","","feedback_trial","0","","","","","","","","","","","","","","","","","","","","",""
"","","","","","image-keyboard-response","142","290522","0.0-117.0","59f22a9fd6380600018b2929","665500ab8938657b03fbdba8","665792b0b9254b075ddfeebf","1030","stimuli/2101000.jpg","2","","prediction_trial","2","","true","","2","true","true","false","false","false","false","[2,0]","101","000","1","","","","","","",""
"","","","","","image-keyboard-response","143","291186","0.0-118.0","59f22a9fd6380600018b2929","665500ab8938657b03fbdba8","665792b0b9254b075ddfeebf","662","stimuli/21010002.jpg"," ","","feedback_trial","2","","","","","","","","","","","","","","","","","","","","",""
"","","","","","image-keyboard-response","144","292489","0.0-119.0","59f22a9fd6380600018b2929","665500ab8938657b03fbdba8","665792b0b9254b075ddfeebf","1301","stimuli/0110011.jpg","0","","prediction_trial","1","","false","","0","true","true","false","false","false","false","[1,0]","110","011","0","","","","","","",""
"","","","","","image-keyboard-response","145","293202","0.0-120.0","59f22a9fd6380600018b2929","665500ab8938657b03fbdba8","665792b0b9254b075ddfeebf","713","stimuli/01100111.jpg"," ","","feedback_trial","1","","","","","","","","","","","","","","","","","","","","",""
"","","","","","image-keyboard-response","146","294946","0.0-121.0","59f22a9fd6380600018b2929","665500ab8938657b03fbdba8","665792b0b9254b075ddfeebf","1743","stimuli/0101101.jpg","2","","prediction_trial","0","","false","","0","false","false","false","false","false","false","[2,0]","101","101","0","","","","","","",""
"","","","","","image-keyboard-response","147","295698","0.0-122.0","59f22a9fd6380600018b2929","665500ab8938657b03fbdba8","665792b0b9254b075ddfeebf","750","stimuli/01011010.jpg"," ","","feedback_trial","2","","","","","","","","","","","","","","","","","","","","",""
"","","","","","image-keyboard-response","148","297282","0.0-123.0","59f22a9fd6380600018b2929","665500ab8938657b03fbdba8","665792b0b9254b075ddfeebf","1582","stimuli/1100110.jpg","0","","prediction_trial","1","","false","","1","false","false","true","true","false","false","[1]","100","110","0","","","","","","",""
"","","","","","image-keyboard-response","149","298217","0.0-124.0","59f22a9fd6380600018b2929","665500ab8938657b03fbdba8","665792b0b9254b075ddfeebf","933","stimuli/11001101.jpg"," ","","feedback_trial","1","","","","","","","","","","","","","","","","","","","","",""
"","","","","","image-keyboard-response","150","299434","0.0-125.0","59f22a9fd6380600018b2929","665500ab8938657b03fbdba8","665792b0b9254b075ddfeebf","1216","stimuli/0100101.jpg","1","","prediction_trial","0","","false","","0","false","false","false","true","false","false","[0]","100","101","0","","","","","","",""
"","","","","","image-keyboard-response","151","300698","0.0-126.0","59f22a9fd6380600018b2929","665500ab8938657b03fbdba8","665792b0b9254b075ddfeebf","1262","stimuli/01001010.jpg"," ","","feedback_trial","0","","","","","","","","","","","","","","","","","","","","",""
"","","","","","image-keyboard-response","152","302858","0.0-127.0","59f22a9fd6380600018b2929","665500ab8938657b03fbdba8","665792b0b9254b075ddfeebf","2158","stimuli/0110100.jpg","0","","prediction_trial","1","","false","","0","false","true","false","false","false","false","[0,1]","110","100","0","","","","","","",""
"","","","","","image-keyboard-response","153","303450","0.0-128.0","59f22a9fd6380600018b2929","665500ab8938657b03fbdba8","665792b0b9254b075ddfeebf","591","stimuli/01101001.jpg"," ","","feedback_trial","0","","","","","","","","","","","","","","","","","","","","",""
"","","","","","image-keyboard-response","154","305250","0.0-129.0","59f22a9fd6380600018b2929","665500ab8938657b03fbdba8","665792b0b9254b075ddfeebf","1798","stimuli/2100001.jpg","2","","prediction_trial","2","","true","","2","false","true","true","true","false","true","[2]","100","001","1","","","","","","",""
"","","","","","image-keyboard-response","155","305921","0.0-130.0","59f22a9fd6380600018b2929","665500ab8938657b03fbdba8","665792b0b9254b075ddfeebf","669","stimuli/21000012.jpg"," ","","feedback_trial","2","","","","","","","","","","","","","","","","","","","","",""
"","","","","","image-keyboard-response","156","307538","0.0-131.0","59f22a9fd6380600018b2929","665500ab8938657b03fbdba8","665792b0b9254b075ddfeebf","1616","stimuli/1010111.jpg","2","","prediction_trial","1","","false","","1","false","false","false","true","false","false","[1]","010","111","0","","","","","","",""
"","","","","","image-keyboard-response","157","308354","0.0-132.0","59f22a9fd6380600018b2929","665500ab8938657b03fbdba8","665792b0b9254b075ddfeebf","814","stimuli/10101111.jpg"," ","","feedback_trial","1","","","","","","","","","","","","","","","","","","","","",""
"","","","","","image-keyboard-response","158","310930","0.0-133.0","59f22a9fd6380600018b2929","665500ab8938657b03fbdba8","665792b0b9254b075ddfeebf","2574","stimuli/2100111.jpg","1","","prediction_trial","2","","false","","2","false","false","true","true","false","false","[2]","100","111","0","","","","","","",""
"","","","","","image-keyboard-response","159","311722","0.0-134.0","59f22a9fd6380600018b2929","665500ab8938657b03fbdba8","665792b0b9254b075ddfeebf","790","stimuli/21001112.jpg"," ","","feedback_trial","2","","","","","","","","","","","","","","","","","","","","",""
"","","","","","image-keyboard-response","160","312848","0.0-135.0","59f22a9fd6380600018b2929","665500ab8938657b03fbdba8","665792b0b9254b075ddfeebf","1125","stimuli/2111101.jpg","2","","prediction_trial","1","","false","","2","false","false","false","false","false","false","[0,1,2]","111","101","0","","","","","","",""
"","","","","","image-keyboard-response","161","313601","0.0-136.0","59f22a9fd6380600018b2929","665500ab8938657b03fbdba8","665792b0b9254b075ddfeebf","752","stimuli/21111011.jpg"," ","","feedback_trial","0","","","","","","","","","","","","","","","","","","","","",""
"","","","","","image-keyboard-response","162","314784","0.0-137.0","59f22a9fd6380600018b2929","665500ab8938657b03fbdba8","665792b0b9254b075ddfeebf","1181","stimuli/2101011.jpg","1","","prediction_trial","0","","false","","2","false","false","false","false","false","false","[2,0]","101","011","0","","","","","","",""
"","","","","","image-keyboard-response","163","315520","0.0-138.0","59f22a9fd6380600018b2929","665500ab8938657b03fbdba8","665792b0b9254b075ddfeebf","736","stimuli/21010110.jpg"," ","","feedback_trial","2","","","","","","","","","","","","","","","","","","","","",""
"","","","","","image-keyboard-response","164","316569","0.0-139.0","59f22a9fd6380600018b2929","665500ab8938657b03fbdba8","665792b0b9254b075ddfeebf","1048","stimuli/1111110.jpg","0","","prediction_trial","1","","false","","1","false","false","false","false","false","false","[1,0,2]","111","110","0","","","","","","",""
"","","","","","image-keyboard-response","165","317785","0.0-140.0","59f22a9fd6380600018b2929","665500ab8938657b03fbdba8","665792b0b9254b075ddfeebf","1215","stimuli/11111101.jpg"," ","","feedback_trial","1","","","","","","","","","","","","","","","","","","","","",""
"","","","","","image-keyboard-response","166","319081","0.0-141.0","59f22a9fd6380600018b2929","665500ab8938657b03fbdba8","665792b0b9254b075ddfeebf","1296","stimuli/1010000.jpg","1","","prediction_trial","1","","true","","1","true","true","false","true","false","true","[1]","010","000","1","","","","","","",""
"","","","","","image-keyboard-response","167","319800","0.0-142.0","59f22a9fd6380600018b2929","665500ab8938657b03fbdba8","665792b0b9254b075ddfeebf","717","stimuli/10100001.jpg"," ","","feedback_trial","1","","","","","","","","","","","","","","","","","","","","",""
"","","","","","image-keyboard-response","168","321729","0.0-143.0","59f22a9fd6380600018b2929","665500ab8938657b03fbdba8","665792b0b9254b075ddfeebf","1928","stimuli/1100111.jpg","0","","prediction_trial","1","","false","","1","false","false","true","true","false","false","[1]","100","111","0","","","","","","",""
"","","","","","image-keyboard-response","169","322490","0.0-144.0","59f22a9fd6380600018b2929","665500ab8938657b03fbdba8","665792b0b9254b075ddfeebf","758","stimuli/11001111.jpg"," ","","feedback_trial","1","","","","","","","","","","","","","","","","","","","","",""
"","","","","","image-keyboard-response","170","323449","0.0-145.0","59f22a9fd6380600018b2929","665500ab8938657b03fbdba8","665792b0b9254b075ddfeebf","957","stimuli/2101110.jpg","2","","prediction_trial","2","","true","","2","true","true","false","false","false","false","[0,2]","101","110","1","","","","","","",""
"","","","","","image-keyboard-response","171","324194","0.0-146.0","59f22a9fd6380600018b2929","665500ab8938657b03fbdba8","665792b0b9254b075ddfeebf","744","stimuli/21011102.jpg"," ","","feedback_trial","0","","","","","","","","","","","","","","","","","","","","",""
"","","","","","image-keyboard-response","172","325161","0.0-147.0","59f22a9fd6380600018b2929","665500ab8938657b03fbdba8","665792b0b9254b075ddfeebf","966","stimuli/1000111.jpg","1","","prediction_trial","1","","true","","1","false","false","true","true","false","false","[1]","000","111","1","","","","","","",""
"","","","","","image-keyboard-response","173","326162","0.0-148.0","59f22a9fd6380600018b2929","665500ab8938657b03fbdba8","665792b0b9254b075ddfeebf","998","stimuli/10001111.jpg"," ","","feedback_trial","1","","","","","","","","","","","","","","","","","","","","",""
"","","","","","image-keyboard-response","174","327073","0.0-149.0","59f22a9fd6380600018b2929","665500ab8938657b03fbdba8","665792b0b9254b075ddfeebf","910","stimuli/1101100.jpg","1","","prediction_trial","1","","true","","1","true","true","true","true","true","true","[1]","101","100","1","","","","","","",""
"","","","","","image-keyboard-response","175","327441","0.0-150.0","59f22a9fd6380600018b2929","665500ab8938657b03fbdba8","665792b0b9254b075ddfeebf","366","stimuli/11011001.jpg"," ","","feedback_trial","1","","","","","","","","","","","","","","","","","","","","",""
"","","","","","image-keyboard-response","176","328704","0.0-151.0","59f22a9fd6380600018b2929","665500ab8938657b03fbdba8","665792b0b9254b075ddfeebf","1261","stimuli/1111010.jpg","1","","prediction_trial","2","","false","","1","false","true","false","false","false","false","[0,2,1]","111","010","0","","","","","","",""
"","","","","","image-keyboard-response","177","329475","0.0-152.0","59f22a9fd6380600018b2929","665500ab8938657b03fbdba8","665792b0b9254b075ddfeebf","770","stimuli/11110102.jpg"," ","","feedback_trial","0","","","","","","","","","","","","","","","","","","","","",""
"","","","","","image-keyboard-response","178","331849","0.0-153.0","59f22a9fd6380600018b2929","665500ab8938657b03fbdba8","665792b0b9254b075ddfeebf","2372","stimuli/2101101.jpg","0","","prediction_trial","2","","false","","2","false","false","false","false","false","false","[0,2]","101","101","0","","","","","","",""
"","","","","","image-keyboard-response","179","332537","0.0-154.0","59f22a9fd6380600018b2929","665500ab8938657b03fbdba8","665792b0b9254b075ddfeebf","687","stimuli/21011012.jpg"," ","","feedback_trial","0","","","","","","","","","","","","","","","","","","","","",""
"","","","","","image-keyboard-response","180","335905","0.0-155.0","59f22a9fd6380600018b2929","665500ab8938657b03fbdba8","665792b0b9254b075ddfeebf","3366","stimuli/0111111.jpg","0","","prediction_trial","0","","true","","0","false","false","false","false","false","false","[1,0,2]","111","111","1","","","","","","",""
"","","","","","image-keyboard-response","181","336458","0.0-156.0","59f22a9fd6380600018b2929","665500ab8938657b03fbdba8","665792b0b9254b075ddfeebf","552","stimuli/01111110.jpg"," ","","feedback_trial","1","","","","","","","","","","","","","","","","","","","","",""
"","","","","","image-keyboard-response","182","337792","0.0-157.0","59f22a9fd6380600018b2929","665500ab8938657b03fbdba8","665792b0b9254b075ddfeebf","1333","stimuli/0101011.jpg","0","","prediction_trial","2","","false","","0","true","true","false","false","false","false","[0,2]","101","011","0","","","","","","",""
"","","","","","image-keyboard-response","183","338481","0.0-158.0","59f22a9fd6380600018b2929","665500ab8938657b03fbdba8","665792b0b9254b075ddfeebf","688","stimuli/01010112.jpg"," ","","feedback_trial","0","","","","","","","","","","","","","","","","","","","","",""
"","","","","","image-keyboard-response","184","339498","0.0-159.0","59f22a9fd6380600018b2929","665500ab8938657b03fbdba8","665792b0b9254b075ddfeebf","1015","stimuli/2011111.jpg","2","","prediction_trial","1","","false","","2","false","false","false","false","false","false","[1,2]","011","111","0","","","","","","",""
"","","","","","image-keyboard-response","185","340273","0.0-160.0","59f22a9fd6380600018b2929","665500ab8938657b03fbdba8","665792b0b9254b075ddfeebf","774","stimuli/20111111.jpg"," ","","feedback_trial","1","","","","","","","","","","","","","","","","","","","","",""
"","","","","","image-keyboard-response","186","341241","0.0-161.0","59f22a9fd6380600018b2929","665500ab8938657b03fbdba8","665792b0b9254b075ddfeebf","966","stimuli/1101000.jpg","1","","prediction_trial","1","","true","","1","true","true","true","true","true","true","[1]","101","000","1","","","","","","",""
"","","","","","image-keyboard-response","187","341801","0.0-162.0","59f22a9fd6380600018b2929","665500ab8938657b03fbdba8","665792b0b9254b075ddfeebf","558","stimuli/11010001.jpg"," ","","feedback_trial","1","","","","","","","","","","","","","","","","","","","","",""
"","","","","","image-keyboard-response","188","343297","0.0-163.0","59f22a9fd6380600018b2929","665500ab8938657b03fbdba8","665792b0b9254b075ddfeebf","1496","stimuli/2000101.jpg","2","","prediction_trial","2","","true","","2","false","false","true","true","false","false","[2]","000","101","1","","","","","","",""
"","","","","","image-keyboard-response","189","344362","0.0-164.0","59f22a9fd6380600018b2929","665500ab8938657b03fbdba8","665792b0b9254b075ddfeebf","1062","stimuli/20001012.jpg"," ","","feedback_trial","2","","","","","","","","","","","","","","","","","","","","",""
"","","","","","image-keyboard-response","190","347777","0.0-165.0","59f22a9fd6380600018b2929","665500ab8938657b03fbdba8","665792b0b9254b075ddfeebf","3414","stimuli/2110011.jpg","0","","prediction_trial","2","","false","","2","false","false","true","true","false","false","[2]","110","011","0","","","","","","",""
"","","","","","image-keyboard-response","191","348409","0.0-166.0","59f22a9fd6380600018b2929","665500ab8938657b03fbdba8","665792b0b9254b075ddfeebf","629","stimuli/21100112.jpg"," ","","feedback_trial","2","","","","","","","","","","","","","","","","","","","","",""
"","","","","","image-keyboard-response","192","350816","0.0-167.0","59f22a9fd6380600018b2929","665500ab8938657b03fbdba8","665792b0b9254b075ddfeebf","2405","stimuli/1101110.jpg","1","","prediction_trial","1","","true","","1","false","false","true","true","false","false","[1]","101","110","1","","","","","","",""
"","","","","","image-keyboard-response","193","351681","0.0-168.0","59f22a9fd6380600018b2929","665500ab8938657b03fbdba8","665792b0b9254b075ddfeebf","864","stimuli/11011101.jpg"," ","","feedback_trial","1","","","","","","","","","","","","","","","","","","","","",""
"","","","","","image-keyboard-response","194","353714","0.0-169.0","59f22a9fd6380600018b2929","665500ab8938657b03fbdba8","665792b0b9254b075ddfeebf","2031","stimuli/0001010.jpg","0","","prediction_trial","0","","true","","0","true","true","true","true","true","true","[0]","001","010","1","","","","","","",""
"","","","","","image-keyboard-response","195","354098","0.0-170.0","59f22a9fd6380600018b2929","665500ab8938657b03fbdba8","665792b0b9254b075ddfeebf","382","stimuli/00010100.jpg"," ","","feedback_trial","0","","","","","","","","","","","","","","","","","","","","",""
"","","","","","image-keyboard-response","196","355914","0.0-171.0","59f22a9fd6380600018b2929","665500ab8938657b03fbdba8","665792b0b9254b075ddfeebf","1814","stimuli/1011111.jpg","0","","prediction_trial","2","","false","","1","false","false","false","false","false","false","[2,1]","011","111","0","","","","","","",""
"","","","","","image-keyboard-response","197","356769","0.0-172.0","59f22a9fd6380600018b2929","665500ab8938657b03fbdba8","665792b0b9254b075ddfeebf","854","stimuli/10111112.jpg"," ","","feedback_trial","2","","","","","","","","","","","","","","","","","","","","",""
"","","","","","image-keyboard-response","198","358905","0.0-173.0","59f22a9fd6380600018b2929","665500ab8938657b03fbdba8","665792b0b9254b075ddfeebf","2134","stimuli/0011111.jpg","1","","prediction_trial","0","","false","","0","false","false","true","true","false","false","[0]","011","111","0","","","","","","",""
"","","","","","image-keyboard-response","199","360194","0.0-174.0","59f22a9fd6380600018b2929","665500ab8938657b03fbdba8","665792b0b9254b075ddfeebf","1286","stimuli/00111110.jpg"," ","","feedback_trial","0","","","","","","","","","","","","","","","","","","","","",""
"","","","","","image-keyboard-response","200","361400","0.0-175.0","59f22a9fd6380600018b2929","665500ab8938657b03fbdba8","665792b0b9254b075ddfeebf","1205","stimuli/2101111.jpg","1","","prediction_trial","0","","false","","2","false","false","false","false","false","false","[2,0]","101","111","0","","","","","","",""
"","","","","","image-keyboard-response","201","361930","0.0-176.0","59f22a9fd6380600018b2929","665500ab8938657b03fbdba8","665792b0b9254b075ddfeebf","528","stimuli/21011110.jpg"," ","","feedback_trial","2","","","","","","","","","","","","","","","","","","","","",""
"","","","","","image-keyboard-response","202","363561","0.0-177.0","59f22a9fd6380600018b2929","665500ab8938657b03fbdba8","665792b0b9254b075ddfeebf","1630","stimuli/0111010.jpg","2","","prediction_trial","2","","true","","0","true","true","false","false","false","false","[2,0,1]","111","010","1","","","","","","",""
"","","","","","image-keyboard-response","203","364170","0.0-178.0","59f22a9fd6380600018b2929","665500ab8938657b03fbdba8","665792b0b9254b075ddfeebf","605","stimuli/01110102.jpg"," ","","feedback_trial","2","","","","","","","","","","","","","","","","","","","","",""
"","","","","","image-keyboard-response","204","366745","0.0-179.0","59f22a9fd6380600018b2929","665500ab8938657b03fbdba8","665792b0b9254b075ddfeebf","2574","stimuli/0010010.jpg","0","","prediction_trial","0","","true","","0","true","true","true","true","true","true","[0]","010","010","1","","","","","","",""
"","","","","","image-keyboard-response","205","367897","0.0-180.0","59f22a9fd6380600018b2929","665500ab8938657b03fbdba8","665792b0b9254b075ddfeebf","1150","stimuli/00100100.jpg"," ","","feedback_trial","0","","","","","","","","","","","","","","","","","","","","",""
"","","","","","image-keyboard-response","206","370386","0.0-181.0","59f22a9fd6380600018b2929","665500ab8938657b03fbdba8","665792b0b9254b075ddfeebf","2488","stimuli/1001010.jpg","1","","prediction_trial","1","","true","","1","false","true","true","true","false","true","[1]","001","010","1","","","","","","",""
"","","","","","image-keyboard-response","207","370961","0.0-182.0","59f22a9fd6380600018b2929","665500ab8938657b03fbdba8","665792b0b9254b075ddfeebf","574","stimuli/10010101.jpg"," ","","feedback_trial","1","","","","","","","","","","","","","","","","","","","","",""
"","","","","","image-keyboard-response","208","371848","0.0-183.0","59f22a9fd6380600018b2929","665500ab8938657b03fbdba8","665792b0b9254b075ddfeebf","886","stimuli/2110110.jpg","2","","prediction_trial","2","","true","","2","true","true","true","true","true","true","[2]","110","110","1","","","","","","",""
"","","","","","image-keyboard-response","209","372202","0.0-184.0","59f22a9fd6380600018b2929","665500ab8938657b03fbdba8","665792b0b9254b075ddfeebf","352","stimuli/21101102.jpg"," ","","feedback_trial","2","","","","","","","","","","","","","","","","","","","","",""
"","","","","","image-keyboard-response","210","374834","0.0-185.0","59f22a9fd6380600018b2929","665500ab8938657b03fbdba8","665792b0b9254b075ddfeebf","2630","stimuli/1001011.jpg","1","","prediction_trial","1","","true","","1","false","false","true","true","false","false","[1]","001","011","1","","","","","","",""
"","","","","","image-keyboard-response","211","375498","0.0-186.0","59f22a9fd6380600018b2929","665500ab8938657b03fbdba8","665792b0b9254b075ddfeebf","663","stimuli/10010111.jpg"," ","","feedback_trial","1","","","","","","","","","","","","","","","","","","","","",""
"","","","","","image-keyboard-response","212","378440","0.0-187.0","59f22a9fd6380600018b2929","665500ab8938657b03fbdba8","665792b0b9254b075ddfeebf","2941","stimuli/1110001.jpg","0","","prediction_trial","1","","false","","1","true","true","false","false","false","false","[1,0]","110","001","0","","","","","","",""
"","","","","","image-keyboard-response","213","379114","0.0-188.0","59f22a9fd6380600018b2929","665500ab8938657b03fbdba8","665792b0b9254b075ddfeebf","673","stimuli/11100011.jpg"," ","","feedback_trial","1","","","","","","","","","","","","","","","","","","","","",""
"","","","","","image-keyboard-response","214","381186","0.0-189.0","59f22a9fd6380600018b2929","665500ab8938657b03fbdba8","665792b0b9254b075ddfeebf","2070","stimuli/1111101.jpg","1","","prediction_trial","2","","false","","1","true","true","false","false","false","false","[2,0,1]","111","101","0","","","","","","",""
"","","","","","image-keyboard-response","215","381954","0.0-190.0","59f22a9fd6380600018b2929","665500ab8938657b03fbdba8","665792b0b9254b075ddfeebf","766","stimuli/11111012.jpg"," ","","feedback_trial","2","","","","","","","","","","","","","","","","","","","","",""
"","","","","","image-keyboard-response","216","384185","0.0-191.0","59f22a9fd6380600018b2929","665500ab8938657b03fbdba8","665792b0b9254b075ddfeebf","2230","stimuli/1100011.jpg","2","","prediction_trial","1","","false","","1","false","false","true","true","false","false","[1]","100","011","0","","","","","","",""
"","","","","","image-keyboard-response","217","384792","0.0-192.0","59f22a9fd6380600018b2929","665500ab8938657b03fbdba8","665792b0b9254b075ddfeebf","605","stimuli/11000111.jpg"," ","","feedback_trial","1","","","","","","","","","","","","","","","","","","","","",""
"","","","","","image-keyboard-response","218","386665","0.0-193.0","59f22a9fd6380600018b2929","665500ab8938657b03fbdba8","665792b0b9254b075ddfeebf","1872","stimuli/2111010.jpg","0","","prediction_trial","0","","true","","2","true","true","false","false","false","false","[2,1,0]","111","010","1","","","","","","",""
"","","","","","image-keyboard-response","219","387320","0.0-194.0","59f22a9fd6380600018b2929","665500ab8938657b03fbdba8","665792b0b9254b075ddfeebf","653","stimuli/21110100.jpg"," ","","feedback_trial","2","","","","","","","","","","","","","","","","","","","","",""
"","","","","","image-keyboard-response","220","388784","0.0-195.0","59f22a9fd6380600018b2929","665500ab8938657b03fbdba8","665792b0b9254b075ddfeebf","1463","stimuli/2100110.jpg","2","","prediction_trial","2","","true","","2","true","true","true","true","true","true","[2]","100","110","1","","","","","","",""
"","","","","","image-keyboard-response","221","389121","0.0-196.0","59f22a9fd6380600018b2929","665500ab8938657b03fbdba8","665792b0b9254b075ddfeebf","336","stimuli/21001102.jpg"," ","","feedback_trial","2","","","","","","","","","","","","","","","","","","","","",""
"","","","","","image-keyboard-response","222","389930","0.0-197.0","59f22a9fd6380600018b2929","665500ab8938657b03fbdba8","665792b0b9254b075ddfeebf","806","stimuli/1100001.jpg","1","","prediction_trial","1","","true","","1","true","true","true","true","true","true","[1]","100","001","1","","","","","","",""
"","","","","","image-keyboard-response","223","390289","0.0-198.0","59f22a9fd6380600018b2929","665500ab8938657b03fbdba8","665792b0b9254b075ddfeebf","358","stimuli/11000011.jpg"," ","","feedback_trial","1","","","","","","","","","","","","","","","","","","","","",""
"","","","","","image-keyboard-response","224","392242","0.0-199.0","59f22a9fd6380600018b2929","665500ab8938657b03fbdba8","665792b0b9254b075ddfeebf","1950","stimuli/2111011.jpg","0","","prediction_trial","1","","false","","2","false","false","false","false","false","false","[1,2,0]","111","011","0","","","","","","",""
"","","","","","image-keyboard-response","225","392793","0.0-200.0","59f22a9fd6380600018b2929","665500ab8938657b03fbdba8","665792b0b9254b075ddfeebf","550","stimuli/21110111.jpg"," ","","feedback_trial","1","","","","","","","","","","","","","","","","","","","","",""
"","","","","","image-keyboard-response","226","393672","0.0-201.0","59f22a9fd6380600018b2929","665500ab8938657b03fbdba8","665792b0b9254b075ddfeebf","877","stimuli/2010110.jpg","2","","prediction_trial","2","","true","","2","true","true","true","true","true","true","[2]","010","110","1","","","","","","",""
"","","","","","image-keyboard-response","227","393952","0.0-202.0","59f22a9fd6380600018b2929","665500ab8938657b03fbdba8","665792b0b9254b075ddfeebf","279","stimuli/20101102.jpg"," ","","feedback_trial","2","","","","","","","","","","","","","","","","","","","","",""
"","","","","","image-keyboard-response","228","395121","0.0-203.0","59f22a9fd6380600018b2929","665500ab8938657b03fbdba8","665792b0b9254b075ddfeebf","1168","stimuli/0011101.jpg","2","","prediction_trial","0","","false","","0","false","false","true","true","false","false","[0]","011","101","0","","","","","","",""
"","","","","","image-keyboard-response","229","395680","0.0-204.0","59f22a9fd6380600018b2929","665500ab8938657b03fbdba8","665792b0b9254b075ddfeebf","557","stimuli/00111010.jpg"," ","","feedback_trial","0","","","","","","","","","","","","","","","","","","","","",""
"","","","","","image-keyboard-response","230","398032","0.0-205.0","59f22a9fd6380600018b2929","665500ab8938657b03fbdba8","665792b0b9254b075ddfeebf","2352","stimuli/2011101.jpg","0","","prediction_trial","1","","false","","2","false","false","false","false","false","false","[1,2]","011","101","0","","","","","","",""
"","","","","","image-keyboard-response","231","398897","0.0-206.0","59f22a9fd6380600018b2929","665500ab8938657b03fbdba8","665792b0b9254b075ddfeebf","863","stimuli/20111011.jpg"," ","","feedback_trial","1","","","","","","","","","","","","","","","","","","","","",""
"","","","","","image-keyboard-response","232","400441","0.0-207.0","59f22a9fd6380600018b2929","665500ab8938657b03fbdba8","665792b0b9254b075ddfeebf","1544","stimuli/2011100.jpg","2","","prediction_trial","2","","true","","2","true","true","false","false","false","false","[1,2]","011","100","1","","","","","","",""
"","","","","","image-keyboard-response","233","400888","0.0-208.0","59f22a9fd6380600018b2929","665500ab8938657b03fbdba8","665792b0b9254b075ddfeebf","445","stimuli/20111002.jpg"," ","","feedback_trial","1","","","","","","","","","","","","","","","","","","","","",""
"","","","","","image-keyboard-response","234","402001","0.0-209.0","59f22a9fd6380600018b2929","665500ab8938657b03fbdba8","665792b0b9254b075ddfeebf","1112","stimuli/1101010.jpg","1","","prediction_trial","1","","true","","1","false","true","true","true","false","true","[1]","101","010","1","","","","","","",""
"","","","","","image-keyboard-response","235","402481","0.0-210.0","59f22a9fd6380600018b2929","665500ab8938657b03fbdba8","665792b0b9254b075ddfeebf","478","stimuli/11010101.jpg"," ","","feedback_trial","1","","","","","","","","","","","","","","","","","","","","",""
"","","","","","image-keyboard-response","236","405073","0.0-211.0","59f22a9fd6380600018b2929","665500ab8938657b03fbdba8","665792b0b9254b075ddfeebf","2590","stimuli/2010011.jpg","2","","prediction_trial","2","","true","","2","false","false","true","true","false","false","[2]","010","011","1","","","","","","",""
"","","","","","image-keyboard-response","237","405880","0.0-212.0","59f22a9fd6380600018b2929","665500ab8938657b03fbdba8","665792b0b9254b075ddfeebf","805","stimuli/20100112.jpg"," ","","feedback_trial","2","","","","","","","","","","","","","","","","","","","","",""
"","","","","","image-keyboard-response","238","408249","0.0-213.0","59f22a9fd6380600018b2929","665500ab8938657b03fbdba8","665792b0b9254b075ddfeebf","2368","stimuli/1010001.jpg","1","","prediction_trial","1","","true","","1","true","true","false","true","false","true","[1]","010","001","1","","","","","","",""
"","","","","","image-keyboard-response","239","409106","0.0-214.0","59f22a9fd6380600018b2929","665500ab8938657b03fbdba8","665792b0b9254b075ddfeebf","854","stimuli/10100011.jpg"," ","","feedback_trial","1","","","","","","","","","","","","","","","","","","","","",""
"","","","","","image-keyboard-response","240","411617","0.0-215.0","59f22a9fd6380600018b2929","665500ab8938657b03fbdba8","665792b0b9254b075ddfeebf","2510","stimuli/0010100.jpg","0","","prediction_trial","0","","true","","0","false","true","true","true","false","true","[0]","010","100","1","","","","","","",""
"","","","","","image-keyboard-response","241","412169","0.0-216.0","59f22a9fd6380600018b2929","665500ab8938657b03fbdba8","665792b0b9254b075ddfeebf","550","stimuli/00101000.jpg"," ","","feedback_trial","0","","","","","","","","","","","","","","","","","","","","",""
"","","","","","image-keyboard-response","242","413153","0.0-217.0","59f22a9fd6380600018b2929","665500ab8938657b03fbdba8","665792b0b9254b075ddfeebf","982","stimuli/2000001.jpg","2","","prediction_trial","2","","true","","2","false","true","true","true","false","true","[2]","000","001","1","","","","","","",""
"","","","","","image-keyboard-response","243","413578","0.0-218.0","59f22a9fd6380600018b2929","665500ab8938657b03fbdba8","665792b0b9254b075ddfeebf","424","stimuli/20000012.jpg"," ","","feedback_trial","2","","","","","","","","","","","","","","","","","","","","",""
"","","","","","image-keyboard-response","244","417041","0.0-219.0","59f22a9fd6380600018b2929","665500ab8938657b03fbdba8","665792b0b9254b075ddfeebf","3462","stimuli/2111000.jpg","2","","prediction_trial","2","","true","","2","true","true","false","false","false","false","[0,2,1]","111","000","1","","","","","","",""
"","","","","","image-keyboard-response","245","417504","0.0-220.0","59f22a9fd6380600018b2929","665500ab8938657b03fbdba8","665792b0b9254b075ddfeebf","461","stimuli/21110002.jpg"," ","","feedback_trial","0","","","","","","","","","","","","","","","","","","","","",""
"","","","","","image-keyboard-response","246","419960","0.0-221.0","59f22a9fd6380600018b2929","665500ab8938657b03fbdba8","665792b0b9254b075ddfeebf","2455","stimuli/0100010.jpg","0","","prediction_trial","0","","true","","0","true","true","false","true","false","true","[0]","100","010","1","","","","","","",""
"","","","","","image-keyboard-response","247","420440","0.0-222.0","59f22a9fd6380600018b2929","665500ab8938657b03fbdba8","665792b0b9254b075ddfeebf","479","stimuli/01000100.jpg"," ","","feedback_trial","0","","","","","","","","","","","","","","","","","","","","",""
"","","","","","image-keyboard-response","248","421705","0.0-223.0","59f22a9fd6380600018b2929","665500ab8938657b03fbdba8","665792b0b9254b075ddfeebf","1264","stimuli/2110010.jpg","2","","prediction_trial","2","","true","","2","true","true","true","true","true","true","[2]","110","010","1","","","","","","",""
"","","","","","image-keyboard-response","249","422138","0.0-224.0","59f22a9fd6380600018b2929","665500ab8938657b03fbdba8","665792b0b9254b075ddfeebf","431","stimuli/21100102.jpg"," ","","feedback_trial","2","","","","","","","","","","","","","","","","","","","","",""
"","","","","","image-keyboard-response","250","423145","0.0-225.0","59f22a9fd6380600018b2929","665500ab8938657b03fbdba8","665792b0b9254b075ddfeebf","1006","stimuli/2001100.jpg","2","","prediction_trial","2","","true","","2","true","true","false","true","false","true","[2]","001","100","1","","","","","","",""
"","","","","","image-keyboard-response","251","423570","0.0-226.0","59f22a9fd6380600018b2929","665500ab8938657b03fbdba8","665792b0b9254b075ddfeebf","422","stimuli/20011002.jpg"," ","","feedback_trial","2","","","","","","","","","","","","","","","","","","","","",""
"","","","","","image-keyboard-response","252","426441","0.0-227.0","59f22a9fd6380600018b2929","665500ab8938657b03fbdba8","665792b0b9254b075ddfeebf","2870","stimuli/2000111.jpg","0","","prediction_trial","2","","false","","2","false","false","true","true","false","false","[2]","000","111","0","","","","","","",""
"","","","","","image-keyboard-response","253","427153","0.0-228.0","59f22a9fd6380600018b2929","665500ab8938657b03fbdba8","665792b0b9254b075ddfeebf","710","stimuli/20001112.jpg"," ","","feedback_trial","2","","","","","","","","","","","","","","","","","","","","",""
"","","","","","image-keyboard-response","254","428298","0.0-229.0","59f22a9fd6380600018b2929","665500ab8938657b03fbdba8","665792b0b9254b075ddfeebf","1143","stimuli/0000001.jpg","0","","prediction_trial","0","","true","","0","true","true","true","true","true","true","[0]","000","001","1","","","","","","",""
"","","","","","image-keyboard-response","255","428618","0.0-230.0","59f22a9fd6380600018b2929","665500ab8938657b03fbdba8","665792b0b9254b075ddfeebf","318","stimuli/00000010.jpg"," ","","feedback_trial","0","","","","","","","","","","","","","","","","","","","","",""
"","","","","","image-keyboard-response","256","431240","0.0-231.0","59f22a9fd6380600018b2929","665500ab8938657b03fbdba8","665792b0b9254b075ddfeebf","2621","stimuli/0001110.jpg","0","","prediction_trial","0","","true","","0","false","false","true","true","false","false","[0]","001","110","1","","","","","","",""
"","","","","","image-keyboard-response","257","432114","0.0-232.0","59f22a9fd6380600018b2929","665500ab8938657b03fbdba8","665792b0b9254b075ddfeebf","872","stimuli/00011100.jpg"," ","","feedback_trial","0","","","","","","","","","","","","","","","","","","","","",""
"","","","","","image-keyboard-response","258","433265","0.0-233.0","59f22a9fd6380600018b2929","665500ab8938657b03fbdba8","665792b0b9254b075ddfeebf","1150","stimuli/0001011.jpg","0","","prediction_trial","0","","true","","0","true","true","true","true","true","true","[0]","001","011","1","","","","","","",""
"","","","","","image-keyboard-response","259","433770","0.0-234.0","59f22a9fd6380600018b2929","665500ab8938657b03fbdba8","665792b0b9254b075ddfeebf","503","stimuli/00010110.jpg"," ","","feedback_trial","0","","","","","","","","","","","","","","","","","","","","",""
"","","","","","image-keyboard-response","260","434640","0.0-235.0","59f22a9fd6380600018b2929","665500ab8938657b03fbdba8","665792b0b9254b075ddfeebf","869","stimuli/1001101.jpg","1","","prediction_trial","1","","true","","1","true","true","true","true","true","true","[1]","001","101","1","","","","","","",""
"","","","","","image-keyboard-response","261","436048","0.0-236.0","59f22a9fd6380600018b2929","665500ab8938657b03fbdba8","665792b0b9254b075ddfeebf","1407","stimuli/10011011.jpg"," ","","feedback_trial","1","","","","","","","","","","","","","","","","","","","","",""
"","","","","","image-keyboard-response","262","436817","0.0-237.0","59f22a9fd6380600018b2929","665500ab8938657b03fbdba8","665792b0b9254b075ddfeebf","768","stimuli/2000010.jpg","2","","prediction_trial","2","","true","","2","true","true","true","true","true","true","[2]","000","010","1","","","","","","",""
"","","","","","image-keyboard-response","263","437882","0.0-238.0","59f22a9fd6380600018b2929","665500ab8938657b03fbdba8","665792b0b9254b075ddfeebf","1062","stimuli/20000102.jpg"," ","","feedback_trial","2","","","","","","","","","","","","","","","","","","","","",""
"","","","","","image-keyboard-response","264","439784","0.0-239.0","59f22a9fd6380600018b2929","665500ab8938657b03fbdba8","665792b0b9254b075ddfeebf","1901","stimuli/0100000.jpg","0","","prediction_trial","0","","true","","0","true","true","false","true","false","true","[0]","100","000","1","","","","","","",""
"","","","","","image-keyboard-response","265","441018","0.0-240.0","59f22a9fd6380600018b2929","665500ab8938657b03fbdba8","665792b0b9254b075ddfeebf","1233","stimuli/01000000.jpg"," ","","feedback_trial","0","","","","","","","","","","","","","","","","","","","","",""
"","","","","","image-keyboard-response","266","442257","0.0-241.0","59f22a9fd6380600018b2929","665500ab8938657b03fbdba8","665792b0b9254b075ddfeebf","1238","stimuli/1010010.jpg","1","","prediction_trial","1","","true","","1","false","true","false","true","false","true","[1]","010","010","1","","","","","","",""
"","","","","","image-keyboard-response","267","442570","0.0-242.0","59f22a9fd6380600018b2929","665500ab8938657b03fbdba8","665792b0b9254b075ddfeebf","310","stimuli/10100101.jpg"," ","","feedback_trial","1","","","","","","","","","","","","","","","","","","","","",""
"","","","","","image-keyboard-response","268","444816","0.0-243.0","59f22a9fd6380600018b2929","665500ab8938657b03fbdba8","665792b0b9254b075ddfeebf","2245","stimuli/1000010.jpg","1","","prediction_trial","1","","true","","1","false","true","true","true","false","true","[1]","000","010","1","","","","","","",""
"","","","","","image-keyboard-response","269","445032","0.0-244.0","59f22a9fd6380600018b2929","665500ab8938657b03fbdba8","665792b0b9254b075ddfeebf","215","stimuli/10000101.jpg"," ","","feedback_trial","1","","","","","","","","","","","","","","","","","","","","",""
"","","","","","image-keyboard-response","270","445945","0.0-245.0","59f22a9fd6380600018b2929","665500ab8938657b03fbdba8","665792b0b9254b075ddfeebf","912","stimuli/1000101.jpg","1","","prediction_trial","1","","true","","1","true","true","true","true","true","true","[1]","000","101","1","","","","","","",""
"","","","","","image-keyboard-response","271","446170","0.0-246.0","59f22a9fd6380600018b2929","665500ab8938657b03fbdba8","665792b0b9254b075ddfeebf","222","stimuli/10001011.jpg"," ","","feedback_trial","1","","","","","","","","","","","","","","","","","","","","",""
"","","","","","image-keyboard-response","272","447089","0.0-247.0","59f22a9fd6380600018b2929","665500ab8938657b03fbdba8","665792b0b9254b075ddfeebf","918","stimuli/2100100.jpg","2","","prediction_trial","2","","true","","2","true","true","true","true","true","true","[2]","100","100","1","","","","","","",""
"","","","","","image-keyboard-response","273","447306","0.0-248.0","59f22a9fd6380600018b2929","665500ab8938657b03fbdba8","665792b0b9254b075ddfeebf","216","stimuli/21001002.jpg"," ","","feedback_trial","2","","","","","","","","","","","","","","","","","","","","",""
"","","","","","image-keyboard-response","274","448593","0.0-249.0","59f22a9fd6380600018b2929","665500ab8938657b03fbdba8","665792b0b9254b075ddfeebf","1286","stimuli/1100010.jpg","1","","prediction_trial","1","","true","","1","false","true","true","true","false","true","[1]","100","010","1","","","","","","",""
"","","","","","image-keyboard-response","275","448920","0.0-250.0","59f22a9fd6380600018b2929","665500ab8938657b03fbdba8","665792b0b9254b075ddfeebf","325","stimuli/11000101.jpg"," ","","feedback_trial","1","","","","","","","","","","","","","","","","","","","","",""
"","","","","","image-keyboard-response","276","452249","0.0-251.0","59f22a9fd6380600018b2929","665500ab8938657b03fbdba8","665792b0b9254b075ddfeebf","3328","stimuli/1000110.jpg","0","","prediction_trial","1","","false","","1","false","false","true","true","false","false","[1]","000","110","0","","","","","","",""
"","","","","","image-keyboard-response","277","453704","0.0-252.0","59f22a9fd6380600018b2929","665500ab8938657b03fbdba8","665792b0b9254b075ddfeebf","1453","stimuli/10001101.jpg"," ","","feedback_trial","1","","","","","","","","","","","","","","","","","","","","",""
"","","","","","image-keyboard-response","278","454601","0.0-253.0","59f22a9fd6380600018b2929","665500ab8938657b03fbdba8","665792b0b9254b075ddfeebf","896","stimuli/0000011.jpg","0","","prediction_trial","0","","true","","0","true","true","true","true","true","true","[0]","000","011","1","","","","","","",""
"","","","","","image-keyboard-response","279","454874","0.0-254.0","59f22a9fd6380600018b2929","665500ab8938657b03fbdba8","665792b0b9254b075ddfeebf","271","stimuli/00000110.jpg"," ","","feedback_trial","0","","","","","","","","","","","","","","","","","","","","",""
"","","","","","image-keyboard-response","280","456257","0.0-255.0","59f22a9fd6380600018b2929","665500ab8938657b03fbdba8","665792b0b9254b075ddfeebf","1382","stimuli/0000101.jpg","2","","prediction_trial","0","","false","","0","false","false","true","true","false","false","[0]","000","101","0","","","","","","",""
"","","","","","image-keyboard-response","281","456993","0.0-256.0","59f22a9fd6380600018b2929","665500ab8938657b03fbdba8","665792b0b9254b075ddfeebf","734","stimuli/00001010.jpg"," ","","feedback_trial","0","","","","","","","","","","","","","","","","","","","","",""
"","","","","","image-keyboard-response","282","458080","0.0-257.0","59f22a9fd6380600018b2929","665500ab8938657b03fbdba8","665792b0b9254b075ddfeebf","1085","stimuli/2100010.jpg","2","","prediction_trial","2","","true","","2","true","true","true","true","true","true","[2]","100","010","1","","","","","","",""
"","","","","","image-keyboard-response","283","458418","0.0-258.0","59f22a9fd6380600018b2929","665500ab8938657b03fbdba8","665792b0b9254b075ddfeebf","337","stimuli/21000102.jpg"," ","","feedback_trial","2","","","","","","","","","","","","","","","","","","","","",""
"","","","","","image-keyboard-response","284","459393","0.0-259.0","59f22a9fd6380600018b2929","665500ab8938657b03fbdba8","665792b0b9254b075ddfeebf","974","stimuli/1101101.jpg","1","","prediction_trial","1","","true","","1","true","true","true","true","true","true","[1]","101","101","1","","","","","","",""
"","","","","","image-keyboard-response","285","459618","0.0-260.0","59f22a9fd6380600018b2929","665500ab8938657b03fbdba8","665792b0b9254b075ddfeebf","223","stimuli/11011011.jpg"," ","","feedback_trial","1","","","","","","","","","","","","","","","","","","","","",""
"","","","","","image-keyboard-response","286","461225","0.0-261.0","59f22a9fd6380600018b2929","665500ab8938657b03fbdba8","665792b0b9254b075ddfeebf","1606","stimuli/2001111.jpg","2","","prediction_trial","2","","true","","2","false","false","false","true","false","false","[2]","001","111","1","","","","","","",""
"","","","","","image-keyboard-response","287","461930","0.0-262.0","59f22a9fd6380600018b2929","665500ab8938657b03fbdba8","665792b0b9254b075ddfeebf","702","stimuli/20011112.jpg"," ","","feedback_trial","2","","","","","","","","","","","","","","","","","","","","",""
"","","","","","image-keyboard-response","288","463609","0.0-263.0","59f22a9fd6380600018b2929","665500ab8938657b03fbdba8","665792b0b9254b075ddfeebf","1677","stimuli/1100100.jpg","2","","prediction_trial","1","","false","","1","true","true","true","true","true","true","[1]","100","100","0","","","","","","",""
"","","","","","image-keyboard-response","289","464001","0.0-264.0","59f22a9fd6380600018b2929","665500ab8938657b03fbdba8","665792b0b9254b075ddfeebf","390","stimuli/11001001.jpg"," ","","feedback_trial","1","","","","","","","","","","","","","","","","","","","","",""
"","","","","","image-keyboard-response","290","465680","0.0-265.0","59f22a9fd6380600018b2929","665500ab8938657b03fbdba8","665792b0b9254b075ddfeebf","1677","stimuli/2001010.jpg","2","","prediction_trial","2","","true","","2","true","true","false","true","false","true","[2]","001","010","1","","","","","","",""
"","","","","","image-keyboard-response","291","465921","0.0-266.0","59f22a9fd6380600018b2929","665500ab8938657b03fbdba8","665792b0b9254b075ddfeebf","240","stimuli/20010102.jpg"," ","","feedback_trial","2","","","","","","","","","","","","","","","","","","","","",""
"","","","","","image-keyboard-response","292","466888","0.0-267.0","59f22a9fd6380600018b2929","665500ab8938657b03fbdba8","665792b0b9254b075ddfeebf","965","stimuli/1111000.jpg","1","","prediction_trial","2","","false","","1","true","true","false","false","false","false","[1,0,2]","111","000","0","","","","","","",""
"","","","","","image-keyboard-response","293","467538","0.0-268.0","59f22a9fd6380600018b2929","665500ab8938657b03fbdba8","665792b0b9254b075ddfeebf","648","stimuli/11110002.jpg"," ","","feedback_trial","1","","","","","","","","","","","","","","","","","","","","",""
"","","","","","image-keyboard-response","294","468721","0.0-269.0","59f22a9fd6380600018b2929","665500ab8938657b03fbdba8","665792b0b9254b075ddfeebf","1182","stimuli/1110110.jpg","1","","prediction_trial","1","","true","","1","false","false","false","false","false","false","[0,1]","110","110","1","","","","","","",""
"","","","","","image-keyboard-response","295","469161","0.0-270.0","59f22a9fd6380600018b2929","665500ab8938657b03fbdba8","665792b0b9254b075ddfeebf","438","stimuli/11101101.jpg"," ","","feedback_trial","0","","","","","","","","","","","","","","","","","","","","",""
"","","","","","image-keyboard-response","296","470929","0.0-271.0","59f22a9fd6380600018b2929","665500ab8938657b03fbdba8","665792b0b9254b075ddfeebf","1766","stimuli/1110111.jpg","0","","prediction_trial","1","","false","","1","false","false","false","false","false","false","[0,1]","110","111","0","","","","","","",""
"","","","","","image-keyboard-response","297","471410","0.0-272.0","59f22a9fd6380600018b2929","665500ab8938657b03fbdba8","665792b0b9254b075ddfeebf","478","stimuli/11101111.jpg"," ","","feedback_trial","0","","","","","","","","","","","","","","","","","","","","",""
"","","","","","image-keyboard-response","298","472289","0.0-273.0","59f22a9fd6380600018b2929","665500ab8938657b03fbdba8","665792b0b9254b075ddfeebf","878","stimuli/2001000.jpg","2","","prediction_trial","2","","true","","2","true","true","false","true","false","true","[2]","001","000","1","","","","","","",""
"","","","","","image-keyboard-response","299","472626","0.0-274.0","59f22a9fd6380600018b2929","665500ab8938657b03fbdba8","665792b0b9254b075ddfeebf","334","stimuli/20010002.jpg"," ","","feedback_trial","2","","","","","","","","","","","","","","","","","","","","",""
"","","","","","image-keyboard-response","300","474474","0.0-275.0","59f22a9fd6380600018b2929","665500ab8938657b03fbdba8","665792b0b9254b075ddfeebf","1847","stimuli/0101111.jpg","1","","prediction_trial","2","","false","","0","false","false","false","false","false","false","[2,0]","101","111","0","","","","","","",""
"","","","","","image-keyboard-response","301","474978","0.0-276.0","59f22a9fd6380600018b2929","665500ab8938657b03fbdba8","665792b0b9254b075ddfeebf","501","stimuli/01011112.jpg"," ","","feedback_trial","2","","","","","","","","","","","","","","","","","","","","",""
"","","","","","image-keyboard-response","302","476266","0.0-277.0","59f22a9fd6380600018b2929","665500ab8938657b03fbdba8","665792b0b9254b075ddfeebf","1286","stimuli/0111101.jpg","0","","prediction_trial","2","","false","","0","false","false","false","false","false","false","[0,2,1]","111","101","0","","","","","","",""
"","","","","","image-keyboard-response","303","476714","0.0-278.0","59f22a9fd6380600018b2929","665500ab8938657b03fbdba8","665792b0b9254b075ddfeebf","446","stimuli/01111012.jpg"," ","","feedback_trial","0","","","","","","","","","","","","","","","","","","","","",""
"","","","","","image-keyboard-response","304","477905","0.0-279.0","59f22a9fd6380600018b2929","665500ab8938657b03fbdba8","665792b0b9254b075ddfeebf","1190","stimuli/2110111.jpg","2","","prediction_trial","2","","true","","2","false","false","true","true","false","false","[2]","110","111","1","","","","","","",""
"","","","","","image-keyboard-response","305","478233","0.0-280.0","59f22a9fd6380600018b2929","665500ab8938657b03fbdba8","665792b0b9254b075ddfeebf","326","stimuli/21101112.jpg"," ","","feedback_trial","2","","","","","","","","","","","","","","","","","","","","",""
"","","","","","image-keyboard-response","306","479472","0.0-281.0","59f22a9fd6380600018b2929","665500ab8938657b03fbdba8","665792b0b9254b075ddfeebf","1237","stimuli/1101011.jpg","0","","prediction_trial","1","","false","","1","false","false","true","true","false","false","[1]","101","011","0","","","","","","",""
"","","","","","image-keyboard-response","307","480858","0.0-282.0","59f22a9fd6380600018b2929","665500ab8938657b03fbdba8","665792b0b9254b075ddfeebf","1384","stimuli/11010111.jpg"," ","","feedback_trial","1","","","","","","","","","","","","","","","","","","","","",""
"","","","","","image-keyboard-response","308","481921","0.0-283.0","59f22a9fd6380600018b2929","665500ab8938657b03fbdba8","665792b0b9254b075ddfeebf","1061","stimuli/0000100.jpg","2","","prediction_trial","0","","false","","0","false","true","true","true","false","true","[0]","000","100","0","","","","","","",""
"","","","","","image-keyboard-response","309","504953","0.0-284.0","59f22a9fd6380600018b2929","665500ab8938657b03fbdba8","665792b0b9254b075ddfeebf","23032","stimuli/00001000.jpg"," ","","feedback_trial","0","","","","","","","","","","","","","","","","","","","","",""
"","","","","","image-keyboard-response","310","506513","0.0-285.0","59f22a9fd6380600018b2929","665500ab8938657b03fbdba8","665792b0b9254b075ddfeebf","1558","stimuli/0010011.jpg","0","","prediction_trial","0","","true","","0","true","true","true","true","true","true","[0]","010","011","1","","","","","","",""
"","","","","","image-keyboard-response","311","507626","0.0-286.0","59f22a9fd6380600018b2929","665500ab8938657b03fbdba8","665792b0b9254b075ddfeebf","1110","stimuli/00100110.jpg"," ","","feedback_trial","0","","","","","","","","","","","","","","","","","","","","",""
"","","","","","image-keyboard-response","312","509473","0.0-287.0","59f22a9fd6380600018b2929","665500ab8938657b03fbdba8","665792b0b9254b075ddfeebf","1845","stimuli/0001101.jpg","0","","prediction_trial","0","","true","","0","false","false","true","true","false","false","[0]","001","101","1","","","","","","",""
"","","","","","image-keyboard-response","313","509849","0.0-288.0","59f22a9fd6380600018b2929","665500ab8938657b03fbdba8","665792b0b9254b075ddfeebf","374","stimuli/00011010.jpg"," ","","feedback_trial","0","","","","","","","","","","","","","","","","","","","","",""
"","","","","","image-keyboard-response","314","511104","0.0-289.0","59f22a9fd6380600018b2929","665500ab8938657b03fbdba8","665792b0b9254b075ddfeebf","1253","stimuli/1100101.jpg","1","","prediction_trial","1","","true","","1","true","true","true","true","true","true","[1]","100","101","1","","","","","","",""
"","","","","","image-keyboard-response","315","511449","0.0-290.0","59f22a9fd6380600018b2929","665500ab8938657b03fbdba8","665792b0b9254b075ddfeebf","344","stimuli/11001011.jpg"," ","","feedback_trial","1","","","","","","","","","","","","","","","","","","","","",""
"","","","","","image-keyboard-response","316","512721","0.0-291.0","59f22a9fd6380600018b2929","665500ab8938657b03fbdba8","665792b0b9254b075ddfeebf","1270","stimuli/2001001.jpg","2","","prediction_trial","2","","true","","2","false","true","false","true","false","true","[2]","001","001","1","","","","","","",""
"","","","","","image-keyboard-response","317","513353","0.0-292.0","59f22a9fd6380600018b2929","665500ab8938657b03fbdba8","665792b0b9254b075ddfeebf","630","stimuli/20010012.jpg"," ","","feedback_trial","2","","","","","","","","","","","","","","","","","","","","",""
"","","","","","survey-html-form","318","558905","0.0-293.0","59f22a9fd6380600018b2929","665500ab8938657b03fbdba8","665792b0b9254b075ddfeebf","45549","","{""feedback"":""Some were random (if I knew he couldn't see), some were based on knowing he could see the ball "",""age"":""28"",""gender"":""Female"",""other_gender"":"""",""race"":""White"",""other_race"":"""",""ethnicity"":""Non-Hispanic""}","","exit_survey","","","","","","","","","","","","","","","","Some were random (if I knew he couldn't see), some were based on knowing he could see the ball ","28","Non-Hispanic","Female","White","0.5833333333333334","0.5833333333333334"
