"success","timeout","failed_images","failed_audio","failed_video","trial_type","trial_index","time_elapsed","internal_node_id","prolific_id","prolific_study_id","prolific_session_id","rt","stimulus","response","view_history","trial","character_choice","stimulus_dict","accuracy","correct_response","ball_pos","ego_ball_visible","ego_can_infer","alter_ball_visible","alter_can_infer","collective_ball_visible","collective_can_infer","search_locations","alter_occluders","ego_occluders","accuracy_bool","feedback","age","ethnicity","gender","race","overall_accuracy","bonus"
"true","false","[]","[]","[]","preload","0","7147","0.0-0.0","5e8601d90126b207e8c7a2aa","665500ab8938657b03fbdba8","6657927974a8e5165543c8fd","","","","","","","","","","","","","","","","","","","","","","","","","","",""
"true","","","","","fullscreen","1","12044","0.0-1.0","5e8601d90126b207e8c7a2aa","665500ab8938657b03fbdba8","6657927974a8e5165543c8fd","","","","","","","","","","","","","","","","","","","","","","","","","","",""
"","","","","","html-button-response","2","18825","0.0-2.0","5e8601d90126b207e8c7a2aa","665500ab8938657b03fbdba8","6657927974a8e5165543c8fd","6760","<p><b>Consent Form</b></p> <div style=""text-align:left;background-color:lightgrey; padding:20px; max-width:900px;""><p>Please consider this information carefully before deciding whether to participate in this research.</p> <p>The purpose of this research is to examine which factors influence social judgment and decision-making. You will be asked to make judgements about individuals and actions in social scenarios. We are simply interested in your judgement. The study will take less than 1 hour to complete, and you will receive less than $20 on Prolific. Your compensation and time commitment are specified in the study description. There are no anticipated risks associated with participating in this study. The effects of participating should be comparable to those you would ordinarily experience from viewing a computer monitor and using a mouse or keyboard for a similar amount of time. At the end of the study, we will provide an explanation of the questions that motivate this line of research and will describe the potential implications. </p><p> Your participation in this study is completely voluntary and you may refuse to participate or you may choose to withdraw at any time without penalty or loss of benefits to you which are otherwise entitled. Your participation in this study will remain confidential. No personally identifiable information will be associated with your data. Also, all analyses of the data will be averaged across all the participants, so your individual responses will never be specifically analyzed. </p><p> If you have questions or concerns about your participation or payment, or want to request a summary of research findings, please contact Dr. Jonathan Phillips at Jonathan.S.Phillips@dartmouth.edu. </p><p> Please save a copy of this form for your records. </p><p><b>Agreement: </b>The nature and purpose of this research have been sufficiently explained and I agree to participate in this study. I understand that I am free to withdraw at any time without incurring any penalty. Please consent by clicking the button below to continue. Otherwise, please exit the study at any time. </p>","0","","","","","","","","","","","","","","","","","","","","","","","",""
"","","","","","instructions","3","174162","0.0-3.0-0.0","5e8601d90126b207e8c7a2aa","665500ab8938657b03fbdba8","6657927974a8e5165543c8fd","155332","","","[{""page_index"":0,""viewing_time"":2406},{""page_index"":1,""viewing_time"":4124},{""page_index"":2,""viewing_time"":3273},{""page_index"":3,""viewing_time"":13688},{""page_index"":4,""viewing_time"":4388},{""page_index"":5,""viewing_time"":3916},{""page_index"":6,""viewing_time"":2895},{""page_index"":7,""viewing_time"":3574},{""page_index"":8,""viewing_time"":4239},{""page_index"":9,""viewing_time"":2026},{""page_index"":10,""viewing_time"":36280},{""page_index"":11,""viewing_time"":23159},{""page_index"":12,""viewing_time"":49108},{""page_index"":13,""viewing_time"":2250}]","intro","","","","","","","","","","","","","","","","","","","","","",""
"","","","","","image-keyboard-response","4","178813","0.0-3.0-1.0","5e8601d90126b207e8c7a2aa","665500ab8938657b03fbdba8","6657927974a8e5165543c8fd","4620","stimuli/2100111.jpg","0","","prediction_practice","2","{""filepath"":""stimuli/2100111.jpg"",""ball_pos"":2,""ego_ball_visible"":false,""ego_can_infer"":false,""alter_ball_visible"":true,""alter_can_infer"":true,""collective_ball_visible"":false,""collective_can_infer"":false,""search_locations"":[2],""alter_occluders"":""100"",""ego_occluders"":""111""}","false","","","","","","","","","","","","","","","","","","",""
"","","","","","image-keyboard-response","5","180672","0.0-3.0-2.0","5e8601d90126b207e8c7a2aa","665500ab8938657b03fbdba8","6657927974a8e5165543c8fd","1854","stimuli/21001112.jpg"," ","","practrice_feedback","2","","","","","","","","","","","","","","","","","","","","",""
"","","","","","image-keyboard-response","6","182881","0.0-3.0-3.0","5e8601d90126b207e8c7a2aa","665500ab8938657b03fbdba8","6657927974a8e5165543c8fd","2202","stimuli/0001100.jpg","0","","prediction_practice","0","{""filepath"":""stimuli/0001100.jpg"",""ball_pos"":0,""ego_ball_visible"":false,""ego_can_infer"":true,""alter_ball_visible"":true,""alter_can_infer"":true,""collective_ball_visible"":false,""collective_can_infer"":true,""search_locations"":[0],""alter_occluders"":""001"",""ego_occluders"":""100""}","true","","","","","","","","","","","","","","","","","","",""
"","","","","","image-keyboard-response","7","184644","0.0-3.0-4.0","5e8601d90126b207e8c7a2aa","665500ab8938657b03fbdba8","6657927974a8e5165543c8fd","1754","stimuli/00011000.jpg"," ","","practrice_feedback","0","","","","","","","","","","","","","","","","","","","","",""
"","","","","","image-keyboard-response","8","187272","0.0-3.0-5.0","5e8601d90126b207e8c7a2aa","665500ab8938657b03fbdba8","6657927974a8e5165543c8fd","2621","stimuli/0010101.jpg","0","","prediction_practice","0","{""filepath"":""stimuli/0010101.jpg"",""ball_pos"":0,""ego_ball_visible"":false,""ego_can_infer"":false,""alter_ball_visible"":true,""alter_can_infer"":true,""collective_ball_visible"":false,""collective_can_infer"":false,""search_locations"":[0],""alter_occluders"":""010"",""ego_occluders"":""101""}","true","","","","","","","","","","","","","","","","","","",""
"","","","","","image-keyboard-response","9","188790","0.0-3.0-6.0","5e8601d90126b207e8c7a2aa","665500ab8938657b03fbdba8","6657927974a8e5165543c8fd","1510","stimuli/00101010.jpg"," ","","practrice_feedback","0","","","","","","","","","","","","","","","","","","","","",""
"","","","","","image-keyboard-response","10","191031","0.0-3.0-7.0","5e8601d90126b207e8c7a2aa","665500ab8938657b03fbdba8","6657927974a8e5165543c8fd","2235","stimuli/2000011.jpg","2","","prediction_practice","2","{""filepath"":""stimuli/2000011.jpg"",""ball_pos"":2,""ego_ball_visible"":false,""ego_can_infer"":false,""alter_ball_visible"":true,""alter_can_infer"":true,""collective_ball_visible"":false,""collective_can_infer"":false,""search_locations"":[2],""alter_occluders"":""000"",""ego_occluders"":""011""}","true","","","","","","","","","","","","","","","","","","",""
"","","","","","image-keyboard-response","11","192755","0.0-3.0-8.0","5e8601d90126b207e8c7a2aa","665500ab8938657b03fbdba8","6657927974a8e5165543c8fd","1718","stimuli/20000112.jpg"," ","","practrice_feedback","2","","","","","","","","","","","","","","","","","","","","",""
"","","","","","image-keyboard-response","12","201436","0.0-3.0-9.0","5e8601d90126b207e8c7a2aa","665500ab8938657b03fbdba8","6657927974a8e5165543c8fd","8677","stimuli/0010110.jpg","1","","prediction_practice","0","{""filepath"":""stimuli/0010110.jpg"",""ball_pos"":0,""ego_ball_visible"":false,""ego_can_infer"":false,""alter_ball_visible"":true,""alter_can_infer"":true,""collective_ball_visible"":false,""collective_can_infer"":false,""search_locations"":[0],""alter_occluders"":""010"",""ego_occluders"":""110""}","false","","","","","","","","","","","","","","","","","","",""
"","","","","","image-keyboard-response","13","203196","0.0-3.0-10.0","5e8601d90126b207e8c7a2aa","665500ab8938657b03fbdba8","6657927974a8e5165543c8fd","1751","stimuli/00101100.jpg"," ","","practrice_feedback","0","","","","","","","","","","","","","","","","","","","","",""
"","","","","","image-keyboard-response","14","207567","0.0-3.0-11.0","5e8601d90126b207e8c7a2aa","665500ab8938657b03fbdba8","6657927974a8e5165543c8fd","4361","stimuli/2110101.jpg","0","","prediction_practice","2","{""filepath"":""stimuli/2110101.jpg"",""ball_pos"":2,""ego_ball_visible"":false,""ego_can_infer"":false,""alter_ball_visible"":true,""alter_can_infer"":true,""collective_ball_visible"":false,""collective_can_infer"":false,""search_locations"":[2],""alter_occluders"":""110"",""ego_occluders"":""101""}","false","","","","","","","","","","","","","","","","","","",""
"","","","","","image-keyboard-response","15","209019","0.0-3.0-12.0","5e8601d90126b207e8c7a2aa","665500ab8938657b03fbdba8","6657927974a8e5165543c8fd","1444","stimuli/21101012.jpg"," ","","practrice_feedback","2","","","","","","","","","","","","","","","","","","","","",""
"","","","","","image-keyboard-response","16","211629","0.0-3.0-13.0","5e8601d90126b207e8c7a2aa","665500ab8938657b03fbdba8","6657927974a8e5165543c8fd","2603","stimuli/2111101.jpg","2","","prediction_practice","1","{""filepath"":""stimuli/2111101.jpg"",""ball_pos"":2,""ego_ball_visible"":false,""ego_can_infer"":false,""alter_ball_visible"":false,""alter_can_infer"":false,""collective_ball_visible"":false,""collective_can_infer"":false,""search_locations"":[1,2,0],""alter_occluders"":""111"",""ego_occluders"":""101""}","false","","","","","","","","","","","","","","","","","","",""
"","","","","","image-keyboard-response","17","214807","0.0-3.0-14.0","5e8601d90126b207e8c7a2aa","665500ab8938657b03fbdba8","6657927974a8e5165543c8fd","3173","stimuli/21111011.jpg"," ","","practrice_feedback","1","","","","","","","","","","","","","","","","","","","","",""
"","","","","","image-keyboard-response","18","218195","0.0-3.0-15.0","5e8601d90126b207e8c7a2aa","665500ab8938657b03fbdba8","6657927974a8e5165543c8fd","3383","stimuli/1111110.jpg","1","","prediction_practice","0","{""filepath"":""stimuli/1111110.jpg"",""ball_pos"":1,""ego_ball_visible"":false,""ego_can_infer"":false,""alter_ball_visible"":false,""alter_can_infer"":false,""collective_ball_visible"":false,""collective_can_infer"":false,""search_locations"":[2,1,0],""alter_occluders"":""111"",""ego_occluders"":""110""}","false","","","","","","","","","","","","","","","","","","",""
"","","","","","image-keyboard-response","19","219398","0.0-3.0-16.0","5e8601d90126b207e8c7a2aa","665500ab8938657b03fbdba8","6657927974a8e5165543c8fd","1194","stimuli/11111100.jpg"," ","","practrice_feedback","2","","","","","","","","","","","","","","","","","","","","",""
"","","","","","image-keyboard-response","20","223900","0.0-3.0-17.0","5e8601d90126b207e8c7a2aa","665500ab8938657b03fbdba8","6657927974a8e5165543c8fd","4494","stimuli/1111000.jpg","1","","prediction_practice","1","{""filepath"":""stimuli/1111000.jpg"",""ball_pos"":1,""ego_ball_visible"":true,""ego_can_infer"":true,""alter_ball_visible"":false,""alter_can_infer"":false,""collective_ball_visible"":false,""collective_can_infer"":false,""search_locations"":[1,2,0],""alter_occluders"":""111"",""ego_occluders"":""000""}","true","","","","","","","","","","","","","","","","","","",""
"","","","","","image-keyboard-response","21","225395","0.0-3.0-18.0","5e8601d90126b207e8c7a2aa","665500ab8938657b03fbdba8","6657927974a8e5165543c8fd","1487","stimuli/11110001.jpg"," ","","practrice_feedback","1","","","","","","","","","","","","","","","","","","","","",""
"","","","","","image-keyboard-response","22","228643","0.0-3.0-19.0","5e8601d90126b207e8c7a2aa","665500ab8938657b03fbdba8","6657927974a8e5165543c8fd","3206","stimuli/1100010.jpg","1","","prediction_practice","1","{""filepath"":""stimuli/1100010.jpg"",""ball_pos"":1,""ego_ball_visible"":false,""ego_can_infer"":true,""alter_ball_visible"":true,""alter_can_infer"":true,""collective_ball_visible"":false,""collective_can_infer"":true,""search_locations"":[1],""alter_occluders"":""100"",""ego_occluders"":""010""}","true","","","","","","","","","","","","","","","","","","",""
"","","","","","image-keyboard-response","23","229763","0.0-3.0-20.0","5e8601d90126b207e8c7a2aa","665500ab8938657b03fbdba8","6657927974a8e5165543c8fd","1112","stimuli/11000101.jpg"," ","","practrice_feedback","1","","","","","","","","","","","","","","","","","","","","",""
"","","","","","html-button-response","24","234218","0.0-3.0-21.0","5e8601d90126b207e8c7a2aa","665500ab8938657b03fbdba8","6657927974a8e5165543c8fd","4446","Now that you've had some practice, you'll be tested with a couple of easy trials. If you correctly predict Sam's choice, you'll move on to complete the experiment!","0","","","","","","","","","","","","","","","","","","","","","","","",""
"","","","","","image-keyboard-response","25","235884","0.0-3.0-22.0-0.0","5e8601d90126b207e8c7a2aa","665500ab8938657b03fbdba8","6657927974a8e5165543c8fd","1660","stimuli/0000011.jpg","arrowleft","","comprehension_quiz","","","true","arrowleft","","","","","","","","","","","","","","","","","",""
"","","","","","image-keyboard-response","26","236731","0.0-3.0-22.0-1.0","5e8601d90126b207e8c7a2aa","665500ab8938657b03fbdba8","6657927974a8e5165543c8fd","839","stimuli/00000110.jpg"," ","","comprehension_quiz","","","true"," ","","","","","","","","","","","","","","","","","",""
"","","","","","image-keyboard-response","27","239632","0.0-3.0-22.0-2.0","5e8601d90126b207e8c7a2aa","665500ab8938657b03fbdba8","6657927974a8e5165543c8fd","2897","stimuli/1010010.jpg","arrowdown","","comprehension_quiz","","","true","arrowdown","","","","","","","","","","","","","","","","","",""
"","","","","","image-keyboard-response","28","240704","0.0-3.0-22.0-3.0","5e8601d90126b207e8c7a2aa","665500ab8938657b03fbdba8","6657927974a8e5165543c8fd","1065","stimuli/10100101.jpg"," ","","comprehension_quiz","","","true"," ","","","","","","","","","","","","","","","","","",""
"","","","","","html-button-response","29","242884","0.0-4.0","5e8601d90126b207e8c7a2aa","665500ab8938657b03fbdba8","6657927974a8e5165543c8fd","2170","The experiment will now begin.","0","","","","","","","","","","","","","","","","","","","","","","","",""
"","","","","","image-keyboard-response","30","247009","0.0-5.0","5e8601d90126b207e8c7a2aa","665500ab8938657b03fbdba8","6657927974a8e5165543c8fd","4121","stimuli/0110111.jpg","0","","prediction_trial","0","","true","","0","false","false","false","false","false","false","[1,0]","110","111","1","","","","","","",""
"","","","","","image-keyboard-response","31","247990","0.0-6.0","5e8601d90126b207e8c7a2aa","665500ab8938657b03fbdba8","6657927974a8e5165543c8fd","976","stimuli/01101110.jpg"," ","","feedback_trial","1","","","","","","","","","","","","","","","","","","","","",""
"","","","","","image-keyboard-response","32","251665","0.0-7.0","5e8601d90126b207e8c7a2aa","665500ab8938657b03fbdba8","6657927974a8e5165543c8fd","3667","stimuli/1011011.jpg","2","","prediction_trial","1","","false","","1","false","false","false","false","false","false","[1,2]","011","011","0","","","","","","",""
"","","","","","image-keyboard-response","33","252525","0.0-8.0","5e8601d90126b207e8c7a2aa","665500ab8938657b03fbdba8","6657927974a8e5165543c8fd","855","stimuli/10110111.jpg"," ","","feedback_trial","1","","","","","","","","","","","","","","","","","","","","",""
"","","","","","image-keyboard-response","34","254223","0.0-9.0","5e8601d90126b207e8c7a2aa","665500ab8938657b03fbdba8","6657927974a8e5165543c8fd","1692","stimuli/0101111.jpg","2","","prediction_trial","2","","true","","0","false","false","false","false","false","false","[0,2]","101","111","1","","","","","","",""
"","","","","","image-keyboard-response","35","255301","0.0-10.0","5e8601d90126b207e8c7a2aa","665500ab8938657b03fbdba8","6657927974a8e5165543c8fd","1067","stimuli/01011112.jpg"," ","","feedback_trial","0","","","","","","","","","","","","","","","","","","","","",""
"","","","","","image-keyboard-response","36","256563","0.0-11.0","5e8601d90126b207e8c7a2aa","665500ab8938657b03fbdba8","6657927974a8e5165543c8fd","1256","stimuli/2101001.jpg","2","","prediction_trial","2","","true","","2","false","true","false","false","false","false","[0,2]","101","001","1","","","","","","",""
"","","","","","image-keyboard-response","37","257418","0.0-12.0","5e8601d90126b207e8c7a2aa","665500ab8938657b03fbdba8","6657927974a8e5165543c8fd","846","stimuli/21010012.jpg"," ","","feedback_trial","0","","","","","","","","","","","","","","","","","","","","",""
"","","","","","image-keyboard-response","38","258855","0.0-13.0","5e8601d90126b207e8c7a2aa","665500ab8938657b03fbdba8","6657927974a8e5165543c8fd","1429","stimuli/2001000.jpg","2","","prediction_trial","2","","true","","2","true","true","false","true","false","true","[2]","001","000","1","","","","","","",""
"","","","","","image-keyboard-response","39","260049","0.0-14.0","5e8601d90126b207e8c7a2aa","665500ab8938657b03fbdba8","6657927974a8e5165543c8fd","1185","stimuli/20010002.jpg"," ","","feedback_trial","2","","","","","","","","","","","","","","","","","","","","",""
"","","","","","image-keyboard-response","40","262527","0.0-15.0","5e8601d90126b207e8c7a2aa","665500ab8938657b03fbdba8","6657927974a8e5165543c8fd","2471","stimuli/1101001.jpg","1","","prediction_trial","1","","true","","1","true","true","true","true","true","true","[1]","101","001","1","","","","","","",""
"","","","","","image-keyboard-response","41","263305","0.0-16.0","5e8601d90126b207e8c7a2aa","665500ab8938657b03fbdba8","6657927974a8e5165543c8fd","770","stimuli/11010011.jpg"," ","","feedback_trial","1","","","","","","","","","","","","","","","","","","","","",""
"","","","","","image-keyboard-response","42","264457","0.0-17.0","5e8601d90126b207e8c7a2aa","665500ab8938657b03fbdba8","6657927974a8e5165543c8fd","1145","stimuli/0101000.jpg","0","","prediction_trial","0","","true","","0","true","true","false","false","false","false","[0,2]","101","000","1","","","","","","",""
"","","","","","image-keyboard-response","43","265132","0.0-18.0","5e8601d90126b207e8c7a2aa","665500ab8938657b03fbdba8","6657927974a8e5165543c8fd","668","stimuli/01010000.jpg"," ","","feedback_trial","0","","","","","","","","","","","","","","","","","","","","",""
"","","","","","image-keyboard-response","44","266724","0.0-19.0","5e8601d90126b207e8c7a2aa","665500ab8938657b03fbdba8","6657927974a8e5165543c8fd","1584","stimuli/1100010.jpg","1","","prediction_trial","1","","true","","1","false","true","true","true","false","true","[1]","100","010","1","","","","","","",""
"","","","","","image-keyboard-response","45","267516","0.0-20.0","5e8601d90126b207e8c7a2aa","665500ab8938657b03fbdba8","6657927974a8e5165543c8fd","789","stimuli/11000101.jpg"," ","","feedback_trial","1","","","","","","","","","","","","","","","","","","","","",""
"","","","","","image-keyboard-response","46","269123","0.0-21.0","5e8601d90126b207e8c7a2aa","665500ab8938657b03fbdba8","6657927974a8e5165543c8fd","1563","stimuli/1111000.jpg","1","","prediction_trial","0","","false","","1","true","true","false","false","false","false","[1,2,0]","111","000","0","","","","","","",""
"","","","","","image-keyboard-response","47","271709","0.0-22.0","5e8601d90126b207e8c7a2aa","665500ab8938657b03fbdba8","6657927974a8e5165543c8fd","2582","stimuli/11110000.jpg"," ","","feedback_trial","1","","","","","","","","","","","","","","","","","","","","",""
"","","","","","image-keyboard-response","48","273181","0.0-23.0","5e8601d90126b207e8c7a2aa","665500ab8938657b03fbdba8","6657927974a8e5165543c8fd","1468","stimuli/2111101.jpg","2","","prediction_trial","0","","false","","2","false","false","false","false","false","false","[1,2,0]","111","101","0","","","","","","",""
"","","","","","image-keyboard-response","49","273909","0.0-24.0","5e8601d90126b207e8c7a2aa","665500ab8938657b03fbdba8","6657927974a8e5165543c8fd","718","stimuli/21111010.jpg"," ","","feedback_trial","1","","","","","","","","","","","","","","","","","","","","",""
"","","","","","image-keyboard-response","50","275365","0.0-25.0","5e8601d90126b207e8c7a2aa","665500ab8938657b03fbdba8","6657927974a8e5165543c8fd","1449","stimuli/1000000.jpg","1","","prediction_trial","1","","true","","1","true","true","true","true","true","true","[1]","000","000","1","","","","","","",""
"","","","","","image-keyboard-response","51","276404","0.0-26.0","5e8601d90126b207e8c7a2aa","665500ab8938657b03fbdba8","6657927974a8e5165543c8fd","1032","stimuli/10000001.jpg"," ","","feedback_trial","1","","","","","","","","","","","","","","","","","","","","",""
"","","","","","image-keyboard-response","52","277691","0.0-27.0","5e8601d90126b207e8c7a2aa","665500ab8938657b03fbdba8","6657927974a8e5165543c8fd","1279","stimuli/0101101.jpg","2","","prediction_trial","0","","false","","0","false","false","false","false","false","false","[0,2]","101","101","0","","","","","","",""
"","","","","","image-keyboard-response","53","278342","0.0-28.0","5e8601d90126b207e8c7a2aa","665500ab8938657b03fbdba8","6657927974a8e5165543c8fd","645","stimuli/01011010.jpg"," ","","feedback_trial","0","","","","","","","","","","","","","","","","","","","","",""
"","","","","","image-keyboard-response","54","279191","0.0-29.0","5e8601d90126b207e8c7a2aa","665500ab8938657b03fbdba8","6657927974a8e5165543c8fd","842","stimuli/2001110.jpg","2","","prediction_trial","2","","true","","2","true","true","false","true","false","true","[2]","001","110","1","","","","","","",""
"","","","","","image-keyboard-response","55","279952","0.0-30.0","5e8601d90126b207e8c7a2aa","665500ab8938657b03fbdba8","6657927974a8e5165543c8fd","721","stimuli/20011102.jpg"," ","","feedback_trial","2","","","","","","","","","","","","","","","","","","","","",""
"","","","","","image-keyboard-response","56","281479","0.0-31.0","5e8601d90126b207e8c7a2aa","665500ab8938657b03fbdba8","6657927974a8e5165543c8fd","1519","stimuli/1101010.jpg","1","","prediction_trial","1","","true","","1","false","true","true","true","false","true","[1]","101","010","1","","","","","","",""
"","","","","","image-keyboard-response","57","282263","0.0-32.0","5e8601d90126b207e8c7a2aa","665500ab8938657b03fbdba8","6657927974a8e5165543c8fd","781","stimuli/11010101.jpg"," ","","feedback_trial","1","","","","","","","","","","","","","","","","","","","","",""
"","","","","","image-keyboard-response","58","283817","0.0-33.0","5e8601d90126b207e8c7a2aa","665500ab8938657b03fbdba8","6657927974a8e5165543c8fd","1550","stimuli/1101110.jpg","1","","prediction_trial","1","","true","","1","false","false","true","true","false","false","[1]","101","110","1","","","","","","",""
"","","","","","image-keyboard-response","59","284558","0.0-34.0","5e8601d90126b207e8c7a2aa","665500ab8938657b03fbdba8","6657927974a8e5165543c8fd","737","stimuli/11011101.jpg"," ","","feedback_trial","1","","","","","","","","","","","","","","","","","","","","",""
"","","","","","image-keyboard-response","60","285799","0.0-35.0","5e8601d90126b207e8c7a2aa","665500ab8938657b03fbdba8","6657927974a8e5165543c8fd","1235","stimuli/1110000.jpg","1","","prediction_trial","0","","false","","1","true","true","false","false","false","false","[0,1]","110","000","0","","","","","","",""
"","","","","","image-keyboard-response","61","286763","0.0-36.0","5e8601d90126b207e8c7a2aa","665500ab8938657b03fbdba8","6657927974a8e5165543c8fd","959","stimuli/11100000.jpg"," ","","feedback_trial","0","","","","","","","","","","","","","","","","","","","","",""
"","","","","","image-keyboard-response","62","289174","0.0-37.0","5e8601d90126b207e8c7a2aa","665500ab8938657b03fbdba8","6657927974a8e5165543c8fd","2406","stimuli/2100011.jpg","1","","prediction_trial","2","","false","","2","false","false","true","true","false","false","[2]","100","011","0","","","","","","",""
"","","","","","image-keyboard-response","63","289920","0.0-38.0","5e8601d90126b207e8c7a2aa","665500ab8938657b03fbdba8","6657927974a8e5165543c8fd","741","stimuli/21000112.jpg"," ","","feedback_trial","2","","","","","","","","","","","","","","","","","","","","",""
"","","","","","image-keyboard-response","64","291527","0.0-39.0","5e8601d90126b207e8c7a2aa","665500ab8938657b03fbdba8","6657927974a8e5165543c8fd","1565","stimuli/2110010.jpg","2","","prediction_trial","2","","true","","2","true","true","true","true","true","true","[2]","110","010","1","","","","","","",""
"","","","","","image-keyboard-response","65","292326","0.0-40.0","5e8601d90126b207e8c7a2aa","665500ab8938657b03fbdba8","6657927974a8e5165543c8fd","790","stimuli/21100102.jpg"," ","","feedback_trial","2","","","","","","","","","","","","","","","","","","","","",""
"","","","","","image-keyboard-response","66","293830","0.0-41.0","5e8601d90126b207e8c7a2aa","665500ab8938657b03fbdba8","6657927974a8e5165543c8fd","1498","stimuli/1100000.jpg","1","","prediction_trial","1","","true","","1","true","true","true","true","true","true","[1]","100","000","1","","","","","","",""
"","","","","","image-keyboard-response","67","294540","0.0-42.0","5e8601d90126b207e8c7a2aa","665500ab8938657b03fbdba8","6657927974a8e5165543c8fd","703","stimuli/11000001.jpg"," ","","feedback_trial","1","","","","","","","","","","","","","","","","","","","","",""
"","","","","","image-keyboard-response","68","295908","0.0-43.0","5e8601d90126b207e8c7a2aa","665500ab8938657b03fbdba8","6657927974a8e5165543c8fd","1363","stimuli/2110111.jpg","1","","prediction_trial","2","","false","","2","false","false","true","true","false","false","[2]","110","111","0","","","","","","",""
"","","","","","image-keyboard-response","69","296528","0.0-44.0","5e8601d90126b207e8c7a2aa","665500ab8938657b03fbdba8","6657927974a8e5165543c8fd","615","stimuli/21101112.jpg"," ","","feedback_trial","2","","","","","","","","","","","","","","","","","","","","",""
"","","","","","image-keyboard-response","70","297945","0.0-45.0","5e8601d90126b207e8c7a2aa","665500ab8938657b03fbdba8","6657927974a8e5165543c8fd","1411","stimuli/1111001.jpg","1","","prediction_trial","2","","false","","1","true","true","false","false","false","false","[2,0,1]","111","001","0","","","","","","",""
"","","","","","image-keyboard-response","71","298790","0.0-46.0","5e8601d90126b207e8c7a2aa","665500ab8938657b03fbdba8","6657927974a8e5165543c8fd","841","stimuli/11110012.jpg"," ","","feedback_trial","2","","","","","","","","","","","","","","","","","","","","",""
"","","","","","image-keyboard-response","72","300879","0.0-47.0","5e8601d90126b207e8c7a2aa","665500ab8938657b03fbdba8","6657927974a8e5165543c8fd","2083","stimuli/1110010.jpg","1","","prediction_trial","1","","true","","1","false","true","false","false","false","false","[1,0]","110","010","1","","","","","","",""
"","","","","","image-keyboard-response","73","301954","0.0-48.0","5e8601d90126b207e8c7a2aa","665500ab8938657b03fbdba8","6657927974a8e5165543c8fd","1025","stimuli/11100101.jpg"," ","","feedback_trial","1","","","","","","","","","","","","","","","","","","","","",""
"","","","","","image-keyboard-response","74","304223","0.0-49.0","5e8601d90126b207e8c7a2aa","665500ab8938657b03fbdba8","6657927974a8e5165543c8fd","2264","stimuli/1110111.jpg","0","","prediction_trial","1","","false","","1","false","false","false","false","false","false","[0,1]","110","111","0","","","","","","",""
"","","","","","image-keyboard-response","75","304939","0.0-50.0","5e8601d90126b207e8c7a2aa","665500ab8938657b03fbdba8","6657927974a8e5165543c8fd","711","stimuli/11101111.jpg"," ","","feedback_trial","0","","","","","","","","","","","","","","","","","","","","",""
"","","","","","image-keyboard-response","76","306354","0.0-51.0","5e8601d90126b207e8c7a2aa","665500ab8938657b03fbdba8","6657927974a8e5165543c8fd","1407","stimuli/0111001.jpg","0","","prediction_trial","1","","false","","0","true","true","false","false","false","false","[2,0,1]","111","001","0","","","","","","",""
"","","","","","image-keyboard-response","77","308387","0.0-52.0","5e8601d90126b207e8c7a2aa","665500ab8938657b03fbdba8","6657927974a8e5165543c8fd","2026","stimuli/01110011.jpg"," ","","feedback_trial","2","","","","","","","","","","","","","","","","","","","","",""
"","","","","","image-keyboard-response","78","309771","0.0-53.0","5e8601d90126b207e8c7a2aa","665500ab8938657b03fbdba8","6657927974a8e5165543c8fd","1376","stimuli/2000111.jpg","0","","prediction_trial","2","","false","","2","false","false","true","true","false","false","[2]","000","111","0","","","","","","",""
"","","","","","image-keyboard-response","79","310600","0.0-54.0","5e8601d90126b207e8c7a2aa","665500ab8938657b03fbdba8","6657927974a8e5165543c8fd","822","stimuli/20001112.jpg"," ","","feedback_trial","2","","","","","","","","","","","","","","","","","","","","",""
"","","","","","image-keyboard-response","80","311417","0.0-55.0","5e8601d90126b207e8c7a2aa","665500ab8938657b03fbdba8","6657927974a8e5165543c8fd","810","stimuli/0010000.jpg","0","","prediction_trial","0","","true","","0","true","true","true","true","true","true","[0]","010","000","1","","","","","","",""
"","","","","","image-keyboard-response","81","311984","0.0-56.0","5e8601d90126b207e8c7a2aa","665500ab8938657b03fbdba8","6657927974a8e5165543c8fd","560","stimuli/00100000.jpg"," ","","feedback_trial","0","","","","","","","","","","","","","","","","","","","","",""
"","","","","","image-keyboard-response","82","312949","0.0-57.0","5e8601d90126b207e8c7a2aa","665500ab8938657b03fbdba8","6657927974a8e5165543c8fd","919","stimuli/2010001.jpg","2","","prediction_trial","2","","true","","2","false","true","true","true","false","true","[2]","010","001","1","","","","","","",""
"","","","","","image-keyboard-response","83","313842","0.0-58.0","5e8601d90126b207e8c7a2aa","665500ab8938657b03fbdba8","6657927974a8e5165543c8fd","885","stimuli/20100012.jpg"," ","","feedback_trial","2","","","","","","","","","","","","","","","","","","","","",""
"","","","","","image-keyboard-response","84","314601","0.0-59.0","5e8601d90126b207e8c7a2aa","665500ab8938657b03fbdba8","6657927974a8e5165543c8fd","751","stimuli/0100010.jpg","0","","prediction_trial","0","","true","","0","true","true","false","true","false","true","[0]","100","010","1","","","","","","",""
"","","","","","image-keyboard-response","85","315215","0.0-60.0","5e8601d90126b207e8c7a2aa","665500ab8938657b03fbdba8","6657927974a8e5165543c8fd","606","stimuli/01000100.jpg"," ","","feedback_trial","0","","","","","","","","","","","","","","","","","","","","",""
"","","","","","image-keyboard-response","86","315983","0.0-61.0","5e8601d90126b207e8c7a2aa","665500ab8938657b03fbdba8","6657927974a8e5165543c8fd","760","stimuli/2100010.jpg","2","","prediction_trial","2","","true","","2","true","true","true","true","true","true","[2]","100","010","1","","","","","","",""
"","","","","","image-keyboard-response","87","316711","0.0-62.0","5e8601d90126b207e8c7a2aa","665500ab8938657b03fbdba8","6657927974a8e5165543c8fd","718","stimuli/21000102.jpg"," ","","feedback_trial","2","","","","","","","","","","","","","","","","","","","","",""
"","","","","","image-keyboard-response","88","318459","0.0-63.0","5e8601d90126b207e8c7a2aa","665500ab8938657b03fbdba8","6657927974a8e5165543c8fd","1745","stimuli/1011111.jpg","0","","prediction_trial","1","","false","","1","false","false","false","false","false","false","[2,1]","011","111","0","","","","","","",""
"","","","","","image-keyboard-response","89","319491","0.0-64.0","5e8601d90126b207e8c7a2aa","665500ab8938657b03fbdba8","6657927974a8e5165543c8fd","1024","stimuli/10111111.jpg"," ","","feedback_trial","2","","","","","","","","","","","","","","","","","","","","",""
"","","","","","image-keyboard-response","90","320254","0.0-65.0","5e8601d90126b207e8c7a2aa","665500ab8938657b03fbdba8","6657927974a8e5165543c8fd","759","stimuli/2011100.jpg","2","","prediction_trial","2","","true","","2","true","true","false","false","false","false","[2,1]","011","100","1","","","","","","",""
"","","","","","image-keyboard-response","91","320995","0.0-66.0","5e8601d90126b207e8c7a2aa","665500ab8938657b03fbdba8","6657927974a8e5165543c8fd","700","stimuli/20111002.jpg"," ","","feedback_trial","2","","","","","","","","","","","","","","","","","","","","",""
"","","","","","image-keyboard-response","92","321846","0.0-67.0","5e8601d90126b207e8c7a2aa","665500ab8938657b03fbdba8","6657927974a8e5165543c8fd","844","stimuli/2110100.jpg","2","","prediction_trial","2","","true","","2","true","true","true","true","true","true","[2]","110","100","1","","","","","","",""
"","","","","","image-keyboard-response","93","322436","0.0-68.0","5e8601d90126b207e8c7a2aa","665500ab8938657b03fbdba8","6657927974a8e5165543c8fd","585","stimuli/21101002.jpg"," ","","feedback_trial","2","","","","","","","","","","","","","","","","","","","","",""
"","","","","","image-keyboard-response","94","323948","0.0-69.0","5e8601d90126b207e8c7a2aa","665500ab8938657b03fbdba8","6657927974a8e5165543c8fd","1508","stimuli/1101100.jpg","1","","prediction_trial","1","","true","","1","true","true","true","true","true","true","[1]","101","100","1","","","","","","",""
"","","","","","image-keyboard-response","95","324579","0.0-70.0","5e8601d90126b207e8c7a2aa","665500ab8938657b03fbdba8","6657927974a8e5165543c8fd","627","stimuli/11011001.jpg"," ","","feedback_trial","1","","","","","","","","","","","","","","","","","","","","",""
"","","","","","image-keyboard-response","96","325821","0.0-71.0","5e8601d90126b207e8c7a2aa","665500ab8938657b03fbdba8","6657927974a8e5165543c8fd","1239","stimuli/1100011.jpg","2","","prediction_trial","1","","false","","1","false","false","true","true","false","false","[1]","100","011","0","","","","","","",""
"","","","","","image-keyboard-response","97","326526","0.0-72.0","5e8601d90126b207e8c7a2aa","665500ab8938657b03fbdba8","6657927974a8e5165543c8fd","700","stimuli/11000111.jpg"," ","","feedback_trial","1","","","","","","","","","","","","","","","","","","","","",""
"","","","","","image-keyboard-response","98","327279","0.0-73.0","5e8601d90126b207e8c7a2aa","665500ab8938657b03fbdba8","6657927974a8e5165543c8fd","749","stimuli/2101110.jpg","2","","prediction_trial","2","","true","","2","true","true","false","false","false","false","[0,2]","101","110","1","","","","","","",""
"","","","","","image-keyboard-response","99","328048","0.0-74.0","5e8601d90126b207e8c7a2aa","665500ab8938657b03fbdba8","6657927974a8e5165543c8fd","761","stimuli/21011102.jpg"," ","","feedback_trial","0","","","","","","","","","","","","","","","","","","","","",""
"","","","","","image-keyboard-response","100","328870","0.0-75.0","5e8601d90126b207e8c7a2aa","665500ab8938657b03fbdba8","6657927974a8e5165543c8fd","806","stimuli/2101010.jpg","2","","prediction_trial","0","","false","","2","true","true","false","false","false","false","[0,2]","101","010","0","","","","","","",""
"","","","","","image-keyboard-response","101","330776","0.0-76.0","5e8601d90126b207e8c7a2aa","665500ab8938657b03fbdba8","6657927974a8e5165543c8fd","1898","stimuli/21010100.jpg"," ","","feedback_trial","0","","","","","","","","","","","","","","","","","","","","",""
"","","","","","image-keyboard-response","102","331596","0.0-77.0","5e8601d90126b207e8c7a2aa","665500ab8938657b03fbdba8","6657927974a8e5165543c8fd","814","stimuli/2010000.jpg","2","","prediction_trial","2","","true","","2","true","true","true","true","true","true","[2]","010","000","1","","","","","","",""
"","","","","","image-keyboard-response","103","332148","0.0-78.0","5e8601d90126b207e8c7a2aa","665500ab8938657b03fbdba8","6657927974a8e5165543c8fd","547","stimuli/20100002.jpg"," ","","feedback_trial","2","","","","","","","","","","","","","","","","","","","","",""
"","","","","","image-keyboard-response","104","332711","0.0-79.0","5e8601d90126b207e8c7a2aa","665500ab8938657b03fbdba8","6657927974a8e5165543c8fd","559","stimuli/2110000.jpg","2","","prediction_trial","2","","true","","2","true","true","true","true","true","true","[2]","110","000","1","","","","","","",""
"","","","","","image-keyboard-response","105","333246","0.0-80.0","5e8601d90126b207e8c7a2aa","665500ab8938657b03fbdba8","6657927974a8e5165543c8fd","530","stimuli/21100002.jpg"," ","","feedback_trial","2","","","","","","","","","","","","","","","","","","","","",""
"","","","","","image-keyboard-response","106","334419","0.0-81.0","5e8601d90126b207e8c7a2aa","665500ab8938657b03fbdba8","6657927974a8e5165543c8fd","1165","stimuli/0110010.jpg","0","","prediction_trial","0","","true","","0","true","true","false","false","false","false","[1,0]","110","010","1","","","","","","",""
"","","","","","image-keyboard-response","107","334943","0.0-82.0","5e8601d90126b207e8c7a2aa","665500ab8938657b03fbdba8","6657927974a8e5165543c8fd","515","stimuli/01100100.jpg"," ","","feedback_trial","1","","","","","","","","","","","","","","","","","","","","",""
"","","","","","image-keyboard-response","108","335884","0.0-83.0","5e8601d90126b207e8c7a2aa","665500ab8938657b03fbdba8","6657927974a8e5165543c8fd","900","stimuli/0110110.jpg","0","","prediction_trial","1","","false","","0","false","false","false","false","false","false","[1,0]","110","110","0","","","","","","",""
"","","","","","image-keyboard-response","109","336360","0.0-84.0","5e8601d90126b207e8c7a2aa","665500ab8938657b03fbdba8","6657927974a8e5165543c8fd","472","stimuli/01101101.jpg"," ","","feedback_trial","1","","","","","","","","","","","","","","","","","","","","",""
"","","","","","image-keyboard-response","110","339548","0.0-85.0","5e8601d90126b207e8c7a2aa","665500ab8938657b03fbdba8","6657927974a8e5165543c8fd","3181","stimuli/1011101.jpg","1","","prediction_trial","2","","false","","1","true","true","false","false","false","false","[1,2]","011","101","0","","","","","","",""
"","","","","","image-keyboard-response","111","340288","0.0-86.0","5e8601d90126b207e8c7a2aa","665500ab8938657b03fbdba8","6657927974a8e5165543c8fd","731","stimuli/10111012.jpg"," ","","feedback_trial","1","","","","","","","","","","","","","","","","","","","","",""
"","","","","","image-keyboard-response","112","341136","0.0-87.0","5e8601d90126b207e8c7a2aa","665500ab8938657b03fbdba8","6657927974a8e5165543c8fd","839","stimuli/0010010.jpg","0","","prediction_trial","0","","true","","0","true","true","true","true","true","true","[0]","010","010","1","","","","","","",""
"","","","","","image-keyboard-response","113","341550","0.0-88.0","5e8601d90126b207e8c7a2aa","665500ab8938657b03fbdba8","6657927974a8e5165543c8fd","406","stimuli/00100100.jpg"," ","","feedback_trial","0","","","","","","","","","","","","","","","","","","","","",""
"","","","","","image-keyboard-response","114","342439","0.0-89.0","5e8601d90126b207e8c7a2aa","665500ab8938657b03fbdba8","6657927974a8e5165543c8fd","883","stimuli/0110000.jpg","0","","prediction_trial","0","","true","","0","true","true","false","false","false","false","[1,0]","110","000","1","","","","","","",""
"","","","","","image-keyboard-response","115","342862","0.0-90.0","5e8601d90126b207e8c7a2aa","665500ab8938657b03fbdba8","6657927974a8e5165543c8fd","420","stimuli/01100000.jpg"," ","","feedback_trial","1","","","","","","","","","","","","","","","","","","","","",""
"","","","","","image-keyboard-response","116","344166","0.0-91.0","5e8601d90126b207e8c7a2aa","665500ab8938657b03fbdba8","6657927974a8e5165543c8fd","1300","stimuli/2001101.jpg","2","","prediction_trial","2","","true","","2","false","false","false","true","false","false","[2]","001","101","1","","","","","","",""
"","","","","","image-keyboard-response","117","344729","0.0-92.0","5e8601d90126b207e8c7a2aa","665500ab8938657b03fbdba8","6657927974a8e5165543c8fd","544","stimuli/20011012.jpg"," ","","feedback_trial","2","","","","","","","","","","","","","","","","","","","","",""
"","","","","","image-keyboard-response","118","346334","0.0-93.0","5e8601d90126b207e8c7a2aa","665500ab8938657b03fbdba8","6657927974a8e5165543c8fd","1600","stimuli/1110101.jpg","1","","prediction_trial","1","","true","","1","true","true","false","false","false","false","[0,1]","110","101","1","","","","","","",""
"","","","","","image-keyboard-response","119","346980","0.0-94.0","5e8601d90126b207e8c7a2aa","665500ab8938657b03fbdba8","6657927974a8e5165543c8fd","638","stimuli/11101011.jpg"," ","","feedback_trial","0","","","","","","","","","","","","","","","","","","","","",""
"","","","","","image-keyboard-response","120","348116","0.0-95.0","5e8601d90126b207e8c7a2aa","665500ab8938657b03fbdba8","6657927974a8e5165543c8fd","1130","stimuli/0010101.jpg","2","","prediction_trial","0","","false","","0","false","false","true","true","false","false","[0]","010","101","0","","","","","","",""
"","","","","","image-keyboard-response","121","348684","0.0-96.0","5e8601d90126b207e8c7a2aa","665500ab8938657b03fbdba8","6657927974a8e5165543c8fd","559","stimuli/00101010.jpg"," ","","feedback_trial","0","","","","","","","","","","","","","","","","","","","","",""
"","","","","","image-keyboard-response","122","349780","0.0-97.0","5e8601d90126b207e8c7a2aa","665500ab8938657b03fbdba8","6657927974a8e5165543c8fd","1087","stimuli/1000110.jpg","0","","prediction_trial","1","","false","","1","false","false","true","true","false","false","[1]","000","110","0","","","","","","",""
"","","","","","image-keyboard-response","123","350214","0.0-98.0","5e8601d90126b207e8c7a2aa","665500ab8938657b03fbdba8","6657927974a8e5165543c8fd","425","stimuli/10001101.jpg"," ","","feedback_trial","1","","","","","","","","","","","","","","","","","","","","",""
"","","","","","image-keyboard-response","124","350932","0.0-99.0","5e8601d90126b207e8c7a2aa","665500ab8938657b03fbdba8","6657927974a8e5165543c8fd","708","stimuli/2111100.jpg","2","","prediction_trial","0","","false","","2","true","true","false","false","false","false","[2,0,1]","111","100","0","","","","","","",""
"","","","","","image-keyboard-response","125","351385","0.0-100.0","5e8601d90126b207e8c7a2aa","665500ab8938657b03fbdba8","6657927974a8e5165543c8fd","446","stimuli/21111000.jpg"," ","","feedback_trial","2","","","","","","","","","","","","","","","","","","","","",""
"","","","","","image-keyboard-response","126","352249","0.0-101.0","5e8601d90126b207e8c7a2aa","665500ab8938657b03fbdba8","6657927974a8e5165543c8fd","816","stimuli/0000101.jpg","2","","prediction_trial","0","","false","","0","false","false","true","true","false","false","[0]","000","101","0","","","","","","",""
"","","","","","image-keyboard-response","127","352891","0.0-102.0","5e8601d90126b207e8c7a2aa","665500ab8938657b03fbdba8","6657927974a8e5165543c8fd","635","stimuli/00001010.jpg"," ","","feedback_trial","0","","","","","","","","","","","","","","","","","","","","",""
"","","","","","image-keyboard-response","128","353781","0.0-103.0","5e8601d90126b207e8c7a2aa","665500ab8938657b03fbdba8","6657927974a8e5165543c8fd","886","stimuli/0110001.jpg","0","","prediction_trial","0","","true","","0","true","true","false","false","false","false","[0,1]","110","001","1","","","","","","",""
"","","","","","image-keyboard-response","129","354192","0.0-104.0","5e8601d90126b207e8c7a2aa","665500ab8938657b03fbdba8","6657927974a8e5165543c8fd","407","stimuli/01100010.jpg"," ","","feedback_trial","0","","","","","","","","","","","","","","","","","","","","",""
"","","","","","image-keyboard-response","130","354993","0.0-105.0","5e8601d90126b207e8c7a2aa","665500ab8938657b03fbdba8","6657927974a8e5165543c8fd","789","stimuli/2110001.jpg","2","","prediction_trial","2","","true","","2","false","true","true","true","false","true","[2]","110","001","1","","","","","","",""
"","","","","","image-keyboard-response","131","355466","0.0-106.0","5e8601d90126b207e8c7a2aa","665500ab8938657b03fbdba8","6657927974a8e5165543c8fd","468","stimuli/21100012.jpg"," ","","feedback_trial","2","","","","","","","","","","","","","","","","","","","","",""
"","","","","","image-keyboard-response","132","356206","0.0-107.0","5e8601d90126b207e8c7a2aa","665500ab8938657b03fbdba8","6657927974a8e5165543c8fd","732","stimuli/2001010.jpg","2","","prediction_trial","2","","true","","2","true","true","false","true","false","true","[2]","001","010","1","","","","","","",""
"","","","","","image-keyboard-response","133","356776","0.0-108.0","5e8601d90126b207e8c7a2aa","665500ab8938657b03fbdba8","6657927974a8e5165543c8fd","562","stimuli/20010102.jpg"," ","","feedback_trial","2","","","","","","","","","","","","","","","","","","","","",""
"","","","","","image-keyboard-response","134","358252","0.0-109.0","5e8601d90126b207e8c7a2aa","665500ab8938657b03fbdba8","6657927974a8e5165543c8fd","1471","stimuli/1001101.jpg","1","","prediction_trial","1","","true","","1","true","true","true","true","true","true","[1]","001","101","1","","","","","","",""
"","","","","","image-keyboard-response","135","358936","0.0-110.0","5e8601d90126b207e8c7a2aa","665500ab8938657b03fbdba8","6657927974a8e5165543c8fd","675","stimuli/10011011.jpg"," ","","feedback_trial","1","","","","","","","","","","","","","","","","","","","","",""
"","","","","","image-keyboard-response","136","360200","0.0-111.0","5e8601d90126b207e8c7a2aa","665500ab8938657b03fbdba8","6657927974a8e5165543c8fd","1257","stimuli/1101000.jpg","1","","prediction_trial","1","","true","","1","true","true","true","true","true","true","[1]","101","000","1","","","","","","",""
"","","","","","image-keyboard-response","137","360753","0.0-112.0","5e8601d90126b207e8c7a2aa","665500ab8938657b03fbdba8","6657927974a8e5165543c8fd","545","stimuli/11010001.jpg"," ","","feedback_trial","1","","","","","","","","","","","","","","","","","","","","",""
"","","","","","image-keyboard-response","138","361830","0.0-113.0","5e8601d90126b207e8c7a2aa","665500ab8938657b03fbdba8","6657927974a8e5165543c8fd","1071","stimuli/1101101.jpg","1","","prediction_trial","1","","true","","1","true","true","true","true","true","true","[1]","101","101","1","","","","","","",""
"","","","","","image-keyboard-response","139","362399","0.0-114.0","5e8601d90126b207e8c7a2aa","665500ab8938657b03fbdba8","6657927974a8e5165543c8fd","528","stimuli/11011011.jpg"," ","","feedback_trial","1","","","","","","","","","","","","","","","","","","","","",""
"","","","","","image-keyboard-response","140","363576","0.0-115.0","5e8601d90126b207e8c7a2aa","665500ab8938657b03fbdba8","6657927974a8e5165543c8fd","1168","stimuli/2000011.jpg","2","","prediction_trial","2","","true","","2","false","false","true","true","false","false","[2]","000","011","1","","","","","","",""
"","","","","","image-keyboard-response","141","363996","0.0-116.0","5e8601d90126b207e8c7a2aa","665500ab8938657b03fbdba8","6657927974a8e5165543c8fd","412","stimuli/20000112.jpg"," ","","feedback_trial","2","","","","","","","","","","","","","","","","","","","","",""
"","","","","","image-keyboard-response","142","367312","0.0-117.0","5e8601d90126b207e8c7a2aa","665500ab8938657b03fbdba8","6657927974a8e5165543c8fd","3312","stimuli/2010111.jpg","1","","prediction_trial","2","","false","","2","false","false","true","true","false","false","[2]","010","111","0","","","","","","",""
"","","","","","image-keyboard-response","143","367998","0.0-118.0","5e8601d90126b207e8c7a2aa","665500ab8938657b03fbdba8","6657927974a8e5165543c8fd","683","stimuli/20101112.jpg"," ","","feedback_trial","2","","","","","","","","","","","","","","","","","","","","",""
"","","","","","image-keyboard-response","144","368978","0.0-119.0","5e8601d90126b207e8c7a2aa","665500ab8938657b03fbdba8","6657927974a8e5165543c8fd","975","stimuli/0101110.jpg","1","","prediction_trial","0","","false","","0","false","false","false","false","false","false","[0,2]","101","110","0","","","","","","",""
"","","","","","image-keyboard-response","145","370052","0.0-120.0","5e8601d90126b207e8c7a2aa","665500ab8938657b03fbdba8","6657927974a8e5165543c8fd","1067","stimuli/01011100.jpg"," ","","feedback_trial","0","","","","","","","","","","","","","","","","","","","","",""
"","","","","","image-keyboard-response","146","371167","0.0-121.0","5e8601d90126b207e8c7a2aa","665500ab8938657b03fbdba8","6657927974a8e5165543c8fd","1107","stimuli/0111111.jpg","1","","prediction_trial","1","","true","","0","false","false","false","false","false","false","[2,0,1]","111","111","1","","","","","","",""
"","","","","","image-keyboard-response","147","372082","0.0-122.0","5e8601d90126b207e8c7a2aa","665500ab8938657b03fbdba8","6657927974a8e5165543c8fd","906","stimuli/01111111.jpg"," ","","feedback_trial","2","","","","","","","","","","","","","","","","","","","","",""
"","","","","","image-keyboard-response","148","374670","0.0-123.0","5e8601d90126b207e8c7a2aa","665500ab8938657b03fbdba8","6657927974a8e5165543c8fd","2571","stimuli/1110011.jpg","1","","prediction_trial","1","","true","","1","false","false","false","false","false","false","[0,1]","110","011","1","","","","","","",""
"","","","","","image-keyboard-response","149","375202","0.0-124.0","5e8601d90126b207e8c7a2aa","665500ab8938657b03fbdba8","6657927974a8e5165543c8fd","524","stimuli/11100111.jpg"," ","","feedback_trial","0","","","","","","","","","","","","","","","","","","","","",""
"","","","","","image-keyboard-response","150","376543","0.0-125.0","5e8601d90126b207e8c7a2aa","665500ab8938657b03fbdba8","6657927974a8e5165543c8fd","1335","stimuli/2000101.jpg","2","","prediction_trial","2","","true","","2","false","false","true","true","false","false","[2]","000","101","1","","","","","","",""
"","","","","","image-keyboard-response","151","377028","0.0-126.0","5e8601d90126b207e8c7a2aa","665500ab8938657b03fbdba8","6657927974a8e5165543c8fd","469","stimuli/20001012.jpg"," ","","feedback_trial","2","","","","","","","","","","","","","","","","","","","","",""
"","","","","","image-keyboard-response","152","377940","0.0-127.0","5e8601d90126b207e8c7a2aa","665500ab8938657b03fbdba8","6657927974a8e5165543c8fd","904","stimuli/0101011.jpg","0","","prediction_trial","0","","true","","0","true","true","false","false","false","false","[0,2]","101","011","1","","","","","","",""
"","","","","","image-keyboard-response","153","378390","0.0-128.0","5e8601d90126b207e8c7a2aa","665500ab8938657b03fbdba8","6657927974a8e5165543c8fd","442","stimuli/01010110.jpg"," ","","feedback_trial","0","","","","","","","","","","","","","","","","","","","","",""
"","","","","","image-keyboard-response","154","379258","0.0-129.0","5e8601d90126b207e8c7a2aa","665500ab8938657b03fbdba8","6657927974a8e5165543c8fd","861","stimuli/2100001.jpg","2","","prediction_trial","2","","true","","2","false","true","true","true","false","true","[2]","100","001","1","","","","","","",""
"","","","","","image-keyboard-response","155","379730","0.0-130.0","5e8601d90126b207e8c7a2aa","665500ab8938657b03fbdba8","6657927974a8e5165543c8fd","465","stimuli/21000012.jpg"," ","","feedback_trial","2","","","","","","","","","","","","","","","","","","","","",""
"","","","","","image-keyboard-response","156","380502","0.0-131.0","5e8601d90126b207e8c7a2aa","665500ab8938657b03fbdba8","6657927974a8e5165543c8fd","767","stimuli/2010110.jpg","2","","prediction_trial","2","","true","","2","true","true","true","true","true","true","[2]","010","110","1","","","","","","",""
"","","","","","image-keyboard-response","157","380949","0.0-132.0","5e8601d90126b207e8c7a2aa","665500ab8938657b03fbdba8","6657927974a8e5165543c8fd","439","stimuli/20101102.jpg"," ","","feedback_trial","2","","","","","","","","","","","","","","","","","","","","",""
"","","","","","image-keyboard-response","158","382301","0.0-133.0","5e8601d90126b207e8c7a2aa","665500ab8938657b03fbdba8","6657927974a8e5165543c8fd","1346","stimuli/1100100.jpg","1","","prediction_trial","1","","true","","1","true","true","true","true","true","true","[1]","100","100","1","","","","","","",""
"","","","","","image-keyboard-response","159","383221","0.0-134.0","5e8601d90126b207e8c7a2aa","665500ab8938657b03fbdba8","6657927974a8e5165543c8fd","913","stimuli/11001001.jpg"," ","","feedback_trial","1","","","","","","","","","","","","","","","","","","","","",""
"","","","","","image-keyboard-response","160","384251","0.0-135.0","5e8601d90126b207e8c7a2aa","665500ab8938657b03fbdba8","6657927974a8e5165543c8fd","1015","stimuli/0001101.jpg","2","","prediction_trial","0","","false","","0","false","false","true","true","false","false","[0]","001","101","0","","","","","","",""
"","","","","","image-keyboard-response","161","384697","0.0-136.0","5e8601d90126b207e8c7a2aa","665500ab8938657b03fbdba8","6657927974a8e5165543c8fd","437","stimuli/00011010.jpg"," ","","feedback_trial","0","","","","","","","","","","","","","","","","","","","","",""
"","","","","","image-keyboard-response","162","385543","0.0-137.0","5e8601d90126b207e8c7a2aa","665500ab8938657b03fbdba8","6657927974a8e5165543c8fd","840","stimuli/2110101.jpg","2","","prediction_trial","2","","true","","2","false","false","true","true","false","false","[2]","110","101","1","","","","","","",""
"","","","","","image-keyboard-response","163","385974","0.0-138.0","5e8601d90126b207e8c7a2aa","665500ab8938657b03fbdba8","6657927974a8e5165543c8fd","424","stimuli/21101012.jpg"," ","","feedback_trial","2","","","","","","","","","","","","","","","","","","","","",""
"","","","","","image-keyboard-response","164","386577","0.0-139.0","5e8601d90126b207e8c7a2aa","665500ab8938657b03fbdba8","6657927974a8e5165543c8fd","595","stimuli/0011101.jpg","2","","prediction_trial","0","","false","","0","false","false","true","true","false","false","[0]","011","101","0","","","","","","",""
"","","","","","image-keyboard-response","165","387077","0.0-140.0","5e8601d90126b207e8c7a2aa","665500ab8938657b03fbdba8","6657927974a8e5165543c8fd","492","stimuli/00111010.jpg"," ","","feedback_trial","0","","","","","","","","","","","","","","","","","","","","",""
"","","","","","image-keyboard-response","166","388196","0.0-141.0","5e8601d90126b207e8c7a2aa","665500ab8938657b03fbdba8","6657927974a8e5165543c8fd","1113","stimuli/1011110.jpg","0","","prediction_trial","2","","false","","1","false","false","false","false","false","false","[1,2]","011","110","0","","","","","","",""
"","","","","","image-keyboard-response","167","388664","0.0-142.0","5e8601d90126b207e8c7a2aa","665500ab8938657b03fbdba8","6657927974a8e5165543c8fd","458","stimuli/10111102.jpg"," ","","feedback_trial","1","","","","","","","","","","","","","","","","","","","","",""
"","","","","","image-keyboard-response","168","389646","0.0-143.0","5e8601d90126b207e8c7a2aa","665500ab8938657b03fbdba8","6657927974a8e5165543c8fd","974","stimuli/0100001.jpg","0","","prediction_trial","0","","true","","0","true","true","false","true","false","true","[0]","100","001","1","","","","","","",""
"","","","","","image-keyboard-response","169","390044","0.0-144.0","5e8601d90126b207e8c7a2aa","665500ab8938657b03fbdba8","6657927974a8e5165543c8fd","377","stimuli/01000010.jpg"," ","","feedback_trial","0","","","","","","","","","","","","","","","","","","","","",""
"","","","","","image-keyboard-response","170","390944","0.0-145.0","5e8601d90126b207e8c7a2aa","665500ab8938657b03fbdba8","6657927974a8e5165543c8fd","891","stimuli/2101101.jpg","2","","prediction_trial","2","","true","","2","false","false","false","false","false","false","[0,2]","101","101","1","","","","","","",""
"","","","","","image-keyboard-response","171","391718","0.0-146.0","5e8601d90126b207e8c7a2aa","665500ab8938657b03fbdba8","6657927974a8e5165543c8fd","767","stimuli/21011012.jpg"," ","","feedback_trial","0","","","","","","","","","","","","","","","","","","","","",""
"","","","","","image-keyboard-response","172","392676","0.0-147.0","5e8601d90126b207e8c7a2aa","665500ab8938657b03fbdba8","6657927974a8e5165543c8fd","956","stimuli/0000110.jpg","0","","prediction_trial","0","","true","","0","false","false","true","true","false","false","[0]","000","110","1","","","","","","",""
"","","","","","image-keyboard-response","173","393165","0.0-148.0","5e8601d90126b207e8c7a2aa","665500ab8938657b03fbdba8","6657927974a8e5165543c8fd","481","stimuli/00001100.jpg"," ","","feedback_trial","0","","","","","","","","","","","","","","","","","","","","",""
"","","","","","image-keyboard-response","174","393935","0.0-149.0","5e8601d90126b207e8c7a2aa","665500ab8938657b03fbdba8","6657927974a8e5165543c8fd","762","stimuli/2110011.jpg","2","","prediction_trial","2","","true","","2","false","false","true","true","false","false","[2]","110","011","1","","","","","","",""
"","","","","","image-keyboard-response","175","394436","0.0-150.0","5e8601d90126b207e8c7a2aa","665500ab8938657b03fbdba8","6657927974a8e5165543c8fd","492","stimuli/21100112.jpg"," ","","feedback_trial","2","","","","","","","","","","","","","","","","","","","","",""
"","","","","","image-keyboard-response","176","395136","0.0-151.0","5e8601d90126b207e8c7a2aa","665500ab8938657b03fbdba8","6657927974a8e5165543c8fd","692","stimuli/2011101.jpg","2","","prediction_trial","2","","true","","2","false","false","false","false","false","false","[1,2]","011","101","1","","","","","","",""
"","","","","","image-keyboard-response","177","395671","0.0-152.0","5e8601d90126b207e8c7a2aa","665500ab8938657b03fbdba8","6657927974a8e5165543c8fd","530","stimuli/20111012.jpg"," ","","feedback_trial","1","","","","","","","","","","","","","","","","","","","","",""
"","","","","","image-keyboard-response","178","396499","0.0-153.0","5e8601d90126b207e8c7a2aa","665500ab8938657b03fbdba8","6657927974a8e5165543c8fd","820","stimuli/0010011.jpg","0","","prediction_trial","0","","true","","0","true","true","true","true","true","true","[0]","010","011","1","","","","","","",""
"","","","","","image-keyboard-response","179","396936","0.0-154.0","5e8601d90126b207e8c7a2aa","665500ab8938657b03fbdba8","6657927974a8e5165543c8fd","431","stimuli/00100110.jpg"," ","","feedback_trial","0","","","","","","","","","","","","","","","","","","","","",""
"","","","","","image-keyboard-response","180","397849","0.0-155.0","5e8601d90126b207e8c7a2aa","665500ab8938657b03fbdba8","6657927974a8e5165543c8fd","905","stimuli/2111001.jpg","2","","prediction_trial","2","","true","","2","false","true","false","false","false","false","[0,1,2]","111","001","1","","","","","","",""
"","","","","","image-keyboard-response","181","398295","0.0-156.0","5e8601d90126b207e8c7a2aa","665500ab8938657b03fbdba8","6657927974a8e5165543c8fd","437","stimuli/21110012.jpg"," ","","feedback_trial","0","","","","","","","","","","","","","","","","","","","","",""
"","","","","","image-keyboard-response","182","399386","0.0-157.0","5e8601d90126b207e8c7a2aa","665500ab8938657b03fbdba8","6657927974a8e5165543c8fd","1083","stimuli/1010111.jpg","2","","prediction_trial","1","","false","","1","false","false","false","true","false","false","[1]","010","111","0","","","","","","",""
"","","","","","image-keyboard-response","183","399784","0.0-158.0","5e8601d90126b207e8c7a2aa","665500ab8938657b03fbdba8","6657927974a8e5165543c8fd","390","stimuli/10101111.jpg"," ","","feedback_trial","1","","","","","","","","","","","","","","","","","","","","",""
"","","","","","image-keyboard-response","184","400929","0.0-159.0","5e8601d90126b207e8c7a2aa","665500ab8938657b03fbdba8","6657927974a8e5165543c8fd","1141","stimuli/1001111.jpg","2","","prediction_trial","1","","false","","1","false","false","true","true","false","false","[1]","001","111","0","","","","","","",""
"","","","","","image-keyboard-response","185","401487","0.0-160.0","5e8601d90126b207e8c7a2aa","665500ab8938657b03fbdba8","6657927974a8e5165543c8fd","555","stimuli/10011111.jpg"," ","","feedback_trial","1","","","","","","","","","","","","","","","","","","","","",""
"","","","","","image-keyboard-response","186","402466","0.0-161.0","5e8601d90126b207e8c7a2aa","665500ab8938657b03fbdba8","6657927974a8e5165543c8fd","975","stimuli/0100100.jpg","0","","prediction_trial","0","","true","","0","false","true","false","true","false","true","[0]","100","100","1","","","","","","",""
"","","","","","image-keyboard-response","187","402876","0.0-162.0","5e8601d90126b207e8c7a2aa","665500ab8938657b03fbdba8","6657927974a8e5165543c8fd","406","stimuli/01001000.jpg"," ","","feedback_trial","0","","","","","","","","","","","","","","","","","","","","",""
"","","","","","image-keyboard-response","188","403730","0.0-163.0","5e8601d90126b207e8c7a2aa","665500ab8938657b03fbdba8","6657927974a8e5165543c8fd","850","stimuli/2111000.jpg","2","","prediction_trial","0","","false","","2","true","true","false","false","false","false","[0,2,1]","111","000","0","","","","","","",""
"","","","","","image-keyboard-response","189","404095","0.0-164.0","5e8601d90126b207e8c7a2aa","665500ab8938657b03fbdba8","6657927974a8e5165543c8fd","360","stimuli/21110000.jpg"," ","","feedback_trial","0","","","","","","","","","","","","","","","","","","","","",""
"","","","","","image-keyboard-response","190","404980","0.0-165.0","5e8601d90126b207e8c7a2aa","665500ab8938657b03fbdba8","6657927974a8e5165543c8fd","878","stimuli/1001011.jpg","2","","prediction_trial","1","","false","","1","false","false","true","true","false","false","[1]","001","011","0","","","","","","",""
"","","","","","image-keyboard-response","191","405418","0.0-166.0","5e8601d90126b207e8c7a2aa","665500ab8938657b03fbdba8","6657927974a8e5165543c8fd","433","stimuli/10010111.jpg"," ","","feedback_trial","1","","","","","","","","","","","","","","","","","","","","",""
"","","","","","image-keyboard-response","192","406221","0.0-167.0","5e8601d90126b207e8c7a2aa","665500ab8938657b03fbdba8","6657927974a8e5165543c8fd","799","stimuli/0001010.jpg","0","","prediction_trial","0","","true","","0","true","true","true","true","true","true","[0]","001","010","1","","","","","","",""
"","","","","","image-keyboard-response","193","406557","0.0-168.0","5e8601d90126b207e8c7a2aa","665500ab8938657b03fbdba8","6657927974a8e5165543c8fd","329","stimuli/00010100.jpg"," ","","feedback_trial","0","","","","","","","","","","","","","","","","","","","","",""
"","","","","","image-keyboard-response","194","407302","0.0-169.0","5e8601d90126b207e8c7a2aa","665500ab8938657b03fbdba8","6657927974a8e5165543c8fd","738","stimuli/2111010.jpg","2","","prediction_trial","1","","false","","2","true","true","false","false","false","false","[1,0,2]","111","010","0","","","","","","",""
"","","","","","image-keyboard-response","195","407683","0.0-170.0","5e8601d90126b207e8c7a2aa","665500ab8938657b03fbdba8","6657927974a8e5165543c8fd","373","stimuli/21110101.jpg"," ","","feedback_trial","1","","","","","","","","","","","","","","","","","","","","",""
"","","","","","image-keyboard-response","196","408944","0.0-171.0","5e8601d90126b207e8c7a2aa","665500ab8938657b03fbdba8","6657927974a8e5165543c8fd","1251","stimuli/1111110.jpg","0","","prediction_trial","2","","false","","1","false","false","false","false","false","false","[2,1,0]","111","110","0","","","","","","",""
"","","","","","image-keyboard-response","197","409330","0.0-172.0","5e8601d90126b207e8c7a2aa","665500ab8938657b03fbdba8","6657927974a8e5165543c8fd","341","stimuli/11111102.jpg"," ","","feedback_trial","2","","","","","","","","","","","","","","","","","","","","",""
"","","","","","image-keyboard-response","198","410144","0.0-173.0","5e8601d90126b207e8c7a2aa","665500ab8938657b03fbdba8","6657927974a8e5165543c8fd","805","stimuli/2111011.jpg","2","","prediction_trial","2","","true","","2","false","false","false","false","false","false","[2,1,0]","111","011","1","","","","","","",""
"","","","","","image-keyboard-response","199","410512","0.0-174.0","5e8601d90126b207e8c7a2aa","665500ab8938657b03fbdba8","6657927974a8e5165543c8fd","360","stimuli/21110112.jpg"," ","","feedback_trial","2","","","","","","","","","","","","","","","","","","","","",""
"","","","","","image-keyboard-response","200","411411","0.0-175.0","5e8601d90126b207e8c7a2aa","665500ab8938657b03fbdba8","6657927974a8e5165543c8fd","893","stimuli/0001000.jpg","0","","prediction_trial","0","","true","","0","true","true","true","true","true","true","[0]","001","000","1","","","","","","",""
"","","","","","image-keyboard-response","201","411764","0.0-176.0","5e8601d90126b207e8c7a2aa","665500ab8938657b03fbdba8","6657927974a8e5165543c8fd","349","stimuli/00010000.jpg"," ","","feedback_trial","0","","","","","","","","","","","","","","","","","","","","",""
"","","","","","image-keyboard-response","202","412635","0.0-177.0","5e8601d90126b207e8c7a2aa","665500ab8938657b03fbdba8","6657927974a8e5165543c8fd","866","stimuli/0010110.jpg","0","","prediction_trial","0","","true","","0","false","false","true","true","false","false","[0]","010","110","1","","","","","","",""
"","","","","","image-keyboard-response","203","413009","0.0-178.0","5e8601d90126b207e8c7a2aa","665500ab8938657b03fbdba8","6657927974a8e5165543c8fd","366","stimuli/00101100.jpg"," ","","feedback_trial","0","","","","","","","","","","","","","","","","","","","","",""
"","","","","","image-keyboard-response","204","413808","0.0-179.0","5e8601d90126b207e8c7a2aa","665500ab8938657b03fbdba8","6657927974a8e5165543c8fd","791","stimuli/0111010.jpg","0","","prediction_trial","0","","true","","0","true","true","false","false","false","false","[1,0,2]","111","010","1","","","","","","",""
"","","","","","image-keyboard-response","205","414177","0.0-180.0","5e8601d90126b207e8c7a2aa","665500ab8938657b03fbdba8","6657927974a8e5165543c8fd","361","stimuli/01110100.jpg"," ","","feedback_trial","1","","","","","","","","","","","","","","","","","","","","",""
"","","","","","image-keyboard-response","206","415043","0.0-181.0","5e8601d90126b207e8c7a2aa","665500ab8938657b03fbdba8","6657927974a8e5165543c8fd","860","stimuli/0001111.jpg","0","","prediction_trial","0","","true","","0","false","false","true","true","false","false","[0]","001","111","1","","","","","","",""
"","","","","","image-keyboard-response","207","415396","0.0-182.0","5e8601d90126b207e8c7a2aa","665500ab8938657b03fbdba8","6657927974a8e5165543c8fd","346","stimuli/00011110.jpg"," ","","feedback_trial","0","","","","","","","","","","","","","","","","","","","","",""
"","","","","","image-keyboard-response","208","416243","0.0-183.0","5e8601d90126b207e8c7a2aa","665500ab8938657b03fbdba8","6657927974a8e5165543c8fd","840","stimuli/0100111.jpg","0","","prediction_trial","0","","true","","0","false","false","false","true","false","false","[0]","100","111","1","","","","","","",""
"","","","","","image-keyboard-response","209","416675","0.0-184.0","5e8601d90126b207e8c7a2aa","665500ab8938657b03fbdba8","6657927974a8e5165543c8fd","427","stimuli/01001110.jpg"," ","","feedback_trial","0","","","","","","","","","","","","","","","","","","","","",""
"","","","","","image-keyboard-response","210","417754","0.0-185.0","5e8601d90126b207e8c7a2aa","665500ab8938657b03fbdba8","6657927974a8e5165543c8fd","1070","stimuli/0100101.jpg","0","","prediction_trial","0","","true","","0","false","false","false","true","false","false","[0]","100","101","1","","","","","","",""
"","","","","","image-keyboard-response","211","418245","0.0-186.0","5e8601d90126b207e8c7a2aa","665500ab8938657b03fbdba8","6657927974a8e5165543c8fd","485","stimuli/01001010.jpg"," ","","feedback_trial","0","","","","","","","","","","","","","","","","","","","","",""
"","","","","","image-keyboard-response","212","419597","0.0-187.0","5e8601d90126b207e8c7a2aa","665500ab8938657b03fbdba8","6657927974a8e5165543c8fd","1345","stimuli/2011111.jpg","0","","prediction_trial","2","","false","","2","false","false","false","false","false","false","[2,1]","011","111","0","","","","","","",""
"","","","","","image-keyboard-response","213","420478","0.0-188.0","5e8601d90126b207e8c7a2aa","665500ab8938657b03fbdba8","6657927974a8e5165543c8fd","875","stimuli/20111112.jpg"," ","","feedback_trial","2","","","","","","","","","","","","","","","","","","","","",""
"","","","","","image-keyboard-response","214","422139","0.0-189.0","5e8601d90126b207e8c7a2aa","665500ab8938657b03fbdba8","6657927974a8e5165543c8fd","1652","stimuli/1000100.jpg","1","","prediction_trial","1","","true","","1","true","true","true","true","true","true","[1]","000","100","1","","","","","","",""
"","","","","","image-keyboard-response","215","423080","0.0-190.0","5e8601d90126b207e8c7a2aa","665500ab8938657b03fbdba8","6657927974a8e5165543c8fd","934","stimuli/10001001.jpg"," ","","feedback_trial","1","","","","","","","","","","","","","","","","","","","","",""
"","","","","","image-keyboard-response","216","424640","0.0-191.0","5e8601d90126b207e8c7a2aa","665500ab8938657b03fbdba8","6657927974a8e5165543c8fd","1556","stimuli/1000101.jpg","1","","prediction_trial","1","","true","","1","true","true","true","true","true","true","[1]","000","101","1","","","","","","",""
"","","","","","image-keyboard-response","217","426403","0.0-192.0","5e8601d90126b207e8c7a2aa","665500ab8938657b03fbdba8","6657927974a8e5165543c8fd","1754","stimuli/10001011.jpg"," ","","feedback_trial","1","","","","","","","","","","","","","","","","","","","","",""
"","","","","","image-keyboard-response","218","427489","0.0-193.0","5e8601d90126b207e8c7a2aa","665500ab8938657b03fbdba8","6657927974a8e5165543c8fd","1080","stimuli/0010100.jpg","2","","prediction_trial","0","","false","","0","false","true","true","true","false","true","[0]","010","100","0","","","","","","",""
"","","","","","image-keyboard-response","219","429008","0.0-194.0","5e8601d90126b207e8c7a2aa","665500ab8938657b03fbdba8","6657927974a8e5165543c8fd","1515","stimuli/00101000.jpg"," ","","feedback_trial","0","","","","","","","","","","","","","","","","","","","","",""
"","","","","","image-keyboard-response","220","430000","0.0-195.0","5e8601d90126b207e8c7a2aa","665500ab8938657b03fbdba8","6657927974a8e5165543c8fd","983","stimuli/2011110.jpg","2","","prediction_trial","1","","false","","2","true","true","false","false","false","false","[1,2]","011","110","0","","","","","","",""
"","","","","","image-keyboard-response","221","430705","0.0-196.0","5e8601d90126b207e8c7a2aa","665500ab8938657b03fbdba8","6657927974a8e5165543c8fd","660","stimuli/20111101.jpg"," ","","feedback_trial","1","","","","","","","","","","","","","","","","","","","","",""
"","","","","","image-keyboard-response","222","431860","0.0-197.0","5e8601d90126b207e8c7a2aa","665500ab8938657b03fbdba8","6657927974a8e5165543c8fd","1147","stimuli/2001111.jpg","2","","prediction_trial","2","","true","","2","false","false","false","true","false","false","[2]","001","111","1","","","","","","",""
"","","","","","image-keyboard-response","223","432614","0.0-198.0","5e8601d90126b207e8c7a2aa","665500ab8938657b03fbdba8","6657927974a8e5165543c8fd","746","stimuli/20011112.jpg"," ","","feedback_trial","2","","","","","","","","","","","","","","","","","","","","",""
"","","","","","image-keyboard-response","224","433666","0.0-199.0","5e8601d90126b207e8c7a2aa","665500ab8938657b03fbdba8","6657927974a8e5165543c8fd","1044","stimuli/0000000.jpg","0","","prediction_trial","0","","true","","0","true","true","true","true","true","true","[0]","000","000","1","","","","","","",""
"","","","","","image-keyboard-response","225","434307","0.0-200.0","5e8601d90126b207e8c7a2aa","665500ab8938657b03fbdba8","6657927974a8e5165543c8fd","635","stimuli/00000000.jpg"," ","","feedback_trial","0","","","","","","","","","","","","","","","","","","","","",""
"","","","","","image-keyboard-response","226","435639","0.0-201.0","5e8601d90126b207e8c7a2aa","665500ab8938657b03fbdba8","6657927974a8e5165543c8fd","1324","stimuli/1001001.jpg","1","","prediction_trial","1","","true","","1","true","true","true","true","true","true","[1]","001","001","1","","","","","","",""
"","","","","","image-keyboard-response","227","436537","0.0-202.0","5e8601d90126b207e8c7a2aa","665500ab8938657b03fbdba8","6657927974a8e5165543c8fd","891","stimuli/10010011.jpg"," ","","feedback_trial","1","","","","","","","","","","","","","","","","","","","","",""
"","","","","","image-keyboard-response","228","437552","0.0-203.0","5e8601d90126b207e8c7a2aa","665500ab8938657b03fbdba8","6657927974a8e5165543c8fd","1008","stimuli/0001011.jpg","0","","prediction_trial","0","","true","","0","true","true","true","true","true","true","[0]","001","011","1","","","","","","",""
"","","","","","image-keyboard-response","229","437937","0.0-204.0","5e8601d90126b207e8c7a2aa","665500ab8938657b03fbdba8","6657927974a8e5165543c8fd","377","stimuli/00010110.jpg"," ","","feedback_trial","0","","","","","","","","","","","","","","","","","","","","",""
"","","","","","image-keyboard-response","230","440275","0.0-205.0","5e8601d90126b207e8c7a2aa","665500ab8938657b03fbdba8","6657927974a8e5165543c8fd","2293","stimuli/1001000.jpg","1","","prediction_trial","1","","true","","1","true","true","true","true","true","true","[1]","001","000","1","","","","","","",""
"","","","","","image-keyboard-response","231","441138","0.0-206.0","5e8601d90126b207e8c7a2aa","665500ab8938657b03fbdba8","6657927974a8e5165543c8fd","855","stimuli/10010001.jpg"," ","","feedback_trial","1","","","","","","","","","","","","","","","","","","","","",""
"","","","","","image-keyboard-response","232","442199","0.0-207.0","5e8601d90126b207e8c7a2aa","665500ab8938657b03fbdba8","6657927974a8e5165543c8fd","1051","stimuli/0110011.jpg","0","","prediction_trial","1","","false","","0","true","true","false","false","false","false","[0,1]","110","011","0","","","","","","",""
"","","","","","image-keyboard-response","233","442523","0.0-208.0","5e8601d90126b207e8c7a2aa","665500ab8938657b03fbdba8","6657927974a8e5165543c8fd","317","stimuli/01100111.jpg"," ","","feedback_trial","0","","","","","","","","","","","","","","","","","","","","",""
"","","","","","image-keyboard-response","234","443872","0.0-209.0","5e8601d90126b207e8c7a2aa","665500ab8938657b03fbdba8","6657927974a8e5165543c8fd","1342","stimuli/1010001.jpg","1","","prediction_trial","1","","true","","1","true","true","false","true","false","true","[1]","010","001","1","","","","","","",""
"","","","","","image-keyboard-response","235","444435","0.0-210.0","5e8601d90126b207e8c7a2aa","665500ab8938657b03fbdba8","6657927974a8e5165543c8fd","559","stimuli/10100011.jpg"," ","","feedback_trial","1","","","","","","","","","","","","","","","","","","","","",""
"","","","","","image-keyboard-response","236","445347","0.0-211.0","5e8601d90126b207e8c7a2aa","665500ab8938657b03fbdba8","6657927974a8e5165543c8fd","909","stimuli/0000100.jpg","0","","prediction_trial","0","","true","","0","false","true","true","true","false","true","[0]","000","100","1","","","","","","",""
"","","","","","image-keyboard-response","237","445728","0.0-212.0","5e8601d90126b207e8c7a2aa","665500ab8938657b03fbdba8","6657927974a8e5165543c8fd","333","stimuli/00001000.jpg"," ","","feedback_trial","0","","","","","","","","","","","","","","","","","","","","",""
"","","","","","image-keyboard-response","238","446572","0.0-213.0","5e8601d90126b207e8c7a2aa","665500ab8938657b03fbdba8","6657927974a8e5165543c8fd","840","stimuli/2000010.jpg","2","","prediction_trial","2","","true","","2","true","true","true","true","true","true","[2]","000","010","1","","","","","","",""
"","","","","","image-keyboard-response","239","447004","0.0-214.0","5e8601d90126b207e8c7a2aa","665500ab8938657b03fbdba8","6657927974a8e5165543c8fd","428","stimuli/20000102.jpg"," ","","feedback_trial","2","","","","","","","","","","","","","","","","","","","","",""
"","","","","","image-keyboard-response","240","448165","0.0-215.0","5e8601d90126b207e8c7a2aa","665500ab8938657b03fbdba8","6657927974a8e5165543c8fd","1157","stimuli/2001011.jpg","0","","prediction_trial","2","","false","","2","false","false","false","true","false","false","[2]","001","011","0","","","","","","",""
"","","","","","image-keyboard-response","241","451219","0.0-216.0","5e8601d90126b207e8c7a2aa","665500ab8938657b03fbdba8","6657927974a8e5165543c8fd","3045","stimuli/20010112.jpg"," ","","feedback_trial","2","","","","","","","","","","","","","","","","","","","","",""
"","","","","","image-keyboard-response","242","452105","0.0-217.0","5e8601d90126b207e8c7a2aa","665500ab8938657b03fbdba8","6657927974a8e5165543c8fd","877","stimuli/0101001.jpg","0","","prediction_trial","2","","false","","0","true","true","false","false","false","false","[0,2]","101","001","0","","","","","","",""
"","","","","","image-keyboard-response","243","452388","0.0-218.0","5e8601d90126b207e8c7a2aa","665500ab8938657b03fbdba8","6657927974a8e5165543c8fd","272","stimuli/01010012.jpg"," ","","feedback_trial","0","","","","","","","","","","","","","","","","","","","","",""
"","","","","","image-keyboard-response","244","453185","0.0-219.0","5e8601d90126b207e8c7a2aa","665500ab8938657b03fbdba8","6657927974a8e5165543c8fd","791","stimuli/0100000.jpg","0","","prediction_trial","0","","true","","0","true","true","false","true","false","true","[0]","100","000","1","","","","","","",""
"","","","","","image-keyboard-response","245","453468","0.0-220.0","5e8601d90126b207e8c7a2aa","665500ab8938657b03fbdba8","6657927974a8e5165543c8fd","276","stimuli/01000000.jpg"," ","","feedback_trial","0","","","","","","","","","","","","","","","","","","","","",""
"","","","","","image-keyboard-response","246","454337","0.0-221.0","5e8601d90126b207e8c7a2aa","665500ab8938657b03fbdba8","6657927974a8e5165543c8fd","852","stimuli/0101100.jpg","0","","prediction_trial","2","","false","","0","false","true","false","false","false","false","[0,2]","101","100","0","","","","","","",""
"","","","","","image-keyboard-response","247","454643","0.0-222.0","5e8601d90126b207e8c7a2aa","665500ab8938657b03fbdba8","6657927974a8e5165543c8fd","299","stimuli/01011002.jpg"," ","","feedback_trial","0","","","","","","","","","","","","","","","","","","","","",""
"","","","","","image-keyboard-response","248","456064","0.0-223.0","5e8601d90126b207e8c7a2aa","665500ab8938657b03fbdba8","6657927974a8e5165543c8fd","1418","stimuli/0011111.jpg","0","","prediction_trial","0","","true","","0","false","false","true","true","false","false","[0]","011","111","1","","","","","","",""
"","","","","","image-keyboard-response","249","456355","0.0-224.0","5e8601d90126b207e8c7a2aa","665500ab8938657b03fbdba8","6657927974a8e5165543c8fd","286","stimuli/00111110.jpg"," ","","feedback_trial","0","","","","","","","","","","","","","","","","","","","","",""
"","","","","","image-keyboard-response","250","457091","0.0-225.0","5e8601d90126b207e8c7a2aa","665500ab8938657b03fbdba8","6657927974a8e5165543c8fd","729","stimuli/0000001.jpg","0","","prediction_trial","0","","true","","0","true","true","true","true","true","true","[0]","000","001","1","","","","","","",""
"","","","","","image-keyboard-response","251","457360","0.0-226.0","5e8601d90126b207e8c7a2aa","665500ab8938657b03fbdba8","6657927974a8e5165543c8fd","260","stimuli/00000010.jpg"," ","","feedback_trial","0","","","","","","","","","","","","","","","","","","","","",""
"","","","","","image-keyboard-response","252","458091","0.0-227.0","5e8601d90126b207e8c7a2aa","665500ab8938657b03fbdba8","6657927974a8e5165543c8fd","726","stimuli/0110101.jpg","0","","prediction_trial","0","","true","","0","false","false","false","false","false","false","[1,0]","110","101","1","","","","","","",""
"","","","","","image-keyboard-response","253","458913","0.0-228.0","5e8601d90126b207e8c7a2aa","665500ab8938657b03fbdba8","6657927974a8e5165543c8fd","817","stimuli/01101010.jpg"," ","","feedback_trial","1","","","","","","","","","","","","","","","","","","","","",""
"","","","","","image-keyboard-response","254","459751","0.0-229.0","5e8601d90126b207e8c7a2aa","665500ab8938657b03fbdba8","6657927974a8e5165543c8fd","830","stimuli/1100111.jpg","0","","prediction_trial","1","","false","","1","false","false","true","true","false","false","[1]","100","111","0","","","","","","",""
"","","","","","image-keyboard-response","255","460201","0.0-230.0","5e8601d90126b207e8c7a2aa","665500ab8938657b03fbdba8","6657927974a8e5165543c8fd","439","stimuli/11001111.jpg"," ","","feedback_trial","1","","","","","","","","","","","","","","","","","","","","",""
"","","","","","image-keyboard-response","256","460898","0.0-231.0","5e8601d90126b207e8c7a2aa","665500ab8938657b03fbdba8","6657927974a8e5165543c8fd","690","stimuli/1001110.jpg","0","","prediction_trial","1","","false","","1","false","false","true","true","false","false","[1]","001","110","0","","","","","","",""
"","","","","","image-keyboard-response","257","461341","0.0-232.0","5e8601d90126b207e8c7a2aa","665500ab8938657b03fbdba8","6657927974a8e5165543c8fd","435","stimuli/10011101.jpg"," ","","feedback_trial","1","","","","","","","","","","","","","","","","","","","","",""
"","","","","","image-keyboard-response","258","462844","0.0-233.0","5e8601d90126b207e8c7a2aa","665500ab8938657b03fbdba8","6657927974a8e5165543c8fd","1492","stimuli/1110001.jpg","1","","prediction_trial","0","","false","","1","true","true","false","false","false","false","[0,1]","110","001","0","","","","","","",""
"","","","","","image-keyboard-response","259","465406","0.0-234.0","5e8601d90126b207e8c7a2aa","665500ab8938657b03fbdba8","6657927974a8e5165543c8fd","2558","stimuli/11100010.jpg"," ","","feedback_trial","0","","","","","","","","","","","","","","","","","","","","",""
"","","","","","image-keyboard-response","260","466301","0.0-235.0","5e8601d90126b207e8c7a2aa","665500ab8938657b03fbdba8","6657927974a8e5165543c8fd","886","stimuli/2100000.jpg","2","","prediction_trial","2","","true","","2","true","true","true","true","true","true","[2]","100","000","1","","","","","","",""
"","","","","","image-keyboard-response","261","466664","0.0-236.0","5e8601d90126b207e8c7a2aa","665500ab8938657b03fbdba8","6657927974a8e5165543c8fd","356","stimuli/21000002.jpg"," ","","feedback_trial","2","","","","","","","","","","","","","","","","","","","","",""
"","","","","","image-keyboard-response","262","467162","0.0-237.0","5e8601d90126b207e8c7a2aa","665500ab8938657b03fbdba8","6657927974a8e5165543c8fd","491","stimuli/2011010.jpg","2","","prediction_trial","2","","true","","2","true","true","false","false","false","false","[1,2]","011","010","1","","","","","","",""
"","","","","","image-keyboard-response","263","467562","0.0-238.0","5e8601d90126b207e8c7a2aa","665500ab8938657b03fbdba8","6657927974a8e5165543c8fd","393","stimuli/20110102.jpg"," ","","feedback_trial","1","","","","","","","","","","","","","","","","","","","","",""
"","","","","","image-keyboard-response","264","468499","0.0-239.0","5e8601d90126b207e8c7a2aa","665500ab8938657b03fbdba8","6657927974a8e5165543c8fd","920","stimuli/2101011.jpg","2","","prediction_trial","2","","true","","2","false","false","false","false","false","false","[2,0]","101","011","1","","","","","","",""
"","","","","","image-keyboard-response","265","468915","0.0-240.0","5e8601d90126b207e8c7a2aa","665500ab8938657b03fbdba8","6657927974a8e5165543c8fd","407","stimuli/21010112.jpg"," ","","feedback_trial","2","","","","","","","","","","","","","","","","","","","","",""
"","","","","","image-keyboard-response","266","469855","0.0-241.0","5e8601d90126b207e8c7a2aa","665500ab8938657b03fbdba8","6657927974a8e5165543c8fd","935","stimuli/0111000.jpg","0","","prediction_trial","1","","false","","0","true","true","false","false","false","false","[2,0,1]","111","000","0","","","","","","",""
"","","","","","image-keyboard-response","267","470263","0.0-242.0","5e8601d90126b207e8c7a2aa","665500ab8938657b03fbdba8","6657927974a8e5165543c8fd","398","stimuli/01110001.jpg"," ","","feedback_trial","2","","","","","","","","","","","","","","","","","","","","",""
"","","","","","image-keyboard-response","268","470923","0.0-243.0","5e8601d90126b207e8c7a2aa","665500ab8938657b03fbdba8","6657927974a8e5165543c8fd","652","stimuli/1100101.jpg","0","","prediction_trial","1","","false","","1","true","true","true","true","true","true","[1]","100","101","0","","","","","","",""
"","","","","","image-keyboard-response","269","472136","0.0-244.0","5e8601d90126b207e8c7a2aa","665500ab8938657b03fbdba8","6657927974a8e5165543c8fd","1204","stimuli/11001011.jpg"," ","","feedback_trial","1","","","","","","","","","","","","","","","","","","","","",""
"","","","","","image-keyboard-response","270","473476","0.0-245.0","5e8601d90126b207e8c7a2aa","665500ab8938657b03fbdba8","6657927974a8e5165543c8fd","1333","stimuli/1100001.jpg","1","","prediction_trial","1","","true","","1","true","true","true","true","true","true","[1]","100","001","1","","","","","","",""
"","","","","","image-keyboard-response","271","473954","0.0-246.0","5e8601d90126b207e8c7a2aa","665500ab8938657b03fbdba8","6657927974a8e5165543c8fd","428","stimuli/11000011.jpg"," ","","feedback_trial","1","","","","","","","","","","","","","","","","","","","","",""
"","","","","","image-keyboard-response","272","474748","0.0-247.0","5e8601d90126b207e8c7a2aa","665500ab8938657b03fbdba8","6657927974a8e5165543c8fd","785","stimuli/0011011.jpg","0","","prediction_trial","0","","true","","0","true","true","true","true","true","true","[0]","011","011","1","","","","","","",""
"","","","","","image-keyboard-response","273","475111","0.0-248.0","5e8601d90126b207e8c7a2aa","665500ab8938657b03fbdba8","6657927974a8e5165543c8fd","353","stimuli/00110110.jpg"," ","","feedback_trial","0","","","","","","","","","","","","","","","","","","","","",""
"","","","","","image-keyboard-response","274","476293","0.0-249.0","5e8601d90126b207e8c7a2aa","665500ab8938657b03fbdba8","6657927974a8e5165543c8fd","1175","stimuli/1000111.jpg","0","","prediction_trial","1","","false","","1","false","false","true","true","false","false","[1]","000","111","0","","","","","","",""
"","","","","","image-keyboard-response","275","476607","0.0-250.0","5e8601d90126b207e8c7a2aa","665500ab8938657b03fbdba8","6657927974a8e5165543c8fd","305","stimuli/10001111.jpg"," ","","feedback_trial","1","","","","","","","","","","","","","","","","","","","","",""
"","","","","","image-keyboard-response","276","477920","0.0-251.0","5e8601d90126b207e8c7a2aa","665500ab8938657b03fbdba8","6657927974a8e5165543c8fd","1304","stimuli/1000001.jpg","1","","prediction_trial","1","","true","","1","true","true","true","true","true","true","[1]","000","001","1","","","","","","",""
"","","","","","image-keyboard-response","277","478298","0.0-252.0","5e8601d90126b207e8c7a2aa","665500ab8938657b03fbdba8","6657927974a8e5165543c8fd","372","stimuli/10000011.jpg"," ","","feedback_trial","1","","","","","","","","","","","","","","","","","","","","",""
"","","","","","image-keyboard-response","278","479128","0.0-253.0","5e8601d90126b207e8c7a2aa","665500ab8938657b03fbdba8","6657927974a8e5165543c8fd","822","stimuli/0011010.jpg","0","","prediction_trial","0","","true","","0","true","true","true","true","true","true","[0]","011","010","1","","","","","","",""
"","","","","","image-keyboard-response","279","479456","0.0-254.0","5e8601d90126b207e8c7a2aa","665500ab8938657b03fbdba8","6657927974a8e5165543c8fd","321","stimuli/00110100.jpg"," ","","feedback_trial","0","","","","","","","","","","","","","","","","","","","","",""
"","","","","","image-keyboard-response","280","481166","0.0-255.0","5e8601d90126b207e8c7a2aa","665500ab8938657b03fbdba8","6657927974a8e5165543c8fd","1694","stimuli/1000010.jpg","1","","prediction_trial","1","","true","","1","false","true","true","true","false","true","[1]","000","010","1","","","","","","",""
"","","","","","image-keyboard-response","281","481533","0.0-256.0","5e8601d90126b207e8c7a2aa","665500ab8938657b03fbdba8","6657927974a8e5165543c8fd","358","stimuli/10000101.jpg"," ","","feedback_trial","1","","","","","","","","","","","","","","","","","","","","",""
"","","","","","image-keyboard-response","282","482791","0.0-257.0","5e8601d90126b207e8c7a2aa","665500ab8938657b03fbdba8","6657927974a8e5165543c8fd","1248","stimuli/1110110.jpg","1","","prediction_trial","0","","false","","1","false","false","false","false","false","false","[1,0]","110","110","0","","","","","","",""
"","","","","","image-keyboard-response","283","483114","0.0-258.0","5e8601d90126b207e8c7a2aa","665500ab8938657b03fbdba8","6657927974a8e5165543c8fd","313","stimuli/11101100.jpg"," ","","feedback_trial","1","","","","","","","","","","","","","","","","","","","","",""
"","","","","","image-keyboard-response","284","484263","0.0-259.0","5e8601d90126b207e8c7a2aa","665500ab8938657b03fbdba8","6657927974a8e5165543c8fd","1143","stimuli/0111011.jpg","0","","prediction_trial","2","","false","","0","true","true","false","false","false","false","[0,1,2]","111","011","0","","","","","","",""
"","","","","","image-keyboard-response","285","484832","0.0-260.0","5e8601d90126b207e8c7a2aa","665500ab8938657b03fbdba8","6657927974a8e5165543c8fd","564","stimuli/01110112.jpg"," ","","feedback_trial","0","","","","","","","","","","","","","","","","","","","","",""
"","","","","","image-keyboard-response","286","485609","0.0-261.0","5e8601d90126b207e8c7a2aa","665500ab8938657b03fbdba8","6657927974a8e5165543c8fd","773","stimuli/2000100.jpg","2","","prediction_trial","2","","true","","2","true","true","true","true","true","true","[2]","000","100","1","","","","","","",""
"","","","","","image-keyboard-response","287","486010","0.0-262.0","5e8601d90126b207e8c7a2aa","665500ab8938657b03fbdba8","6657927974a8e5165543c8fd","392","stimuli/20001002.jpg"," ","","feedback_trial","2","","","","","","","","","","","","","","","","","","","","",""
"","","","","","image-keyboard-response","288","486833","0.0-263.0","5e8601d90126b207e8c7a2aa","665500ab8938657b03fbdba8","6657927974a8e5165543c8fd","818","stimuli/2101111.jpg","0","","prediction_trial","2","","false","","2","false","false","false","false","false","false","[0,2]","101","111","0","","","","","","",""
"","","","","","image-keyboard-response","289","487284","0.0-264.0","5e8601d90126b207e8c7a2aa","665500ab8938657b03fbdba8","6657927974a8e5165543c8fd","441","stimuli/21011112.jpg"," ","","feedback_trial","0","","","","","","","","","","","","","","","","","","","","",""
"","","","","","image-keyboard-response","290","488670","0.0-265.0","5e8601d90126b207e8c7a2aa","665500ab8938657b03fbdba8","6657927974a8e5165543c8fd","1376","stimuli/1001100.jpg","1","","prediction_trial","1","","true","","1","true","true","true","true","true","true","[1]","001","100","1","","","","","","",""
"","","","","","image-keyboard-response","291","489003","0.0-266.0","5e8601d90126b207e8c7a2aa","665500ab8938657b03fbdba8","6657927974a8e5165543c8fd","325","stimuli/10011001.jpg"," ","","feedback_trial","1","","","","","","","","","","","","","","","","","","","","",""
"","","","","","image-keyboard-response","292","489779","0.0-267.0","5e8601d90126b207e8c7a2aa","665500ab8938657b03fbdba8","6657927974a8e5165543c8fd","768","stimuli/0100011.jpg","0","","prediction_trial","0","","true","","0","true","true","false","true","false","true","[0]","100","011","1","","","","","","",""
"","","","","","image-keyboard-response","293","490086","0.0-268.0","5e8601d90126b207e8c7a2aa","665500ab8938657b03fbdba8","6657927974a8e5165543c8fd","300","stimuli/01000110.jpg"," ","","feedback_trial","0","","","","","","","","","","","","","","","","","","","","",""
"","","","","","image-keyboard-response","294","491590","0.0-269.0","5e8601d90126b207e8c7a2aa","665500ab8938657b03fbdba8","6657927974a8e5165543c8fd","1493","stimuli/0011001.jpg","0","","prediction_trial","0","","true","","0","true","true","true","true","true","true","[0]","011","001","1","","","","","","",""
"","","","","","image-keyboard-response","295","491911","0.0-270.0","5e8601d90126b207e8c7a2aa","665500ab8938657b03fbdba8","6657927974a8e5165543c8fd","316","stimuli/00110010.jpg"," ","","feedback_trial","0","","","","","","","","","","","","","","","","","","","","",""
"","","","","","image-keyboard-response","296","493444","0.0-271.0","5e8601d90126b207e8c7a2aa","665500ab8938657b03fbdba8","6657927974a8e5165543c8fd","1527","stimuli/1000011.jpg","2","","prediction_trial","1","","false","","1","false","false","true","true","false","false","[1]","000","011","0","","","","","","",""
"","","","","","image-keyboard-response","297","493796","0.0-272.0","5e8601d90126b207e8c7a2aa","665500ab8938657b03fbdba8","6657927974a8e5165543c8fd","345","stimuli/10000111.jpg"," ","","feedback_trial","1","","","","","","","","","","","","","","","","","","","","",""
"","","","","","image-keyboard-response","298","495053","0.0-273.0","5e8601d90126b207e8c7a2aa","665500ab8938657b03fbdba8","6657927974a8e5165543c8fd","1247","stimuli/1010110.jpg","0","","prediction_trial","1","","false","","1","false","false","false","true","false","false","[1]","010","110","0","","","","","","",""
"","","","","","image-keyboard-response","299","495340","0.0-274.0","5e8601d90126b207e8c7a2aa","665500ab8938657b03fbdba8","6657927974a8e5165543c8fd","279","stimuli/10101101.jpg"," ","","feedback_trial","1","","","","","","","","","","","","","","","","","","","","",""
"","","","","","image-keyboard-response","300","495898","0.0-275.0","5e8601d90126b207e8c7a2aa","665500ab8938657b03fbdba8","6657927974a8e5165543c8fd","548","stimuli/0011000.jpg","0","","prediction_trial","0","","true","","0","true","true","true","true","true","true","[0]","011","000","1","","","","","","",""
"","","","","","image-keyboard-response","301","496069","0.0-276.0","5e8601d90126b207e8c7a2aa","665500ab8938657b03fbdba8","6657927974a8e5165543c8fd","165","stimuli/00110000.jpg"," ","","feedback_trial","0","","","","","","","","","","","","","","","","","","","","",""
"","","","","","image-keyboard-response","302","496866","0.0-277.0","5e8601d90126b207e8c7a2aa","665500ab8938657b03fbdba8","6657927974a8e5165543c8fd","792","stimuli/2010011.jpg","0","","prediction_trial","2","","false","","2","false","false","true","true","false","false","[2]","010","011","0","","","","","","",""
"","","","","","image-keyboard-response","303","497774","0.0-278.0","5e8601d90126b207e8c7a2aa","665500ab8938657b03fbdba8","6657927974a8e5165543c8fd","899","stimuli/20100112.jpg"," ","","feedback_trial","2","","","","","","","","","","","","","","","","","","","","",""
"","","","","","image-keyboard-response","304","499112","0.0-279.0","5e8601d90126b207e8c7a2aa","665500ab8938657b03fbdba8","6657927974a8e5165543c8fd","1329","stimuli/1111010.jpg","1","","prediction_trial","1","","true","","1","false","true","false","false","false","false","[2,1,0]","111","010","1","","","","","","",""
"","","","","","image-keyboard-response","305","499433","0.0-280.0","5e8601d90126b207e8c7a2aa","665500ab8938657b03fbdba8","6657927974a8e5165543c8fd","316","stimuli/11110101.jpg"," ","","feedback_trial","2","","","","","","","","","","","","","","","","","","","","",""
"","","","","","image-keyboard-response","306","500168","0.0-281.0","5e8601d90126b207e8c7a2aa","665500ab8938657b03fbdba8","6657927974a8e5165543c8fd","726","stimuli/0000010.jpg","0","","prediction_trial","0","","true","","0","true","true","true","true","true","true","[0]","000","010","1","","","","","","",""
"","","","","","image-keyboard-response","307","500551","0.0-282.0","5e8601d90126b207e8c7a2aa","665500ab8938657b03fbdba8","6657927974a8e5165543c8fd","376","stimuli/00000100.jpg"," ","","feedback_trial","0","","","","","","","","","","","","","","","","","","","","",""
"","","","","","image-keyboard-response","308","501486","0.0-283.0","5e8601d90126b207e8c7a2aa","665500ab8938657b03fbdba8","6657927974a8e5165543c8fd","927","stimuli/2011001.jpg","2","","prediction_trial","1","","false","","2","false","true","false","false","false","false","[1,2]","011","001","0","","","","","","",""
"","","","","","image-keyboard-response","309","501772","0.0-284.0","5e8601d90126b207e8c7a2aa","665500ab8938657b03fbdba8","6657927974a8e5165543c8fd","277","stimuli/20110011.jpg"," ","","feedback_trial","1","","","","","","","","","","","","","","","","","","","","",""
"","","","","","image-keyboard-response","310","504024","0.0-285.0","5e8601d90126b207e8c7a2aa","665500ab8938657b03fbdba8","6657927974a8e5165543c8fd","2244","stimuli/1111100.jpg","1","","prediction_trial","1","","true","","1","true","true","false","false","false","false","[2,0,1]","111","100","1","","","","","","",""
"","","","","","image-keyboard-response","311","504832","0.0-286.0","5e8601d90126b207e8c7a2aa","665500ab8938657b03fbdba8","6657927974a8e5165543c8fd","803","stimuli/11111001.jpg"," ","","feedback_trial","2","","","","","","","","","","","","","","","","","","","","",""
"","","","","","image-keyboard-response","312","506772","0.0-287.0","5e8601d90126b207e8c7a2aa","665500ab8938657b03fbdba8","6657927974a8e5165543c8fd","1932","stimuli/1011000.jpg","1","","prediction_trial","2","","false","","1","true","true","false","false","false","false","[1,2]","011","000","0","","","","","","",""
"","","","","","image-keyboard-response","313","507201","0.0-288.0","5e8601d90126b207e8c7a2aa","665500ab8938657b03fbdba8","6657927974a8e5165543c8fd","423","stimuli/10110002.jpg"," ","","feedback_trial","1","","","","","","","","","","","","","","","","","","","","",""
"","","","","","image-keyboard-response","314","508687","0.0-289.0","5e8601d90126b207e8c7a2aa","665500ab8938657b03fbdba8","6657927974a8e5165543c8fd","1478","stimuli/1010010.jpg","1","","prediction_trial","1","","true","","1","false","true","false","true","false","true","[1]","010","010","1","","","","","","",""
"","","","","","image-keyboard-response","315","509301","0.0-290.0","5e8601d90126b207e8c7a2aa","665500ab8938657b03fbdba8","6657927974a8e5165543c8fd","606","stimuli/10100101.jpg"," ","","feedback_trial","1","","","","","","","","","","","","","","","","","","","","",""
"","","","","","image-keyboard-response","316","510132","0.0-291.0","5e8601d90126b207e8c7a2aa","665500ab8938657b03fbdba8","6657927974a8e5165543c8fd","819","stimuli/2100110.jpg","2","","prediction_trial","2","","true","","2","true","true","true","true","true","true","[2]","100","110","1","","","","","","",""
"","","","","","image-keyboard-response","317","510481","0.0-292.0","5e8601d90126b207e8c7a2aa","665500ab8938657b03fbdba8","6657927974a8e5165543c8fd","340","stimuli/21001102.jpg"," ","","feedback_trial","2","","","","","","","","","","","","","","","","","","","","",""
"","","","","","survey-html-form","318","521699","0.0-293.0","5e8601d90126b207e8c7a2aa","665500ab8938657b03fbdba8","6657927974a8e5165543c8fd","11206","","{""feedback"":"""",""age"":""43"",""gender"":""Female"",""other_gender"":"""",""race"":""White"",""other_race"":""""}","","exit_survey","","","","","","","","","","","","","","","","","43","","Female","White","0.6388888888888888","0.6388888888888888"
