"success","timeout","failed_images","failed_audio","failed_video","trial_type","trial_index","time_elapsed","internal_node_id","prolific_id","prolific_study_id","prolific_session_id","rt","stimulus","response","view_history","trial","character_choice","stimulus_dict","accuracy","correct_response","ball_pos","ego_ball_visible","ego_can_infer","alter_ball_visible","alter_can_infer","collective_ball_visible","collective_can_infer","search_locations","alter_occluders","ego_occluders","accuracy_bool","feedback","age","ethnicity","gender","race","overall_accuracy","bonus"
"true","false","[]","[]","[]","preload","0","123761","0.0-0.0","5f084a7987a3fe028ff65b8a","665500ab8938657b03fbdba8","66579286b651b453ebb03e4c","","","","","","","","","","","","","","","","","","","","","","","","","","",""
"true","","","","","fullscreen","1","243211","0.0-1.0","5f084a7987a3fe028ff65b8a","665500ab8938657b03fbdba8","66579286b651b453ebb03e4c","","","","","","","","","","","","","","","","","","","","","","","","","","",""
"","","","","","html-button-response","2","248838","0.0-2.0","5f084a7987a3fe028ff65b8a","665500ab8938657b03fbdba8","66579286b651b453ebb03e4c","5624","<p><b>Consent Form</b></p> <div style=""text-align:left;background-color:lightgrey; padding:20px; max-width:900px;""><p>Please consider this information carefully before deciding whether to participate in this research.</p> <p>The purpose of this research is to examine which factors influence social judgment and decision-making. You will be asked to make judgements about individuals and actions in social scenarios. We are simply interested in your judgement. The study will take less than 1 hour to complete, and you will receive less than $20 on Prolific. Your compensation and time commitment are specified in the study description. There are no anticipated risks associated with participating in this study. The effects of participating should be comparable to those you would ordinarily experience from viewing a computer monitor and using a mouse or keyboard for a similar amount of time. At the end of the study, we will provide an explanation of the questions that motivate this line of research and will describe the potential implications. </p><p> Your participation in this study is completely voluntary and you may refuse to participate or you may choose to withdraw at any time without penalty or loss of benefits to you which are otherwise entitled. Your participation in this study will remain confidential. No personally identifiable information will be associated with your data. Also, all analyses of the data will be averaged across all the participants, so your individual responses will never be specifically analyzed. </p><p> If you have questions or concerns about your participation or payment, or want to request a summary of research findings, please contact Dr. Jonathan Phillips at Jonathan.S.Phillips@dartmouth.edu. </p><p> Please save a copy of this form for your records. </p><p><b>Agreement: </b>The nature and purpose of this research have been sufficiently explained and I agree to participate in this study. I understand that I am free to withdraw at any time without incurring any penalty. Please consent by clicking the button below to continue. Otherwise, please exit the study at any time. </p>","0","","","","","","","","","","","","","","","","","","","","","","","",""
"","","","","","instructions","3","320015","0.0-3.0-0.0","5f084a7987a3fe028ff65b8a","665500ab8938657b03fbdba8","66579286b651b453ebb03e4c","71174","","","[{""page_index"":0,""viewing_time"":2023},{""page_index"":1,""viewing_time"":2761},{""page_index"":2,""viewing_time"":3269},{""page_index"":3,""viewing_time"":9990},{""page_index"":4,""viewing_time"":5972},{""page_index"":5,""viewing_time"":4454},{""page_index"":6,""viewing_time"":4995},{""page_index"":7,""viewing_time"":9136},{""page_index"":8,""viewing_time"":4694},{""page_index"":9,""viewing_time"":2100},{""page_index"":10,""viewing_time"":10067},{""page_index"":11,""viewing_time"":5764},{""page_index"":12,""viewing_time"":4923},{""page_index"":13,""viewing_time"":1026}]","intro","","","","","","","","","","","","","","","","","","","","","",""
"","","","","","image-keyboard-response","4","323345","0.0-3.0-1.0","5f084a7987a3fe028ff65b8a","665500ab8938657b03fbdba8","66579286b651b453ebb03e4c","3324","stimuli/2001101.jpg","2","","prediction_practice","2","{""filepath"":""stimuli/2001101.jpg"",""ball_pos"":2,""ego_ball_visible"":false,""ego_can_infer"":false,""alter_ball_visible"":false,""alter_can_infer"":true,""collective_ball_visible"":false,""collective_can_infer"":false,""search_locations"":[2],""alter_occluders"":""001"",""ego_occluders"":""101""}","true","","","","","","","","","","","","","","","","","","",""
"","","","","","image-keyboard-response","5","325353","0.0-3.0-2.0","5f084a7987a3fe028ff65b8a","665500ab8938657b03fbdba8","66579286b651b453ebb03e4c","2004","stimuli/20011012.jpg"," ","","practrice_feedback","2","","","","","","","","","","","","","","","","","","","","",""
"","","","","","image-keyboard-response","6","326776","0.0-3.0-3.0","5f084a7987a3fe028ff65b8a","665500ab8938657b03fbdba8","66579286b651b453ebb03e4c","1418","stimuli/0101101.jpg","0","","prediction_practice","0","{""filepath"":""stimuli/0101101.jpg"",""ball_pos"":0,""ego_ball_visible"":false,""ego_can_infer"":false,""alter_ball_visible"":false,""alter_can_infer"":false,""collective_ball_visible"":false,""collective_can_infer"":false,""search_locations"":[0,2],""alter_occluders"":""101"",""ego_occluders"":""101""}","true","","","","","","","","","","","","","","","","","","",""
"","","","","","image-keyboard-response","7","328505","0.0-3.0-4.0","5f084a7987a3fe028ff65b8a","665500ab8938657b03fbdba8","66579286b651b453ebb03e4c","1725","stimuli/01011010.jpg"," ","","practrice_feedback","0","","","","","","","","","","","","","","","","","","","","",""
"","","","","","image-keyboard-response","8","332278","0.0-3.0-5.0","5f084a7987a3fe028ff65b8a","665500ab8938657b03fbdba8","66579286b651b453ebb03e4c","3768","stimuli/1011110.jpg","2","","prediction_practice","2","{""filepath"":""stimuli/1011110.jpg"",""ball_pos"":1,""ego_ball_visible"":false,""ego_can_infer"":false,""alter_ball_visible"":false,""alter_can_infer"":false,""collective_ball_visible"":false,""collective_can_infer"":false,""search_locations"":[2,1],""alter_occluders"":""011"",""ego_occluders"":""110""}","true","","","","","","","","","","","","","","","","","","",""
"","","","","","image-keyboard-response","9","337078","0.0-3.0-6.0","5f084a7987a3fe028ff65b8a","665500ab8938657b03fbdba8","66579286b651b453ebb03e4c","4795","stimuli/10111102.jpg"," ","","practrice_feedback","2","","","","","","","","","","","","","","","","","","","","",""
"","","","","","image-keyboard-response","10","341225","0.0-3.0-7.0","5f084a7987a3fe028ff65b8a","665500ab8938657b03fbdba8","66579286b651b453ebb03e4c","4143","stimuli/1001110.jpg","1","","prediction_practice","1","{""filepath"":""stimuli/1001110.jpg"",""ball_pos"":1,""ego_ball_visible"":false,""ego_can_infer"":false,""alter_ball_visible"":true,""alter_can_infer"":true,""collective_ball_visible"":false,""collective_can_infer"":false,""search_locations"":[1],""alter_occluders"":""001"",""ego_occluders"":""110""}","true","","","","","","","","","","","","","","","","","","",""
"","","","","","image-keyboard-response","11","342907","0.0-3.0-8.0","5f084a7987a3fe028ff65b8a","665500ab8938657b03fbdba8","66579286b651b453ebb03e4c","1676","stimuli/10011101.jpg"," ","","practrice_feedback","1","","","","","","","","","","","","","","","","","","","","",""
"","","","","","image-keyboard-response","12","346121","0.0-3.0-9.0","5f084a7987a3fe028ff65b8a","665500ab8938657b03fbdba8","66579286b651b453ebb03e4c","3209","stimuli/0001000.jpg","0","","prediction_practice","0","{""filepath"":""stimuli/0001000.jpg"",""ball_pos"":0,""ego_ball_visible"":true,""ego_can_infer"":true,""alter_ball_visible"":true,""alter_can_infer"":true,""collective_ball_visible"":true,""collective_can_infer"":true,""search_locations"":[0],""alter_occluders"":""001"",""ego_occluders"":""000""}","true","","","","","","","","","","","","","","","","","","",""
"","","","","","image-keyboard-response","13","346958","0.0-3.0-10.0","5f084a7987a3fe028ff65b8a","665500ab8938657b03fbdba8","66579286b651b453ebb03e4c","831","stimuli/00010000.jpg"," ","","practrice_feedback","0","","","","","","","","","","","","","","","","","","","","",""
"","","","","","image-keyboard-response","14","348238","0.0-3.0-11.0","5f084a7987a3fe028ff65b8a","665500ab8938657b03fbdba8","66579286b651b453ebb03e4c","1276","stimuli/2001110.jpg","2","","prediction_practice","2","{""filepath"":""stimuli/2001110.jpg"",""ball_pos"":2,""ego_ball_visible"":true,""ego_can_infer"":true,""alter_ball_visible"":false,""alter_can_infer"":true,""collective_ball_visible"":false,""collective_can_infer"":true,""search_locations"":[2],""alter_occluders"":""001"",""ego_occluders"":""110""}","true","","","","","","","","","","","","","","","","","","",""
"","","","","","image-keyboard-response","15","348766","0.0-3.0-12.0","5f084a7987a3fe028ff65b8a","665500ab8938657b03fbdba8","66579286b651b453ebb03e4c","524","stimuli/20011102.jpg"," ","","practrice_feedback","2","","","","","","","","","","","","","","","","","","","","",""
"","","","","","image-keyboard-response","16","349718","0.0-3.0-13.0","5f084a7987a3fe028ff65b8a","665500ab8938657b03fbdba8","66579286b651b453ebb03e4c","948","stimuli/1011001.jpg","1","","prediction_practice","2","{""filepath"":""stimuli/1011001.jpg"",""ball_pos"":1,""ego_ball_visible"":true,""ego_can_infer"":true,""alter_ball_visible"":false,""alter_can_infer"":false,""collective_ball_visible"":false,""collective_can_infer"":false,""search_locations"":[2,1],""alter_occluders"":""011"",""ego_occluders"":""001""}","false","","","","","","","","","","","","","","","","","","",""
"","","","","","image-keyboard-response","17","350080","0.0-3.0-14.0","5f084a7987a3fe028ff65b8a","665500ab8938657b03fbdba8","66579286b651b453ebb03e4c","357","stimuli/10110012.jpg"," ","","practrice_feedback","2","","","","","","","","","","","","","","","","","","","","",""
"","","","","","image-keyboard-response","18","351940","0.0-3.0-15.0","5f084a7987a3fe028ff65b8a","665500ab8938657b03fbdba8","66579286b651b453ebb03e4c","1855","stimuli/0110011.jpg","0","","prediction_practice","1","{""filepath"":""stimuli/0110011.jpg"",""ball_pos"":0,""ego_ball_visible"":true,""ego_can_infer"":true,""alter_ball_visible"":false,""alter_can_infer"":false,""collective_ball_visible"":false,""collective_can_infer"":false,""search_locations"":[1,0],""alter_occluders"":""110"",""ego_occluders"":""011""}","false","","","","","","","","","","","","","","","","","","",""
"","","","","","image-keyboard-response","19","358909","0.0-3.0-16.0","5f084a7987a3fe028ff65b8a","665500ab8938657b03fbdba8","66579286b651b453ebb03e4c","6963","stimuli/01100111.jpg"," ","","practrice_feedback","1","","","","","","","","","","","","","","","","","","","","",""
"","","","","","image-keyboard-response","20","360312","0.0-3.0-17.0","5f084a7987a3fe028ff65b8a","665500ab8938657b03fbdba8","66579286b651b453ebb03e4c","1398","stimuli/2101111.jpg","0","","prediction_practice","2","{""filepath"":""stimuli/2101111.jpg"",""ball_pos"":2,""ego_ball_visible"":false,""ego_can_infer"":false,""alter_ball_visible"":false,""alter_can_infer"":false,""collective_ball_visible"":false,""collective_can_infer"":false,""search_locations"":[0,2],""alter_occluders"":""101"",""ego_occluders"":""111""}","false","","","","","","","","","","","","","","","","","","",""
"","","","","","image-keyboard-response","21","365433","0.0-3.0-18.0","5f084a7987a3fe028ff65b8a","665500ab8938657b03fbdba8","66579286b651b453ebb03e4c","5118","stimuli/21011112.jpg"," ","","practrice_feedback","0","","","","","","","","","","","","","","","","","","","","",""
"","","","","","image-keyboard-response","22","367658","0.0-3.0-19.0","5f084a7987a3fe028ff65b8a","665500ab8938657b03fbdba8","66579286b651b453ebb03e4c","2221","stimuli/2010101.jpg","0","","prediction_practice","2","{""filepath"":""stimuli/2010101.jpg"",""ball_pos"":2,""ego_ball_visible"":false,""ego_can_infer"":false,""alter_ball_visible"":true,""alter_can_infer"":true,""collective_ball_visible"":false,""collective_can_infer"":false,""search_locations"":[2],""alter_occluders"":""010"",""ego_occluders"":""101""}","false","","","","","","","","","","","","","","","","","","",""
"","","","","","image-keyboard-response","23","368947","0.0-3.0-20.0","5f084a7987a3fe028ff65b8a","665500ab8938657b03fbdba8","66579286b651b453ebb03e4c","1283","stimuli/20101012.jpg"," ","","practrice_feedback","2","","","","","","","","","","","","","","","","","","","","",""
"","","","","","html-button-response","24","374071","0.0-3.0-21.0","5f084a7987a3fe028ff65b8a","665500ab8938657b03fbdba8","66579286b651b453ebb03e4c","5124","Now that you've had some practice, you'll be tested with a couple of easy trials. If you correctly predict Sam's choice, you'll move on to complete the experiment!","0","","","","","","","","","","","","","","","","","","","","","","","",""
"","","","","","image-keyboard-response","25","375093","0.0-3.0-22.0-0.0","5f084a7987a3fe028ff65b8a","665500ab8938657b03fbdba8","66579286b651b453ebb03e4c","1017","stimuli/0000011.jpg","arrowleft","","comprehension_quiz","","","true","arrowleft","","","","","","","","","","","","","","","","","",""
"","","","","","image-keyboard-response","26","376266","0.0-3.0-22.0-1.0","5f084a7987a3fe028ff65b8a","665500ab8938657b03fbdba8","66579286b651b453ebb03e4c","1168","stimuli/00000110.jpg"," ","","comprehension_quiz","","","true"," ","","","","","","","","","","","","","","","","","",""
"","","","","","image-keyboard-response","27","377501","0.0-3.0-22.0-2.0","5f084a7987a3fe028ff65b8a","665500ab8938657b03fbdba8","66579286b651b453ebb03e4c","1231","stimuli/1010010.jpg","arrowdown","","comprehension_quiz","","","true","arrowdown","","","","","","","","","","","","","","","","","",""
"","","","","","image-keyboard-response","28","377990","0.0-3.0-22.0-3.0","5f084a7987a3fe028ff65b8a","665500ab8938657b03fbdba8","66579286b651b453ebb03e4c","486","stimuli/10100101.jpg"," ","","comprehension_quiz","","","true"," ","","","","","","","","","","","","","","","","","",""
"","","","","","html-button-response","29","380021","0.0-4.0","5f084a7987a3fe028ff65b8a","665500ab8938657b03fbdba8","66579286b651b453ebb03e4c","2031","The experiment will now begin.","0","","","","","","","","","","","","","","","","","","","","","","","",""
"","","","","","image-keyboard-response","30","380920","0.0-5.0","5f084a7987a3fe028ff65b8a","665500ab8938657b03fbdba8","66579286b651b453ebb03e4c","896","stimuli/0010011.jpg","0","","prediction_trial","0","","true","","0","true","true","true","true","true","true","[0]","010","011","1","","","","","","",""
"","","","","","image-keyboard-response","31","381394","0.0-6.0","5f084a7987a3fe028ff65b8a","665500ab8938657b03fbdba8","66579286b651b453ebb03e4c","471","stimuli/00100110.jpg"," ","","feedback_trial","0","","","","","","","","","","","","","","","","","","","","",""
"","","","","","image-keyboard-response","32","382730","0.0-7.0","5f084a7987a3fe028ff65b8a","665500ab8938657b03fbdba8","66579286b651b453ebb03e4c","1332","stimuli/0111001.jpg","0","","prediction_trial","1","","false","","0","true","true","false","false","false","false","[2,0,1]","111","001","0","","","","","","",""
"","","","","","image-keyboard-response","33","389037","0.0-8.0","5f084a7987a3fe028ff65b8a","665500ab8938657b03fbdba8","66579286b651b453ebb03e4c","6303","stimuli/01110011.jpg"," ","","feedback_trial","2","","","","","","","","","","","","","","","","","","","","",""
"","","","","","image-keyboard-response","34","392492","0.0-9.0","5f084a7987a3fe028ff65b8a","665500ab8938657b03fbdba8","66579286b651b453ebb03e4c","3450","stimuli/2000111.jpg","1","","prediction_trial","2","","false","","2","false","false","true","true","false","false","[2]","000","111","0","","","","","","",""
"","","","","","image-keyboard-response","35","394404","0.0-10.0","5f084a7987a3fe028ff65b8a","665500ab8938657b03fbdba8","66579286b651b453ebb03e4c","1908","stimuli/20001112.jpg"," ","","feedback_trial","2","","","","","","","","","","","","","","","","","","","","",""
"","","","","","image-keyboard-response","36","398964","0.0-11.0","5f084a7987a3fe028ff65b8a","665500ab8938657b03fbdba8","66579286b651b453ebb03e4c","4555","stimuli/0000100.jpg","0","","prediction_trial","0","","true","","0","false","true","true","true","false","true","[0]","000","100","1","","","","","","",""
"","","","","","image-keyboard-response","37","399696","0.0-12.0","5f084a7987a3fe028ff65b8a","665500ab8938657b03fbdba8","66579286b651b453ebb03e4c","727","stimuli/00001000.jpg"," ","","feedback_trial","0","","","","","","","","","","","","","","","","","","","","",""
"","","","","","image-keyboard-response","38","401856","0.0-13.0","5f084a7987a3fe028ff65b8a","665500ab8938657b03fbdba8","66579286b651b453ebb03e4c","2153","stimuli/2111110.jpg","2","","prediction_trial","2","","true","","2","true","true","false","false","false","false","[0,1,2]","111","110","1","","","","","","",""
"","","","","","image-keyboard-response","39","402631","0.0-14.0","5f084a7987a3fe028ff65b8a","665500ab8938657b03fbdba8","66579286b651b453ebb03e4c","770","stimuli/21111102.jpg"," ","","feedback_trial","0","","","","","","","","","","","","","","","","","","","","",""
"","","","","","image-keyboard-response","40","404364","0.0-15.0","5f084a7987a3fe028ff65b8a","665500ab8938657b03fbdba8","66579286b651b453ebb03e4c","1728","stimuli/2111111.jpg","0","","prediction_trial","2","","false","","2","false","false","false","false","false","false","[2,1,0]","111","111","0","","","","","","",""
"","","","","","image-keyboard-response","41","405404","0.0-16.0","5f084a7987a3fe028ff65b8a","665500ab8938657b03fbdba8","66579286b651b453ebb03e4c","1036","stimuli/21111112.jpg"," ","","feedback_trial","2","","","","","","","","","","","","","","","","","","","","",""
"","","","","","image-keyboard-response","42","406548","0.0-17.0","5f084a7987a3fe028ff65b8a","665500ab8938657b03fbdba8","66579286b651b453ebb03e4c","1139","stimuli/1100110.jpg","2","","prediction_trial","1","","false","","1","false","false","true","true","false","false","[1]","100","110","0","","","","","","",""
"","","","","","image-keyboard-response","43","407473","0.0-18.0","5f084a7987a3fe028ff65b8a","665500ab8938657b03fbdba8","66579286b651b453ebb03e4c","920","stimuli/11001101.jpg"," ","","feedback_trial","1","","","","","","","","","","","","","","","","","","","","",""
"","","","","","image-keyboard-response","44","408962","0.0-19.0","5f084a7987a3fe028ff65b8a","665500ab8938657b03fbdba8","66579286b651b453ebb03e4c","1488","stimuli/0000011.jpg","0","","prediction_trial","0","","true","","0","true","true","true","true","true","true","[0]","000","011","1","","","","","","",""
"","","","","","image-keyboard-response","45","409352","0.0-20.0","5f084a7987a3fe028ff65b8a","665500ab8938657b03fbdba8","66579286b651b453ebb03e4c","388","stimuli/00000110.jpg"," ","","feedback_trial","0","","","","","","","","","","","","","","","","","","","","",""
"","","","","","image-keyboard-response","46","410152","0.0-21.0","5f084a7987a3fe028ff65b8a","665500ab8938657b03fbdba8","66579286b651b453ebb03e4c","796","stimuli/0100011.jpg","0","","prediction_trial","0","","true","","0","true","true","false","true","false","true","[0]","100","011","1","","","","","","",""
"","","","","","image-keyboard-response","47","410485","0.0-22.0","5f084a7987a3fe028ff65b8a","665500ab8938657b03fbdba8","66579286b651b453ebb03e4c","326","stimuli/01000110.jpg"," ","","feedback_trial","0","","","","","","","","","","","","","","","","","","","","",""
"","","","","","image-keyboard-response","48","411809","0.0-23.0","5f084a7987a3fe028ff65b8a","665500ab8938657b03fbdba8","66579286b651b453ebb03e4c","1321","stimuli/0011110.jpg","1","","prediction_trial","0","","false","","0","false","false","true","true","false","false","[0]","011","110","0","","","","","","",""
"","","","","","image-keyboard-response","49","412424","0.0-24.0","5f084a7987a3fe028ff65b8a","665500ab8938657b03fbdba8","66579286b651b453ebb03e4c","609","stimuli/00111100.jpg"," ","","feedback_trial","0","","","","","","","","","","","","","","","","","","","","",""
"","","","","","image-keyboard-response","50","413612","0.0-25.0","5f084a7987a3fe028ff65b8a","665500ab8938657b03fbdba8","66579286b651b453ebb03e4c","1185","stimuli/2111101.jpg","2","","prediction_trial","0","","false","","2","false","false","false","false","false","false","[0,1,2]","111","101","0","","","","","","",""
"","","","","","image-keyboard-response","51","414286","0.0-26.0","5f084a7987a3fe028ff65b8a","665500ab8938657b03fbdba8","66579286b651b453ebb03e4c","668","stimuli/21111010.jpg"," ","","feedback_trial","0","","","","","","","","","","","","","","","","","","","","",""
"","","","","","image-keyboard-response","52","416167","0.0-27.0","5f084a7987a3fe028ff65b8a","665500ab8938657b03fbdba8","66579286b651b453ebb03e4c","1877","stimuli/2011110.jpg","2","","prediction_trial","1","","false","","2","true","true","false","false","false","false","[2,1]","011","110","0","","","","","","",""
"","","","","","image-keyboard-response","53","417447","0.0-28.0","5f084a7987a3fe028ff65b8a","665500ab8938657b03fbdba8","66579286b651b453ebb03e4c","1274","stimuli/20111101.jpg"," ","","feedback_trial","2","","","","","","","","","","","","","","","","","","","","",""
"","","","","","image-keyboard-response","54","420020","0.0-29.0","5f084a7987a3fe028ff65b8a","665500ab8938657b03fbdba8","66579286b651b453ebb03e4c","2567","stimuli/0010100.jpg","0","","prediction_trial","0","","true","","0","false","true","true","true","false","true","[0]","010","100","1","","","","","","",""
"","","","","","image-keyboard-response","55","420542","0.0-30.0","5f084a7987a3fe028ff65b8a","665500ab8938657b03fbdba8","66579286b651b453ebb03e4c","517","stimuli/00101000.jpg"," ","","feedback_trial","0","","","","","","","","","","","","","","","","","","","","",""
"","","","","","image-keyboard-response","56","423984","0.0-31.0","5f084a7987a3fe028ff65b8a","665500ab8938657b03fbdba8","66579286b651b453ebb03e4c","3437","stimuli/0000111.jpg","1","","prediction_trial","0","","false","","0","false","false","true","true","false","false","[0]","000","111","0","","","","","","",""
"","","","","","image-keyboard-response","57","424759","0.0-32.0","5f084a7987a3fe028ff65b8a","665500ab8938657b03fbdba8","66579286b651b453ebb03e4c","770","stimuli/00001110.jpg"," ","","feedback_trial","0","","","","","","","","","","","","","","","","","","","","",""
"","","","","","image-keyboard-response","58","426079","0.0-33.0","5f084a7987a3fe028ff65b8a","665500ab8938657b03fbdba8","66579286b651b453ebb03e4c","1314","stimuli/0010111.jpg","1","","prediction_trial","0","","false","","0","false","false","true","true","false","false","[0]","010","111","0","","","","","","",""
"","","","","","image-keyboard-response","59","426753","0.0-34.0","5f084a7987a3fe028ff65b8a","665500ab8938657b03fbdba8","66579286b651b453ebb03e4c","668","stimuli/00101110.jpg"," ","","feedback_trial","0","","","","","","","","","","","","","","","","","","","","",""
"","","","","","image-keyboard-response","60","428334","0.0-35.0","5f084a7987a3fe028ff65b8a","665500ab8938657b03fbdba8","66579286b651b453ebb03e4c","1576","stimuli/2000011.jpg","2","","prediction_trial","2","","true","","2","false","false","true","true","false","false","[2]","000","011","1","","","","","","",""
"","","","","","image-keyboard-response","61","428961","0.0-36.0","5f084a7987a3fe028ff65b8a","665500ab8938657b03fbdba8","66579286b651b453ebb03e4c","620","stimuli/20000112.jpg"," ","","feedback_trial","2","","","","","","","","","","","","","","","","","","","","",""
"","","","","","image-keyboard-response","62","434473","0.0-37.0","5f084a7987a3fe028ff65b8a","665500ab8938657b03fbdba8","66579286b651b453ebb03e4c","5509","stimuli/2101100.jpg","2","","prediction_trial","0","","false","","2","true","true","false","false","false","false","[2,0]","101","100","0","","","","","","",""
"","","","","","image-keyboard-response","63","435180","0.0-38.0","5f084a7987a3fe028ff65b8a","665500ab8938657b03fbdba8","66579286b651b453ebb03e4c","701","stimuli/21011000.jpg"," ","","feedback_trial","2","","","","","","","","","","","","","","","","","","","","",""
"","","","","","image-keyboard-response","64","436007","0.0-39.0","5f084a7987a3fe028ff65b8a","665500ab8938657b03fbdba8","66579286b651b453ebb03e4c","822","stimuli/1011101.jpg","0","","prediction_trial","1","","false","","1","true","true","false","false","false","false","[2,1]","011","101","0","","","","","","",""
"","","","","","image-keyboard-response","65","436652","0.0-40.0","5f084a7987a3fe028ff65b8a","665500ab8938657b03fbdba8","66579286b651b453ebb03e4c","639","stimuli/10111011.jpg"," ","","feedback_trial","2","","","","","","","","","","","","","","","","","","","","",""
"","","","","","image-keyboard-response","66","437876","0.0-41.0","5f084a7987a3fe028ff65b8a","665500ab8938657b03fbdba8","66579286b651b453ebb03e4c","1219","stimuli/2000110.jpg","0","","prediction_trial","2","","false","","2","true","true","true","true","true","true","[2]","000","110","0","","","","","","",""
"","","","","","image-keyboard-response","67","438373","0.0-42.0","5f084a7987a3fe028ff65b8a","665500ab8938657b03fbdba8","66579286b651b453ebb03e4c","492","stimuli/20001102.jpg"," ","","feedback_trial","2","","","","","","","","","","","","","","","","","","","","",""
"","","","","","image-keyboard-response","68","439257","0.0-43.0","5f084a7987a3fe028ff65b8a","665500ab8938657b03fbdba8","66579286b651b453ebb03e4c","879","stimuli/2001111.jpg","0","","prediction_trial","2","","false","","2","false","false","false","true","false","false","[2]","001","111","0","","","","","","",""
"","","","","","image-keyboard-response","69","439927","0.0-44.0","5f084a7987a3fe028ff65b8a","665500ab8938657b03fbdba8","66579286b651b453ebb03e4c","664","stimuli/20011112.jpg"," ","","feedback_trial","2","","","","","","","","","","","","","","","","","","","","",""
"","","","","","image-keyboard-response","70","441083","0.0-45.0","5f084a7987a3fe028ff65b8a","665500ab8938657b03fbdba8","66579286b651b453ebb03e4c","1151","stimuli/0000101.jpg","0","","prediction_trial","0","","true","","0","false","false","true","true","false","false","[0]","000","101","1","","","","","","",""
"","","","","","image-keyboard-response","71","441849","0.0-46.0","5f084a7987a3fe028ff65b8a","665500ab8938657b03fbdba8","66579286b651b453ebb03e4c","762","stimuli/00001010.jpg"," ","","feedback_trial","0","","","","","","","","","","","","","","","","","","","","",""
"","","","","","image-keyboard-response","72","442656","0.0-47.0","5f084a7987a3fe028ff65b8a","665500ab8938657b03fbdba8","66579286b651b453ebb03e4c","803","stimuli/2111000.jpg","2","","prediction_trial","1","","false","","2","true","true","false","false","false","false","[2,0,1]","111","000","0","","","","","","",""
"","","","","","image-keyboard-response","73","443646","0.0-48.0","5f084a7987a3fe028ff65b8a","665500ab8938657b03fbdba8","66579286b651b453ebb03e4c","985","stimuli/21110001.jpg"," ","","feedback_trial","2","","","","","","","","","","","","","","","","","","","","",""
"","","","","","image-keyboard-response","74","444436","0.0-49.0","5f084a7987a3fe028ff65b8a","665500ab8938657b03fbdba8","66579286b651b453ebb03e4c","785","stimuli/0111011.jpg","0","","prediction_trial","1","","false","","0","true","true","false","false","false","false","[1,0,2]","111","011","0","","","","","","",""
"","","","","","image-keyboard-response","75","444981","0.0-50.0","5f084a7987a3fe028ff65b8a","665500ab8938657b03fbdba8","66579286b651b453ebb03e4c","539","stimuli/01110111.jpg"," ","","feedback_trial","1","","","","","","","","","","","","","","","","","","","","",""
"","","","","","image-keyboard-response","76","445506","0.0-51.0","5f084a7987a3fe028ff65b8a","665500ab8938657b03fbdba8","66579286b651b453ebb03e4c","520","stimuli/0100000.jpg","0","","prediction_trial","0","","true","","0","true","true","false","true","false","true","[0]","100","000","1","","","","","","",""
"","","","","","image-keyboard-response","77","445935","0.0-52.0","5f084a7987a3fe028ff65b8a","665500ab8938657b03fbdba8","66579286b651b453ebb03e4c","423","stimuli/01000000.jpg"," ","","feedback_trial","0","","","","","","","","","","","","","","","","","","","","",""
"","","","","","image-keyboard-response","78","446630","0.0-53.0","5f084a7987a3fe028ff65b8a","665500ab8938657b03fbdba8","66579286b651b453ebb03e4c","690","stimuli/1101111.jpg","0","","prediction_trial","1","","false","","1","false","false","true","true","false","false","[1]","101","111","0","","","","","","",""
"","","","","","image-keyboard-response","79","447172","0.0-54.0","5f084a7987a3fe028ff65b8a","665500ab8938657b03fbdba8","66579286b651b453ebb03e4c","537","stimuli/11011111.jpg"," ","","feedback_trial","1","","","","","","","","","","","","","","","","","","","","",""
"","","","","","image-keyboard-response","80","447460","0.0-55.0","5f084a7987a3fe028ff65b8a","665500ab8938657b03fbdba8","66579286b651b453ebb03e4c","283","stimuli/0111101.jpg","0","","prediction_trial","1","","false","","0","false","false","false","false","false","false","[0,2,1]","111","101","0","","","","","","",""
"","","","","","image-keyboard-response","81","447686","0.0-56.0","5f084a7987a3fe028ff65b8a","665500ab8938657b03fbdba8","66579286b651b453ebb03e4c","220","stimuli/01111011.jpg"," ","","feedback_trial","0","","","","","","","","","","","","","","","","","","","","",""
"","","","","","image-keyboard-response","82","447930","0.0-57.0","5f084a7987a3fe028ff65b8a","665500ab8938657b03fbdba8","66579286b651b453ebb03e4c","239","stimuli/2111011.jpg","0","","prediction_trial","0","","true","","2","false","false","false","false","false","false","[2,1,0]","111","011","1","","","","","","",""
"","","","","","image-keyboard-response","83","448132","0.0-58.0","5f084a7987a3fe028ff65b8a","665500ab8938657b03fbdba8","66579286b651b453ebb03e4c","198","stimuli/21110110.jpg"," ","","feedback_trial","2","","","","","","","","","","","","","","","","","","","","",""
"","","","","","image-keyboard-response","84","448346","0.0-59.0","5f084a7987a3fe028ff65b8a","665500ab8938657b03fbdba8","66579286b651b453ebb03e4c","211","stimuli/1001101.jpg","0","","prediction_trial","1","","false","","1","true","true","true","true","true","true","[1]","001","101","0","","","","","","",""
"","","","","","image-keyboard-response","85","448560","0.0-60.0","5f084a7987a3fe028ff65b8a","665500ab8938657b03fbdba8","66579286b651b453ebb03e4c","209","stimuli/10011011.jpg"," ","","feedback_trial","1","","","","","","","","","","","","","","","","","","","","",""
"","","","","","image-keyboard-response","86","448729","0.0-61.0","5f084a7987a3fe028ff65b8a","665500ab8938657b03fbdba8","66579286b651b453ebb03e4c","165","stimuli/0001101.jpg","0","","prediction_trial","0","","true","","0","false","false","true","true","false","false","[0]","001","101","1","","","","","","",""
"","","","","","image-keyboard-response","87","448967","0.0-62.0","5f084a7987a3fe028ff65b8a","665500ab8938657b03fbdba8","66579286b651b453ebb03e4c","232","stimuli/00011010.jpg"," ","","feedback_trial","0","","","","","","","","","","","","","","","","","","","","",""
"","","","","","image-keyboard-response","88","449135","0.0-63.0","5f084a7987a3fe028ff65b8a","665500ab8938657b03fbdba8","66579286b651b453ebb03e4c","162","stimuli/0111111.jpg","0","","prediction_trial","2","","false","","0","false","false","false","false","false","false","[1,0,2]","111","111","0","","","","","","",""
"","","","","","image-keyboard-response","89","449323","0.0-64.0","5f084a7987a3fe028ff65b8a","665500ab8938657b03fbdba8","66579286b651b453ebb03e4c","184","stimuli/01111112.jpg"," ","","feedback_trial","1","","","","","","","","","","","","","","","","","","","","",""
"","","","","","image-keyboard-response","90","449482","0.0-65.0","5f084a7987a3fe028ff65b8a","665500ab8938657b03fbdba8","66579286b651b453ebb03e4c","154","stimuli/0111110.jpg","0","","prediction_trial","2","","false","","0","false","false","false","false","false","false","[2,1,0]","111","110","0","","","","","","",""
"","","","","","image-keyboard-response","91","449635","0.0-66.0","5f084a7987a3fe028ff65b8a","665500ab8938657b03fbdba8","66579286b651b453ebb03e4c","149","stimuli/01111102.jpg"," ","","feedback_trial","2","","","","","","","","","","","","","","","","","","","","",""
"","","","","","image-keyboard-response","92","449784","0.0-67.0","5f084a7987a3fe028ff65b8a","665500ab8938657b03fbdba8","66579286b651b453ebb03e4c","144","stimuli/0101001.jpg","0","","prediction_trial","0","","true","","0","true","true","false","false","false","false","[2,0]","101","001","1","","","","","","",""
"","","","","","image-keyboard-response","93","449936","0.0-68.0","5f084a7987a3fe028ff65b8a","665500ab8938657b03fbdba8","66579286b651b453ebb03e4c","147","stimuli/01010010.jpg"," ","","feedback_trial","2","","","","","","","","","","","","","","","","","","","","",""
"","","","","","image-keyboard-response","94","450103","0.0-69.0","5f084a7987a3fe028ff65b8a","665500ab8938657b03fbdba8","66579286b651b453ebb03e4c","162","stimuli/1001011.jpg","0","","prediction_trial","1","","false","","1","false","false","true","true","false","false","[1]","001","011","0","","","","","","",""
"","","","","","image-keyboard-response","95","450243","0.0-70.0","5f084a7987a3fe028ff65b8a","665500ab8938657b03fbdba8","66579286b651b453ebb03e4c","135","stimuli/10010111.jpg"," ","","feedback_trial","1","","","","","","","","","","","","","","","","","","","","",""
"","","","","","image-keyboard-response","96","450392","0.0-71.0","5f084a7987a3fe028ff65b8a","665500ab8938657b03fbdba8","66579286b651b453ebb03e4c","144","stimuli/2011001.jpg","0","","prediction_trial","2","","false","","2","false","true","false","false","false","false","[2,1]","011","001","0","","","","","","",""
"","","","","","image-keyboard-response","97","450510","0.0-72.0","5f084a7987a3fe028ff65b8a","665500ab8938657b03fbdba8","66579286b651b453ebb03e4c","114","stimuli/20110012.jpg"," ","","feedback_trial","2","","","","","","","","","","","","","","","","","","","","",""
"","","","","","image-keyboard-response","98","450617","0.0-73.0","5f084a7987a3fe028ff65b8a","665500ab8938657b03fbdba8","66579286b651b453ebb03e4c","103","stimuli/1000111.jpg","0","","prediction_trial","1","","false","","1","false","false","true","true","false","false","[1]","000","111","0","","","","","","",""
"","","","","","image-keyboard-response","99","450774","0.0-74.0","5f084a7987a3fe028ff65b8a","665500ab8938657b03fbdba8","66579286b651b453ebb03e4c","153","stimuli/10001111.jpg"," ","","feedback_trial","1","","","","","","","","","","","","","","","","","","","","",""
"","","","","","image-keyboard-response","100","450848","0.0-75.0","5f084a7987a3fe028ff65b8a","665500ab8938657b03fbdba8","66579286b651b453ebb03e4c","68","stimuli/1010110.jpg","0","","prediction_trial","1","","false","","1","false","false","false","true","false","false","[1]","010","110","0","","","","","","",""
"","","","","","image-keyboard-response","101","451017","0.0-76.0","5f084a7987a3fe028ff65b8a","665500ab8938657b03fbdba8","66579286b651b453ebb03e4c","163","stimuli/10101101.jpg"," ","","feedback_trial","1","","","","","","","","","","","","","","","","","","","","",""
"","","","","","image-keyboard-response","102","451082","0.0-77.0","5f084a7987a3fe028ff65b8a","665500ab8938657b03fbdba8","66579286b651b453ebb03e4c","62","stimuli/1111110.jpg","0","","prediction_trial","1","","false","","1","false","false","false","false","false","false","[0,1,2]","111","110","0","","","","","","",""
"","","","","","image-keyboard-response","103","451261","0.0-78.0","5f084a7987a3fe028ff65b8a","665500ab8938657b03fbdba8","66579286b651b453ebb03e4c","174","stimuli/11111101.jpg"," ","","feedback_trial","0","","","","","","","","","","","","","","","","","","","","",""
"","","","","","image-keyboard-response","104","451334","0.0-79.0","5f084a7987a3fe028ff65b8a","665500ab8938657b03fbdba8","66579286b651b453ebb03e4c","69","stimuli/0010101.jpg","0","","prediction_trial","0","","true","","0","false","false","true","true","false","false","[0]","010","101","1","","","","","","",""
"","","","","","image-keyboard-response","105","451494","0.0-80.0","5f084a7987a3fe028ff65b8a","665500ab8938657b03fbdba8","66579286b651b453ebb03e4c","157","stimuli/00101010.jpg"," ","","feedback_trial","0","","","","","","","","","","","","","","","","","","","","",""
"","","","","","image-keyboard-response","106","451577","0.0-81.0","5f084a7987a3fe028ff65b8a","665500ab8938657b03fbdba8","66579286b651b453ebb03e4c","76","stimuli/2110101.jpg","0","","prediction_trial","2","","false","","2","false","false","true","true","false","false","[2]","110","101","0","","","","","","",""
"","","","","","image-keyboard-response","107","451744","0.0-82.0","5f084a7987a3fe028ff65b8a","665500ab8938657b03fbdba8","66579286b651b453ebb03e4c","162","stimuli/21101012.jpg"," ","","feedback_trial","2","","","","","","","","","","","","","","","","","","","","",""
"","","","","","image-keyboard-response","108","451825","0.0-83.0","5f084a7987a3fe028ff65b8a","665500ab8938657b03fbdba8","66579286b651b453ebb03e4c","75","stimuli/1100011.jpg","0","","prediction_trial","1","","false","","1","false","false","true","true","false","false","[1]","100","011","0","","","","","","",""
"","","","","","image-keyboard-response","109","451984","0.0-84.0","5f084a7987a3fe028ff65b8a","665500ab8938657b03fbdba8","66579286b651b453ebb03e4c","154","stimuli/11000111.jpg"," ","","feedback_trial","1","","","","","","","","","","","","","","","","","","","","",""
"","","","","","image-keyboard-response","110","452037","0.0-85.0","5f084a7987a3fe028ff65b8a","665500ab8938657b03fbdba8","66579286b651b453ebb03e4c","46","stimuli/2110010.jpg","0","","prediction_trial","2","","false","","2","true","true","true","true","true","true","[2]","110","010","0","","","","","","",""
"","","","","","image-keyboard-response","111","452193","0.0-86.0","5f084a7987a3fe028ff65b8a","665500ab8938657b03fbdba8","66579286b651b453ebb03e4c","151","stimuli/21100102.jpg"," ","","feedback_trial","2","","","","","","","","","","","","","","","","","","","","",""
"","","","","","image-keyboard-response","112","452253","0.0-87.0","5f084a7987a3fe028ff65b8a","665500ab8938657b03fbdba8","66579286b651b453ebb03e4c","57","stimuli/0001100.jpg","0","","prediction_trial","0","","true","","0","false","true","true","true","false","true","[0]","001","100","1","","","","","","",""
"","","","","","image-keyboard-response","113","452422","0.0-88.0","5f084a7987a3fe028ff65b8a","665500ab8938657b03fbdba8","66579286b651b453ebb03e4c","165","stimuli/00011000.jpg"," ","","feedback_trial","0","","","","","","","","","","","","","","","","","","","","",""
"","","","","","image-keyboard-response","114","452481","0.0-89.0","5f084a7987a3fe028ff65b8a","665500ab8938657b03fbdba8","66579286b651b453ebb03e4c","53","stimuli/0101110.jpg","0","","prediction_trial","0","","true","","0","false","false","false","false","false","false","[0,2]","101","110","1","","","","","","",""
"","","","","","image-keyboard-response","115","452606","0.0-90.0","5f084a7987a3fe028ff65b8a","665500ab8938657b03fbdba8","66579286b651b453ebb03e4c","120","stimuli/01011100.jpg"," ","","feedback_trial","0","","","","","","","","","","","","","","","","","","","","",""
"","","","","","image-keyboard-response","116","452703","0.0-91.0","5f084a7987a3fe028ff65b8a","665500ab8938657b03fbdba8","66579286b651b453ebb03e4c","90","stimuli/1111100.jpg","0","","prediction_trial","0","","true","","1","true","true","false","false","false","false","[1,2,0]","111","100","1","","","","","","",""
"","","","","","image-keyboard-response","117","452822","0.0-92.0","5f084a7987a3fe028ff65b8a","665500ab8938657b03fbdba8","66579286b651b453ebb03e4c","114","stimuli/11111000.jpg"," ","","feedback_trial","1","","","","","","","","","","","","","","","","","","","","",""
"","","","","","image-keyboard-response","118","452931","0.0-93.0","5f084a7987a3fe028ff65b8a","665500ab8938657b03fbdba8","66579286b651b453ebb03e4c","103","stimuli/0011000.jpg","0","","prediction_trial","0","","true","","0","true","true","true","true","true","true","[0]","011","000","1","","","","","","",""
"","","","","","image-keyboard-response","119","453039","0.0-94.0","5f084a7987a3fe028ff65b8a","665500ab8938657b03fbdba8","66579286b651b453ebb03e4c","102","stimuli/00110000.jpg"," ","","feedback_trial","0","","","","","","","","","","","","","","","","","","","","",""
"","","","","","image-keyboard-response","120","453155","0.0-95.0","5f084a7987a3fe028ff65b8a","665500ab8938657b03fbdba8","66579286b651b453ebb03e4c","112","stimuli/2100010.jpg","0","","prediction_trial","2","","false","","2","true","true","true","true","true","true","[2]","100","010","0","","","","","","",""
"","","","","","image-keyboard-response","121","453243","0.0-96.0","5f084a7987a3fe028ff65b8a","665500ab8938657b03fbdba8","66579286b651b453ebb03e4c","84","stimuli/21000102.jpg"," ","","feedback_trial","2","","","","","","","","","","","","","","","","","","","","",""
"","","","","","image-keyboard-response","122","453365","0.0-97.0","5f084a7987a3fe028ff65b8a","665500ab8938657b03fbdba8","66579286b651b453ebb03e4c","119","stimuli/2110100.jpg","0","","prediction_trial","2","","false","","2","true","true","true","true","true","true","[2]","110","100","0","","","","","","",""
"","","","","","image-keyboard-response","123","453460","0.0-98.0","5f084a7987a3fe028ff65b8a","665500ab8938657b03fbdba8","66579286b651b453ebb03e4c","91","stimuli/21101002.jpg"," ","","feedback_trial","2","","","","","","","","","","","","","","","","","","","","",""
"","","","","","image-keyboard-response","124","453579","0.0-99.0","5f084a7987a3fe028ff65b8a","665500ab8938657b03fbdba8","66579286b651b453ebb03e4c","114","stimuli/1001100.jpg","0","","prediction_trial","1","","false","","1","true","true","true","true","true","true","[1]","001","100","0","","","","","","",""
"","","","","","image-keyboard-response","125","453674","0.0-100.0","5f084a7987a3fe028ff65b8a","665500ab8938657b03fbdba8","66579286b651b453ebb03e4c","90","stimuli/10011001.jpg"," ","","feedback_trial","1","","","","","","","","","","","","","","","","","","","","",""
"","","","","","image-keyboard-response","126","453781","0.0-101.0","5f084a7987a3fe028ff65b8a","665500ab8938657b03fbdba8","66579286b651b453ebb03e4c","102","stimuli/2011011.jpg","0","","prediction_trial","1","","false","","2","false","false","false","false","false","false","[2,1]","011","011","0","","","","","","",""
"","","","","","image-keyboard-response","127","453875","0.0-102.0","5f084a7987a3fe028ff65b8a","665500ab8938657b03fbdba8","66579286b651b453ebb03e4c","90","stimuli/20110111.jpg"," ","","feedback_trial","2","","","","","","","","","","","","","","","","","","","","",""
"","","","","","image-keyboard-response","128","453955","0.0-103.0","5f084a7987a3fe028ff65b8a","665500ab8938657b03fbdba8","66579286b651b453ebb03e4c","75","stimuli/1101110.jpg","0","","prediction_trial","1","","false","","1","false","false","true","true","false","false","[1]","101","110","0","","","","","","",""
"","","","","","image-keyboard-response","129","454071","0.0-104.0","5f084a7987a3fe028ff65b8a","665500ab8938657b03fbdba8","66579286b651b453ebb03e4c","112","stimuli/11011101.jpg"," ","","feedback_trial","1","","","","","","","","","","","","","","","","","","","","",""
"","","","","","image-keyboard-response","130","454297","0.0-105.0","5f084a7987a3fe028ff65b8a","665500ab8938657b03fbdba8","66579286b651b453ebb03e4c","219","stimuli/2011000.jpg","0","","prediction_trial","1","","false","","2","true","true","false","false","false","false","[1,2]","011","000","0","","","","","","",""
"","","","","","image-keyboard-response","131","454481","0.0-106.0","5f084a7987a3fe028ff65b8a","665500ab8938657b03fbdba8","66579286b651b453ebb03e4c","180","stimuli/20110001.jpg"," ","","feedback_trial","1","","","","","","","","","","","","","","","","","","","","",""
"","","","","","image-keyboard-response","132","454547","0.0-107.0","5f084a7987a3fe028ff65b8a","665500ab8938657b03fbdba8","66579286b651b453ebb03e4c","62","stimuli/2101111.jpg","0","","prediction_trial","2","","false","","2","false","false","false","false","false","false","[0,2]","101","111","0","","","","","","",""
"","","","","","image-keyboard-response","133","454670","0.0-108.0","5f084a7987a3fe028ff65b8a","665500ab8938657b03fbdba8","66579286b651b453ebb03e4c","119","stimuli/21011112.jpg"," ","","feedback_trial","0","","","","","","","","","","","","","","","","","","","","",""
"","","","","","image-keyboard-response","134","454761","0.0-109.0","5f084a7987a3fe028ff65b8a","665500ab8938657b03fbdba8","66579286b651b453ebb03e4c","85","stimuli/0110100.jpg","0","","prediction_trial","0","","true","","0","false","true","false","false","false","false","[1,0]","110","100","1","","","","","","",""
"","","","","","image-keyboard-response","135","454896","0.0-110.0","5f084a7987a3fe028ff65b8a","665500ab8938657b03fbdba8","66579286b651b453ebb03e4c","131","stimuli/01101000.jpg"," ","","feedback_trial","1","","","","","","","","","","","","","","","","","","","","",""
"","","","","","image-keyboard-response","136","454992","0.0-111.0","5f084a7987a3fe028ff65b8a","665500ab8938657b03fbdba8","66579286b651b453ebb03e4c","92","stimuli/1001000.jpg","0","","prediction_trial","1","","false","","1","true","true","true","true","true","true","[1]","001","000","0","","","","","","",""
"","","","","","image-keyboard-response","137","455105","0.0-112.0","5f084a7987a3fe028ff65b8a","665500ab8938657b03fbdba8","66579286b651b453ebb03e4c","109","stimuli/10010001.jpg"," ","","feedback_trial","1","","","","","","","","","","","","","","","","","","","","",""
"","","","","","image-keyboard-response","138","455202","0.0-113.0","5f084a7987a3fe028ff65b8a","665500ab8938657b03fbdba8","66579286b651b453ebb03e4c","92","stimuli/2101101.jpg","0","","prediction_trial","2","","false","","2","false","false","false","false","false","false","[2,0]","101","101","0","","","","","","",""
"","","","","","image-keyboard-response","139","455297","0.0-114.0","5f084a7987a3fe028ff65b8a","665500ab8938657b03fbdba8","66579286b651b453ebb03e4c","91","stimuli/21011012.jpg"," ","","feedback_trial","2","","","","","","","","","","","","","","","","","","","","",""
"","","","","","image-keyboard-response","140","455392","0.0-115.0","5f084a7987a3fe028ff65b8a","665500ab8938657b03fbdba8","66579286b651b453ebb03e4c","89","stimuli/1000010.jpg","0","","prediction_trial","1","","false","","1","false","true","true","true","false","true","[1]","000","010","0","","","","","","",""
"","","","","","image-keyboard-response","141","455503","0.0-116.0","5f084a7987a3fe028ff65b8a","665500ab8938657b03fbdba8","66579286b651b453ebb03e4c","107","stimuli/10000101.jpg"," ","","feedback_trial","1","","","","","","","","","","","","","","","","","","","","",""
"","","","","","image-keyboard-response","142","455596","0.0-117.0","5f084a7987a3fe028ff65b8a","665500ab8938657b03fbdba8","66579286b651b453ebb03e4c","87","stimuli/1011100.jpg","0","","prediction_trial","2","","false","","1","true","true","false","false","false","false","[1,2]","011","100","0","","","","","","",""
"","","","","","image-keyboard-response","143","455708","0.0-118.0","5f084a7987a3fe028ff65b8a","665500ab8938657b03fbdba8","66579286b651b453ebb03e4c","108","stimuli/10111002.jpg"," ","","feedback_trial","1","","","","","","","","","","","","","","","","","","","","",""
"","","","","","image-keyboard-response","144","455802","0.0-119.0","5f084a7987a3fe028ff65b8a","665500ab8938657b03fbdba8","66579286b651b453ebb03e4c","89","stimuli/1011110.jpg","0","","prediction_trial","1","","false","","1","false","false","false","false","false","false","[2,1]","011","110","0","","","","","","",""
"","","","","","image-keyboard-response","145","455910","0.0-120.0","5f084a7987a3fe028ff65b8a","665500ab8938657b03fbdba8","66579286b651b453ebb03e4c","101","stimuli/10111101.jpg"," ","","feedback_trial","2","","","","","","","","","","","","","","","","","","","","",""
"","","","","","image-keyboard-response","146","456014","0.0-121.0","5f084a7987a3fe028ff65b8a","665500ab8938657b03fbdba8","66579286b651b453ebb03e4c","99","stimuli/0110111.jpg","0","","prediction_trial","0","","true","","0","false","false","false","false","false","false","[0,1]","110","111","1","","","","","","",""
"","","","","","image-keyboard-response","147","456462","0.0-122.0","5f084a7987a3fe028ff65b8a","665500ab8938657b03fbdba8","66579286b651b453ebb03e4c","441","stimuli/01101110.jpg"," ","","feedback_trial","0","","","","","","","","","","","","","","","","","","","","",""
"","","","","","image-keyboard-response","148","456578","0.0-123.0","5f084a7987a3fe028ff65b8a","665500ab8938657b03fbdba8","66579286b651b453ebb03e4c","112","stimuli/0100101.jpg","1","","prediction_trial","0","","false","","0","false","false","false","true","false","false","[0]","100","101","0","","","","","","",""
"","","","","","image-keyboard-response","149","456752","0.0-124.0","5f084a7987a3fe028ff65b8a","665500ab8938657b03fbdba8","66579286b651b453ebb03e4c","168","stimuli/01001010.jpg"," ","","feedback_trial","0","","","","","","","","","","","","","","","","","","","","",""
"","","","","","image-keyboard-response","150","456794","0.0-125.0","5f084a7987a3fe028ff65b8a","665500ab8938657b03fbdba8","66579286b651b453ebb03e4c","37","stimuli/1000000.jpg","1","","prediction_trial","1","","true","","1","true","true","true","true","true","true","[1]","000","000","1","","","","","","",""
"","","","","","image-keyboard-response","151","456967","0.0-126.0","5f084a7987a3fe028ff65b8a","665500ab8938657b03fbdba8","66579286b651b453ebb03e4c","168","stimuli/10000001.jpg"," ","","feedback_trial","1","","","","","","","","","","","","","","","","","","","","",""
"","","","","","image-keyboard-response","152","456979","0.0-127.0","5f084a7987a3fe028ff65b8a","665500ab8938657b03fbdba8","66579286b651b453ebb03e4c","7","stimuli/1001010.jpg","1","","prediction_trial","1","","true","","1","false","true","true","true","false","true","[1]","001","010","1","","","","","","",""
"","","","","","image-keyboard-response","153","457156","0.0-128.0","5f084a7987a3fe028ff65b8a","665500ab8938657b03fbdba8","66579286b651b453ebb03e4c","173","stimuli/10010101.jpg"," ","","feedback_trial","1","","","","","","","","","","","","","","","","","","","","",""
"","","","","","image-keyboard-response","154","457176","0.0-129.0","5f084a7987a3fe028ff65b8a","665500ab8938657b03fbdba8","66579286b651b453ebb03e4c","14","stimuli/1100100.jpg","1","","prediction_trial","1","","true","","1","true","true","true","true","true","true","[1]","100","100","1","","","","","","",""
"","","","","","image-keyboard-response","155","457344","0.0-130.0","5f084a7987a3fe028ff65b8a","665500ab8938657b03fbdba8","66579286b651b453ebb03e4c","165","stimuli/11001001.jpg"," ","","feedback_trial","1","","","","","","","","","","","","","","","","","","","","",""
"","","","","","image-keyboard-response","156","457360","0.0-131.0","5f084a7987a3fe028ff65b8a","665500ab8938657b03fbdba8","66579286b651b453ebb03e4c","11","stimuli/2010011.jpg","1","","prediction_trial","2","","false","","2","false","false","true","true","false","false","[2]","010","011","0","","","","","","",""
"","","","","","image-keyboard-response","157","457549","0.0-132.0","5f084a7987a3fe028ff65b8a","665500ab8938657b03fbdba8","66579286b651b453ebb03e4c","185","stimuli/20100112.jpg"," ","","feedback_trial","2","","","","","","","","","","","","","","","","","","","","",""
"","","","","","image-keyboard-response","158","457560","0.0-133.0","5f084a7987a3fe028ff65b8a","665500ab8938657b03fbdba8","66579286b651b453ebb03e4c","9","stimuli/0100110.jpg","1","","prediction_trial","0","","false","","0","false","false","false","true","false","false","[0]","100","110","0","","","","","","",""
"","","","","","image-keyboard-response","159","457722","0.0-134.0","5f084a7987a3fe028ff65b8a","665500ab8938657b03fbdba8","66579286b651b453ebb03e4c","158","stimuli/01001100.jpg"," ","","feedback_trial","0","","","","","","","","","","","","","","","","","","","","",""
"","","","","","image-keyboard-response","160","457764","0.0-135.0","5f084a7987a3fe028ff65b8a","665500ab8938657b03fbdba8","66579286b651b453ebb03e4c","37","stimuli/2100011.jpg","1","","prediction_trial","2","","false","","2","false","false","true","true","false","false","[2]","100","011","0","","","","","","",""
"","","","","","image-keyboard-response","161","457927","0.0-136.0","5f084a7987a3fe028ff65b8a","665500ab8938657b03fbdba8","66579286b651b453ebb03e4c","159","stimuli/21000112.jpg"," ","","feedback_trial","2","","","","","","","","","","","","","","","","","","","","",""
"","","","","","image-keyboard-response","162","457943","0.0-137.0","5f084a7987a3fe028ff65b8a","665500ab8938657b03fbdba8","66579286b651b453ebb03e4c","12","stimuli/1111101.jpg","1","","prediction_trial","2","","false","","1","true","true","false","false","false","false","[2,1,0]","111","101","0","","","","","","",""
"","","","","","image-keyboard-response","163","458129","0.0-138.0","5f084a7987a3fe028ff65b8a","665500ab8938657b03fbdba8","66579286b651b453ebb03e4c","185","stimuli/11111012.jpg"," ","","feedback_trial","2","","","","","","","","","","","","","","","","","","","","",""
"","","","","","image-keyboard-response","164","458521","0.0-139.0","5f084a7987a3fe028ff65b8a","665500ab8938657b03fbdba8","66579286b651b453ebb03e4c","386","stimuli/1101011.jpg","2","","prediction_trial","1","","false","","1","false","false","true","true","false","false","[1]","101","011","0","","","","","","",""
"","","","","","image-keyboard-response","165","458633","0.0-140.0","5f084a7987a3fe028ff65b8a","665500ab8938657b03fbdba8","66579286b651b453ebb03e4c","106","stimuli/11010111.jpg"," ","","feedback_trial","1","","","","","","","","","","","","","","","","","","","","",""
"","","","","","image-keyboard-response","166","458740","0.0-141.0","5f084a7987a3fe028ff65b8a","665500ab8938657b03fbdba8","66579286b651b453ebb03e4c","98","stimuli/2001100.jpg","2","","prediction_trial","2","","true","","2","true","true","false","true","false","true","[2]","001","100","1","","","","","","",""
"","","","","","image-keyboard-response","167","458826","0.0-142.0","5f084a7987a3fe028ff65b8a","665500ab8938657b03fbdba8","66579286b651b453ebb03e4c","80","stimuli/20011002.jpg"," ","","feedback_trial","2","","","","","","","","","","","","","","","","","","","","",""
"","","","","","image-keyboard-response","168","458928","0.0-143.0","5f084a7987a3fe028ff65b8a","665500ab8938657b03fbdba8","66579286b651b453ebb03e4c","96","stimuli/2010001.jpg","2","","prediction_trial","2","","true","","2","false","true","true","true","false","true","[2]","010","001","1","","","","","","",""
"","","","","","image-keyboard-response","169","459197","0.0-144.0","5f084a7987a3fe028ff65b8a","665500ab8938657b03fbdba8","66579286b651b453ebb03e4c","264","stimuli/20100012.jpg"," ","","feedback_trial","2","","","","","","","","","","","","","","","","","","","","",""
"","","","","","image-keyboard-response","170","459317","0.0-145.0","5f084a7987a3fe028ff65b8a","665500ab8938657b03fbdba8","66579286b651b453ebb03e4c","116","stimuli/2101110.jpg","2","","prediction_trial","0","","false","","2","true","true","false","false","false","false","[0,2]","101","110","0","","","","","","",""
"","","","","","image-keyboard-response","171","459552","0.0-146.0","5f084a7987a3fe028ff65b8a","665500ab8938657b03fbdba8","66579286b651b453ebb03e4c","231","stimuli/21011100.jpg"," ","","feedback_trial","0","","","","","","","","","","","","","","","","","","","","",""
"","","","","","image-keyboard-response","172","460053","0.0-147.0","5f084a7987a3fe028ff65b8a","665500ab8938657b03fbdba8","66579286b651b453ebb03e4c","496","stimuli/1010011.jpg","0","","prediction_trial","1","","false","","1","false","false","false","true","false","false","[1]","010","011","0","","","","","","",""
"","","","","","image-keyboard-response","173","460133","0.0-148.0","5f084a7987a3fe028ff65b8a","665500ab8938657b03fbdba8","66579286b651b453ebb03e4c","75","stimuli/10100111.jpg"," ","","feedback_trial","1","","","","","","","","","","","","","","","","","","","","",""
"","","","","","image-keyboard-response","174","460289","0.0-149.0","5f084a7987a3fe028ff65b8a","665500ab8938657b03fbdba8","66579286b651b453ebb03e4c","152","stimuli/0010010.jpg","0","","prediction_trial","0","","true","","0","true","true","true","true","true","true","[0]","010","010","1","","","","","","",""
"","","","","","image-keyboard-response","175","460337","0.0-150.0","5f084a7987a3fe028ff65b8a","665500ab8938657b03fbdba8","66579286b651b453ebb03e4c","43","stimuli/00100100.jpg"," ","","feedback_trial","0","","","","","","","","","","","","","","","","","","","","",""
"","","","","","image-keyboard-response","176","460487","0.0-151.0","5f084a7987a3fe028ff65b8a","665500ab8938657b03fbdba8","66579286b651b453ebb03e4c","145","stimuli/2110001.jpg","0","","prediction_trial","2","","false","","2","false","true","true","true","false","true","[2]","110","001","0","","","","","","",""
"","","","","","image-keyboard-response","177","460888","0.0-152.0","5f084a7987a3fe028ff65b8a","665500ab8938657b03fbdba8","66579286b651b453ebb03e4c","396","stimuli/21100012.jpg"," ","","feedback_trial","2","","","","","","","","","","","","","","","","","","","","",""
"","","","","","image-keyboard-response","178","460893","0.0-153.0","5f084a7987a3fe028ff65b8a","665500ab8938657b03fbdba8","66579286b651b453ebb03e4c","1","stimuli/1000001.jpg","0","","prediction_trial","1","","false","","1","true","true","true","true","true","true","[1]","000","001","0","","","","","","",""
"","","","","","image-keyboard-response","179","461159","0.0-154.0","5f084a7987a3fe028ff65b8a","665500ab8938657b03fbdba8","66579286b651b453ebb03e4c","263","stimuli/10000011.jpg"," ","","feedback_trial","1","","","","","","","","","","","","","","","","","","","","",""
"","","","","","image-keyboard-response","180","461518","0.0-155.0","5f084a7987a3fe028ff65b8a","665500ab8938657b03fbdba8","66579286b651b453ebb03e4c","355","stimuli/2001000.jpg","2","","prediction_trial","2","","true","","2","true","true","false","true","false","true","[2]","001","000","1","","","","","","",""
"","","","","","image-keyboard-response","181","461673","0.0-156.0","5f084a7987a3fe028ff65b8a","665500ab8938657b03fbdba8","66579286b651b453ebb03e4c","149","stimuli/20010002.jpg"," ","","feedback_trial","2","","","","","","","","","","","","","","","","","","","","",""
"","","","","","image-keyboard-response","182","461723","0.0-157.0","5f084a7987a3fe028ff65b8a","665500ab8938657b03fbdba8","66579286b651b453ebb03e4c","44","stimuli/0100001.jpg","2","","prediction_trial","0","","false","","0","true","true","false","true","false","true","[0]","100","001","0","","","","","","",""
"","","","","","image-keyboard-response","183","461868","0.0-158.0","5f084a7987a3fe028ff65b8a","665500ab8938657b03fbdba8","66579286b651b453ebb03e4c","140","stimuli/01000010.jpg"," ","","feedback_trial","0","","","","","","","","","","","","","","","","","","","","",""
"","","","","","image-keyboard-response","184","461912","0.0-159.0","5f084a7987a3fe028ff65b8a","665500ab8938657b03fbdba8","66579286b651b453ebb03e4c","40","stimuli/2111010.jpg","2","","prediction_trial","0","","false","","2","true","true","false","false","false","false","[1,2,0]","111","010","0","","","","","","",""
"","","","","","image-keyboard-response","185","462064","0.0-160.0","5f084a7987a3fe028ff65b8a","665500ab8938657b03fbdba8","66579286b651b453ebb03e4c","147","stimuli/21110100.jpg"," ","","feedback_trial","1","","","","","","","","","","","","","","","","","","","","",""
"","","","","","image-keyboard-response","186","462122","0.0-161.0","5f084a7987a3fe028ff65b8a","665500ab8938657b03fbdba8","66579286b651b453ebb03e4c","53","stimuli/0101011.jpg","2","","prediction_trial","0","","false","","0","true","true","false","false","false","false","[2,0]","101","011","0","","","","","","",""
"","","","","","image-keyboard-response","187","462567","0.0-162.0","5f084a7987a3fe028ff65b8a","665500ab8938657b03fbdba8","66579286b651b453ebb03e4c","439","stimuli/01010110.jpg"," ","","feedback_trial","2","","","","","","","","","","","","","","","","","","","","",""
"","","","","","image-keyboard-response","188","462722","0.0-163.0","5f084a7987a3fe028ff65b8a","665500ab8938657b03fbdba8","66579286b651b453ebb03e4c","151","stimuli/2010010.jpg","0","","prediction_trial","2","","false","","2","true","true","true","true","true","true","[2]","010","010","0","","","","","","",""
"","","","","","image-keyboard-response","189","462963","0.0-164.0","5f084a7987a3fe028ff65b8a","665500ab8938657b03fbdba8","66579286b651b453ebb03e4c","235","stimuli/20100102.jpg"," ","","feedback_trial","2","","","","","","","","","","","","","","","","","","","","",""
"","","","","","image-keyboard-response","190","463164","0.0-165.0","5f084a7987a3fe028ff65b8a","665500ab8938657b03fbdba8","66579286b651b453ebb03e4c","196","stimuli/2000000.jpg","0","","prediction_trial","2","","false","","2","true","true","true","true","true","true","[2]","000","000","0","","","","","","",""
"","","","","","image-keyboard-response","191","463280","0.0-166.0","5f084a7987a3fe028ff65b8a","665500ab8938657b03fbdba8","66579286b651b453ebb03e4c","112","stimuli/20000002.jpg"," ","","feedback_trial","2","","","","","","","","","","","","","","","","","","","","",""
"","","","","","image-keyboard-response","192","463466","0.0-167.0","5f084a7987a3fe028ff65b8a","665500ab8938657b03fbdba8","66579286b651b453ebb03e4c","180","stimuli/1010111.jpg","2","","prediction_trial","1","","false","","1","false","false","false","true","false","false","[1]","010","111","0","","","","","","",""
"","","","","","image-keyboard-response","193","463573","0.0-168.0","5f084a7987a3fe028ff65b8a","665500ab8938657b03fbdba8","66579286b651b453ebb03e4c","102","stimuli/10101111.jpg"," ","","feedback_trial","1","","","","","","","","","","","","","","","","","","","","",""
"","","","","","image-keyboard-response","194","463697","0.0-169.0","5f084a7987a3fe028ff65b8a","665500ab8938657b03fbdba8","66579286b651b453ebb03e4c","119","stimuli/1111011.jpg","2","","prediction_trial","1","","false","","1","false","false","false","false","false","false","[1,0,2]","111","011","0","","","","","","",""
"","","","","","image-keyboard-response","195","463870","0.0-170.0","5f084a7987a3fe028ff65b8a","665500ab8938657b03fbdba8","66579286b651b453ebb03e4c","167","stimuli/11110111.jpg"," ","","feedback_trial","1","","","","","","","","","","","","","","","","","","","","",""
"","","","","","image-keyboard-response","196","463997","0.0-171.0","5f084a7987a3fe028ff65b8a","665500ab8938657b03fbdba8","66579286b651b453ebb03e4c","122","stimuli/0110101.jpg","0","","prediction_trial","0","","true","","0","false","false","false","false","false","false","[1,0]","110","101","1","","","","","","",""
"","","","","","image-keyboard-response","197","464181","0.0-172.0","5f084a7987a3fe028ff65b8a","665500ab8938657b03fbdba8","66579286b651b453ebb03e4c","180","stimuli/01101010.jpg"," ","","feedback_trial","1","","","","","","","","","","","","","","","","","","","","",""
"","","","","","image-keyboard-response","198","464210","0.0-173.0","5f084a7987a3fe028ff65b8a","665500ab8938657b03fbdba8","66579286b651b453ebb03e4c","25","stimuli/0100010.jpg","0","","prediction_trial","0","","true","","0","true","true","false","true","false","true","[0]","100","010","1","","","","","","",""
"","","","","","image-keyboard-response","199","464400","0.0-174.0","5f084a7987a3fe028ff65b8a","665500ab8938657b03fbdba8","66579286b651b453ebb03e4c","185","stimuli/01000100.jpg"," ","","feedback_trial","0","","","","","","","","","","","","","","","","","","","","",""
"","","","","","image-keyboard-response","200","464412","0.0-175.0","5f084a7987a3fe028ff65b8a","665500ab8938657b03fbdba8","66579286b651b453ebb03e4c","7","stimuli/1111010.jpg","0","","prediction_trial","0","","true","","1","false","true","false","false","false","false","[2,0,1]","111","010","1","","","","","","",""
"","","","","","image-keyboard-response","201","464588","0.0-176.0","5f084a7987a3fe028ff65b8a","665500ab8938657b03fbdba8","66579286b651b453ebb03e4c","174","stimuli/11110100.jpg"," ","","feedback_trial","2","","","","","","","","","","","","","","","","","","","","",""
"","","","","","image-keyboard-response","202","464645","0.0-177.0","5f084a7987a3fe028ff65b8a","665500ab8938657b03fbdba8","66579286b651b453ebb03e4c","51","stimuli/1010000.jpg","0","","prediction_trial","1","","false","","1","true","true","false","true","false","true","[1]","010","000","0","","","","","","",""
"","","","","","image-keyboard-response","203","464818","0.0-178.0","5f084a7987a3fe028ff65b8a","665500ab8938657b03fbdba8","66579286b651b453ebb03e4c","168","stimuli/10100001.jpg"," ","","feedback_trial","1","","","","","","","","","","","","","","","","","","","","",""
"","","","","","image-keyboard-response","204","464862","0.0-179.0","5f084a7987a3fe028ff65b8a","665500ab8938657b03fbdba8","66579286b651b453ebb03e4c","39","stimuli/0111100.jpg","0","","prediction_trial","1","","false","","0","false","true","false","false","false","false","[2,0,1]","111","100","0","","","","","","",""
"","","","","","image-keyboard-response","205","465052","0.0-180.0","5f084a7987a3fe028ff65b8a","665500ab8938657b03fbdba8","66579286b651b453ebb03e4c","186","stimuli/01111001.jpg"," ","","feedback_trial","2","","","","","","","","","","","","","","","","","","","","",""
"","","","","","image-keyboard-response","206","465108","0.0-181.0","5f084a7987a3fe028ff65b8a","665500ab8938657b03fbdba8","66579286b651b453ebb03e4c","52","stimuli/1001110.jpg","0","","prediction_trial","1","","false","","1","false","false","true","true","false","false","[1]","001","110","0","","","","","","",""
"","","","","","image-keyboard-response","207","465341","0.0-182.0","5f084a7987a3fe028ff65b8a","665500ab8938657b03fbdba8","66579286b651b453ebb03e4c","227","stimuli/10011101.jpg"," ","","feedback_trial","1","","","","","","","","","","","","","","","","","","","","",""
"","","","","","image-keyboard-response","208","465542","0.0-183.0","5f084a7987a3fe028ff65b8a","665500ab8938657b03fbdba8","66579286b651b453ebb03e4c","197","stimuli/2100101.jpg","2","","prediction_trial","2","","true","","2","false","false","true","true","false","false","[2]","100","101","1","","","","","","",""
"","","","","","image-keyboard-response","209","465717","0.0-184.0","5f084a7987a3fe028ff65b8a","665500ab8938657b03fbdba8","66579286b651b453ebb03e4c","170","stimuli/21001012.jpg"," ","","feedback_trial","2","","","","","","","","","","","","","","","","","","","","",""
"","","","","","image-keyboard-response","210","465895","0.0-185.0","5f084a7987a3fe028ff65b8a","665500ab8938657b03fbdba8","66579286b651b453ebb03e4c","174","stimuli/0101100.jpg","2","","prediction_trial","2","","true","","0","false","true","false","false","false","false","[0,2]","101","100","1","","","","","","",""
"","","","","","image-keyboard-response","211","466114","0.0-186.0","5f084a7987a3fe028ff65b8a","665500ab8938657b03fbdba8","66579286b651b453ebb03e4c","212","stimuli/01011002.jpg"," ","","feedback_trial","0","","","","","","","","","","","","","","","","","","","","",""
"","","","","","image-keyboard-response","212","466273","0.0-187.0","5f084a7987a3fe028ff65b8a","665500ab8938657b03fbdba8","66579286b651b453ebb03e4c","155","stimuli/1101010.jpg","2","","prediction_trial","1","","false","","1","false","true","true","true","false","true","[1]","101","010","0","","","","","","",""
"","","","","","image-keyboard-response","213","466404","0.0-188.0","5f084a7987a3fe028ff65b8a","665500ab8938657b03fbdba8","66579286b651b453ebb03e4c","125","stimuli/11010101.jpg"," ","","feedback_trial","1","","","","","","","","","","","","","","","","","","","","",""
"","","","","","image-keyboard-response","214","466513","0.0-189.0","5f084a7987a3fe028ff65b8a","665500ab8938657b03fbdba8","66579286b651b453ebb03e4c","105","stimuli/0001011.jpg","2","","prediction_trial","0","","false","","0","true","true","true","true","true","true","[0]","001","011","0","","","","","","",""
"","","","","","image-keyboard-response","215","466755","0.0-190.0","5f084a7987a3fe028ff65b8a","665500ab8938657b03fbdba8","66579286b651b453ebb03e4c","237","stimuli/00010110.jpg"," ","","feedback_trial","0","","","","","","","","","","","","","","","","","","","","",""
"","","","","","image-keyboard-response","216","466799","0.0-191.0","5f084a7987a3fe028ff65b8a","665500ab8938657b03fbdba8","66579286b651b453ebb03e4c","40","stimuli/0110010.jpg","0","","prediction_trial","1","","false","","0","true","true","false","false","false","false","[0,1]","110","010","0","","","","","","",""
"","","","","","image-keyboard-response","217","467049","0.0-192.0","5f084a7987a3fe028ff65b8a","665500ab8938657b03fbdba8","66579286b651b453ebb03e4c","242","stimuli/01100101.jpg"," ","","feedback_trial","0","","","","","","","","","","","","","","","","","","","","",""
"","","","","","image-keyboard-response","218","467065","0.0-193.0","5f084a7987a3fe028ff65b8a","665500ab8938657b03fbdba8","66579286b651b453ebb03e4c","11","stimuli/2011010.jpg","0","","prediction_trial","1","","false","","2","true","true","false","false","false","false","[1,2]","011","010","0","","","","","","",""
"","","","","","image-keyboard-response","219","467381","0.0-194.0","5f084a7987a3fe028ff65b8a","665500ab8938657b03fbdba8","66579286b651b453ebb03e4c","312","stimuli/20110101.jpg"," ","","feedback_trial","1","","","","","","","","","","","","","","","","","","","","",""
"","","","","","image-keyboard-response","220","467582","0.0-195.0","5f084a7987a3fe028ff65b8a","665500ab8938657b03fbdba8","66579286b651b453ebb03e4c","198","stimuli/1011111.jpg","2","","prediction_trial","2","","true","","1","false","false","false","false","false","false","[2,1]","011","111","1","","","","","","",""
"","","","","","image-keyboard-response","221","467701","0.0-196.0","5f084a7987a3fe028ff65b8a","665500ab8938657b03fbdba8","66579286b651b453ebb03e4c","114","stimuli/10111112.jpg"," ","","feedback_trial","2","","","","","","","","","","","","","","","","","","","","",""
"","","","","","image-keyboard-response","222","467929","0.0-197.0","5f084a7987a3fe028ff65b8a","665500ab8938657b03fbdba8","66579286b651b453ebb03e4c","224","stimuli/1110111.jpg","2","","prediction_trial","1","","false","","1","false","false","false","false","false","false","[1,0]","110","111","0","","","","","","",""
"","","","","","image-keyboard-response","223","468024","0.0-198.0","5f084a7987a3fe028ff65b8a","665500ab8938657b03fbdba8","66579286b651b453ebb03e4c","91","stimuli/11101111.jpg"," ","","feedback_trial","1","","","","","","","","","","","","","","","","","","","","",""
"","","","","","image-keyboard-response","224","468130","0.0-199.0","5f084a7987a3fe028ff65b8a","665500ab8938657b03fbdba8","66579286b651b453ebb03e4c","102","stimuli/0011111.jpg","0","","prediction_trial","0","","true","","0","false","false","true","true","false","false","[0]","011","111","1","","","","","","",""
"","","","","","image-keyboard-response","225","468287","0.0-200.0","5f084a7987a3fe028ff65b8a","665500ab8938657b03fbdba8","66579286b651b453ebb03e4c","151","stimuli/00111110.jpg"," ","","feedback_trial","0","","","","","","","","","","","","","","","","","","","","",""
"","","","","","image-keyboard-response","226","468289","0.0-201.0","5f084a7987a3fe028ff65b8a","665500ab8938657b03fbdba8","66579286b651b453ebb03e4c","1","stimuli/1010010.jpg","2","","prediction_trial","1","","false","","1","false","true","false","true","false","true","[1]","010","010","0","","","","","","",""
"","","","","","image-keyboard-response","227","468566","0.0-202.0","5f084a7987a3fe028ff65b8a","665500ab8938657b03fbdba8","66579286b651b453ebb03e4c","277","stimuli/10100101.jpg"," ","","feedback_trial","1","","","","","","","","","","","","","","","","","","","","",""
"","","","","","image-keyboard-response","228","468595","0.0-203.0","5f084a7987a3fe028ff65b8a","665500ab8938657b03fbdba8","66579286b651b453ebb03e4c","26","stimuli/2001011.jpg","2","","prediction_trial","2","","true","","2","false","false","false","true","false","false","[2]","001","011","1","","","","","","",""
"","","","","","image-keyboard-response","229","468884","0.0-204.0","5f084a7987a3fe028ff65b8a","665500ab8938657b03fbdba8","66579286b651b453ebb03e4c","286","stimuli/20010112.jpg"," ","","feedback_trial","2","","","","","","","","","","","","","","","","","","","","",""
"","","","","","image-keyboard-response","230","468938","0.0-205.0","5f084a7987a3fe028ff65b8a","665500ab8938657b03fbdba8","66579286b651b453ebb03e4c","48","stimuli/1110110.jpg","2","","prediction_trial","1","","false","","1","false","false","false","false","false","false","[1,0]","110","110","0","","","","","","",""
"","","","","","image-keyboard-response","231","469185","0.0-206.0","5f084a7987a3fe028ff65b8a","665500ab8938657b03fbdba8","66579286b651b453ebb03e4c","242","stimuli/11101101.jpg"," ","","feedback_trial","1","","","","","","","","","","","","","","","","","","","","",""
"","","","","","image-keyboard-response","232","469359","0.0-207.0","5f084a7987a3fe028ff65b8a","665500ab8938657b03fbdba8","66579286b651b453ebb03e4c","170","stimuli/1110011.jpg","0","","prediction_trial","1","","false","","1","false","false","false","false","false","false","[1,0]","110","011","0","","","","","","",""
"","","","","","image-keyboard-response","233","469522","0.0-208.0","5f084a7987a3fe028ff65b8a","665500ab8938657b03fbdba8","66579286b651b453ebb03e4c","159","stimuli/11100111.jpg"," ","","feedback_trial","1","","","","","","","","","","","","","","","","","","","","",""
"","","","","","image-keyboard-response","234","469639","0.0-209.0","5f084a7987a3fe028ff65b8a","665500ab8938657b03fbdba8","66579286b651b453ebb03e4c","112","stimuli/0010000.jpg","0","","prediction_trial","0","","true","","0","true","true","true","true","true","true","[0]","010","000","1","","","","","","",""
"","","","","","image-keyboard-response","235","469817","0.0-210.0","5f084a7987a3fe028ff65b8a","665500ab8938657b03fbdba8","66579286b651b453ebb03e4c","173","stimuli/00100000.jpg"," ","","feedback_trial","0","","","","","","","","","","","","","","","","","","","","",""
"","","","","","image-keyboard-response","236","469837","0.0-211.0","5f084a7987a3fe028ff65b8a","665500ab8938657b03fbdba8","66579286b651b453ebb03e4c","15","stimuli/2010000.jpg","2","","prediction_trial","2","","true","","2","true","true","true","true","true","true","[2]","010","000","1","","","","","","",""
"","","","","","image-keyboard-response","237","470120","0.0-212.0","5f084a7987a3fe028ff65b8a","665500ab8938657b03fbdba8","66579286b651b453ebb03e4c","279","stimuli/20100002.jpg"," ","","feedback_trial","2","","","","","","","","","","","","","","","","","","","","",""
"","","","","","image-keyboard-response","238","470273","0.0-213.0","5f084a7987a3fe028ff65b8a","665500ab8938657b03fbdba8","66579286b651b453ebb03e4c","148","stimuli/2010110.jpg","0","","prediction_trial","2","","false","","2","true","true","true","true","true","true","[2]","010","110","0","","","","","","",""
"","","","","","image-keyboard-response","239","470363","0.0-214.0","5f084a7987a3fe028ff65b8a","665500ab8938657b03fbdba8","66579286b651b453ebb03e4c","85","stimuli/20101102.jpg"," ","","feedback_trial","2","","","","","","","","","","","","","","","","","","","","",""
"","","","","","image-keyboard-response","240","470489","0.0-215.0","5f084a7987a3fe028ff65b8a","665500ab8938657b03fbdba8","66579286b651b453ebb03e4c","122","stimuli/0110000.jpg","0","","prediction_trial","0","","true","","0","true","true","false","false","false","false","[0,1]","110","000","1","","","","","","",""
"","","","","","image-keyboard-response","241","470594","0.0-216.0","5f084a7987a3fe028ff65b8a","665500ab8938657b03fbdba8","66579286b651b453ebb03e4c","100","stimuli/01100000.jpg"," ","","feedback_trial","0","","","","","","","","","","","","","","","","","","","","",""
"","","","","","image-keyboard-response","242","470744","0.0-217.0","5f084a7987a3fe028ff65b8a","665500ab8938657b03fbdba8","66579286b651b453ebb03e4c","144","stimuli/1100111.jpg","0","","prediction_trial","1","","false","","1","false","false","true","true","false","false","[1]","100","111","0","","","","","","",""
"","","","","","image-keyboard-response","243","470876","0.0-218.0","5f084a7987a3fe028ff65b8a","665500ab8938657b03fbdba8","66579286b651b453ebb03e4c","127","stimuli/11001111.jpg"," ","","feedback_trial","1","","","","","","","","","","","","","","","","","","","","",""
"","","","","","image-keyboard-response","244","470957","0.0-219.0","5f084a7987a3fe028ff65b8a","665500ab8938657b03fbdba8","66579286b651b453ebb03e4c","73","stimuli/0001010.jpg","0","","prediction_trial","0","","true","","0","true","true","true","true","true","true","[0]","001","010","1","","","","","","",""
"","","","","","image-keyboard-response","245","471104","0.0-220.0","5f084a7987a3fe028ff65b8a","665500ab8938657b03fbdba8","66579286b651b453ebb03e4c","142","stimuli/00010100.jpg"," ","","feedback_trial","0","","","","","","","","","","","","","","","","","","","","",""
"","","","","","image-keyboard-response","246","471164","0.0-221.0","5f084a7987a3fe028ff65b8a","665500ab8938657b03fbdba8","66579286b651b453ebb03e4c","54","stimuli/0011001.jpg","0","","prediction_trial","0","","true","","0","true","true","true","true","true","true","[0]","011","001","1","","","","","","",""
"","","","","","image-keyboard-response","247","471311","0.0-222.0","5f084a7987a3fe028ff65b8a","665500ab8938657b03fbdba8","66579286b651b453ebb03e4c","142","stimuli/00110010.jpg"," ","","feedback_trial","0","","","","","","","","","","","","","","","","","","","","",""
"","","","","","image-keyboard-response","248","471375","0.0-223.0","5f084a7987a3fe028ff65b8a","665500ab8938657b03fbdba8","66579286b651b453ebb03e4c","58","stimuli/0111010.jpg","0","","prediction_trial","1","","false","","0","true","true","false","false","false","false","[0,2,1]","111","010","0","","","","","","",""
"","","","","","image-keyboard-response","249","471530","0.0-224.0","5f084a7987a3fe028ff65b8a","665500ab8938657b03fbdba8","66579286b651b453ebb03e4c","150","stimuli/01110101.jpg"," ","","feedback_trial","0","","","","","","","","","","","","","","","","","","","","",""
"","","","","","image-keyboard-response","250","471582","0.0-225.0","5f084a7987a3fe028ff65b8a","665500ab8938657b03fbdba8","66579286b651b453ebb03e4c","45","stimuli/1101001.jpg","0","","prediction_trial","1","","false","","1","true","true","true","true","true","true","[1]","101","001","0","","","","","","",""
"","","","","","image-keyboard-response","251","471751","0.0-226.0","5f084a7987a3fe028ff65b8a","665500ab8938657b03fbdba8","66579286b651b453ebb03e4c","164","stimuli/11010011.jpg"," ","","feedback_trial","1","","","","","","","","","","","","","","","","","","","","",""
"","","","","","image-keyboard-response","252","471803","0.0-227.0","5f084a7987a3fe028ff65b8a","665500ab8938657b03fbdba8","66579286b651b453ebb03e4c","48","stimuli/2110111.jpg","0","","prediction_trial","2","","false","","2","false","false","true","true","false","false","[2]","110","111","0","","","","","","",""
"","","","","","image-keyboard-response","253","471968","0.0-228.0","5f084a7987a3fe028ff65b8a","665500ab8938657b03fbdba8","66579286b651b453ebb03e4c","160","stimuli/21101112.jpg"," ","","feedback_trial","2","","","","","","","","","","","","","","","","","","","","",""
"","","","","","image-keyboard-response","254","472032","0.0-229.0","5f084a7987a3fe028ff65b8a","665500ab8938657b03fbdba8","66579286b651b453ebb03e4c","59","stimuli/0110001.jpg","0","","prediction_trial","0","","true","","0","true","true","false","false","false","false","[0,1]","110","001","1","","","","","","",""
"","","","","","image-keyboard-response","255","472177","0.0-230.0","5f084a7987a3fe028ff65b8a","665500ab8938657b03fbdba8","66579286b651b453ebb03e4c","141","stimuli/01100010.jpg"," ","","feedback_trial","0","","","","","","","","","","","","","","","","","","","","",""
"","","","","","image-keyboard-response","256","472209","0.0-231.0","5f084a7987a3fe028ff65b8a","665500ab8938657b03fbdba8","66579286b651b453ebb03e4c","27","stimuli/2100001.jpg","0","","prediction_trial","2","","false","","2","false","true","true","true","false","true","[2]","100","001","0","","","","","","",""
"","","","","","image-keyboard-response","257","473353","0.0-232.0","5f084a7987a3fe028ff65b8a","665500ab8938657b03fbdba8","66579286b651b453ebb03e4c","1140","stimuli/21000012.jpg"," ","","feedback_trial","2","","","","","","","","","","","","","","","","","","","","",""
"","","","","","image-keyboard-response","258","474676","0.0-233.0","5f084a7987a3fe028ff65b8a","665500ab8938657b03fbdba8","66579286b651b453ebb03e4c","1317","stimuli/2111100.jpg","2","","prediction_trial","2","","true","","2","true","true","false","false","false","false","[0,1,2]","111","100","1","","","","","","",""
"","","","","","image-keyboard-response","259","475137","0.0-234.0","5f084a7987a3fe028ff65b8a","665500ab8938657b03fbdba8","66579286b651b453ebb03e4c","456","stimuli/21111002.jpg"," ","","feedback_trial","0","","","","","","","","","","","","","","","","","","","","",""
"","","","","","image-keyboard-response","260","475980","0.0-235.0","5f084a7987a3fe028ff65b8a","665500ab8938657b03fbdba8","66579286b651b453ebb03e4c","836","stimuli/0101010.jpg","0","","prediction_trial","0","","true","","0","true","true","false","false","false","false","[0,2]","101","010","1","","","","","","",""
"","","","","","image-keyboard-response","261","476713","0.0-236.0","5f084a7987a3fe028ff65b8a","665500ab8938657b03fbdba8","66579286b651b453ebb03e4c","727","stimuli/01010100.jpg"," ","","feedback_trial","0","","","","","","","","","","","","","","","","","","","","",""
"","","","","","image-keyboard-response","262","477444","0.0-237.0","5f084a7987a3fe028ff65b8a","665500ab8938657b03fbdba8","66579286b651b453ebb03e4c","726","stimuli/2011101.jpg","2","","prediction_trial","1","","false","","2","false","false","false","false","false","false","[2,1]","011","101","0","","","","","","",""
"","","","","","image-keyboard-response","263","477945","0.0-238.0","5f084a7987a3fe028ff65b8a","665500ab8938657b03fbdba8","66579286b651b453ebb03e4c","496","stimuli/20111011.jpg"," ","","feedback_trial","2","","","","","","","","","","","","","","","","","","","","",""
"","","","","","image-keyboard-response","264","478720","0.0-239.0","5f084a7987a3fe028ff65b8a","665500ab8938657b03fbdba8","66579286b651b453ebb03e4c","773","stimuli/1011000.jpg","0","","prediction_trial","1","","false","","1","true","true","false","false","false","false","[2,1]","011","000","0","","","","","","",""
"","","","","","image-keyboard-response","265","479420","0.0-240.0","5f084a7987a3fe028ff65b8a","665500ab8938657b03fbdba8","66579286b651b453ebb03e4c","692","stimuli/10110001.jpg"," ","","feedback_trial","2","","","","","","","","","","","","","","","","","","","","",""
"","","","","","image-keyboard-response","266","480130","0.0-241.0","5f084a7987a3fe028ff65b8a","665500ab8938657b03fbdba8","66579286b651b453ebb03e4c","703","stimuli/0011101.jpg","0","","prediction_trial","0","","true","","0","false","false","true","true","false","false","[0]","011","101","1","","","","","","",""
"","","","","","image-keyboard-response","267","480894","0.0-242.0","5f084a7987a3fe028ff65b8a","665500ab8938657b03fbdba8","66579286b651b453ebb03e4c","760","stimuli/00111010.jpg"," ","","feedback_trial","0","","","","","","","","","","","","","","","","","","","","",""
"","","","","","image-keyboard-response","268","481940","0.0-243.0","5f084a7987a3fe028ff65b8a","665500ab8938657b03fbdba8","66579286b651b453ebb03e4c","1039","stimuli/2101001.jpg","2","","prediction_trial","0","","false","","2","false","true","false","false","false","false","[2,0]","101","001","0","","","","","","",""
"","","","","","image-keyboard-response","269","483126","0.0-244.0","5f084a7987a3fe028ff65b8a","665500ab8938657b03fbdba8","66579286b651b453ebb03e4c","1181","stimuli/21010010.jpg"," ","","feedback_trial","2","","","","","","","","","","","","","","","","","","","","",""
"","","","","","image-keyboard-response","270","483676","0.0-245.0","5f084a7987a3fe028ff65b8a","665500ab8938657b03fbdba8","66579286b651b453ebb03e4c","546","stimuli/1110101.jpg","0","","prediction_trial","0","","true","","1","true","true","false","false","false","false","[0,1]","110","101","1","","","","","","",""
"","","","","","image-keyboard-response","271","484374","0.0-246.0","5f084a7987a3fe028ff65b8a","665500ab8938657b03fbdba8","66579286b651b453ebb03e4c","693","stimuli/11101010.jpg"," ","","feedback_trial","0","","","","","","","","","","","","","","","","","","","","",""
"","","","","","image-keyboard-response","272","485652","0.0-247.0","5f084a7987a3fe028ff65b8a","665500ab8938657b03fbdba8","66579286b651b453ebb03e4c","1271","stimuli/2100111.jpg","2","","prediction_trial","2","","true","","2","false","false","true","true","false","false","[2]","100","111","1","","","","","","",""
"","","","","","image-keyboard-response","273","486536","0.0-248.0","5f084a7987a3fe028ff65b8a","665500ab8938657b03fbdba8","66579286b651b453ebb03e4c","880","stimuli/21001112.jpg"," ","","feedback_trial","2","","","","","","","","","","","","","","","","","","","","",""
"","","","","","image-keyboard-response","274","487439","0.0-249.0","5f084a7987a3fe028ff65b8a","665500ab8938657b03fbdba8","66579286b651b453ebb03e4c","900","stimuli/2010111.jpg","2","","prediction_trial","2","","true","","2","false","false","true","true","false","false","[2]","010","111","1","","","","","","",""
"","","","","","image-keyboard-response","275","487987","0.0-250.0","5f084a7987a3fe028ff65b8a","665500ab8938657b03fbdba8","66579286b651b453ebb03e4c","542","stimuli/20101112.jpg"," ","","feedback_trial","2","","","","","","","","","","","","","","","","","","","","",""
"","","","","","image-keyboard-response","276","489501","0.0-251.0","5f084a7987a3fe028ff65b8a","665500ab8938657b03fbdba8","66579286b651b453ebb03e4c","1510","stimuli/2101010.jpg","2","","prediction_trial","2","","true","","2","true","true","false","false","false","false","[2,0]","101","010","1","","","","","","",""
"","","","","","image-keyboard-response","277","489999","0.0-252.0","5f084a7987a3fe028ff65b8a","665500ab8938657b03fbdba8","66579286b651b453ebb03e4c","492","stimuli/21010102.jpg"," ","","feedback_trial","2","","","","","","","","","","","","","","","","","","","","",""
"","","","","","image-keyboard-response","278","491163","0.0-253.0","5f084a7987a3fe028ff65b8a","665500ab8938657b03fbdba8","66579286b651b453ebb03e4c","1159","stimuli/1100001.jpg","1","","prediction_trial","1","","true","","1","true","true","true","true","true","true","[1]","100","001","1","","","","","","",""
"","","","","","image-keyboard-response","279","491918","0.0-254.0","5f084a7987a3fe028ff65b8a","665500ab8938657b03fbdba8","66579286b651b453ebb03e4c","751","stimuli/11000011.jpg"," ","","feedback_trial","1","","","","","","","","","","","","","","","","","","","","",""
"","","","","","image-keyboard-response","280","492679","0.0-255.0","5f084a7987a3fe028ff65b8a","665500ab8938657b03fbdba8","66579286b651b453ebb03e4c","755","stimuli/2001110.jpg","2","","prediction_trial","2","","true","","2","true","true","false","true","false","true","[2]","001","110","1","","","","","","",""
"","","","","","image-keyboard-response","281","493112","0.0-256.0","5f084a7987a3fe028ff65b8a","665500ab8938657b03fbdba8","66579286b651b453ebb03e4c","427","stimuli/20011102.jpg"," ","","feedback_trial","2","","","","","","","","","","","","","","","","","","","","",""
"","","","","","image-keyboard-response","282","493941","0.0-257.0","5f084a7987a3fe028ff65b8a","665500ab8938657b03fbdba8","66579286b651b453ebb03e4c","827","stimuli/1011010.jpg","1","","prediction_trial","2","","false","","1","false","true","false","false","false","false","[2,1]","011","010","0","","","","","","",""
"","","","","","image-keyboard-response","283","494913","0.0-258.0","5f084a7987a3fe028ff65b8a","665500ab8938657b03fbdba8","66579286b651b453ebb03e4c","966","stimuli/10110102.jpg"," ","","feedback_trial","2","","","","","","","","","","","","","","","","","","","","",""
"","","","","","image-keyboard-response","284","495759","0.0-259.0","5f084a7987a3fe028ff65b8a","665500ab8938657b03fbdba8","66579286b651b453ebb03e4c","840","stimuli/0101000.jpg","0","","prediction_trial","0","","true","","0","true","true","false","false","false","false","[0,2]","101","000","1","","","","","","",""
"","","","","","image-keyboard-response","285","496207","0.0-260.0","5f084a7987a3fe028ff65b8a","665500ab8938657b03fbdba8","66579286b651b453ebb03e4c","442","stimuli/01010000.jpg"," ","","feedback_trial","0","","","","","","","","","","","","","","","","","","","","",""
"","","","","","image-keyboard-response","286","496991","0.0-261.0","5f084a7987a3fe028ff65b8a","665500ab8938657b03fbdba8","66579286b651b453ebb03e4c","779","stimuli/1110000.jpg","1","","prediction_trial","1","","true","","1","true","true","false","false","false","false","[1,0]","110","000","1","","","","","","",""
"","","","","","image-keyboard-response","287","497407","0.0-262.0","5f084a7987a3fe028ff65b8a","665500ab8938657b03fbdba8","66579286b651b453ebb03e4c","410","stimuli/11100001.jpg"," ","","feedback_trial","1","","","","","","","","","","","","","","","","","","","","",""
"","","","","","image-keyboard-response","288","498276","0.0-263.0","5f084a7987a3fe028ff65b8a","665500ab8938657b03fbdba8","66579286b651b453ebb03e4c","864","stimuli/1000110.jpg","1","","prediction_trial","1","","true","","1","false","false","true","true","false","false","[1]","000","110","1","","","","","","",""
"","","","","","image-keyboard-response","289","498641","0.0-264.0","5f084a7987a3fe028ff65b8a","665500ab8938657b03fbdba8","66579286b651b453ebb03e4c","361","stimuli/10001101.jpg"," ","","feedback_trial","1","","","","","","","","","","","","","","","","","","","","",""
"","","","","","image-keyboard-response","290","499551","0.0-265.0","5f084a7987a3fe028ff65b8a","665500ab8938657b03fbdba8","66579286b651b453ebb03e4c","908","stimuli/2011100.jpg","2","","prediction_trial","1","","false","","2","true","true","false","false","false","false","[1,2]","011","100","0","","","","","","",""
"","","","","","image-keyboard-response","291","500115","0.0-266.0","5f084a7987a3fe028ff65b8a","665500ab8938657b03fbdba8","66579286b651b453ebb03e4c","558","stimuli/20111001.jpg"," ","","feedback_trial","1","","","","","","","","","","","","","","","","","","","","",""
"","","","","","image-keyboard-response","292","500866","0.0-267.0","5f084a7987a3fe028ff65b8a","665500ab8938657b03fbdba8","66579286b651b453ebb03e4c","746","stimuli/2001001.jpg","2","","prediction_trial","2","","true","","2","false","true","false","true","false","true","[2]","001","001","1","","","","","","",""
"","","","","","image-keyboard-response","293","501216","0.0-268.0","5f084a7987a3fe028ff65b8a","665500ab8938657b03fbdba8","66579286b651b453ebb03e4c","345","stimuli/20010012.jpg"," ","","feedback_trial","2","","","","","","","","","","","","","","","","","","","","",""
"","","","","","image-keyboard-response","294","502599","0.0-269.0","5f084a7987a3fe028ff65b8a","665500ab8938657b03fbdba8","66579286b651b453ebb03e4c","1379","stimuli/1101101.jpg","1","","prediction_trial","1","","true","","1","true","true","true","true","true","true","[1]","101","101","1","","","","","","",""
"","","","","","image-keyboard-response","295","503001","0.0-270.0","5f084a7987a3fe028ff65b8a","665500ab8938657b03fbdba8","66579286b651b453ebb03e4c","397","stimuli/11011011.jpg"," ","","feedback_trial","1","","","","","","","","","","","","","","","","","","","","",""
"","","","","","image-keyboard-response","296","503751","0.0-271.0","5f084a7987a3fe028ff65b8a","665500ab8938657b03fbdba8","66579286b651b453ebb03e4c","745","stimuli/2110110.jpg","2","","prediction_trial","2","","true","","2","true","true","true","true","true","true","[2]","110","110","1","","","","","","",""
"","","","","","image-keyboard-response","297","504131","0.0-272.0","5f084a7987a3fe028ff65b8a","665500ab8938657b03fbdba8","66579286b651b453ebb03e4c","377","stimuli/21101102.jpg"," ","","feedback_trial","2","","","","","","","","","","","","","","","","","","","","",""
"","","","","","image-keyboard-response","298","504886","0.0-273.0","5f084a7987a3fe028ff65b8a","665500ab8938657b03fbdba8","66579286b651b453ebb03e4c","748","stimuli/0000001.jpg","0","","prediction_trial","0","","true","","0","true","true","true","true","true","true","[0]","000","001","1","","","","","","",""
"","","","","","image-keyboard-response","299","505434","0.0-274.0","5f084a7987a3fe028ff65b8a","665500ab8938657b03fbdba8","66579286b651b453ebb03e4c","546","stimuli/00000010.jpg"," ","","feedback_trial","0","","","","","","","","","","","","","","","","","","","","",""
"","","","","","image-keyboard-response","300","507003","0.0-275.0","5f084a7987a3fe028ff65b8a","665500ab8938657b03fbdba8","66579286b651b453ebb03e4c","1565","stimuli/2110011.jpg","1","","prediction_trial","2","","false","","2","false","false","true","true","false","false","[2]","110","011","0","","","","","","",""
"","","","","","image-keyboard-response","301","507580","0.0-276.0","5f084a7987a3fe028ff65b8a","665500ab8938657b03fbdba8","66579286b651b453ebb03e4c","571","stimuli/21100112.jpg"," ","","feedback_trial","2","","","","","","","","","","","","","","","","","","","","",""
"","","","","","image-keyboard-response","302","508678","0.0-277.0","5f084a7987a3fe028ff65b8a","665500ab8938657b03fbdba8","66579286b651b453ebb03e4c","1095","stimuli/0000110.jpg","1","","prediction_trial","0","","false","","0","false","false","true","true","false","false","[0]","000","110","0","","","","","","",""
"","","","","","image-keyboard-response","303","509217","0.0-278.0","5f084a7987a3fe028ff65b8a","665500ab8938657b03fbdba8","66579286b651b453ebb03e4c","535","stimuli/00001100.jpg"," ","","feedback_trial","0","","","","","","","","","","","","","","","","","","","","",""
"","","","","","image-keyboard-response","304","510003","0.0-279.0","5f084a7987a3fe028ff65b8a","665500ab8938657b03fbdba8","66579286b651b453ebb03e4c","781","stimuli/1111000.jpg","2","","prediction_trial","2","","true","","1","true","true","false","false","false","false","[1,2,0]","111","000","1","","","","","","",""
"","","","","","image-keyboard-response","305","510635","0.0-280.0","5f084a7987a3fe028ff65b8a","665500ab8938657b03fbdba8","66579286b651b453ebb03e4c","628","stimuli/11110002.jpg"," ","","feedback_trial","1","","","","","","","","","","","","","","","","","","","","",""
"","","","","","image-keyboard-response","306","511259","0.0-281.0","5f084a7987a3fe028ff65b8a","665500ab8938657b03fbdba8","66579286b651b453ebb03e4c","619","stimuli/0001110.jpg","1","","prediction_trial","0","","false","","0","false","false","true","true","false","false","[0]","001","110","0","","","","","","",""
"","","","","","image-keyboard-response","307","512535","0.0-282.0","5f084a7987a3fe028ff65b8a","665500ab8938657b03fbdba8","66579286b651b453ebb03e4c","1271","stimuli/00011100.jpg"," ","","feedback_trial","0","","","","","","","","","","","","","","","","","","","","",""
"","","","","","image-keyboard-response","308","513846","0.0-283.0","5f084a7987a3fe028ff65b8a","665500ab8938657b03fbdba8","66579286b651b453ebb03e4c","1306","stimuli/0011010.jpg","0","","prediction_trial","0","","true","","0","true","true","true","true","true","true","[0]","011","010","1","","","","","","",""
"","","","","","image-keyboard-response","309","514282","0.0-284.0","5f084a7987a3fe028ff65b8a","665500ab8938657b03fbdba8","66579286b651b453ebb03e4c","432","stimuli/00110100.jpg"," ","","feedback_trial","0","","","","","","","","","","","","","","","","","","","","",""
"","","","","","image-keyboard-response","310","517471","0.0-285.0","5f084a7987a3fe028ff65b8a","665500ab8938657b03fbdba8","66579286b651b453ebb03e4c","3185","stimuli/1000100.jpg","2","","prediction_trial","1","","false","","1","true","true","true","true","true","true","[1]","000","100","0","","","","","","",""
"","","","","","image-keyboard-response","311","517994","0.0-286.0","5f084a7987a3fe028ff65b8a","665500ab8938657b03fbdba8","66579286b651b453ebb03e4c","519","stimuli/10001001.jpg"," ","","feedback_trial","1","","","","","","","","","","","","","","","","","","","","",""
"","","","","","image-keyboard-response","312","519179","0.0-287.0","5f084a7987a3fe028ff65b8a","665500ab8938657b03fbdba8","66579286b651b453ebb03e4c","1180","stimuli/1011001.jpg","0","","prediction_trial","1","","false","","1","true","true","false","false","false","false","[2,1]","011","001","0","","","","","","",""
"","","","","","image-keyboard-response","313","519688","0.0-288.0","5f084a7987a3fe028ff65b8a","665500ab8938657b03fbdba8","66579286b651b453ebb03e4c","504","stimuli/10110011.jpg"," ","","feedback_trial","2","","","","","","","","","","","","","","","","","","","","",""
"","","","","","image-keyboard-response","314","520572","0.0-289.0","5f084a7987a3fe028ff65b8a","665500ab8938657b03fbdba8","66579286b651b453ebb03e4c","880","stimuli/0001000.jpg","0","","prediction_trial","0","","true","","0","true","true","true","true","true","true","[0]","001","000","1","","","","","","",""
"","","","","","image-keyboard-response","315","521040","0.0-290.0","5f084a7987a3fe028ff65b8a","665500ab8938657b03fbdba8","66579286b651b453ebb03e4c","462","stimuli/00010000.jpg"," ","","feedback_trial","0","","","","","","","","","","","","","","","","","","","","",""
"","","","","","image-keyboard-response","316","522339","0.0-291.0","5f084a7987a3fe028ff65b8a","665500ab8938657b03fbdba8","66579286b651b453ebb03e4c","1293","stimuli/1101000.jpg","1","","prediction_trial","1","","true","","1","true","true","true","true","true","true","[1]","101","000","1","","","","","","",""
"","","","","","image-keyboard-response","317","522807","0.0-292.0","5f084a7987a3fe028ff65b8a","665500ab8938657b03fbdba8","66579286b651b453ebb03e4c","460","stimuli/11010001.jpg"," ","","feedback_trial","1","","","","","","","","","","","","","","","","","","","","",""
"","","","","","survey-html-form","318","538422","0.0-293.0","5f084a7987a3fe028ff65b8a","665500ab8938657b03fbdba8","66579286b651b453ebb03e4c","15614","","{""feedback"":"""",""age"":""43"",""gender"":""Female"",""other_gender"":"""",""race"":""White"",""other_race"":"""",""ethnicity"":""Non-Hispanic""}","","exit_survey","","","","","","","","","","","","","","","","","43","Non-Hispanic","Female","White","0.4166666666666667","0.4166666666666667"
