"success","timeout","failed_images","failed_audio","failed_video","trial_type","trial_index","time_elapsed","internal_node_id","prolific_id","prolific_study_id","prolific_session_id","rt","stimulus","response","view_history","trial","character_choice","stimulus_dict","accuracy","correct_response","ball_pos","ego_ball_visible","ego_can_infer","alter_ball_visible","alter_can_infer","collective_ball_visible","collective_can_infer","search_locations","alter_occluders","ego_occluders","accuracy_bool","feedback","age","ethnicity","gender","race","overall_accuracy","bonus"
"true","false","[]","[]","[]","preload","0","7489","0.0-0.0","5f1091aa4bd173363a9700ec","665500ab8938657b03fbdba8","665792e811fabbb508be5f1a","","","","","","","","","","","","","","","","","","","","","","","","","","",""
"true","","","","","fullscreen","1","273545","0.0-1.0","5f1091aa4bd173363a9700ec","665500ab8938657b03fbdba8","665792e811fabbb508be5f1a","","","","","","","","","","","","","","","","","","","","","","","","","","",""
"","","","","","html-button-response","2","275410","0.0-2.0","5f1091aa4bd173363a9700ec","665500ab8938657b03fbdba8","665792e811fabbb508be5f1a","1861","<p><b>Consent Form</b></p> <div style=""text-align:left;background-color:lightgrey; padding:20px; max-width:900px;""><p>Please consider this information carefully before deciding whether to participate in this research.</p> <p>The purpose of this research is to examine which factors influence social judgment and decision-making. You will be asked to make judgements about individuals and actions in social scenarios. We are simply interested in your judgement. The study will take less than 1 hour to complete, and you will receive less than $20 on Prolific. Your compensation and time commitment are specified in the study description. There are no anticipated risks associated with participating in this study. The effects of participating should be comparable to those you would ordinarily experience from viewing a computer monitor and using a mouse or keyboard for a similar amount of time. At the end of the study, we will provide an explanation of the questions that motivate this line of research and will describe the potential implications. </p><p> Your participation in this study is completely voluntary and you may refuse to participate or you may choose to withdraw at any time without penalty or loss of benefits to you which are otherwise entitled. Your participation in this study will remain confidential. No personally identifiable information will be associated with your data. Also, all analyses of the data will be averaged across all the participants, so your individual responses will never be specifically analyzed. </p><p> If you have questions or concerns about your participation or payment, or want to request a summary of research findings, please contact Dr. Jonathan Phillips at Jonathan.S.Phillips@dartmouth.edu. </p><p> Please save a copy of this form for your records. </p><p><b>Agreement: </b>The nature and purpose of this research have been sufficiently explained and I agree to participate in this study. I understand that I am free to withdraw at any time without incurring any penalty. Please consent by clicking the button below to continue. Otherwise, please exit the study at any time. </p>","0","","","","","","","","","","","","","","","","","","","","","","","",""
"","","","","","instructions","3","588087","0.0-3.0-0.0","5f1091aa4bd173363a9700ec","665500ab8938657b03fbdba8","665792e811fabbb508be5f1a","312674","","","[{""page_index"":0,""viewing_time"":1275},{""page_index"":1,""viewing_time"":1372},{""page_index"":2,""viewing_time"":264885},{""page_index"":3,""viewing_time"":13112},{""page_index"":4,""viewing_time"":7158},{""page_index"":5,""viewing_time"":2449},{""page_index"":6,""viewing_time"":3520},{""page_index"":7,""viewing_time"":3008},{""page_index"":8,""viewing_time"":3619},{""page_index"":9,""viewing_time"":2103},{""page_index"":10,""viewing_time"":3793},{""page_index"":11,""viewing_time"":2872},{""page_index"":12,""viewing_time"":2343},{""page_index"":13,""viewing_time"":1166}]","intro","","","","","","","","","","","","","","","","","","","","","",""
"","","","","","image-keyboard-response","4","592754","0.0-3.0-1.0","5f1091aa4bd173363a9700ec","665500ab8938657b03fbdba8","665792e811fabbb508be5f1a","4665","stimuli/0010101.jpg","0","","prediction_practice","0","{""filepath"":""stimuli/0010101.jpg"",""ball_pos"":0,""ego_ball_visible"":false,""ego_can_infer"":false,""alter_ball_visible"":true,""alter_can_infer"":true,""collective_ball_visible"":false,""collective_can_infer"":false,""search_locations"":[0],""alter_occluders"":""010"",""ego_occluders"":""101""}","true","","","","","","","","","","","","","","","","","","",""
"","","","","","image-keyboard-response","5","594696","0.0-3.0-2.0","5f1091aa4bd173363a9700ec","665500ab8938657b03fbdba8","665792e811fabbb508be5f1a","1939","stimuli/00101010.jpg"," ","","practrice_feedback","0","","","","","","","","","","","","","","","","","","","","",""
"","","","","","image-keyboard-response","6","597142","0.0-3.0-3.0","5f1091aa4bd173363a9700ec","665500ab8938657b03fbdba8","665792e811fabbb508be5f1a","2443","stimuli/0000101.jpg","0","","prediction_practice","0","{""filepath"":""stimuli/0000101.jpg"",""ball_pos"":0,""ego_ball_visible"":false,""ego_can_infer"":false,""alter_ball_visible"":true,""alter_can_infer"":true,""collective_ball_visible"":false,""collective_can_infer"":false,""search_locations"":[0],""alter_occluders"":""000"",""ego_occluders"":""101""}","true","","","","","","","","","","","","","","","","","","",""
"","","","","","image-keyboard-response","7","598153","0.0-3.0-4.0","5f1091aa4bd173363a9700ec","665500ab8938657b03fbdba8","665792e811fabbb508be5f1a","1010","stimuli/00001010.jpg"," ","","practrice_feedback","0","","","","","","","","","","","","","","","","","","","","",""
"","","","","","image-keyboard-response","8","601190","0.0-3.0-5.0","5f1091aa4bd173363a9700ec","665500ab8938657b03fbdba8","665792e811fabbb508be5f1a","3034","stimuli/0101011.jpg","0","","prediction_practice","0","{""filepath"":""stimuli/0101011.jpg"",""ball_pos"":0,""ego_ball_visible"":true,""ego_can_infer"":true,""alter_ball_visible"":false,""alter_can_infer"":false,""collective_ball_visible"":false,""collective_can_infer"":false,""search_locations"":[2,0],""alter_occluders"":""101"",""ego_occluders"":""011""}","true","","","","","","","","","","","","","","","","","","",""
"","","","","","image-keyboard-response","9","602442","0.0-3.0-6.0","5f1091aa4bd173363a9700ec","665500ab8938657b03fbdba8","665792e811fabbb508be5f1a","1249","stimuli/01010110.jpg"," ","","practrice_feedback","2","","","","","","","","","","","","","","","","","","","","",""
"","","","","","image-keyboard-response","10","603559","0.0-3.0-7.0","5f1091aa4bd173363a9700ec","665500ab8938657b03fbdba8","665792e811fabbb508be5f1a","1115","stimuli/2110000.jpg","2","","prediction_practice","2","{""filepath"":""stimuli/2110000.jpg"",""ball_pos"":2,""ego_ball_visible"":true,""ego_can_infer"":true,""alter_ball_visible"":true,""alter_can_infer"":true,""collective_ball_visible"":true,""collective_can_infer"":true,""search_locations"":[2],""alter_occluders"":""110"",""ego_occluders"":""000""}","true","","","","","","","","","","","","","","","","","","",""
"","","","","","image-keyboard-response","11","604137","0.0-3.0-8.0","5f1091aa4bd173363a9700ec","665500ab8938657b03fbdba8","665792e811fabbb508be5f1a","576","stimuli/21100002.jpg"," ","","practrice_feedback","2","","","","","","","","","","","","","","","","","","","","",""
"","","","","","image-keyboard-response","12","605480","0.0-3.0-9.0","5f1091aa4bd173363a9700ec","665500ab8938657b03fbdba8","665792e811fabbb508be5f1a","1341","stimuli/0100101.jpg","0","","prediction_practice","0","{""filepath"":""stimuli/0100101.jpg"",""ball_pos"":0,""ego_ball_visible"":false,""ego_can_infer"":false,""alter_ball_visible"":false,""alter_can_infer"":true,""collective_ball_visible"":false,""collective_can_infer"":false,""search_locations"":[0],""alter_occluders"":""100"",""ego_occluders"":""101""}","true","","","","","","","","","","","","","","","","","","",""
"","","","","","image-keyboard-response","13","606691","0.0-3.0-10.0","5f1091aa4bd173363a9700ec","665500ab8938657b03fbdba8","665792e811fabbb508be5f1a","1209","stimuli/01001010.jpg"," ","","practrice_feedback","0","","","","","","","","","","","","","","","","","","","","",""
"","","","","","image-keyboard-response","14","608959","0.0-3.0-11.0","5f1091aa4bd173363a9700ec","665500ab8938657b03fbdba8","665792e811fabbb508be5f1a","2267","stimuli/1100100.jpg","1","","prediction_practice","1","{""filepath"":""stimuli/1100100.jpg"",""ball_pos"":1,""ego_ball_visible"":true,""ego_can_infer"":true,""alter_ball_visible"":true,""alter_can_infer"":true,""collective_ball_visible"":true,""collective_can_infer"":true,""search_locations"":[1],""alter_occluders"":""100"",""ego_occluders"":""100""}","true","","","","","","","","","","","","","","","","","","",""
"","","","","","image-keyboard-response","15","609598","0.0-3.0-12.0","5f1091aa4bd173363a9700ec","665500ab8938657b03fbdba8","665792e811fabbb508be5f1a","636","stimuli/11001001.jpg"," ","","practrice_feedback","1","","","","","","","","","","","","","","","","","","","","",""
"","","","","","image-keyboard-response","16","610925","0.0-3.0-13.0","5f1091aa4bd173363a9700ec","665500ab8938657b03fbdba8","665792e811fabbb508be5f1a","1327","stimuli/1111111.jpg","1","","prediction_practice","1","{""filepath"":""stimuli/1111111.jpg"",""ball_pos"":1,""ego_ball_visible"":false,""ego_can_infer"":false,""alter_ball_visible"":false,""alter_can_infer"":false,""collective_ball_visible"":false,""collective_can_infer"":false,""search_locations"":[2,0,1],""alter_occluders"":""111"",""ego_occluders"":""111""}","true","","","","","","","","","","","","","","","","","","",""
"","","","","","image-keyboard-response","17","612304","0.0-3.0-14.0","5f1091aa4bd173363a9700ec","665500ab8938657b03fbdba8","665792e811fabbb508be5f1a","1377","stimuli/11111111.jpg"," ","","practrice_feedback","2","","","","","","","","","","","","","","","","","","","","",""
"","","","","","image-keyboard-response","18","614602","0.0-3.0-15.0","5f1091aa4bd173363a9700ec","665500ab8938657b03fbdba8","665792e811fabbb508be5f1a","2296","stimuli/1111011.jpg","1","","prediction_practice","2","{""filepath"":""stimuli/1111011.jpg"",""ball_pos"":1,""ego_ball_visible"":false,""ego_can_infer"":false,""alter_ball_visible"":false,""alter_can_infer"":false,""collective_ball_visible"":false,""collective_can_infer"":false,""search_locations"":[2,0,1],""alter_occluders"":""111"",""ego_occluders"":""011""}","false","","","","","","","","","","","","","","","","","","",""
"","","","","","image-keyboard-response","19","620705","0.0-3.0-16.0","5f1091aa4bd173363a9700ec","665500ab8938657b03fbdba8","665792e811fabbb508be5f1a","6101","stimuli/11110112.jpg"," ","","practrice_feedback","2","","","","","","","","","","","","","","","","","","","","",""
"","","","","","image-keyboard-response","20","623186","0.0-3.0-17.0","5f1091aa4bd173363a9700ec","665500ab8938657b03fbdba8","665792e811fabbb508be5f1a","2480","stimuli/0000000.jpg","0","","prediction_practice","0","{""filepath"":""stimuli/0000000.jpg"",""ball_pos"":0,""ego_ball_visible"":true,""ego_can_infer"":true,""alter_ball_visible"":true,""alter_can_infer"":true,""collective_ball_visible"":true,""collective_can_infer"":true,""search_locations"":[0],""alter_occluders"":""000"",""ego_occluders"":""000""}","true","","","","","","","","","","","","","","","","","","",""
"","","","","","image-keyboard-response","21","623616","0.0-3.0-18.0","5f1091aa4bd173363a9700ec","665500ab8938657b03fbdba8","665792e811fabbb508be5f1a","429","stimuli/00000000.jpg"," ","","practrice_feedback","0","","","","","","","","","","","","","","","","","","","","",""
"","","","","","image-keyboard-response","22","625126","0.0-3.0-19.0","5f1091aa4bd173363a9700ec","665500ab8938657b03fbdba8","665792e811fabbb508be5f1a","1508","stimuli/1010110.jpg","1","","prediction_practice","1","{""filepath"":""stimuli/1010110.jpg"",""ball_pos"":1,""ego_ball_visible"":false,""ego_can_infer"":false,""alter_ball_visible"":false,""alter_can_infer"":true,""collective_ball_visible"":false,""collective_can_infer"":false,""search_locations"":[1],""alter_occluders"":""010"",""ego_occluders"":""110""}","true","","","","","","","","","","","","","","","","","","",""
"","","","","","image-keyboard-response","23","626062","0.0-3.0-20.0","5f1091aa4bd173363a9700ec","665500ab8938657b03fbdba8","665792e811fabbb508be5f1a","935","stimuli/10101101.jpg"," ","","practrice_feedback","1","","","","","","","","","","","","","","","","","","","","",""
"","","","","","html-button-response","24","629776","0.0-3.0-21.0","5f1091aa4bd173363a9700ec","665500ab8938657b03fbdba8","665792e811fabbb508be5f1a","3712","Now that you've had some practice, you'll be tested with a couple of easy trials. If you correctly predict Sam's choice, you'll move on to complete the experiment!","0","","","","","","","","","","","","","","","","","","","","","","","",""
"","","","","","image-keyboard-response","25","630949","0.0-3.0-22.0-0.0","5f1091aa4bd173363a9700ec","665500ab8938657b03fbdba8","665792e811fabbb508be5f1a","1171","stimuli/0000011.jpg","arrowleft","","comprehension_quiz","","","true","arrowleft","","","","","","","","","","","","","","","","","",""
"","","","","","image-keyboard-response","26","632184","0.0-3.0-22.0-1.0","5f1091aa4bd173363a9700ec","665500ab8938657b03fbdba8","665792e811fabbb508be5f1a","1233","stimuli/00000110.jpg"," ","","comprehension_quiz","","","true"," ","","","","","","","","","","","","","","","","","",""
"","","","","","image-keyboard-response","27","633359","0.0-3.0-22.0-2.0","5f1091aa4bd173363a9700ec","665500ab8938657b03fbdba8","665792e811fabbb508be5f1a","1174","stimuli/1010010.jpg","arrowdown","","comprehension_quiz","","","true","arrowdown","","","","","","","","","","","","","","","","","",""
"","","","","","image-keyboard-response","28","633797","0.0-3.0-22.0-3.0","5f1091aa4bd173363a9700ec","665500ab8938657b03fbdba8","665792e811fabbb508be5f1a","436","stimuli/10100101.jpg"," ","","comprehension_quiz","","","true"," ","","","","","","","","","","","","","","","","","",""
"","","","","","html-button-response","29","635728","0.0-4.0","5f1091aa4bd173363a9700ec","665500ab8938657b03fbdba8","665792e811fabbb508be5f1a","1929","The experiment will now begin.","0","","","","","","","","","","","","","","","","","","","","","","","",""
"","","","","","image-keyboard-response","30","636720","0.0-5.0","5f1091aa4bd173363a9700ec","665500ab8938657b03fbdba8","665792e811fabbb508be5f1a","989","stimuli/1100100.jpg","1","","prediction_trial","1","","true","","1","true","true","true","true","true","true","[1]","100","100","1","","","","","","",""
"","","","","","image-keyboard-response","31","637233","0.0-6.0","5f1091aa4bd173363a9700ec","665500ab8938657b03fbdba8","665792e811fabbb508be5f1a","509","stimuli/11001001.jpg"," ","","feedback_trial","1","","","","","","","","","","","","","","","","","","","","",""
"","","","","","image-keyboard-response","32","638472","0.0-7.0","5f1091aa4bd173363a9700ec","665500ab8938657b03fbdba8","665792e811fabbb508be5f1a","1237","stimuli/2001010.jpg","2","","prediction_trial","2","","true","","2","true","true","false","true","false","true","[2]","001","010","1","","","","","","",""
"","","","","","image-keyboard-response","33","639303","0.0-8.0","5f1091aa4bd173363a9700ec","665500ab8938657b03fbdba8","665792e811fabbb508be5f1a","830","stimuli/20010102.jpg"," ","","feedback_trial","2","","","","","","","","","","","","","","","","","","","","",""
"","","","","","image-keyboard-response","34","640975","0.0-9.0","5f1091aa4bd173363a9700ec","665500ab8938657b03fbdba8","665792e811fabbb508be5f1a","1670","stimuli/0111101.jpg","2","","prediction_trial","2","","true","","0","false","false","false","false","false","false","[0,1,2]","111","101","1","","","","","","",""
"","","","","","image-keyboard-response","35","641495","0.0-10.0","5f1091aa4bd173363a9700ec","665500ab8938657b03fbdba8","665792e811fabbb508be5f1a","519","stimuli/01111012.jpg"," ","","feedback_trial","0","","","","","","","","","","","","","","","","","","","","",""
"","","","","","image-keyboard-response","36","642401","0.0-11.0","5f1091aa4bd173363a9700ec","665500ab8938657b03fbdba8","665792e811fabbb508be5f1a","903","stimuli/0111000.jpg","0","","prediction_trial","2","","false","","0","true","true","false","false","false","false","[2,1,0]","111","000","0","","","","","","",""
"","","","","","image-keyboard-response","37","644847","0.0-12.0","5f1091aa4bd173363a9700ec","665500ab8938657b03fbdba8","665792e811fabbb508be5f1a","2444","stimuli/01110002.jpg"," ","","feedback_trial","2","","","","","","","","","","","","","","","","","","","","",""
"","","","","","image-keyboard-response","38","645784","0.0-13.0","5f1091aa4bd173363a9700ec","665500ab8938657b03fbdba8","665792e811fabbb508be5f1a","935","stimuli/0011001.jpg","0","","prediction_trial","0","","true","","0","true","true","true","true","true","true","[0]","011","001","1","","","","","","",""
"","","","","","image-keyboard-response","39","646119","0.0-14.0","5f1091aa4bd173363a9700ec","665500ab8938657b03fbdba8","665792e811fabbb508be5f1a","333","stimuli/00110010.jpg"," ","","feedback_trial","0","","","","","","","","","","","","","","","","","","","","",""
"","","","","","image-keyboard-response","40","646959","0.0-15.0","5f1091aa4bd173363a9700ec","665500ab8938657b03fbdba8","665792e811fabbb508be5f1a","839","stimuli/2000110.jpg","2","","prediction_trial","2","","true","","2","true","true","true","true","true","true","[2]","000","110","1","","","","","","",""
"","","","","","image-keyboard-response","41","647287","0.0-16.0","5f1091aa4bd173363a9700ec","665500ab8938657b03fbdba8","665792e811fabbb508be5f1a","326","stimuli/20001102.jpg"," ","","feedback_trial","2","","","","","","","","","","","","","","","","","","","","",""
"","","","","","image-keyboard-response","42","647982","0.0-17.0","5f1091aa4bd173363a9700ec","665500ab8938657b03fbdba8","665792e811fabbb508be5f1a","693","stimuli/2000000.jpg","2","","prediction_trial","2","","true","","2","true","true","true","true","true","true","[2]","000","000","1","","","","","","",""
"","","","","","image-keyboard-response","43","648311","0.0-18.0","5f1091aa4bd173363a9700ec","665500ab8938657b03fbdba8","665792e811fabbb508be5f1a","327","stimuli/20000002.jpg"," ","","feedback_trial","2","","","","","","","","","","","","","","","","","","","","",""
"","","","","","image-keyboard-response","44","650271","0.0-19.0","5f1091aa4bd173363a9700ec","665500ab8938657b03fbdba8","665792e811fabbb508be5f1a","1958","stimuli/1001110.jpg","2","","prediction_trial","1","","false","","1","false","false","true","true","false","false","[1]","001","110","0","","","","","","",""
"","","","","","image-keyboard-response","45","651024","0.0-20.0","5f1091aa4bd173363a9700ec","665500ab8938657b03fbdba8","665792e811fabbb508be5f1a","751","stimuli/10011101.jpg"," ","","feedback_trial","1","","","","","","","","","","","","","","","","","","","","",""
"","","","","","image-keyboard-response","46","652327","0.0-21.0","5f1091aa4bd173363a9700ec","665500ab8938657b03fbdba8","665792e811fabbb508be5f1a","1301","stimuli/1001100.jpg","1","","prediction_trial","1","","true","","1","true","true","true","true","true","true","[1]","001","100","1","","","","","","",""
"","","","","","image-keyboard-response","47","652710","0.0-22.0","5f1091aa4bd173363a9700ec","665500ab8938657b03fbdba8","665792e811fabbb508be5f1a","381","stimuli/10011001.jpg"," ","","feedback_trial","1","","","","","","","","","","","","","","","","","","","","",""
"","","","","","image-keyboard-response","48","654848","0.0-23.0","5f1091aa4bd173363a9700ec","665500ab8938657b03fbdba8","665792e811fabbb508be5f1a","2137","stimuli/0011101.jpg","2","","prediction_trial","0","","false","","0","false","false","true","true","false","false","[0]","011","101","0","","","","","","",""
"","","","","","image-keyboard-response","49","655487","0.0-24.0","5f1091aa4bd173363a9700ec","665500ab8938657b03fbdba8","665792e811fabbb508be5f1a","638","stimuli/00111010.jpg"," ","","feedback_trial","0","","","","","","","","","","","","","","","","","","","","",""
"","","","","","image-keyboard-response","50","657551","0.0-25.0","5f1091aa4bd173363a9700ec","665500ab8938657b03fbdba8","665792e811fabbb508be5f1a","2062","stimuli/0101101.jpg","0","","prediction_trial","2","","false","","0","false","false","false","false","false","false","[2,0]","101","101","0","","","","","","",""
"","","","","","image-keyboard-response","51","658204","0.0-26.0","5f1091aa4bd173363a9700ec","665500ab8938657b03fbdba8","665792e811fabbb508be5f1a","651","stimuli/01011012.jpg"," ","","feedback_trial","2","","","","","","","","","","","","","","","","","","","","",""
"","","","","","image-keyboard-response","52","659686","0.0-27.0","5f1091aa4bd173363a9700ec","665500ab8938657b03fbdba8","665792e811fabbb508be5f1a","1480","stimuli/1001001.jpg","1","","prediction_trial","1","","true","","1","true","true","true","true","true","true","[1]","001","001","1","","","","","","",""
"","","","","","image-keyboard-response","53","660056","0.0-28.0","5f1091aa4bd173363a9700ec","665500ab8938657b03fbdba8","665792e811fabbb508be5f1a","368","stimuli/10010011.jpg"," ","","feedback_trial","1","","","","","","","","","","","","","","","","","","","","",""
"","","","","","image-keyboard-response","54","661015","0.0-29.0","5f1091aa4bd173363a9700ec","665500ab8938657b03fbdba8","665792e811fabbb508be5f1a","957","stimuli/1010100.jpg","1","","prediction_trial","1","","true","","1","true","true","false","true","false","true","[1]","010","100","1","","","","","","",""
"","","","","","image-keyboard-response","55","661399","0.0-30.0","5f1091aa4bd173363a9700ec","665500ab8938657b03fbdba8","665792e811fabbb508be5f1a","382","stimuli/10101001.jpg"," ","","feedback_trial","1","","","","","","","","","","","","","","","","","","","","",""
"","","","","","image-keyboard-response","56","662504","0.0-31.0","5f1091aa4bd173363a9700ec","665500ab8938657b03fbdba8","665792e811fabbb508be5f1a","1104","stimuli/1011010.jpg","1","","prediction_trial","1","","true","","1","false","true","false","false","false","false","[2,1]","011","010","1","","","","","","",""
"","","","","","image-keyboard-response","57","662853","0.0-32.0","5f1091aa4bd173363a9700ec","665500ab8938657b03fbdba8","665792e811fabbb508be5f1a","348","stimuli/10110101.jpg"," ","","feedback_trial","2","","","","","","","","","","","","","","","","","","","","",""
"","","","","","image-keyboard-response","58","663590","0.0-33.0","5f1091aa4bd173363a9700ec","665500ab8938657b03fbdba8","665792e811fabbb508be5f1a","735","stimuli/1011100.jpg","1","","prediction_trial","1","","true","","1","true","true","false","false","false","false","[2,1]","011","100","1","","","","","","",""
"","","","","","image-keyboard-response","59","663942","0.0-34.0","5f1091aa4bd173363a9700ec","665500ab8938657b03fbdba8","665792e811fabbb508be5f1a","350","stimuli/10111001.jpg"," ","","feedback_trial","2","","","","","","","","","","","","","","","","","","","","",""
"","","","","","image-keyboard-response","60","664759","0.0-35.0","5f1091aa4bd173363a9700ec","665500ab8938657b03fbdba8","665792e811fabbb508be5f1a","815","stimuli/1000101.jpg","1","","prediction_trial","1","","true","","1","true","true","true","true","true","true","[1]","000","101","1","","","","","","",""
"","","","","","image-keyboard-response","61","665021","0.0-36.0","5f1091aa4bd173363a9700ec","665500ab8938657b03fbdba8","665792e811fabbb508be5f1a","261","stimuli/10001011.jpg"," ","","feedback_trial","1","","","","","","","","","","","","","","","","","","","","",""
"","","","","","image-keyboard-response","62","666367","0.0-37.0","5f1091aa4bd173363a9700ec","665500ab8938657b03fbdba8","665792e811fabbb508be5f1a","1344","stimuli/0001110.jpg","1","","prediction_trial","0","","false","","0","false","false","true","true","false","false","[0]","001","110","0","","","","","","",""
"","","","","","image-keyboard-response","63","666997","0.0-38.0","5f1091aa4bd173363a9700ec","665500ab8938657b03fbdba8","665792e811fabbb508be5f1a","629","stimuli/00011100.jpg"," ","","feedback_trial","0","","","","","","","","","","","","","","","","","","","","",""
"","","","","","image-keyboard-response","64","669630","0.0-39.0","5f1091aa4bd173363a9700ec","665500ab8938657b03fbdba8","665792e811fabbb508be5f1a","2631","stimuli/2001011.jpg","2","","prediction_trial","2","","true","","2","false","false","false","true","false","false","[2]","001","011","1","","","","","","",""
"","","","","","image-keyboard-response","65","670597","0.0-40.0","5f1091aa4bd173363a9700ec","665500ab8938657b03fbdba8","665792e811fabbb508be5f1a","965","stimuli/20010112.jpg"," ","","feedback_trial","2","","","","","","","","","","","","","","","","","","","","",""
"","","","","","image-keyboard-response","66","672620","0.0-41.0","5f1091aa4bd173363a9700ec","665500ab8938657b03fbdba8","665792e811fabbb508be5f1a","2023","stimuli/0110101.jpg","0","","prediction_trial","0","","true","","0","false","false","false","false","false","false","[1,0]","110","101","1","","","","","","",""
"","","","","","image-keyboard-response","67","673142","0.0-42.0","5f1091aa4bd173363a9700ec","665500ab8938657b03fbdba8","665792e811fabbb508be5f1a","520","stimuli/01101010.jpg"," ","","feedback_trial","1","","","","","","","","","","","","","","","","","","","","",""
"","","","","","image-keyboard-response","68","674333","0.0-43.0","5f1091aa4bd173363a9700ec","665500ab8938657b03fbdba8","665792e811fabbb508be5f1a","1189","stimuli/0000111.jpg","1","","prediction_trial","0","","false","","0","false","false","true","true","false","false","[0]","000","111","0","","","","","","",""
"","","","","","image-keyboard-response","69","675315","0.0-44.0","5f1091aa4bd173363a9700ec","665500ab8938657b03fbdba8","665792e811fabbb508be5f1a","980","stimuli/00001110.jpg"," ","","feedback_trial","0","","","","","","","","","","","","","","","","","","","","",""
"","","","","","image-keyboard-response","70","676592","0.0-45.0","5f1091aa4bd173363a9700ec","665500ab8938657b03fbdba8","665792e811fabbb508be5f1a","1277","stimuli/1110011.jpg","1","","prediction_trial","0","","false","","1","false","false","false","false","false","false","[1,0]","110","011","0","","","","","","",""
"","","","","","image-keyboard-response","71","677124","0.0-46.0","5f1091aa4bd173363a9700ec","665500ab8938657b03fbdba8","665792e811fabbb508be5f1a","530","stimuli/11100110.jpg"," ","","feedback_trial","1","","","","","","","","","","","","","","","","","","","","",""
"","","","","","image-keyboard-response","72","677915","0.0-47.0","5f1091aa4bd173363a9700ec","665500ab8938657b03fbdba8","665792e811fabbb508be5f1a","790","stimuli/2100000.jpg","2","","prediction_trial","2","","true","","2","true","true","true","true","true","true","[2]","100","000","1","","","","","","",""
"","","","","","image-keyboard-response","73","678414","0.0-48.0","5f1091aa4bd173363a9700ec","665500ab8938657b03fbdba8","665792e811fabbb508be5f1a","498","stimuli/21000002.jpg"," ","","feedback_trial","2","","","","","","","","","","","","","","","","","","","","",""
"","","","","","image-keyboard-response","74","679358","0.0-49.0","5f1091aa4bd173363a9700ec","665500ab8938657b03fbdba8","665792e811fabbb508be5f1a","942","stimuli/2010000.jpg","2","","prediction_trial","2","","true","","2","true","true","true","true","true","true","[2]","010","000","1","","","","","","",""
"","","","","","image-keyboard-response","75","679576","0.0-50.0","5f1091aa4bd173363a9700ec","665500ab8938657b03fbdba8","665792e811fabbb508be5f1a","216","stimuli/20100002.jpg"," ","","feedback_trial","2","","","","","","","","","","","","","","","","","","","","",""
"","","","","","image-keyboard-response","76","681099","0.0-51.0","5f1091aa4bd173363a9700ec","665500ab8938657b03fbdba8","665792e811fabbb508be5f1a","1521","stimuli/2011111.jpg","1","","prediction_trial","2","","false","","2","false","false","false","false","false","false","[1,2]","011","111","0","","","","","","",""
"","","","","","image-keyboard-response","77","681597","0.0-52.0","5f1091aa4bd173363a9700ec","665500ab8938657b03fbdba8","665792e811fabbb508be5f1a","497","stimuli/20111112.jpg"," ","","feedback_trial","1","","","","","","","","","","","","","","","","","","","","",""
"","","","","","image-keyboard-response","78","682267","0.0-53.0","5f1091aa4bd173363a9700ec","665500ab8938657b03fbdba8","665792e811fabbb508be5f1a","668","stimuli/2011101.jpg","2","","prediction_trial","1","","false","","2","false","false","false","false","false","false","[1,2]","011","101","0","","","","","","",""
"","","","","","image-keyboard-response","79","682766","0.0-54.0","5f1091aa4bd173363a9700ec","665500ab8938657b03fbdba8","665792e811fabbb508be5f1a","497","stimuli/20111011.jpg"," ","","feedback_trial","1","","","","","","","","","","","","","","","","","","","","",""
"","","","","","image-keyboard-response","80","683668","0.0-55.0","5f1091aa4bd173363a9700ec","665500ab8938657b03fbdba8","665792e811fabbb508be5f1a","901","stimuli/2001110.jpg","2","","prediction_trial","2","","true","","2","true","true","false","true","false","true","[2]","001","110","1","","","","","","",""
"","","","","","image-keyboard-response","81","684469","0.0-56.0","5f1091aa4bd173363a9700ec","665500ab8938657b03fbdba8","665792e811fabbb508be5f1a","799","stimuli/20011102.jpg"," ","","feedback_trial","2","","","","","","","","","","","","","","","","","","","","",""
"","","","","","image-keyboard-response","82","685107","0.0-57.0","5f1091aa4bd173363a9700ec","665500ab8938657b03fbdba8","665792e811fabbb508be5f1a","637","stimuli/1010101.jpg","1","","prediction_trial","1","","true","","1","true","true","false","true","false","true","[1]","010","101","1","","","","","","",""
"","","","","","image-keyboard-response","83","685565","0.0-58.0","5f1091aa4bd173363a9700ec","665500ab8938657b03fbdba8","665792e811fabbb508be5f1a","457","stimuli/10101011.jpg"," ","","feedback_trial","1","","","","","","","","","","","","","","","","","","","","",""
"","","","","","image-keyboard-response","84","686526","0.0-59.0","5f1091aa4bd173363a9700ec","665500ab8938657b03fbdba8","665792e811fabbb508be5f1a","959","stimuli/2101110.jpg","2","","prediction_trial","0","","false","","2","true","true","false","false","false","false","[2,0]","101","110","0","","","","","","",""
"","","","","","image-keyboard-response","85","686988","0.0-60.0","5f1091aa4bd173363a9700ec","665500ab8938657b03fbdba8","665792e811fabbb508be5f1a","461","stimuli/21011100.jpg"," ","","feedback_trial","2","","","","","","","","","","","","","","","","","","","","",""
"","","","","","image-keyboard-response","86","688490","0.0-61.0","5f1091aa4bd173363a9700ec","665500ab8938657b03fbdba8","665792e811fabbb508be5f1a","1501","stimuli/2000011.jpg","1","","prediction_trial","2","","false","","2","false","false","true","true","false","false","[2]","000","011","0","","","","","","",""
"","","","","","image-keyboard-response","87","689839","0.0-62.0","5f1091aa4bd173363a9700ec","665500ab8938657b03fbdba8","665792e811fabbb508be5f1a","1347","stimuli/20000112.jpg"," ","","feedback_trial","2","","","","","","","","","","","","","","","","","","","","",""
"","","","","","image-keyboard-response","88","690870","0.0-63.0","5f1091aa4bd173363a9700ec","665500ab8938657b03fbdba8","665792e811fabbb508be5f1a","1030","stimuli/2101000.jpg","2","","prediction_trial","0","","false","","2","true","true","false","false","false","false","[2,0]","101","000","0","","","","","","",""
"","","","","","image-keyboard-response","89","691636","0.0-64.0","5f1091aa4bd173363a9700ec","665500ab8938657b03fbdba8","665792e811fabbb508be5f1a","765","stimuli/21010000.jpg"," ","","feedback_trial","2","","","","","","","","","","","","","","","","","","","","",""
"","","","","","image-keyboard-response","90","694143","0.0-65.0","5f1091aa4bd173363a9700ec","665500ab8938657b03fbdba8","665792e811fabbb508be5f1a","2505","stimuli/0010000.jpg","0","","prediction_trial","0","","true","","0","true","true","true","true","true","true","[0]","010","000","1","","","","","","",""
"","","","","","image-keyboard-response","91","694510","0.0-66.0","5f1091aa4bd173363a9700ec","665500ab8938657b03fbdba8","665792e811fabbb508be5f1a","365","stimuli/00100000.jpg"," ","","feedback_trial","0","","","","","","","","","","","","","","","","","","","","",""
"","","","","","image-keyboard-response","92","696733","0.0-67.0","5f1091aa4bd173363a9700ec","665500ab8938657b03fbdba8","665792e811fabbb508be5f1a","2222","stimuli/1001011.jpg","2","","prediction_trial","1","","false","","1","false","false","true","true","false","false","[1]","001","011","0","","","","","","",""
"","","","","","image-keyboard-response","93","697222","0.0-68.0","5f1091aa4bd173363a9700ec","665500ab8938657b03fbdba8","665792e811fabbb508be5f1a","486","stimuli/10010111.jpg"," ","","feedback_trial","1","","","","","","","","","","","","","","","","","","","","",""
"","","","","","image-keyboard-response","94","698031","0.0-69.0","5f1091aa4bd173363a9700ec","665500ab8938657b03fbdba8","665792e811fabbb508be5f1a","808","stimuli/0011011.jpg","0","","prediction_trial","0","","true","","0","true","true","true","true","true","true","[0]","011","011","1","","","","","","",""
"","","","","","image-keyboard-response","95","698268","0.0-70.0","5f1091aa4bd173363a9700ec","665500ab8938657b03fbdba8","665792e811fabbb508be5f1a","235","stimuli/00110110.jpg"," ","","feedback_trial","0","","","","","","","","","","","","","","","","","","","","",""
"","","","","","image-keyboard-response","96","699327","0.0-71.0","5f1091aa4bd173363a9700ec","665500ab8938657b03fbdba8","665792e811fabbb508be5f1a","1058","stimuli/0010111.jpg","1","","prediction_trial","0","","false","","0","false","false","true","true","false","false","[0]","010","111","0","","","","","","",""
"","","","","","image-keyboard-response","97","699821","0.0-72.0","5f1091aa4bd173363a9700ec","665500ab8938657b03fbdba8","665792e811fabbb508be5f1a","493","stimuli/00101110.jpg"," ","","feedback_trial","0","","","","","","","","","","","","","","","","","","","","",""
"","","","","","image-keyboard-response","98","701045","0.0-73.0","5f1091aa4bd173363a9700ec","665500ab8938657b03fbdba8","665792e811fabbb508be5f1a","1222","stimuli/2110101.jpg","2","","prediction_trial","2","","true","","2","false","false","true","true","false","false","[2]","110","101","1","","","","","","",""
"","","","","","image-keyboard-response","99","701534","0.0-74.0","5f1091aa4bd173363a9700ec","665500ab8938657b03fbdba8","665792e811fabbb508be5f1a","487","stimuli/21101012.jpg"," ","","feedback_trial","2","","","","","","","","","","","","","","","","","","","","",""
"","","","","","image-keyboard-response","100","702285","0.0-75.0","5f1091aa4bd173363a9700ec","665500ab8938657b03fbdba8","665792e811fabbb508be5f1a","749","stimuli/2110010.jpg","2","","prediction_trial","2","","true","","2","true","true","true","true","true","true","[2]","110","010","1","","","","","","",""
"","","","","","image-keyboard-response","101","702574","0.0-76.0","5f1091aa4bd173363a9700ec","665500ab8938657b03fbdba8","665792e811fabbb508be5f1a","286","stimuli/21100102.jpg"," ","","feedback_trial","2","","","","","","","","","","","","","","","","","","","","",""
"","","","","","image-keyboard-response","102","703301","0.0-77.0","5f1091aa4bd173363a9700ec","665500ab8938657b03fbdba8","665792e811fabbb508be5f1a","725","stimuli/0010001.jpg","0","","prediction_trial","0","","true","","0","true","true","true","true","true","true","[0]","010","001","1","","","","","","",""
"","","","","","image-keyboard-response","103","703511","0.0-78.0","5f1091aa4bd173363a9700ec","665500ab8938657b03fbdba8","665792e811fabbb508be5f1a","209","stimuli/00100010.jpg"," ","","feedback_trial","0","","","","","","","","","","","","","","","","","","","","",""
"","","","","","image-keyboard-response","104","704183","0.0-79.0","5f1091aa4bd173363a9700ec","665500ab8938657b03fbdba8","665792e811fabbb508be5f1a","669","stimuli/1110100.jpg","1","","prediction_trial","1","","true","","1","true","true","false","false","false","false","[0,1]","110","100","1","","","","","","",""
"","","","","","image-keyboard-response","105","704814","0.0-80.0","5f1091aa4bd173363a9700ec","665500ab8938657b03fbdba8","665792e811fabbb508be5f1a","630","stimuli/11101001.jpg"," ","","feedback_trial","0","","","","","","","","","","","","","","","","","","","","",""
"","","","","","image-keyboard-response","106","705773","0.0-81.0","5f1091aa4bd173363a9700ec","665500ab8938657b03fbdba8","665792e811fabbb508be5f1a","957","stimuli/1110111.jpg","2","","prediction_trial","1","","false","","1","false","false","false","false","false","false","[1,0]","110","111","0","","","","","","",""
"","","","","","image-keyboard-response","107","706314","0.0-82.0","5f1091aa4bd173363a9700ec","665500ab8938657b03fbdba8","665792e811fabbb508be5f1a","539","stimuli/11101111.jpg"," ","","feedback_trial","1","","","","","","","","","","","","","","","","","","","","",""
"","","","","","image-keyboard-response","108","707093","0.0-83.0","5f1091aa4bd173363a9700ec","665500ab8938657b03fbdba8","665792e811fabbb508be5f1a","777","stimuli/0001000.jpg","0","","prediction_trial","0","","true","","0","true","true","true","true","true","true","[0]","001","000","1","","","","","","",""
"","","","","","image-keyboard-response","109","707411","0.0-84.0","5f1091aa4bd173363a9700ec","665500ab8938657b03fbdba8","665792e811fabbb508be5f1a","317","stimuli/00010000.jpg"," ","","feedback_trial","0","","","","","","","","","","","","","","","","","","","","",""
"","","","","","image-keyboard-response","110","708173","0.0-85.0","5f1091aa4bd173363a9700ec","665500ab8938657b03fbdba8","665792e811fabbb508be5f1a","760","stimuli/1010011.jpg","1","","prediction_trial","1","","true","","1","false","false","false","true","false","false","[1]","010","011","1","","","","","","",""
"","","","","","image-keyboard-response","111","708572","0.0-86.0","5f1091aa4bd173363a9700ec","665500ab8938657b03fbdba8","665792e811fabbb508be5f1a","397","stimuli/10100111.jpg"," ","","feedback_trial","1","","","","","","","","","","","","","","","","","","","","",""
"","","","","","image-keyboard-response","112","709261","0.0-87.0","5f1091aa4bd173363a9700ec","665500ab8938657b03fbdba8","665792e811fabbb508be5f1a","687","stimuli/2010010.jpg","2","","prediction_trial","2","","true","","2","true","true","true","true","true","true","[2]","010","010","1","","","","","","",""
"","","","","","image-keyboard-response","113","709580","0.0-88.0","5f1091aa4bd173363a9700ec","665500ab8938657b03fbdba8","665792e811fabbb508be5f1a","318","stimuli/20100102.jpg"," ","","feedback_trial","2","","","","","","","","","","","","","","","","","","","","",""
"","","","","","image-keyboard-response","114","710229","0.0-89.0","5f1091aa4bd173363a9700ec","665500ab8938657b03fbdba8","665792e811fabbb508be5f1a","647","stimuli/1011000.jpg","1","","prediction_trial","2","","false","","1","true","true","false","false","false","false","[2,1]","011","000","0","","","","","","",""
"","","","","","image-keyboard-response","115","710572","0.0-90.0","5f1091aa4bd173363a9700ec","665500ab8938657b03fbdba8","665792e811fabbb508be5f1a","341","stimuli/10110002.jpg"," ","","feedback_trial","2","","","","","","","","","","","","","","","","","","","","",""
"","","","","","image-keyboard-response","116","711284","0.0-91.0","5f1091aa4bd173363a9700ec","665500ab8938657b03fbdba8","665792e811fabbb508be5f1a","711","stimuli/2100110.jpg","2","","prediction_trial","2","","true","","2","true","true","true","true","true","true","[2]","100","110","1","","","","","","",""
"","","","","","image-keyboard-response","117","711526","0.0-92.0","5f1091aa4bd173363a9700ec","665500ab8938657b03fbdba8","665792e811fabbb508be5f1a","240","stimuli/21001102.jpg"," ","","feedback_trial","2","","","","","","","","","","","","","","","","","","","","",""
"","","","","","image-keyboard-response","118","712173","0.0-93.0","5f1091aa4bd173363a9700ec","665500ab8938657b03fbdba8","665792e811fabbb508be5f1a","645","stimuli/0100010.jpg","0","","prediction_trial","0","","true","","0","true","true","false","true","false","true","[0]","100","010","1","","","","","","",""
"","","","","","image-keyboard-response","119","712420","0.0-94.0","5f1091aa4bd173363a9700ec","665500ab8938657b03fbdba8","665792e811fabbb508be5f1a","245","stimuli/01000100.jpg"," ","","feedback_trial","0","","","","","","","","","","","","","","","","","","","","",""
"","","","","","image-keyboard-response","120","713652","0.0-95.0","5f1091aa4bd173363a9700ec","665500ab8938657b03fbdba8","665792e811fabbb508be5f1a","1230","stimuli/1101110.jpg","0","","prediction_trial","1","","false","","1","false","false","true","true","false","false","[1]","101","110","0","","","","","","",""
"","","","","","image-keyboard-response","121","714110","0.0-96.0","5f1091aa4bd173363a9700ec","665500ab8938657b03fbdba8","665792e811fabbb508be5f1a","457","stimuli/11011101.jpg"," ","","feedback_trial","1","","","","","","","","","","","","","","","","","","","","",""
"","","","","","image-keyboard-response","122","714773","0.0-97.0","5f1091aa4bd173363a9700ec","665500ab8938657b03fbdba8","665792e811fabbb508be5f1a","663","stimuli/2001000.jpg","2","","prediction_trial","2","","true","","2","true","true","false","true","false","true","[2]","001","000","1","","","","","","",""
"","","","","","image-keyboard-response","123","715132","0.0-98.0","5f1091aa4bd173363a9700ec","665500ab8938657b03fbdba8","665792e811fabbb508be5f1a","358","stimuli/20010002.jpg"," ","","feedback_trial","2","","","","","","","","","","","","","","","","","","","","",""
"","","","","","image-keyboard-response","124","715867","0.0-99.0","5f1091aa4bd173363a9700ec","665500ab8938657b03fbdba8","665792e811fabbb508be5f1a","733","stimuli/0010100.jpg","0","","prediction_trial","0","","true","","0","false","true","true","true","false","true","[0]","010","100","1","","","","","","",""
"","","","","","image-keyboard-response","125","717109","0.0-100.0","5f1091aa4bd173363a9700ec","665500ab8938657b03fbdba8","665792e811fabbb508be5f1a","1241","stimuli/00101000.jpg"," ","","feedback_trial","0","","","","","","","","","","","","","","","","","","","","",""
"","","","","","image-keyboard-response","126","718083","0.0-101.0","5f1091aa4bd173363a9700ec","665500ab8938657b03fbdba8","665792e811fabbb508be5f1a","973","stimuli/2111010.jpg","2","","prediction_trial","2","","true","","2","true","true","false","false","false","false","[0,2,1]","111","010","1","","","","","","",""
"","","","","","image-keyboard-response","127","718501","0.0-102.0","5f1091aa4bd173363a9700ec","665500ab8938657b03fbdba8","665792e811fabbb508be5f1a","417","stimuli/21110102.jpg"," ","","feedback_trial","0","","","","","","","","","","","","","","","","","","","","",""
"","","","","","image-keyboard-response","128","719253","0.0-103.0","5f1091aa4bd173363a9700ec","665500ab8938657b03fbdba8","665792e811fabbb508be5f1a","750","stimuli/2010100.jpg","2","","prediction_trial","2","","true","","2","true","true","true","true","true","true","[2]","010","100","1","","","","","","",""
"","","","","","image-keyboard-response","129","719524","0.0-104.0","5f1091aa4bd173363a9700ec","665500ab8938657b03fbdba8","665792e811fabbb508be5f1a","269","stimuli/20101002.jpg"," ","","feedback_trial","2","","","","","","","","","","","","","","","","","","","","",""
"","","","","","image-keyboard-response","130","720188","0.0-105.0","5f1091aa4bd173363a9700ec","665500ab8938657b03fbdba8","665792e811fabbb508be5f1a","663","stimuli/1100001.jpg","1","","prediction_trial","1","","true","","1","true","true","true","true","true","true","[1]","100","001","1","","","","","","",""
"","","","","","image-keyboard-response","131","720589","0.0-106.0","5f1091aa4bd173363a9700ec","665500ab8938657b03fbdba8","665792e811fabbb508be5f1a","400","stimuli/11000011.jpg"," ","","feedback_trial","1","","","","","","","","","","","","","","","","","","","","",""
"","","","","","image-keyboard-response","132","721542","0.0-107.0","5f1091aa4bd173363a9700ec","665500ab8938657b03fbdba8","665792e811fabbb508be5f1a","951","stimuli/0100100.jpg","0","","prediction_trial","0","","true","","0","false","true","false","true","false","true","[0]","100","100","1","","","","","","",""
"","","","","","image-keyboard-response","133","722004","0.0-108.0","5f1091aa4bd173363a9700ec","665500ab8938657b03fbdba8","665792e811fabbb508be5f1a","461","stimuli/01001000.jpg"," ","","feedback_trial","0","","","","","","","","","","","","","","","","","","","","",""
"","","","","","image-keyboard-response","134","724076","0.0-109.0","5f1091aa4bd173363a9700ec","665500ab8938657b03fbdba8","665792e811fabbb508be5f1a","2070","stimuli/2000101.jpg","0","","prediction_trial","2","","false","","2","false","false","true","true","false","false","[2]","000","101","0","","","","","","",""
"","","","","","image-keyboard-response","135","724654","0.0-110.0","5f1091aa4bd173363a9700ec","665500ab8938657b03fbdba8","665792e811fabbb508be5f1a","577","stimuli/20001012.jpg"," ","","feedback_trial","2","","","","","","","","","","","","","","","","","","","","",""
"","","","","","image-keyboard-response","136","726694","0.0-111.0","5f1091aa4bd173363a9700ec","665500ab8938657b03fbdba8","665792e811fabbb508be5f1a","2037","stimuli/2100111.jpg","0","","prediction_trial","2","","false","","2","false","false","true","true","false","false","[2]","100","111","0","","","","","","",""
"","","","","","image-keyboard-response","137","727197","0.0-112.0","5f1091aa4bd173363a9700ec","665500ab8938657b03fbdba8","665792e811fabbb508be5f1a","501","stimuli/21001112.jpg"," ","","feedback_trial","2","","","","","","","","","","","","","","","","","","","","",""
"","","","","","image-keyboard-response","138","727916","0.0-113.0","5f1091aa4bd173363a9700ec","665500ab8938657b03fbdba8","665792e811fabbb508be5f1a","719","stimuli/2001100.jpg","2","","prediction_trial","2","","true","","2","true","true","false","true","false","true","[2]","001","100","1","","","","","","",""
"","","","","","image-keyboard-response","139","728157","0.0-114.0","5f1091aa4bd173363a9700ec","665500ab8938657b03fbdba8","665792e811fabbb508be5f1a","239","stimuli/20011002.jpg"," ","","feedback_trial","2","","","","","","","","","","","","","","","","","","","","",""
"","","","","","image-keyboard-response","140","728957","0.0-115.0","5f1091aa4bd173363a9700ec","665500ab8938657b03fbdba8","665792e811fabbb508be5f1a","798","stimuli/1111011.jpg","2","","prediction_trial","0","","false","","1","false","false","false","false","false","false","[2,0,1]","111","011","0","","","","","","",""
"","","","","","image-keyboard-response","141","729490","0.0-116.0","5f1091aa4bd173363a9700ec","665500ab8938657b03fbdba8","665792e811fabbb508be5f1a","532","stimuli/11110110.jpg"," ","","feedback_trial","2","","","","","","","","","","","","","","","","","","","","",""
"","","","","","image-keyboard-response","142","730339","0.0-117.0","5f1091aa4bd173363a9700ec","665500ab8938657b03fbdba8","665792e811fabbb508be5f1a","849","stimuli/1110001.jpg","1","","prediction_trial","0","","false","","1","true","true","false","false","false","false","[1,0]","110","001","0","","","","","","",""
"","","","","","image-keyboard-response","143","730619","0.0-118.0","5f1091aa4bd173363a9700ec","665500ab8938657b03fbdba8","665792e811fabbb508be5f1a","278","stimuli/11100010.jpg"," ","","feedback_trial","1","","","","","","","","","","","","","","","","","","","","",""
"","","","","","image-keyboard-response","144","731519","0.0-119.0","5f1091aa4bd173363a9700ec","665500ab8938657b03fbdba8","665792e811fabbb508be5f1a","898","stimuli/1110000.jpg","0","","prediction_trial","1","","false","","1","true","true","false","false","false","false","[1,0]","110","000","0","","","","","","",""
"","","","","","image-keyboard-response","145","732052","0.0-120.0","5f1091aa4bd173363a9700ec","665500ab8938657b03fbdba8","665792e811fabbb508be5f1a","532","stimuli/11100001.jpg"," ","","feedback_trial","1","","","","","","","","","","","","","","","","","","","","",""
"","","","","","image-keyboard-response","146","733316","0.0-121.0","5f1091aa4bd173363a9700ec","665500ab8938657b03fbdba8","665792e811fabbb508be5f1a","1262","stimuli/0101011.jpg","0","","prediction_trial","0","","true","","0","true","true","false","false","false","false","[2,0]","101","011","1","","","","","","",""
"","","","","","image-keyboard-response","147","733749","0.0-122.0","5f1091aa4bd173363a9700ec","665500ab8938657b03fbdba8","665792e811fabbb508be5f1a","431","stimuli/01010110.jpg"," ","","feedback_trial","2","","","","","","","","","","","","","","","","","","","","",""
"","","","","","image-keyboard-response","148","734597","0.0-123.0","5f1091aa4bd173363a9700ec","665500ab8938657b03fbdba8","665792e811fabbb508be5f1a","846","stimuli/1100000.jpg","1","","prediction_trial","1","","true","","1","true","true","true","true","true","true","[1]","100","000","1","","","","","","",""
"","","","","","image-keyboard-response","149","734826","0.0-124.0","5f1091aa4bd173363a9700ec","665500ab8938657b03fbdba8","665792e811fabbb508be5f1a","228","stimuli/11000001.jpg"," ","","feedback_trial","1","","","","","","","","","","","","","","","","","","","","",""
"","","","","","image-keyboard-response","150","737284","0.0-125.0","5f1091aa4bd173363a9700ec","665500ab8938657b03fbdba8","665792e811fabbb508be5f1a","2457","stimuli/1000010.jpg","1","","prediction_trial","1","","true","","1","false","true","true","true","false","true","[1]","000","010","1","","","","","","",""
"","","","","","image-keyboard-response","151","737731","0.0-126.0","5f1091aa4bd173363a9700ec","665500ab8938657b03fbdba8","665792e811fabbb508be5f1a","445","stimuli/10000101.jpg"," ","","feedback_trial","1","","","","","","","","","","","","","","","","","","","","",""
"","","","","","image-keyboard-response","152","738452","0.0-127.0","5f1091aa4bd173363a9700ec","665500ab8938657b03fbdba8","665792e811fabbb508be5f1a","720","stimuli/2110000.jpg","2","","prediction_trial","2","","true","","2","true","true","true","true","true","true","[2]","110","000","1","","","","","","",""
"","","","","","image-keyboard-response","153","738663","0.0-128.0","5f1091aa4bd173363a9700ec","665500ab8938657b03fbdba8","665792e811fabbb508be5f1a","210","stimuli/21100002.jpg"," ","","feedback_trial","2","","","","","","","","","","","","","","","","","","","","",""
"","","","","","image-keyboard-response","154","740178","0.0-129.0","5f1091aa4bd173363a9700ec","665500ab8938657b03fbdba8","665792e811fabbb508be5f1a","1514","stimuli/1110010.jpg","1","","prediction_trial","1","","true","","1","false","true","false","false","false","false","[1,0]","110","010","1","","","","","","",""
"","","","","","image-keyboard-response","155","740572","0.0-130.0","5f1091aa4bd173363a9700ec","665500ab8938657b03fbdba8","665792e811fabbb508be5f1a","393","stimuli/11100101.jpg"," ","","feedback_trial","1","","","","","","","","","","","","","","","","","","","","",""
"","","","","","image-keyboard-response","156","741378","0.0-131.0","5f1091aa4bd173363a9700ec","665500ab8938657b03fbdba8","665792e811fabbb508be5f1a","805","stimuli/0111001.jpg","0","","prediction_trial","2","","false","","0","true","true","false","false","false","false","[1,0,2]","111","001","0","","","","","","",""
"","","","","","image-keyboard-response","157","741682","0.0-132.0","5f1091aa4bd173363a9700ec","665500ab8938657b03fbdba8","665792e811fabbb508be5f1a","303","stimuli/01110012.jpg"," ","","feedback_trial","1","","","","","","","","","","","","","","","","","","","","",""
"","","","","","image-keyboard-response","158","742387","0.0-133.0","5f1091aa4bd173363a9700ec","665500ab8938657b03fbdba8","665792e811fabbb508be5f1a","704","stimuli/0100011.jpg","0","","prediction_trial","0","","true","","0","true","true","false","true","false","true","[0]","100","011","1","","","","","","",""
"","","","","","image-keyboard-response","159","743005","0.0-134.0","5f1091aa4bd173363a9700ec","665500ab8938657b03fbdba8","665792e811fabbb508be5f1a","616","stimuli/01000110.jpg"," ","","feedback_trial","0","","","","","","","","","","","","","","","","","","","","",""
"","","","","","image-keyboard-response","160","743772","0.0-135.0","5f1091aa4bd173363a9700ec","665500ab8938657b03fbdba8","665792e811fabbb508be5f1a","766","stimuli/0011110.jpg","0","","prediction_trial","0","","true","","0","false","false","true","true","false","false","[0]","011","110","1","","","","","","",""
"","","","","","image-keyboard-response","161","744517","0.0-136.0","5f1091aa4bd173363a9700ec","665500ab8938657b03fbdba8","665792e811fabbb508be5f1a","743","stimuli/00111100.jpg"," ","","feedback_trial","0","","","","","","","","","","","","","","","","","","","","",""
"","","","","","image-keyboard-response","162","745954","0.0-137.0","5f1091aa4bd173363a9700ec","665500ab8938657b03fbdba8","665792e811fabbb508be5f1a","1436","stimuli/0001111.jpg","2","","prediction_trial","0","","false","","0","false","false","true","true","false","false","[0]","001","111","0","","","","","","",""
"","","","","","image-keyboard-response","163","746521","0.0-138.0","5f1091aa4bd173363a9700ec","665500ab8938657b03fbdba8","665792e811fabbb508be5f1a","567","stimuli/00011110.jpg"," ","","feedback_trial","0","","","","","","","","","","","","","","","","","","","","",""
"","","","","","image-keyboard-response","164","747439","0.0-139.0","5f1091aa4bd173363a9700ec","665500ab8938657b03fbdba8","665792e811fabbb508be5f1a","916","stimuli/2101111.jpg","1","","prediction_trial","0","","false","","2","false","false","false","false","false","false","[0,2]","101","111","0","","","","","","",""
"","","","","","image-keyboard-response","165","747989","0.0-140.0","5f1091aa4bd173363a9700ec","665500ab8938657b03fbdba8","665792e811fabbb508be5f1a","548","stimuli/21011110.jpg"," ","","feedback_trial","0","","","","","","","","","","","","","","","","","","","","",""
"","","","","","image-keyboard-response","166","748772","0.0-141.0","5f1091aa4bd173363a9700ec","665500ab8938657b03fbdba8","665792e811fabbb508be5f1a","781","stimuli/2100001.jpg","2","","prediction_trial","2","","true","","2","false","true","true","true","false","true","[2]","100","001","1","","","","","","",""
"","","","","","image-keyboard-response","167","749484","0.0-142.0","5f1091aa4bd173363a9700ec","665500ab8938657b03fbdba8","665792e811fabbb508be5f1a","711","stimuli/21000012.jpg"," ","","feedback_trial","2","","","","","","","","","","","","","","","","","","","","",""
"","","","","","image-keyboard-response","168","750499","0.0-143.0","5f1091aa4bd173363a9700ec","665500ab8938657b03fbdba8","665792e811fabbb508be5f1a","1014","stimuli/2100100.jpg","0","","prediction_trial","2","","false","","2","true","true","true","true","true","true","[2]","100","100","0","","","","","","",""
"","","","","","image-keyboard-response","169","750739","0.0-144.0","5f1091aa4bd173363a9700ec","665500ab8938657b03fbdba8","665792e811fabbb508be5f1a","238","stimuli/21001002.jpg"," ","","feedback_trial","2","","","","","","","","","","","","","","","","","","","","",""
"","","","","","image-keyboard-response","170","752236","0.0-145.0","5f1091aa4bd173363a9700ec","665500ab8938657b03fbdba8","665792e811fabbb508be5f1a","1495","stimuli/1011111.jpg","0","","prediction_trial","1","","false","","1","false","false","false","false","false","false","[1,2]","011","111","0","","","","","","",""
"","","","","","image-keyboard-response","171","753017","0.0-146.0","5f1091aa4bd173363a9700ec","665500ab8938657b03fbdba8","665792e811fabbb508be5f1a","780","stimuli/10111111.jpg"," ","","feedback_trial","1","","","","","","","","","","","","","","","","","","","","",""
"","","","","","image-keyboard-response","172","754036","0.0-147.0","5f1091aa4bd173363a9700ec","665500ab8938657b03fbdba8","665792e811fabbb508be5f1a","1018","stimuli/1100110.jpg","1","","prediction_trial","1","","true","","1","false","false","true","true","false","false","[1]","100","110","1","","","","","","",""
"","","","","","image-keyboard-response","173","754540","0.0-148.0","5f1091aa4bd173363a9700ec","665500ab8938657b03fbdba8","665792e811fabbb508be5f1a","501","stimuli/11001101.jpg"," ","","feedback_trial","1","","","","","","","","","","","","","","","","","","","","",""
"","","","","","image-keyboard-response","174","755571","0.0-149.0","5f1091aa4bd173363a9700ec","665500ab8938657b03fbdba8","665792e811fabbb508be5f1a","1030","stimuli/1011011.jpg","1","","prediction_trial","1","","true","","1","false","false","false","false","false","false","[2,1]","011","011","1","","","","","","",""
"","","","","","image-keyboard-response","175","756044","0.0-150.0","5f1091aa4bd173363a9700ec","665500ab8938657b03fbdba8","665792e811fabbb508be5f1a","472","stimuli/10110111.jpg"," ","","feedback_trial","2","","","","","","","","","","","","","","","","","","","","",""
"","","","","","image-keyboard-response","176","756771","0.0-151.0","5f1091aa4bd173363a9700ec","665500ab8938657b03fbdba8","665792e811fabbb508be5f1a","725","stimuli/1101100.jpg","1","","prediction_trial","1","","true","","1","true","true","true","true","true","true","[1]","101","100","1","","","","","","",""
"","","","","","image-keyboard-response","177","757036","0.0-152.0","5f1091aa4bd173363a9700ec","665500ab8938657b03fbdba8","665792e811fabbb508be5f1a","264","stimuli/11011001.jpg"," ","","feedback_trial","1","","","","","","","","","","","","","","","","","","","","",""
"","","","","","image-keyboard-response","178","757940","0.0-153.0","5f1091aa4bd173363a9700ec","665500ab8938657b03fbdba8","665792e811fabbb508be5f1a","902","stimuli/2011011.jpg","1","","prediction_trial","1","","true","","2","false","false","false","false","false","false","[1,2]","011","011","1","","","","","","",""
"","","","","","image-keyboard-response","179","758388","0.0-154.0","5f1091aa4bd173363a9700ec","665500ab8938657b03fbdba8","665792e811fabbb508be5f1a","446","stimuli/20110111.jpg"," ","","feedback_trial","1","","","","","","","","","","","","","","","","","","","","",""
"","","","","","image-keyboard-response","180","759476","0.0-155.0","5f1091aa4bd173363a9700ec","665500ab8938657b03fbdba8","665792e811fabbb508be5f1a","1087","stimuli/0101110.jpg","1","","prediction_trial","0","","false","","0","false","false","false","false","false","false","[2,0]","101","110","0","","","","","","",""
"","","","","","image-keyboard-response","181","759877","0.0-156.0","5f1091aa4bd173363a9700ec","665500ab8938657b03fbdba8","665792e811fabbb508be5f1a","399","stimuli/01011100.jpg"," ","","feedback_trial","2","","","","","","","","","","","","","","","","","","","","",""
"","","","","","image-keyboard-response","182","760565","0.0-157.0","5f1091aa4bd173363a9700ec","665500ab8938657b03fbdba8","665792e811fabbb508be5f1a","686","stimuli/1011101.jpg","1","","prediction_trial","1","","true","","1","true","true","false","false","false","false","[1,2]","011","101","1","","","","","","",""
"","","","","","image-keyboard-response","183","760931","0.0-158.0","5f1091aa4bd173363a9700ec","665500ab8938657b03fbdba8","665792e811fabbb508be5f1a","364","stimuli/10111011.jpg"," ","","feedback_trial","1","","","","","","","","","","","","","","","","","","","","",""
"","","","","","image-keyboard-response","184","762787","0.0-159.0","5f1091aa4bd173363a9700ec","665500ab8938657b03fbdba8","665792e811fabbb508be5f1a","1855","stimuli/0000110.jpg","2","","prediction_trial","0","","false","","0","false","false","true","true","false","false","[0]","000","110","0","","","","","","",""
"","","","","","image-keyboard-response","185","763651","0.0-160.0","5f1091aa4bd173363a9700ec","665500ab8938657b03fbdba8","665792e811fabbb508be5f1a","863","stimuli/00001100.jpg"," ","","feedback_trial","0","","","","","","","","","","","","","","","","","","","","",""
"","","","","","image-keyboard-response","186","764659","0.0-161.0","5f1091aa4bd173363a9700ec","665500ab8938657b03fbdba8","665792e811fabbb508be5f1a","1006","stimuli/0111110.jpg","2","","prediction_trial","0","","false","","0","false","false","false","false","false","false","[1,2,0]","111","110","0","","","","","","",""
"","","","","","image-keyboard-response","187","765187","0.0-162.0","5f1091aa4bd173363a9700ec","665500ab8938657b03fbdba8","665792e811fabbb508be5f1a","527","stimuli/01111100.jpg"," ","","feedback_trial","1","","","","","","","","","","","","","","","","","","","","",""
"","","","","","image-keyboard-response","188","765820","0.0-163.0","5f1091aa4bd173363a9700ec","665500ab8938657b03fbdba8","665792e811fabbb508be5f1a","632","stimuli/0110010.jpg","0","","prediction_trial","0","","true","","0","true","true","false","false","false","false","[1,0]","110","010","1","","","","","","",""
"","","","","","image-keyboard-response","189","766188","0.0-164.0","5f1091aa4bd173363a9700ec","665500ab8938657b03fbdba8","665792e811fabbb508be5f1a","366","stimuli/01100100.jpg"," ","","feedback_trial","1","","","","","","","","","","","","","","","","","","","","",""
"","","","","","image-keyboard-response","190","766892","0.0-165.0","5f1091aa4bd173363a9700ec","665500ab8938657b03fbdba8","665792e811fabbb508be5f1a","701","stimuli/1111101.jpg","1","","prediction_trial","1","","true","","1","true","true","false","false","false","false","[0,2,1]","111","101","1","","","","","","",""
"","","","","","image-keyboard-response","191","767187","0.0-166.0","5f1091aa4bd173363a9700ec","665500ab8938657b03fbdba8","665792e811fabbb508be5f1a","294","stimuli/11111011.jpg"," ","","feedback_trial","0","","","","","","","","","","","","","","","","","","","","",""
"","","","","","image-keyboard-response","192","767836","0.0-167.0","5f1091aa4bd173363a9700ec","665500ab8938657b03fbdba8","665792e811fabbb508be5f1a","647","stimuli/0101000.jpg","0","","prediction_trial","2","","false","","0","true","true","false","false","false","false","[0,2]","101","000","0","","","","","","",""
"","","","","","image-keyboard-response","193","768668","0.0-168.0","5f1091aa4bd173363a9700ec","665500ab8938657b03fbdba8","665792e811fabbb508be5f1a","831","stimuli/01010002.jpg"," ","","feedback_trial","0","","","","","","","","","","","","","","","","","","","","",""
"","","","","","image-keyboard-response","194","769683","0.0-169.0","5f1091aa4bd173363a9700ec","665500ab8938657b03fbdba8","665792e811fabbb508be5f1a","1014","stimuli/2101001.jpg","2","","prediction_trial","2","","true","","2","false","true","false","false","false","false","[0,2]","101","001","1","","","","","","",""
"","","","","","image-keyboard-response","195","770186","0.0-170.0","5f1091aa4bd173363a9700ec","665500ab8938657b03fbdba8","665792e811fabbb508be5f1a","502","stimuli/21010012.jpg"," ","","feedback_trial","0","","","","","","","","","","","","","","","","","","","","",""
"","","","","","image-keyboard-response","196","771187","0.0-171.0","5f1091aa4bd173363a9700ec","665500ab8938657b03fbdba8","665792e811fabbb508be5f1a","999","stimuli/2010111.jpg","1","","prediction_trial","2","","false","","2","false","false","true","true","false","false","[2]","010","111","0","","","","","","",""
"","","","","","image-keyboard-response","197","771688","0.0-172.0","5f1091aa4bd173363a9700ec","665500ab8938657b03fbdba8","665792e811fabbb508be5f1a","500","stimuli/20101112.jpg"," ","","feedback_trial","2","","","","","","","","","","","","","","","","","","","","",""
"","","","","","image-keyboard-response","198","772298","0.0-173.0","5f1091aa4bd173363a9700ec","665500ab8938657b03fbdba8","665792e811fabbb508be5f1a","609","stimuli/0111011.jpg","0","","prediction_trial","0","","true","","0","true","true","false","false","false","false","[0,1,2]","111","011","1","","","","","","",""
"","","","","","image-keyboard-response","199","772651","0.0-174.0","5f1091aa4bd173363a9700ec","665500ab8938657b03fbdba8","665792e811fabbb508be5f1a","352","stimuli/01110110.jpg"," ","","feedback_trial","0","","","","","","","","","","","","","","","","","","","","",""
"","","","","","image-keyboard-response","200","773476","0.0-175.0","5f1091aa4bd173363a9700ec","665500ab8938657b03fbdba8","665792e811fabbb508be5f1a","823","stimuli/2010110.jpg","2","","prediction_trial","2","","true","","2","true","true","true","true","true","true","[2]","010","110","1","","","","","","",""
"","","","","","image-keyboard-response","201","773835","0.0-176.0","5f1091aa4bd173363a9700ec","665500ab8938657b03fbdba8","665792e811fabbb508be5f1a","357","stimuli/20101102.jpg"," ","","feedback_trial","2","","","","","","","","","","","","","","","","","","","","",""
"","","","","","image-keyboard-response","202","774484","0.0-177.0","5f1091aa4bd173363a9700ec","665500ab8938657b03fbdba8","665792e811fabbb508be5f1a","648","stimuli/1000000.jpg","1","","prediction_trial","1","","true","","1","true","true","true","true","true","true","[1]","000","000","1","","","","","","",""
"","","","","","image-keyboard-response","203","774724","0.0-178.0","5f1091aa4bd173363a9700ec","665500ab8938657b03fbdba8","665792e811fabbb508be5f1a","239","stimuli/10000001.jpg"," ","","feedback_trial","1","","","","","","","","","","","","","","","","","","","","",""
"","","","","","image-keyboard-response","204","776754","0.0-179.0","5f1091aa4bd173363a9700ec","665500ab8938657b03fbdba8","665792e811fabbb508be5f1a","2028","stimuli/1100011.jpg","0","","prediction_trial","1","","false","","1","false","false","true","true","false","false","[1]","100","011","0","","","","","","",""
"","","","","","image-keyboard-response","205","777266","0.0-180.0","5f1091aa4bd173363a9700ec","665500ab8938657b03fbdba8","665792e811fabbb508be5f1a","511","stimuli/11000111.jpg"," ","","feedback_trial","1","","","","","","","","","","","","","","","","","","","","",""
"","","","","","image-keyboard-response","206","778892","0.0-181.0","5f1091aa4bd173363a9700ec","665500ab8938657b03fbdba8","665792e811fabbb508be5f1a","1624","stimuli/1101010.jpg","0","","prediction_trial","1","","false","","1","false","true","true","true","false","true","[1]","101","010","0","","","","","","",""
"","","","","","image-keyboard-response","207","779515","0.0-182.0","5f1091aa4bd173363a9700ec","665500ab8938657b03fbdba8","665792e811fabbb508be5f1a","622","stimuli/11010101.jpg"," ","","feedback_trial","1","","","","","","","","","","","","","","","","","","","","",""
"","","","","","image-keyboard-response","208","780732","0.0-183.0","5f1091aa4bd173363a9700ec","665500ab8938657b03fbdba8","665792e811fabbb508be5f1a","1215","stimuli/1110110.jpg","0","","prediction_trial","0","","true","","1","false","false","false","false","false","false","[1,0]","110","110","1","","","","","","",""
"","","","","","image-keyboard-response","209","781219","0.0-184.0","5f1091aa4bd173363a9700ec","665500ab8938657b03fbdba8","665792e811fabbb508be5f1a","486","stimuli/11101100.jpg"," ","","feedback_trial","1","","","","","","","","","","","","","","","","","","","","",""
"","","","","","image-keyboard-response","210","782010","0.0-185.0","5f1091aa4bd173363a9700ec","665500ab8938657b03fbdba8","665792e811fabbb508be5f1a","789","stimuli/0110000.jpg","0","","prediction_trial","1","","false","","0","true","true","false","false","false","false","[1,0]","110","000","0","","","","","","",""
"","","","","","image-keyboard-response","211","782402","0.0-186.0","5f1091aa4bd173363a9700ec","665500ab8938657b03fbdba8","665792e811fabbb508be5f1a","391","stimuli/01100001.jpg"," ","","feedback_trial","1","","","","","","","","","","","","","","","","","","","","",""
"","","","","","image-keyboard-response","212","783732","0.0-187.0","5f1091aa4bd173363a9700ec","665500ab8938657b03fbdba8","665792e811fabbb508be5f1a","1328","stimuli/2110011.jpg","1","","prediction_trial","2","","false","","2","false","false","true","true","false","false","[2]","110","011","0","","","","","","",""
"","","","","","image-keyboard-response","213","784228","0.0-188.0","5f1091aa4bd173363a9700ec","665500ab8938657b03fbdba8","665792e811fabbb508be5f1a","494","stimuli/21100112.jpg"," ","","feedback_trial","2","","","","","","","","","","","","","","","","","","","","",""
"","","","","","image-keyboard-response","214","784970","0.0-189.0","5f1091aa4bd173363a9700ec","665500ab8938657b03fbdba8","665792e811fabbb508be5f1a","741","stimuli/0111010.jpg","0","","prediction_trial","2","","false","","0","true","true","false","false","false","false","[2,1,0]","111","010","0","","","","","","",""
"","","","","","image-keyboard-response","215","785435","0.0-190.0","5f1091aa4bd173363a9700ec","665500ab8938657b03fbdba8","665792e811fabbb508be5f1a","463","stimuli/01110102.jpg"," ","","feedback_trial","2","","","","","","","","","","","","","","","","","","","","",""
"","","","","","image-keyboard-response","216","786443","0.0-191.0","5f1091aa4bd173363a9700ec","665500ab8938657b03fbdba8","665792e811fabbb508be5f1a","1007","stimuli/1010001.jpg","0","","prediction_trial","1","","false","","1","true","true","false","true","false","true","[1]","010","001","0","","","","","","",""
"","","","","","image-keyboard-response","217","787217","0.0-192.0","5f1091aa4bd173363a9700ec","665500ab8938657b03fbdba8","665792e811fabbb508be5f1a","772","stimuli/10100011.jpg"," ","","feedback_trial","1","","","","","","","","","","","","","","","","","","","","",""
"","","","","","image-keyboard-response","218","787963","0.0-193.0","5f1091aa4bd173363a9700ec","665500ab8938657b03fbdba8","665792e811fabbb508be5f1a","746","stimuli/0100001.jpg","0","","prediction_trial","0","","true","","0","true","true","false","true","false","true","[0]","100","001","1","","","","","","",""
"","","","","","image-keyboard-response","219","788443","0.0-194.0","5f1091aa4bd173363a9700ec","665500ab8938657b03fbdba8","665792e811fabbb508be5f1a","477","stimuli/01000010.jpg"," ","","feedback_trial","0","","","","","","","","","","","","","","","","","","","","",""
"","","","","","image-keyboard-response","220","789163","0.0-195.0","5f1091aa4bd173363a9700ec","665500ab8938657b03fbdba8","665792e811fabbb508be5f1a","718","stimuli/1010111.jpg","1","","prediction_trial","1","","true","","1","false","false","false","true","false","false","[1]","010","111","1","","","","","","",""
"","","","","","image-keyboard-response","221","789554","0.0-196.0","5f1091aa4bd173363a9700ec","665500ab8938657b03fbdba8","665792e811fabbb508be5f1a","390","stimuli/10101111.jpg"," ","","feedback_trial","1","","","","","","","","","","","","","","","","","","","","",""
"","","","","","image-keyboard-response","222","790555","0.0-197.0","5f1091aa4bd173363a9700ec","665500ab8938657b03fbdba8","665792e811fabbb508be5f1a","1000","stimuli/2100011.jpg","0","","prediction_trial","2","","false","","2","false","false","true","true","false","false","[2]","100","011","0","","","","","","",""
"","","","","","image-keyboard-response","223","791049","0.0-198.0","5f1091aa4bd173363a9700ec","665500ab8938657b03fbdba8","665792e811fabbb508be5f1a","492","stimuli/21000112.jpg"," ","","feedback_trial","2","","","","","","","","","","","","","","","","","","","","",""
"","","","","","image-keyboard-response","224","792227","0.0-199.0","5f1091aa4bd173363a9700ec","665500ab8938657b03fbdba8","665792e811fabbb508be5f1a","1176","stimuli/1000110.jpg","0","","prediction_trial","1","","false","","1","false","false","true","true","false","false","[1]","000","110","0","","","","","","",""
"","","","","","image-keyboard-response","225","792778","0.0-200.0","5f1091aa4bd173363a9700ec","665500ab8938657b03fbdba8","665792e811fabbb508be5f1a","550","stimuli/10001101.jpg"," ","","feedback_trial","1","","","","","","","","","","","","","","","","","","","","",""
"","","","","","image-keyboard-response","226","793666","0.0-201.0","5f1091aa4bd173363a9700ec","665500ab8938657b03fbdba8","665792e811fabbb508be5f1a","886","stimuli/2011110.jpg","2","","prediction_trial","2","","true","","2","true","true","false","false","false","false","[1,2]","011","110","1","","","","","","",""
"","","","","","image-keyboard-response","227","794130","0.0-202.0","5f1091aa4bd173363a9700ec","665500ab8938657b03fbdba8","665792e811fabbb508be5f1a","462","stimuli/20111102.jpg"," ","","feedback_trial","1","","","","","","","","","","","","","","","","","","","","",""
"","","","","","image-keyboard-response","228","794890","0.0-203.0","5f1091aa4bd173363a9700ec","665500ab8938657b03fbdba8","665792e811fabbb508be5f1a","758","stimuli/0110110.jpg","0","","prediction_trial","0","","true","","0","false","false","false","false","false","false","[0,1]","110","110","1","","","","","","",""
"","","","","","image-keyboard-response","229","795378","0.0-204.0","5f1091aa4bd173363a9700ec","665500ab8938657b03fbdba8","665792e811fabbb508be5f1a","487","stimuli/01101100.jpg"," ","","feedback_trial","0","","","","","","","","","","","","","","","","","","","","",""
"","","","","","image-keyboard-response","230","796516","0.0-205.0","5f1091aa4bd173363a9700ec","665500ab8938657b03fbdba8","665792e811fabbb508be5f1a","1136","stimuli/0100110.jpg","0","","prediction_trial","0","","true","","0","false","false","false","true","false","false","[0]","100","110","1","","","","","","",""
"","","","","","image-keyboard-response","231","796963","0.0-206.0","5f1091aa4bd173363a9700ec","665500ab8938657b03fbdba8","665792e811fabbb508be5f1a","445","stimuli/01001100.jpg"," ","","feedback_trial","0","","","","","","","","","","","","","","","","","","","","",""
"","","","","","image-keyboard-response","232","797874","0.0-207.0","5f1091aa4bd173363a9700ec","665500ab8938657b03fbdba8","665792e811fabbb508be5f1a","910","stimuli/0110001.jpg","0","","prediction_trial","0","","true","","0","true","true","false","false","false","false","[1,0]","110","001","1","","","","","","",""
"","","","","","image-keyboard-response","233","798178","0.0-208.0","5f1091aa4bd173363a9700ec","665500ab8938657b03fbdba8","665792e811fabbb508be5f1a","304","stimuli/01100010.jpg"," ","","feedback_trial","1","","","","","","","","","","","","","","","","","","","","",""
"","","","","","image-keyboard-response","234","798912","0.0-209.0","5f1091aa4bd173363a9700ec","665500ab8938657b03fbdba8","665792e811fabbb508be5f1a","732","stimuli/0101001.jpg","0","","prediction_trial","0","","true","","0","true","true","false","false","false","false","[0,2]","101","001","1","","","","","","",""
"","","","","","image-keyboard-response","235","799064","0.0-210.0","5f1091aa4bd173363a9700ec","665500ab8938657b03fbdba8","665792e811fabbb508be5f1a","152","stimuli/01010010.jpg"," ","","feedback_trial","0","","","","","","","","","","","","","","","","","","","","",""
"","","","","","image-keyboard-response","236","799955","0.0-211.0","5f1091aa4bd173363a9700ec","665500ab8938657b03fbdba8","665792e811fabbb508be5f1a","890","stimuli/2100101.jpg","0","","prediction_trial","2","","false","","2","false","false","true","true","false","false","[2]","100","101","0","","","","","","",""
"","","","","","image-keyboard-response","237","800619","0.0-212.0","5f1091aa4bd173363a9700ec","665500ab8938657b03fbdba8","665792e811fabbb508be5f1a","662","stimuli/21001012.jpg"," ","","feedback_trial","2","","","","","","","","","","","","","","","","","","","","",""
"","","","","","image-keyboard-response","238","801379","0.0-213.0","5f1091aa4bd173363a9700ec","665500ab8938657b03fbdba8","665792e811fabbb508be5f1a","758","stimuli/1111000.jpg","1","","prediction_trial","0","","false","","1","true","true","false","false","false","false","[1,0,2]","111","000","0","","","","","","",""
"","","","","","image-keyboard-response","239","801574","0.0-214.0","5f1091aa4bd173363a9700ec","665500ab8938657b03fbdba8","665792e811fabbb508be5f1a","194","stimuli/11110000.jpg"," ","","feedback_trial","1","","","","","","","","","","","","","","","","","","","","",""
"","","","","","image-keyboard-response","240","802290","0.0-215.0","5f1091aa4bd173363a9700ec","665500ab8938657b03fbdba8","665792e811fabbb508be5f1a","714","stimuli/2111110.jpg","0","","prediction_trial","0","","true","","2","true","true","false","false","false","false","[1,0,2]","111","110","1","","","","","","",""
"","","","","","image-keyboard-response","241","804091","0.0-216.0","5f1091aa4bd173363a9700ec","665500ab8938657b03fbdba8","665792e811fabbb508be5f1a","1799","stimuli/21111100.jpg"," ","","feedback_trial","1","","","","","","","","","","","","","","","","","","","","",""
"","","","","","image-keyboard-response","242","805105","0.0-217.0","5f1091aa4bd173363a9700ec","665500ab8938657b03fbdba8","665792e811fabbb508be5f1a","1013","stimuli/0001001.jpg","0","","prediction_trial","0","","true","","0","true","true","true","true","true","true","[0]","001","001","1","","","","","","",""
"","","","","","image-keyboard-response","243","805788","0.0-218.0","5f1091aa4bd173363a9700ec","665500ab8938657b03fbdba8","665792e811fabbb508be5f1a","680","stimuli/00010010.jpg"," ","","feedback_trial","0","","","","","","","","","","","","","","","","","","","","",""
"","","","","","image-keyboard-response","244","806494","0.0-219.0","5f1091aa4bd173363a9700ec","665500ab8938657b03fbdba8","665792e811fabbb508be5f1a","704","stimuli/2000100.jpg","2","","prediction_trial","2","","true","","2","true","true","true","true","true","true","[2]","000","100","1","","","","","","",""
"","","","","","image-keyboard-response","245","807179","0.0-220.0","5f1091aa4bd173363a9700ec","665500ab8938657b03fbdba8","665792e811fabbb508be5f1a","683","stimuli/20001002.jpg"," ","","feedback_trial","2","","","","","","","","","","","","","","","","","","","","",""
"","","","","","image-keyboard-response","246","808469","0.0-221.0","5f1091aa4bd173363a9700ec","665500ab8938657b03fbdba8","665792e811fabbb508be5f1a","1288","stimuli/2110111.jpg","0","","prediction_trial","2","","false","","2","false","false","true","true","false","false","[2]","110","111","0","","","","","","",""
"","","","","","image-keyboard-response","247","809652","0.0-222.0","5f1091aa4bd173363a9700ec","665500ab8938657b03fbdba8","665792e811fabbb508be5f1a","1182","stimuli/21101112.jpg"," ","","feedback_trial","2","","","","","","","","","","","","","","","","","","","","",""
"","","","","","image-keyboard-response","248","810344","0.0-223.0","5f1091aa4bd173363a9700ec","665500ab8938657b03fbdba8","665792e811fabbb508be5f1a","691","stimuli/1000100.jpg","1","","prediction_trial","1","","true","","1","true","true","true","true","true","true","[1]","000","100","1","","","","","","",""
"","","","","","image-keyboard-response","249","810554","0.0-224.0","5f1091aa4bd173363a9700ec","665500ab8938657b03fbdba8","665792e811fabbb508be5f1a","209","stimuli/10001001.jpg"," ","","feedback_trial","1","","","","","","","","","","","","","","","","","","","","",""
"","","","","","image-keyboard-response","250","811355","0.0-225.0","5f1091aa4bd173363a9700ec","665500ab8938657b03fbdba8","665792e811fabbb508be5f1a","798","stimuli/2010011.jpg","1","","prediction_trial","2","","false","","2","false","false","true","true","false","false","[2]","010","011","0","","","","","","",""
"","","","","","image-keyboard-response","251","811628","0.0-226.0","5f1091aa4bd173363a9700ec","665500ab8938657b03fbdba8","665792e811fabbb508be5f1a","271","stimuli/20100112.jpg"," ","","feedback_trial","2","","","","","","","","","","","","","","","","","","","","",""
"","","","","","image-keyboard-response","252","812586","0.0-227.0","5f1091aa4bd173363a9700ec","665500ab8938657b03fbdba8","665792e811fabbb508be5f1a","957","stimuli/2001111.jpg","2","","prediction_trial","2","","true","","2","false","false","false","true","false","false","[2]","001","111","1","","","","","","",""
"","","","","","image-keyboard-response","253","812945","0.0-228.0","5f1091aa4bd173363a9700ec","665500ab8938657b03fbdba8","665792e811fabbb508be5f1a","358","stimuli/20011112.jpg"," ","","feedback_trial","2","","","","","","","","","","","","","","","","","","","","",""
"","","","","","image-keyboard-response","254","813737","0.0-229.0","5f1091aa4bd173363a9700ec","665500ab8938657b03fbdba8","665792e811fabbb508be5f1a","790","stimuli/1101011.jpg","2","","prediction_trial","1","","false","","1","false","false","true","true","false","false","[1]","101","011","0","","","","","","",""
"","","","","","image-keyboard-response","255","814089","0.0-230.0","5f1091aa4bd173363a9700ec","665500ab8938657b03fbdba8","665792e811fabbb508be5f1a","351","stimuli/11010111.jpg"," ","","feedback_trial","1","","","","","","","","","","","","","","","","","","","","",""
"","","","","","image-keyboard-response","256","814929","0.0-231.0","5f1091aa4bd173363a9700ec","665500ab8938657b03fbdba8","665792e811fabbb508be5f1a","838","stimuli/0110011.jpg","0","","prediction_trial","1","","false","","0","true","true","false","false","false","false","[0,1]","110","011","0","","","","","","",""
"","","","","","image-keyboard-response","257","815315","0.0-232.0","5f1091aa4bd173363a9700ec","665500ab8938657b03fbdba8","665792e811fabbb508be5f1a","385","stimuli/01100111.jpg"," ","","feedback_trial","0","","","","","","","","","","","","","","","","","","","","",""
"","","","","","image-keyboard-response","258","816010","0.0-233.0","5f1091aa4bd173363a9700ec","665500ab8938657b03fbdba8","665792e811fabbb508be5f1a","693","stimuli/1000111.jpg","2","","prediction_trial","1","","false","","1","false","false","true","true","false","false","[1]","000","111","0","","","","","","",""
"","","","","","image-keyboard-response","259","816547","0.0-234.0","5f1091aa4bd173363a9700ec","665500ab8938657b03fbdba8","665792e811fabbb508be5f1a","536","stimuli/10001111.jpg"," ","","feedback_trial","1","","","","","","","","","","","","","","","","","","","","",""
"","","","","","image-keyboard-response","260","817022","0.0-235.0","5f1091aa4bd173363a9700ec","665500ab8938657b03fbdba8","665792e811fabbb508be5f1a","474","stimuli/1111111.jpg","1","","prediction_trial","2","","false","","1","false","false","false","false","false","false","[2,0,1]","111","111","0","","","","","","",""
"","","","","","image-keyboard-response","261","817506","0.0-236.0","5f1091aa4bd173363a9700ec","665500ab8938657b03fbdba8","665792e811fabbb508be5f1a","482","stimuli/11111112.jpg"," ","","feedback_trial","2","","","","","","","","","","","","","","","","","","","","",""
"","","","","","image-keyboard-response","262","817938","0.0-237.0","5f1091aa4bd173363a9700ec","665500ab8938657b03fbdba8","665792e811fabbb508be5f1a","431","stimuli/1001000.jpg","0","","prediction_trial","1","","false","","1","true","true","true","true","true","true","[1]","001","000","0","","","","","","",""
"","","","","","image-keyboard-response","263","819650","0.0-238.0","5f1091aa4bd173363a9700ec","665500ab8938657b03fbdba8","665792e811fabbb508be5f1a","1711","stimuli/10010001.jpg"," ","","feedback_trial","1","","","","","","","","","","","","","","","","","","","","",""
"","","","","","image-keyboard-response","264","820627","0.0-239.0","5f1091aa4bd173363a9700ec","665500ab8938657b03fbdba8","665792e811fabbb508be5f1a","975","stimuli/2111011.jpg","1","","prediction_trial","2","","false","","2","false","false","false","false","false","false","[1,2,0]","111","011","0","","","","","","",""
"","","","","","image-keyboard-response","265","821042","0.0-240.0","5f1091aa4bd173363a9700ec","665500ab8938657b03fbdba8","665792e811fabbb508be5f1a","413","stimuli/21110112.jpg"," ","","feedback_trial","1","","","","","","","","","","","","","","","","","","","","",""
"","","","","","image-keyboard-response","266","821803","0.0-241.0","5f1091aa4bd173363a9700ec","665500ab8938657b03fbdba8","665792e811fabbb508be5f1a","760","stimuli/1000001.jpg","1","","prediction_trial","1","","true","","1","true","true","true","true","true","true","[1]","000","001","1","","","","","","",""
"","","","","","image-keyboard-response","267","822058","0.0-242.0","5f1091aa4bd173363a9700ec","665500ab8938657b03fbdba8","665792e811fabbb508be5f1a","252","stimuli/10000011.jpg"," ","","feedback_trial","1","","","","","","","","","","","","","","","","","","","","",""
"","","","","","image-keyboard-response","268","822819","0.0-243.0","5f1091aa4bd173363a9700ec","665500ab8938657b03fbdba8","665792e811fabbb508be5f1a","759","stimuli/0001010.jpg","0","","prediction_trial","0","","true","","0","true","true","true","true","true","true","[0]","001","010","1","","","","","","",""
"","","","","","image-keyboard-response","269","823073","0.0-244.0","5f1091aa4bd173363a9700ec","665500ab8938657b03fbdba8","665792e811fabbb508be5f1a","252","stimuli/00010100.jpg"," ","","feedback_trial","0","","","","","","","","","","","","","","","","","","","","",""
"","","","","","image-keyboard-response","270","824944","0.0-245.0","5f1091aa4bd173363a9700ec","665500ab8938657b03fbdba8","665792e811fabbb508be5f1a","1869","stimuli/1001010.jpg","2","","prediction_trial","1","","false","","1","false","true","true","true","false","true","[1]","001","010","0","","","","","","",""
"","","","","","image-keyboard-response","271","825403","0.0-246.0","5f1091aa4bd173363a9700ec","665500ab8938657b03fbdba8","665792e811fabbb508be5f1a","458","stimuli/10010101.jpg"," ","","feedback_trial","1","","","","","","","","","","","","","","","","","","","","",""
"","","","","","image-keyboard-response","272","825978","0.0-247.0","5f1091aa4bd173363a9700ec","665500ab8938657b03fbdba8","665792e811fabbb508be5f1a","574","stimuli/1101000.jpg","1","","prediction_trial","1","","true","","1","true","true","true","true","true","true","[1]","101","000","1","","","","","","",""
"","","","","","image-keyboard-response","273","826242","0.0-248.0","5f1091aa4bd173363a9700ec","665500ab8938657b03fbdba8","665792e811fabbb508be5f1a","262","stimuli/11010001.jpg"," ","","feedback_trial","1","","","","","","","","","","","","","","","","","","","","",""
"","","","","","image-keyboard-response","274","827321","0.0-249.0","5f1091aa4bd173363a9700ec","665500ab8938657b03fbdba8","665792e811fabbb508be5f1a","1078","stimuli/2110001.jpg","2","","prediction_trial","2","","true","","2","false","true","true","true","false","true","[2]","110","001","1","","","","","","",""
"","","","","","image-keyboard-response","275","827922","0.0-250.0","5f1091aa4bd173363a9700ec","665500ab8938657b03fbdba8","665792e811fabbb508be5f1a","599","stimuli/21100012.jpg"," ","","feedback_trial","2","","","","","","","","","","","","","","","","","","","","",""
"","","","","","image-keyboard-response","276","828815","0.0-251.0","5f1091aa4bd173363a9700ec","665500ab8938657b03fbdba8","665792e811fabbb508be5f1a","891","stimuli/2011001.jpg","1","","prediction_trial","2","","false","","2","false","true","false","false","false","false","[1,2]","011","001","0","","","","","","",""
"","","","","","image-keyboard-response","277","829243","0.0-252.0","5f1091aa4bd173363a9700ec","665500ab8938657b03fbdba8","665792e811fabbb508be5f1a","427","stimuli/20110012.jpg"," ","","feedback_trial","1","","","","","","","","","","","","","","","","","","","","",""
"","","","","","image-keyboard-response","278","829971","0.0-253.0","5f1091aa4bd173363a9700ec","665500ab8938657b03fbdba8","665792e811fabbb508be5f1a","727","stimuli/0100000.jpg","0","","prediction_trial","0","","true","","0","true","true","false","true","false","true","[0]","100","000","1","","","","","","",""
"","","","","","image-keyboard-response","279","830391","0.0-254.0","5f1091aa4bd173363a9700ec","665500ab8938657b03fbdba8","665792e811fabbb508be5f1a","419","stimuli/01000000.jpg"," ","","feedback_trial","0","","","","","","","","","","","","","","","","","","","","",""
"","","","","","image-keyboard-response","280","831081","0.0-255.0","5f1091aa4bd173363a9700ec","665500ab8938657b03fbdba8","665792e811fabbb508be5f1a","689","stimuli/2101010.jpg","2","","prediction_trial","2","","true","","2","true","true","false","false","false","false","[2,0]","101","010","1","","","","","","",""
"","","","","","image-keyboard-response","281","831538","0.0-256.0","5f1091aa4bd173363a9700ec","665500ab8938657b03fbdba8","665792e811fabbb508be5f1a","454","stimuli/21010102.jpg"," ","","feedback_trial","2","","","","","","","","","","","","","","","","","","","","",""
"","","","","","image-keyboard-response","282","833576","0.0-257.0","5f1091aa4bd173363a9700ec","665500ab8938657b03fbdba8","665792e811fabbb508be5f1a","2036","stimuli/1000011.jpg","1","","prediction_trial","1","","true","","1","false","false","true","true","false","false","[1]","000","011","1","","","","","","",""
"","","","","","image-keyboard-response","283","834010","0.0-258.0","5f1091aa4bd173363a9700ec","665500ab8938657b03fbdba8","665792e811fabbb508be5f1a","433","stimuli/10000111.jpg"," ","","feedback_trial","1","","","","","","","","","","","","","","","","","","","","",""
"","","","","","image-keyboard-response","284","834683","0.0-259.0","5f1091aa4bd173363a9700ec","665500ab8938657b03fbdba8","665792e811fabbb508be5f1a","672","stimuli/1001101.jpg","1","","prediction_trial","1","","true","","1","true","true","true","true","true","true","[1]","001","101","1","","","","","","",""
"","","","","","image-keyboard-response","285","835033","0.0-260.0","5f1091aa4bd173363a9700ec","665500ab8938657b03fbdba8","665792e811fabbb508be5f1a","348","stimuli/10011011.jpg"," ","","feedback_trial","1","","","","","","","","","","","","","","","","","","","","",""
"","","","","","image-keyboard-response","286","835729","0.0-261.0","5f1091aa4bd173363a9700ec","665500ab8938657b03fbdba8","665792e811fabbb508be5f1a","694","stimuli/0011010.jpg","0","","prediction_trial","0","","true","","0","true","true","true","true","true","true","[0]","011","010","1","","","","","","",""
"","","","","","image-keyboard-response","287","835995","0.0-262.0","5f1091aa4bd173363a9700ec","665500ab8938657b03fbdba8","665792e811fabbb508be5f1a","264","stimuli/00110100.jpg"," ","","feedback_trial","0","","","","","","","","","","","","","","","","","","","","",""
"","","","","","image-keyboard-response","288","836553","0.0-263.0","5f1091aa4bd173363a9700ec","665500ab8938657b03fbdba8","665792e811fabbb508be5f1a","556","stimuli/1101001.jpg","1","","prediction_trial","1","","true","","1","true","true","true","true","true","true","[1]","101","001","1","","","","","","",""
"","","","","","image-keyboard-response","289","836809","0.0-264.0","5f1091aa4bd173363a9700ec","665500ab8938657b03fbdba8","665792e811fabbb508be5f1a","254","stimuli/11010011.jpg"," ","","feedback_trial","1","","","","","","","","","","","","","","","","","","","","",""
"","","","","","image-keyboard-response","290","838578","0.0-265.0","5f1091aa4bd173363a9700ec","665500ab8938657b03fbdba8","665792e811fabbb508be5f1a","1766","stimuli/0001100.jpg","2","","prediction_trial","0","","false","","0","false","true","true","true","false","true","[0]","001","100","0","","","","","","",""
"","","","","","image-keyboard-response","291","839113","0.0-266.0","5f1091aa4bd173363a9700ec","665500ab8938657b03fbdba8","665792e811fabbb508be5f1a","533","stimuli/00011000.jpg"," ","","feedback_trial","0","","","","","","","","","","","","","","","","","","","","",""
"","","","","","image-keyboard-response","292","839769","0.0-267.0","5f1091aa4bd173363a9700ec","665500ab8938657b03fbdba8","665792e811fabbb508be5f1a","654","stimuli/2110110.jpg","2","","prediction_trial","2","","true","","2","true","true","true","true","true","true","[2]","110","110","1","","","","","","",""
"","","","","","image-keyboard-response","293","840042","0.0-268.0","5f1091aa4bd173363a9700ec","665500ab8938657b03fbdba8","665792e811fabbb508be5f1a","272","stimuli/21101102.jpg"," ","","feedback_trial","2","","","","","","","","","","","","","","","","","","","","",""
"","","","","","image-keyboard-response","294","841079","0.0-269.0","5f1091aa4bd173363a9700ec","665500ab8938657b03fbdba8","665792e811fabbb508be5f1a","1035","stimuli/0111100.jpg","1","","prediction_trial","2","","false","","0","false","true","false","false","false","false","[0,1,2]","111","100","0","","","","","","",""
"","","","","","image-keyboard-response","295","841633","0.0-270.0","5f1091aa4bd173363a9700ec","665500ab8938657b03fbdba8","665792e811fabbb508be5f1a","553","stimuli/01111002.jpg"," ","","feedback_trial","0","","","","","","","","","","","","","","","","","","","","",""
"","","","","","image-keyboard-response","296","842481","0.0-271.0","5f1091aa4bd173363a9700ec","665500ab8938657b03fbdba8","665792e811fabbb508be5f1a","847","stimuli/1100111.jpg","0","","prediction_trial","1","","false","","1","false","false","true","true","false","false","[1]","100","111","0","","","","","","",""
"","","","","","image-keyboard-response","297","843034","0.0-272.0","5f1091aa4bd173363a9700ec","665500ab8938657b03fbdba8","665792e811fabbb508be5f1a","551","stimuli/11001111.jpg"," ","","feedback_trial","1","","","","","","","","","","","","","","","","","","","","",""
"","","","","","image-keyboard-response","298","844529","0.0-273.0","5f1091aa4bd173363a9700ec","665500ab8938657b03fbdba8","665792e811fabbb508be5f1a","1493","stimuli/2010001.jpg","1","","prediction_trial","2","","false","","2","false","true","true","true","false","true","[2]","010","001","0","","","","","","",""
"","","","","","image-keyboard-response","299","845009","0.0-274.0","5f1091aa4bd173363a9700ec","665500ab8938657b03fbdba8","665792e811fabbb508be5f1a","479","stimuli/20100012.jpg"," ","","feedback_trial","2","","","","","","","","","","","","","","","","","","","","",""
"","","","","","image-keyboard-response","300","845843","0.0-275.0","5f1091aa4bd173363a9700ec","665500ab8938657b03fbdba8","665792e811fabbb508be5f1a","833","stimuli/0000100.jpg","0","","prediction_trial","0","","true","","0","false","true","true","true","false","true","[0]","000","100","1","","","","","","",""
"","","","","","image-keyboard-response","301","846481","0.0-276.0","5f1091aa4bd173363a9700ec","665500ab8938657b03fbdba8","665792e811fabbb508be5f1a","637","stimuli/00001000.jpg"," ","","feedback_trial","0","","","","","","","","","","","","","","","","","","","","",""
"","","","","","image-keyboard-response","302","847572","0.0-277.0","5f1091aa4bd173363a9700ec","665500ab8938657b03fbdba8","665792e811fabbb508be5f1a","1089","stimuli/2000010.jpg","2","","prediction_trial","2","","true","","2","true","true","true","true","true","true","[2]","000","010","1","","","","","","",""
"","","","","","image-keyboard-response","303","848098","0.0-278.0","5f1091aa4bd173363a9700ec","665500ab8938657b03fbdba8","665792e811fabbb508be5f1a","524","stimuli/20000102.jpg"," ","","feedback_trial","2","","","","","","","","","","","","","","","","","","","","",""
"","","","","","image-keyboard-response","304","849611","0.0-279.0","5f1091aa4bd173363a9700ec","665500ab8938657b03fbdba8","665792e811fabbb508be5f1a","1512","stimuli/2101101.jpg","0","","prediction_trial","2","","false","","2","false","false","false","false","false","false","[2,0]","101","101","0","","","","","","",""
"","","","","","image-keyboard-response","305","850208","0.0-280.0","5f1091aa4bd173363a9700ec","665500ab8938657b03fbdba8","665792e811fabbb508be5f1a","595","stimuli/21011012.jpg"," ","","feedback_trial","2","","","","","","","","","","","","","","","","","","","","",""
"","","","","","image-keyboard-response","306","850770","0.0-281.0","5f1091aa4bd173363a9700ec","665500ab8938657b03fbdba8","665792e811fabbb508be5f1a","561","stimuli/0000001.jpg","0","","prediction_trial","0","","true","","0","true","true","true","true","true","true","[0]","000","001","1","","","","","","",""
"","","","","","image-keyboard-response","307","850986","0.0-282.0","5f1091aa4bd173363a9700ec","665500ab8938657b03fbdba8","665792e811fabbb508be5f1a","215","stimuli/00000010.jpg"," ","","feedback_trial","0","","","","","","","","","","","","","","","","","","","","",""
"","","","","","image-keyboard-response","308","851987","0.0-283.0","5f1091aa4bd173363a9700ec","665500ab8938657b03fbdba8","665792e811fabbb508be5f1a","998","stimuli/1011001.jpg","1","","prediction_trial","1","","true","","1","true","true","false","false","false","false","[2,1]","011","001","1","","","","","","",""
"","","","","","image-keyboard-response","309","852515","0.0-284.0","5f1091aa4bd173363a9700ec","665500ab8938657b03fbdba8","665792e811fabbb508be5f1a","527","stimuli/10110011.jpg"," ","","feedback_trial","2","","","","","","","","","","","","","","","","","","","","",""
"","","","","","image-keyboard-response","310","853498","0.0-285.0","5f1091aa4bd173363a9700ec","665500ab8938657b03fbdba8","665792e811fabbb508be5f1a","982","stimuli/1001111.jpg","2","","prediction_trial","1","","false","","1","false","false","true","true","false","false","[1]","001","111","0","","","","","","",""
"","","","","","image-keyboard-response","311","854187","0.0-286.0","5f1091aa4bd173363a9700ec","665500ab8938657b03fbdba8","665792e811fabbb508be5f1a","687","stimuli/10011111.jpg"," ","","feedback_trial","1","","","","","","","","","","","","","","","","","","","","",""
"","","","","","image-keyboard-response","312","854795","0.0-287.0","5f1091aa4bd173363a9700ec","665500ab8938657b03fbdba8","665792e811fabbb508be5f1a","606","stimuli/0110100.jpg","0","","prediction_trial","1","","false","","0","false","true","false","false","false","false","[0,1]","110","100","0","","","","","","",""
"","","","","","image-keyboard-response","313","855298","0.0-288.0","5f1091aa4bd173363a9700ec","665500ab8938657b03fbdba8","665792e811fabbb508be5f1a","502","stimuli/01101001.jpg"," ","","feedback_trial","0","","","","","","","","","","","","","","","","","","","","",""
"","","","","","image-keyboard-response","314","856258","0.0-289.0","5f1091aa4bd173363a9700ec","665500ab8938657b03fbdba8","665792e811fabbb508be5f1a","958","stimuli/1101101.jpg","1","","prediction_trial","1","","true","","1","true","true","true","true","true","true","[1]","101","101","1","","","","","","",""
"","","","","","image-keyboard-response","315","856716","0.0-290.0","5f1091aa4bd173363a9700ec","665500ab8938657b03fbdba8","665792e811fabbb508be5f1a","456","stimuli/11011011.jpg"," ","","feedback_trial","1","","","","","","","","","","","","","","","","","","","","",""
"","","","","","image-keyboard-response","316","857778","0.0-291.0","5f1091aa4bd173363a9700ec","665500ab8938657b03fbdba8","665792e811fabbb508be5f1a","1061","stimuli/2111101.jpg","2","","prediction_trial","1","","false","","2","false","false","false","false","false","false","[0,1,2]","111","101","0","","","","","","",""
"","","","","","image-keyboard-response","317","858273","0.0-292.0","5f1091aa4bd173363a9700ec","665500ab8938657b03fbdba8","665792e811fabbb508be5f1a","493","stimuli/21111011.jpg"," ","","feedback_trial","0","","","","","","","","","","","","","","","","","","","","",""
"","","","","","survey-html-form","318","893364","0.0-293.0","5f1091aa4bd173363a9700ec","665500ab8938657b03fbdba8","665792e811fabbb508be5f1a","35086","","{""feedback"":""I selected the option that I personally would have chosen in Sam's position.\n"",""age"":""29"",""gender"":""Male"",""other_gender"":"""",""race"":""White"",""other_race"":"""",""ethnicity"":""Hispanic""}","","exit_survey","","","","","","","","","","","","","","","","I selected the option that I personally would have chosen in Sam's position.
","29","Hispanic","Male","White","0.5833333333333334","0.5833333333333334"
