"success","timeout","failed_images","failed_audio","failed_video","trial_type","trial_index","time_elapsed","internal_node_id","prolific_id","prolific_study_id","prolific_session_id","rt","stimulus","response","view_history","trial","character_choice","stimulus_dict","accuracy","correct_response","ball_pos","ego_ball_visible","ego_can_infer","alter_ball_visible","alter_can_infer","collective_ball_visible","collective_can_infer","search_locations","alter_occluders","ego_occluders","accuracy_bool","feedback","age","ethnicity","gender","race","overall_accuracy","bonus"
"true","false","[]","[]","[]","preload","0","1223","0.0-0.0","6594720fa43b97e09c261749","665500ab8938657b03fbdba8","6657926f7b985b0425e2afc0","","","","","","","","","","","","","","","","","","","","","","","","","","",""
"true","","","","","fullscreen","1","36178","0.0-1.0","6594720fa43b97e09c261749","665500ab8938657b03fbdba8","6657926f7b985b0425e2afc0","","","","","","","","","","","","","","","","","","","","","","","","","","",""
"","","","","","html-button-response","2","50867","0.0-2.0","6594720fa43b97e09c261749","665500ab8938657b03fbdba8","6657926f7b985b0425e2afc0","14687","<p><b>Consent Form</b></p> <div style=""text-align:left;background-color:lightgrey; padding:20px; max-width:900px;""><p>Please consider this information carefully before deciding whether to participate in this research.</p> <p>The purpose of this research is to examine which factors influence social judgment and decision-making. You will be asked to make judgements about individuals and actions in social scenarios. We are simply interested in your judgement. The study will take less than 1 hour to complete, and you will receive less than $20 on Prolific. Your compensation and time commitment are specified in the study description. There are no anticipated risks associated with participating in this study. The effects of participating should be comparable to those you would ordinarily experience from viewing a computer monitor and using a mouse or keyboard for a similar amount of time. At the end of the study, we will provide an explanation of the questions that motivate this line of research and will describe the potential implications. </p><p> Your participation in this study is completely voluntary and you may refuse to participate or you may choose to withdraw at any time without penalty or loss of benefits to you which are otherwise entitled. Your participation in this study will remain confidential. No personally identifiable information will be associated with your data. Also, all analyses of the data will be averaged across all the participants, so your individual responses will never be specifically analyzed. </p><p> If you have questions or concerns about your participation or payment, or want to request a summary of research findings, please contact Dr. Jonathan Phillips at Jonathan.S.Phillips@dartmouth.edu. </p><p> Please save a copy of this form for your records. </p><p><b>Agreement: </b>The nature and purpose of this research have been sufficiently explained and I agree to participate in this study. I understand that I am free to withdraw at any time without incurring any penalty. Please consent by clicking the button below to continue. Otherwise, please exit the study at any time. </p>","0","","","","","","","","","","","","","","","","","","","","","","","",""
"","","","","","instructions","3","134590","0.0-3.0-0.0","6594720fa43b97e09c261749","665500ab8938657b03fbdba8","6657926f7b985b0425e2afc0","83723","","","[{""page_index"":0,""viewing_time"":2609},{""page_index"":1,""viewing_time"":4493},{""page_index"":2,""viewing_time"":2176},{""page_index"":3,""viewing_time"":4950},{""page_index"":4,""viewing_time"":2477},{""page_index"":5,""viewing_time"":3607},{""page_index"":6,""viewing_time"":3901},{""page_index"":7,""viewing_time"":5020},{""page_index"":8,""viewing_time"":4491},{""page_index"":9,""viewing_time"":1771},{""page_index"":10,""viewing_time"":10513},{""page_index"":11,""viewing_time"":4921},{""page_index"":10,""viewing_time"":10120},{""page_index"":11,""viewing_time"":9212},{""page_index"":12,""viewing_time"":11151},{""page_index"":13,""viewing_time"":2311}]","intro","","","","","","","","","","","","","","","","","","","","","",""
"","","","","","image-keyboard-response","4","139021","0.0-3.0-1.0","6594720fa43b97e09c261749","665500ab8938657b03fbdba8","6657926f7b985b0425e2afc0","4427","stimuli/1001101.jpg","2","","prediction_practice","1","{""filepath"":""stimuli/1001101.jpg"",""ball_pos"":1,""ego_ball_visible"":true,""ego_can_infer"":true,""alter_ball_visible"":true,""alter_can_infer"":true,""collective_ball_visible"":true,""collective_can_infer"":true,""search_locations"":[1],""alter_occluders"":""001"",""ego_occluders"":""101""}","false","","","","","","","","","","","","","","","","","","",""
"","","","","","image-keyboard-response","5","143272","0.0-3.0-2.0","6594720fa43b97e09c261749","665500ab8938657b03fbdba8","6657926f7b985b0425e2afc0","4249","stimuli/10011011.jpg"," ","","practrice_feedback","1","","","","","","","","","","","","","","","","","","","","",""
"","","","","","image-keyboard-response","6","144907","0.0-3.0-3.0","6594720fa43b97e09c261749","665500ab8938657b03fbdba8","6657926f7b985b0425e2afc0","1634","stimuli/1101100.jpg","1","","prediction_practice","1","{""filepath"":""stimuli/1101100.jpg"",""ball_pos"":1,""ego_ball_visible"":true,""ego_can_infer"":true,""alter_ball_visible"":true,""alter_can_infer"":true,""collective_ball_visible"":true,""collective_can_infer"":true,""search_locations"":[1],""alter_occluders"":""101"",""ego_occluders"":""100""}","true","","","","","","","","","","","","","","","","","","",""
"","","","","","image-keyboard-response","7","146603","0.0-3.0-4.0","6594720fa43b97e09c261749","665500ab8938657b03fbdba8","6657926f7b985b0425e2afc0","1694","stimuli/11011001.jpg"," ","","practrice_feedback","1","","","","","","","","","","","","","","","","","","","","",""
"","","","","","image-keyboard-response","8","149373","0.0-3.0-5.0","6594720fa43b97e09c261749","665500ab8938657b03fbdba8","6657926f7b985b0425e2afc0","2769","stimuli/2101001.jpg","2","","prediction_practice","0","{""filepath"":""stimuli/2101001.jpg"",""ball_pos"":2,""ego_ball_visible"":false,""ego_can_infer"":true,""alter_ball_visible"":false,""alter_can_infer"":false,""collective_ball_visible"":false,""collective_can_infer"":false,""search_locations"":[2,0],""alter_occluders"":""101"",""ego_occluders"":""001""}","false","","","","","","","","","","","","","","","","","","",""
"","","","","","image-keyboard-response","9","151860","0.0-3.0-6.0","6594720fa43b97e09c261749","665500ab8938657b03fbdba8","6657926f7b985b0425e2afc0","2486","stimuli/21010010.jpg"," ","","practrice_feedback","2","","","","","","","","","","","","","","","","","","","","",""
"","","","","","image-keyboard-response","10","154278","0.0-3.0-7.0","6594720fa43b97e09c261749","665500ab8938657b03fbdba8","6657926f7b985b0425e2afc0","2417","stimuli/0011110.jpg","1","","prediction_practice","0","{""filepath"":""stimuli/0011110.jpg"",""ball_pos"":0,""ego_ball_visible"":false,""ego_can_infer"":false,""alter_ball_visible"":true,""alter_can_infer"":true,""collective_ball_visible"":false,""collective_can_infer"":false,""search_locations"":[0],""alter_occluders"":""011"",""ego_occluders"":""110""}","false","","","","","","","","","","","","","","","","","","",""
"","","","","","image-keyboard-response","11","155649","0.0-3.0-8.0","6594720fa43b97e09c261749","665500ab8938657b03fbdba8","6657926f7b985b0425e2afc0","1370","stimuli/00111100.jpg"," ","","practrice_feedback","0","","","","","","","","","","","","","","","","","","","","",""
"","","","","","image-keyboard-response","12","158416","0.0-3.0-9.0","6594720fa43b97e09c261749","665500ab8938657b03fbdba8","6657926f7b985b0425e2afc0","2766","stimuli/0000101.jpg","0","","prediction_practice","0","{""filepath"":""stimuli/0000101.jpg"",""ball_pos"":0,""ego_ball_visible"":false,""ego_can_infer"":false,""alter_ball_visible"":true,""alter_can_infer"":true,""collective_ball_visible"":false,""collective_can_infer"":false,""search_locations"":[0],""alter_occluders"":""000"",""ego_occluders"":""101""}","true","","","","","","","","","","","","","","","","","","",""
"","","","","","image-keyboard-response","13","159534","0.0-3.0-10.0","6594720fa43b97e09c261749","665500ab8938657b03fbdba8","6657926f7b985b0425e2afc0","1117","stimuli/00001010.jpg"," ","","practrice_feedback","0","","","","","","","","","","","","","","","","","","","","",""
"","","","","","image-keyboard-response","14","160681","0.0-3.0-11.0","6594720fa43b97e09c261749","665500ab8938657b03fbdba8","6657926f7b985b0425e2afc0","1146","stimuli/1110000.jpg","1","","prediction_practice","0","{""filepath"":""stimuli/1110000.jpg"",""ball_pos"":1,""ego_ball_visible"":true,""ego_can_infer"":true,""alter_ball_visible"":false,""alter_can_infer"":false,""collective_ball_visible"":false,""collective_can_infer"":false,""search_locations"":[1,0],""alter_occluders"":""110"",""ego_occluders"":""000""}","false","","","","","","","","","","","","","","","","","","",""
"","","","","","image-keyboard-response","15","162025","0.0-3.0-12.0","6594720fa43b97e09c261749","665500ab8938657b03fbdba8","6657926f7b985b0425e2afc0","1343","stimuli/11100000.jpg"," ","","practrice_feedback","1","","","","","","","","","","","","","","","","","","","","",""
"","","","","","image-keyboard-response","16","164233","0.0-3.0-13.0","6594720fa43b97e09c261749","665500ab8938657b03fbdba8","6657926f7b985b0425e2afc0","2207","stimuli/0111010.jpg","2","","prediction_practice","0","{""filepath"":""stimuli/0111010.jpg"",""ball_pos"":0,""ego_ball_visible"":true,""ego_can_infer"":true,""alter_ball_visible"":false,""alter_can_infer"":false,""collective_ball_visible"":false,""collective_can_infer"":false,""search_locations"":[1,2,0],""alter_occluders"":""111"",""ego_occluders"":""010""}","false","","","","","","","","","","","","","","","","","","",""
"","","","","","image-keyboard-response","17","165539","0.0-3.0-14.0","6594720fa43b97e09c261749","665500ab8938657b03fbdba8","6657926f7b985b0425e2afc0","1304","stimuli/01110100.jpg"," ","","practrice_feedback","1","","","","","","","","","","","","","","","","","","","","",""
"","","","","","image-keyboard-response","18","168814","0.0-3.0-15.0","6594720fa43b97e09c261749","665500ab8938657b03fbdba8","6657926f7b985b0425e2afc0","3274","stimuli/1011001.jpg","1","","prediction_practice","2","{""filepath"":""stimuli/1011001.jpg"",""ball_pos"":1,""ego_ball_visible"":true,""ego_can_infer"":true,""alter_ball_visible"":false,""alter_can_infer"":false,""collective_ball_visible"":false,""collective_can_infer"":false,""search_locations"":[2,1],""alter_occluders"":""011"",""ego_occluders"":""001""}","false","","","","","","","","","","","","","","","","","","",""
"","","","","","image-keyboard-response","19","170013","0.0-3.0-16.0","6594720fa43b97e09c261749","665500ab8938657b03fbdba8","6657926f7b985b0425e2afc0","1198","stimuli/10110012.jpg"," ","","practrice_feedback","2","","","","","","","","","","","","","","","","","","","","",""
"","","","","","image-keyboard-response","20","172107","0.0-3.0-17.0","6594720fa43b97e09c261749","665500ab8938657b03fbdba8","6657926f7b985b0425e2afc0","2093","stimuli/2100010.jpg","2","","prediction_practice","2","{""filepath"":""stimuli/2100010.jpg"",""ball_pos"":2,""ego_ball_visible"":true,""ego_can_infer"":true,""alter_ball_visible"":true,""alter_can_infer"":true,""collective_ball_visible"":true,""collective_can_infer"":true,""search_locations"":[2],""alter_occluders"":""100"",""ego_occluders"":""010""}","true","","","","","","","","","","","","","","","","","","",""
"","","","","","image-keyboard-response","21","173719","0.0-3.0-18.0","6594720fa43b97e09c261749","665500ab8938657b03fbdba8","6657926f7b985b0425e2afc0","1611","stimuli/21000102.jpg"," ","","practrice_feedback","2","","","","","","","","","","","","","","","","","","","","",""
"","","","","","image-keyboard-response","22","175686","0.0-3.0-19.0","6594720fa43b97e09c261749","665500ab8938657b03fbdba8","6657926f7b985b0425e2afc0","1967","stimuli/0111100.jpg","0","","prediction_practice","1","{""filepath"":""stimuli/0111100.jpg"",""ball_pos"":0,""ego_ball_visible"":false,""ego_can_infer"":true,""alter_ball_visible"":false,""alter_can_infer"":false,""collective_ball_visible"":false,""collective_can_infer"":false,""search_locations"":[1,0,2],""alter_occluders"":""111"",""ego_occluders"":""100""}","false","","","","","","","","","","","","","","","","","","",""
"","","","","","image-keyboard-response","23","176779","0.0-3.0-20.0","6594720fa43b97e09c261749","665500ab8938657b03fbdba8","6657926f7b985b0425e2afc0","1092","stimuli/01111001.jpg"," ","","practrice_feedback","1","","","","","","","","","","","","","","","","","","","","",""
"","","","","","html-button-response","24","184876","0.0-3.0-21.0","6594720fa43b97e09c261749","665500ab8938657b03fbdba8","6657926f7b985b0425e2afc0","8096","Now that you've had some practice, you'll be tested with a couple of easy trials. If you correctly predict Sam's choice, you'll move on to complete the experiment!","0","","","","","","","","","","","","","","","","","","","","","","","",""
"","","","","","image-keyboard-response","25","186397","0.0-3.0-22.0-0.0","6594720fa43b97e09c261749","665500ab8938657b03fbdba8","6657926f7b985b0425e2afc0","1515","stimuli/0000011.jpg","arrowleft","","comprehension_quiz","","","true","arrowleft","","","","","","","","","","","","","","","","","",""
"","","","","","image-keyboard-response","26","187366","0.0-3.0-22.0-1.0","6594720fa43b97e09c261749","665500ab8938657b03fbdba8","6657926f7b985b0425e2afc0","967","stimuli/00000110.jpg"," ","","comprehension_quiz","","","true"," ","","","","","","","","","","","","","","","","","",""
"","","","","","image-keyboard-response","27","189430","0.0-3.0-22.0-2.0","6594720fa43b97e09c261749","665500ab8938657b03fbdba8","6657926f7b985b0425e2afc0","2063","stimuli/1010010.jpg","arrowdown","","comprehension_quiz","","","true","arrowdown","","","","","","","","","","","","","","","","","",""
"","","","","","image-keyboard-response","28","190159","0.0-3.0-22.0-3.0","6594720fa43b97e09c261749","665500ab8938657b03fbdba8","6657926f7b985b0425e2afc0","728","stimuli/10100101.jpg"," ","","comprehension_quiz","","","true"," ","","","","","","","","","","","","","","","","","",""
"","","","","","html-button-response","29","195162","0.0-4.0","6594720fa43b97e09c261749","665500ab8938657b03fbdba8","6657926f7b985b0425e2afc0","5001","The experiment will now begin.","0","","","","","","","","","","","","","","","","","","","","","","","",""
"","","","","","image-keyboard-response","30","198864","0.0-5.0","6594720fa43b97e09c261749","665500ab8938657b03fbdba8","6657926f7b985b0425e2afc0","3701","stimuli/2000011.jpg","1","","prediction_trial","2","","false","","2","false","false","true","true","false","false","[2]","000","011","0","","","","","","",""
"","","","","","image-keyboard-response","31","200284","0.0-6.0","6594720fa43b97e09c261749","665500ab8938657b03fbdba8","6657926f7b985b0425e2afc0","1419","stimuli/20000112.jpg"," ","","feedback_trial","2","","","","","","","","","","","","","","","","","","","","",""
"","","","","","image-keyboard-response","32","202209","0.0-7.0","6594720fa43b97e09c261749","665500ab8938657b03fbdba8","6657926f7b985b0425e2afc0","1924","stimuli/0001110.jpg","1","","prediction_trial","0","","false","","0","false","false","true","true","false","false","[0]","001","110","0","","","","","","",""
"","","","","","image-keyboard-response","33","203588","0.0-8.0","6594720fa43b97e09c261749","665500ab8938657b03fbdba8","6657926f7b985b0425e2afc0","1377","stimuli/00011100.jpg"," ","","feedback_trial","0","","","","","","","","","","","","","","","","","","","","",""
"","","","","","image-keyboard-response","34","204754","0.0-9.0","6594720fa43b97e09c261749","665500ab8938657b03fbdba8","6657926f7b985b0425e2afc0","1165","stimuli/0010010.jpg","0","","prediction_trial","0","","true","","0","true","true","true","true","true","true","[0]","010","010","1","","","","","","",""
"","","","","","image-keyboard-response","35","205657","0.0-10.0","6594720fa43b97e09c261749","665500ab8938657b03fbdba8","6657926f7b985b0425e2afc0","902","stimuli/00100100.jpg"," ","","feedback_trial","0","","","","","","","","","","","","","","","","","","","","",""
"","","","","","image-keyboard-response","36","207011","0.0-11.0","6594720fa43b97e09c261749","665500ab8938657b03fbdba8","6657926f7b985b0425e2afc0","1354","stimuli/1111110.jpg","1","","prediction_trial","1","","true","","1","false","false","false","false","false","false","[0,2,1]","111","110","1","","","","","","",""
"","","","","","image-keyboard-response","37","208287","0.0-12.0","6594720fa43b97e09c261749","665500ab8938657b03fbdba8","6657926f7b985b0425e2afc0","1275","stimuli/11111101.jpg"," ","","feedback_trial","0","","","","","","","","","","","","","","","","","","","","",""
"","","","","","image-keyboard-response","38","210646","0.0-13.0","6594720fa43b97e09c261749","665500ab8938657b03fbdba8","6657926f7b985b0425e2afc0","2359","stimuli/2100001.jpg","2","","prediction_trial","2","","true","","2","false","true","true","true","false","true","[2]","100","001","1","","","","","","",""
"","","","","","image-keyboard-response","39","211722","0.0-14.0","6594720fa43b97e09c261749","665500ab8938657b03fbdba8","6657926f7b985b0425e2afc0","1075","stimuli/21000012.jpg"," ","","feedback_trial","2","","","","","","","","","","","","","","","","","","","","",""
"","","","","","image-keyboard-response","40","212979","0.0-15.0","6594720fa43b97e09c261749","665500ab8938657b03fbdba8","6657926f7b985b0425e2afc0","1256","stimuli/2010110.jpg","2","","prediction_trial","2","","true","","2","true","true","true","true","true","true","[2]","010","110","1","","","","","","",""
"","","","","","image-keyboard-response","41","213816","0.0-16.0","6594720fa43b97e09c261749","665500ab8938657b03fbdba8","6657926f7b985b0425e2afc0","837","stimuli/20101102.jpg"," ","","feedback_trial","2","","","","","","","","","","","","","","","","","","","","",""
"","","","","","image-keyboard-response","42","214799","0.0-17.0","6594720fa43b97e09c261749","665500ab8938657b03fbdba8","6657926f7b985b0425e2afc0","982","stimuli/2100000.jpg","2","","prediction_trial","2","","true","","2","true","true","true","true","true","true","[2]","100","000","1","","","","","","",""
"","","","","","image-keyboard-response","43","215468","0.0-18.0","6594720fa43b97e09c261749","665500ab8938657b03fbdba8","6657926f7b985b0425e2afc0","668","stimuli/21000002.jpg"," ","","feedback_trial","2","","","","","","","","","","","","","","","","","","","","",""
"","","","","","image-keyboard-response","44","217330","0.0-19.0","6594720fa43b97e09c261749","665500ab8938657b03fbdba8","6657926f7b985b0425e2afc0","1858","stimuli/1010110.jpg","0","","prediction_trial","1","","false","","1","false","false","false","true","false","false","[1]","010","110","0","","","","","","",""
"","","","","","image-keyboard-response","45","218248","0.0-20.0","6594720fa43b97e09c261749","665500ab8938657b03fbdba8","6657926f7b985b0425e2afc0","917","stimuli/10101101.jpg"," ","","feedback_trial","1","","","","","","","","","","","","","","","","","","","","",""
"","","","","","image-keyboard-response","46","220839","0.0-21.0","6594720fa43b97e09c261749","665500ab8938657b03fbdba8","6657926f7b985b0425e2afc0","2590","stimuli/0100110.jpg","1","","prediction_trial","0","","false","","0","false","false","false","true","false","false","[0]","100","110","0","","","","","","",""
"","","","","","image-keyboard-response","47","221669","0.0-22.0","6594720fa43b97e09c261749","665500ab8938657b03fbdba8","6657926f7b985b0425e2afc0","829","stimuli/01001100.jpg"," ","","feedback_trial","0","","","","","","","","","","","","","","","","","","","","",""
"","","","","","image-keyboard-response","48","224622","0.0-23.0","6594720fa43b97e09c261749","665500ab8938657b03fbdba8","6657926f7b985b0425e2afc0","2953","stimuli/2110111.jpg","2","","prediction_trial","2","","true","","2","false","false","true","true","false","false","[2]","110","111","1","","","","","","",""
"","","","","","image-keyboard-response","49","225540","0.0-24.0","6594720fa43b97e09c261749","665500ab8938657b03fbdba8","6657926f7b985b0425e2afc0","917","stimuli/21101112.jpg"," ","","feedback_trial","2","","","","","","","","","","","","","","","","","","","","",""
"","","","","","image-keyboard-response","50","226792","0.0-25.0","6594720fa43b97e09c261749","665500ab8938657b03fbdba8","6657926f7b985b0425e2afc0","1251","stimuli/0111001.jpg","0","","prediction_trial","1","","false","","0","true","true","false","false","false","false","[1,0,2]","111","001","0","","","","","","",""
"","","","","","image-keyboard-response","51","227609","0.0-26.0","6594720fa43b97e09c261749","665500ab8938657b03fbdba8","6657926f7b985b0425e2afc0","816","stimuli/01110011.jpg"," ","","feedback_trial","1","","","","","","","","","","","","","","","","","","","","",""
"","","","","","image-keyboard-response","52","228864","0.0-27.0","6594720fa43b97e09c261749","665500ab8938657b03fbdba8","6657926f7b985b0425e2afc0","1254","stimuli/0001100.jpg","0","","prediction_trial","0","","true","","0","false","true","true","true","false","true","[0]","001","100","1","","","","","","",""
"","","","","","image-keyboard-response","53","229604","0.0-28.0","6594720fa43b97e09c261749","665500ab8938657b03fbdba8","6657926f7b985b0425e2afc0","739","stimuli/00011000.jpg"," ","","feedback_trial","0","","","","","","","","","","","","","","","","","","","","",""
"","","","","","image-keyboard-response","54","231206","0.0-29.0","6594720fa43b97e09c261749","665500ab8938657b03fbdba8","6657926f7b985b0425e2afc0","1602","stimuli/0100000.jpg","0","","prediction_trial","0","","true","","0","true","true","false","true","false","true","[0]","100","000","1","","","","","","",""
"","","","","","image-keyboard-response","55","231920","0.0-30.0","6594720fa43b97e09c261749","665500ab8938657b03fbdba8","6657926f7b985b0425e2afc0","713","stimuli/01000000.jpg"," ","","feedback_trial","0","","","","","","","","","","","","","","","","","","","","",""
"","","","","","image-keyboard-response","56","233085","0.0-31.0","6594720fa43b97e09c261749","665500ab8938657b03fbdba8","6657926f7b985b0425e2afc0","1164","stimuli/1001001.jpg","1","","prediction_trial","1","","true","","1","true","true","true","true","true","true","[1]","001","001","1","","","","","","",""
"","","","","","image-keyboard-response","57","233529","0.0-32.0","6594720fa43b97e09c261749","665500ab8938657b03fbdba8","6657926f7b985b0425e2afc0","443","stimuli/10010011.jpg"," ","","feedback_trial","1","","","","","","","","","","","","","","","","","","","","",""
"","","","","","image-keyboard-response","58","235095","0.0-33.0","6594720fa43b97e09c261749","665500ab8938657b03fbdba8","6657926f7b985b0425e2afc0","1565","stimuli/2100011.jpg","1","","prediction_trial","2","","false","","2","false","false","true","true","false","false","[2]","100","011","0","","","","","","",""
"","","","","","image-keyboard-response","59","235862","0.0-34.0","6594720fa43b97e09c261749","665500ab8938657b03fbdba8","6657926f7b985b0425e2afc0","767","stimuli/21000112.jpg"," ","","feedback_trial","2","","","","","","","","","","","","","","","","","","","","",""
"","","","","","image-keyboard-response","60","238151","0.0-35.0","6594720fa43b97e09c261749","665500ab8938657b03fbdba8","6657926f7b985b0425e2afc0","2288","stimuli/1110001.jpg","1","","prediction_trial","1","","true","","1","true","true","false","false","false","false","[1,0]","110","001","1","","","","","","",""
"","","","","","image-keyboard-response","61","238997","0.0-36.0","6594720fa43b97e09c261749","665500ab8938657b03fbdba8","6657926f7b985b0425e2afc0","846","stimuli/11100011.jpg"," ","","feedback_trial","1","","","","","","","","","","","","","","","","","","","","",""
"","","","","","image-keyboard-response","62","240185","0.0-37.0","6594720fa43b97e09c261749","665500ab8938657b03fbdba8","6657926f7b985b0425e2afc0","1184","stimuli/2111100.jpg","2","","prediction_trial","1","","false","","2","true","true","false","false","false","false","[0,1,2]","111","100","0","","","","","","",""
"","","","","","image-keyboard-response","63","240959","0.0-38.0","6594720fa43b97e09c261749","665500ab8938657b03fbdba8","6657926f7b985b0425e2afc0","774","stimuli/21111001.jpg"," ","","feedback_trial","0","","","","","","","","","","","","","","","","","","","","",""
"","","","","","image-keyboard-response","64","242449","0.0-39.0","6594720fa43b97e09c261749","665500ab8938657b03fbdba8","6657926f7b985b0425e2afc0","1488","stimuli/2111000.jpg","1","","prediction_trial","2","","false","","2","true","true","false","false","false","false","[2,0,1]","111","000","0","","","","","","",""
"","","","","","image-keyboard-response","65","243142","0.0-40.0","6594720fa43b97e09c261749","665500ab8938657b03fbdba8","6657926f7b985b0425e2afc0","692","stimuli/21110002.jpg"," ","","feedback_trial","2","","","","","","","","","","","","","","","","","","","","",""
"","","","","","image-keyboard-response","66","244297","0.0-41.0","6594720fa43b97e09c261749","665500ab8938657b03fbdba8","6657926f7b985b0425e2afc0","1154","stimuli/2010000.jpg","2","","prediction_trial","2","","true","","2","true","true","true","true","true","true","[2]","010","000","1","","","","","","",""
"","","","","","image-keyboard-response","67","244783","0.0-42.0","6594720fa43b97e09c261749","665500ab8938657b03fbdba8","6657926f7b985b0425e2afc0","486","stimuli/20100002.jpg"," ","","feedback_trial","2","","","","","","","","","","","","","","","","","","","","",""
"","","","","","image-keyboard-response","68","246343","0.0-43.0","6594720fa43b97e09c261749","665500ab8938657b03fbdba8","6657926f7b985b0425e2afc0","1559","stimuli/1000111.jpg","1","","prediction_trial","1","","true","","1","false","false","true","true","false","false","[1]","000","111","1","","","","","","",""
"","","","","","image-keyboard-response","69","247212","0.0-44.0","6594720fa43b97e09c261749","665500ab8938657b03fbdba8","6657926f7b985b0425e2afc0","868","stimuli/10001111.jpg"," ","","feedback_trial","1","","","","","","","","","","","","","","","","","","","","",""
"","","","","","image-keyboard-response","70","248231","0.0-45.0","6594720fa43b97e09c261749","665500ab8938657b03fbdba8","6657926f7b985b0425e2afc0","1019","stimuli/2101110.jpg","2","","prediction_trial","0","","false","","2","true","true","false","false","false","false","[2,0]","101","110","0","","","","","","",""
"","","","","","image-keyboard-response","71","250497","0.0-46.0","6594720fa43b97e09c261749","665500ab8938657b03fbdba8","6657926f7b985b0425e2afc0","2264","stimuli/21011100.jpg"," ","","feedback_trial","2","","","","","","","","","","","","","","","","","","","","",""
"","","","","","image-keyboard-response","72","253198","0.0-47.0","6594720fa43b97e09c261749","665500ab8938657b03fbdba8","6657926f7b985b0425e2afc0","2700","stimuli/1010011.jpg","1","","prediction_trial","1","","true","","1","false","false","false","true","false","false","[1]","010","011","1","","","","","","",""
"","","","","","image-keyboard-response","73","254059","0.0-48.0","6594720fa43b97e09c261749","665500ab8938657b03fbdba8","6657926f7b985b0425e2afc0","859","stimuli/10100111.jpg"," ","","feedback_trial","1","","","","","","","","","","","","","","","","","","","","",""
"","","","","","image-keyboard-response","74","255941","0.0-49.0","6594720fa43b97e09c261749","665500ab8938657b03fbdba8","6657926f7b985b0425e2afc0","1881","stimuli/1110110.jpg","0","","prediction_trial","1","","false","","1","false","false","false","false","false","false","[0,1]","110","110","0","","","","","","",""
"","","","","","image-keyboard-response","75","256690","0.0-50.0","6594720fa43b97e09c261749","665500ab8938657b03fbdba8","6657926f7b985b0425e2afc0","748","stimuli/11101101.jpg"," ","","feedback_trial","0","","","","","","","","","","","","","","","","","","","","",""
"","","","","","image-keyboard-response","76","257646","0.0-51.0","6594720fa43b97e09c261749","665500ab8938657b03fbdba8","6657926f7b985b0425e2afc0","955","stimuli/2111111.jpg","1","","prediction_trial","2","","false","","2","false","false","false","false","false","false","[1,0,2]","111","111","0","","","","","","",""
"","","","","","image-keyboard-response","77","258351","0.0-52.0","6594720fa43b97e09c261749","665500ab8938657b03fbdba8","6657926f7b985b0425e2afc0","704","stimuli/21111112.jpg"," ","","feedback_trial","1","","","","","","","","","","","","","","","","","","","","",""
"","","","","","image-keyboard-response","78","260279","0.0-53.0","6594720fa43b97e09c261749","665500ab8938657b03fbdba8","6657926f7b985b0425e2afc0","1927","stimuli/1011000.jpg","1","","prediction_trial","2","","false","","1","true","true","false","false","false","false","[1,2]","011","000","0","","","","","","",""
"","","","","","image-keyboard-response","79","260933","0.0-54.0","6594720fa43b97e09c261749","665500ab8938657b03fbdba8","6657926f7b985b0425e2afc0","653","stimuli/10110002.jpg"," ","","feedback_trial","1","","","","","","","","","","","","","","","","","","","","",""
"","","","","","image-keyboard-response","80","261770","0.0-55.0","6594720fa43b97e09c261749","665500ab8938657b03fbdba8","6657926f7b985b0425e2afc0","832","stimuli/2000000.jpg","2","","prediction_trial","2","","true","","2","true","true","true","true","true","true","[2]","000","000","1","","","","","","",""
"","","","","","image-keyboard-response","81","262288","0.0-56.0","6594720fa43b97e09c261749","665500ab8938657b03fbdba8","6657926f7b985b0425e2afc0","518","stimuli/20000002.jpg"," ","","feedback_trial","2","","","","","","","","","","","","","","","","","","","","",""
"","","","","","image-keyboard-response","82","263134","0.0-57.0","6594720fa43b97e09c261749","665500ab8938657b03fbdba8","6657926f7b985b0425e2afc0","844","stimuli/0001010.jpg","0","","prediction_trial","0","","true","","0","true","true","true","true","true","true","[0]","001","010","1","","","","","","",""
"","","","","","image-keyboard-response","83","263639","0.0-58.0","6594720fa43b97e09c261749","665500ab8938657b03fbdba8","6657926f7b985b0425e2afc0","504","stimuli/00010100.jpg"," ","","feedback_trial","0","","","","","","","","","","","","","","","","","","","","",""
"","","","","","image-keyboard-response","84","264634","0.0-59.0","6594720fa43b97e09c261749","665500ab8938657b03fbdba8","6657926f7b985b0425e2afc0","995","stimuli/1111100.jpg","1","","prediction_trial","2","","false","","1","true","true","false","false","false","false","[0,1,2]","111","100","0","","","","","","",""
"","","","","","image-keyboard-response","85","265378","0.0-60.0","6594720fa43b97e09c261749","665500ab8938657b03fbdba8","6657926f7b985b0425e2afc0","742","stimuli/11111002.jpg"," ","","feedback_trial","0","","","","","","","","","","","","","","","","","","","","",""
"","","","","","image-keyboard-response","86","267720","0.0-61.0","6594720fa43b97e09c261749","665500ab8938657b03fbdba8","6657926f7b985b0425e2afc0","2342","stimuli/0011011.jpg","2","","prediction_trial","0","","false","","0","true","true","true","true","true","true","[0]","011","011","0","","","","","","",""
"","","","","","image-keyboard-response","87","269439","0.0-62.0","6594720fa43b97e09c261749","665500ab8938657b03fbdba8","6657926f7b985b0425e2afc0","1718","stimuli/00110110.jpg"," ","","feedback_trial","0","","","","","","","","","","","","","","","","","","","","",""
"","","","","","image-keyboard-response","88","270335","0.0-63.0","6594720fa43b97e09c261749","665500ab8938657b03fbdba8","6657926f7b985b0425e2afc0","895","stimuli/2100110.jpg","2","","prediction_trial","2","","true","","2","true","true","true","true","true","true","[2]","100","110","1","","","","","","",""
"","","","","","image-keyboard-response","89","270910","0.0-64.0","6594720fa43b97e09c261749","665500ab8938657b03fbdba8","6657926f7b985b0425e2afc0","574","stimuli/21001102.jpg"," ","","feedback_trial","2","","","","","","","","","","","","","","","","","","","","",""
"","","","","","image-keyboard-response","90","272198","0.0-65.0","6594720fa43b97e09c261749","665500ab8938657b03fbdba8","6657926f7b985b0425e2afc0","1287","stimuli/2110011.jpg","2","","prediction_trial","2","","true","","2","false","false","true","true","false","false","[2]","110","011","1","","","","","","",""
"","","","","","image-keyboard-response","91","273023","0.0-66.0","6594720fa43b97e09c261749","665500ab8938657b03fbdba8","6657926f7b985b0425e2afc0","824","stimuli/21100112.jpg"," ","","feedback_trial","2","","","","","","","","","","","","","","","","","","","","",""
"","","","","","image-keyboard-response","92","273925","0.0-67.0","6594720fa43b97e09c261749","665500ab8938657b03fbdba8","6657926f7b985b0425e2afc0","901","stimuli/0101111.jpg","1","","prediction_trial","2","","false","","0","false","false","false","false","false","false","[2,0]","101","111","0","","","","","","",""
"","","","","","image-keyboard-response","93","274848","0.0-68.0","6594720fa43b97e09c261749","665500ab8938657b03fbdba8","6657926f7b985b0425e2afc0","922","stimuli/01011112.jpg"," ","","feedback_trial","2","","","","","","","","","","","","","","","","","","","","",""
"","","","","","image-keyboard-response","94","276083","0.0-69.0","6594720fa43b97e09c261749","665500ab8938657b03fbdba8","6657926f7b985b0425e2afc0","1234","stimuli/1100010.jpg","1","","prediction_trial","1","","true","","1","false","true","true","true","false","true","[1]","100","010","1","","","","","","",""
"","","","","","image-keyboard-response","95","276991","0.0-70.0","6594720fa43b97e09c261749","665500ab8938657b03fbdba8","6657926f7b985b0425e2afc0","907","stimuli/11000101.jpg"," ","","feedback_trial","1","","","","","","","","","","","","","","","","","","","","",""
"","","","","","image-keyboard-response","96","277909","0.0-71.0","6594720fa43b97e09c261749","665500ab8938657b03fbdba8","6657926f7b985b0425e2afc0","916","stimuli/1000100.jpg","1","","prediction_trial","1","","true","","1","true","true","true","true","true","true","[1]","000","100","1","","","","","","",""
"","","","","","image-keyboard-response","97","278600","0.0-72.0","6594720fa43b97e09c261749","665500ab8938657b03fbdba8","6657926f7b985b0425e2afc0","689","stimuli/10001001.jpg"," ","","feedback_trial","1","","","","","","","","","","","","","","","","","","","","",""
"","","","","","image-keyboard-response","98","279668","0.0-73.0","6594720fa43b97e09c261749","665500ab8938657b03fbdba8","6657926f7b985b0425e2afc0","1063","stimuli/0010100.jpg","0","","prediction_trial","0","","true","","0","false","true","true","true","false","true","[0]","010","100","1","","","","","","",""
"","","","","","image-keyboard-response","99","280340","0.0-74.0","6594720fa43b97e09c261749","665500ab8938657b03fbdba8","6657926f7b985b0425e2afc0","671","stimuli/00101000.jpg"," ","","feedback_trial","0","","","","","","","","","","","","","","","","","","","","",""
"","","","","","image-keyboard-response","100","281729","0.0-75.0","6594720fa43b97e09c261749","665500ab8938657b03fbdba8","6657926f7b985b0425e2afc0","1388","stimuli/1111111.jpg","2","","prediction_trial","1","","false","","1","false","false","false","false","false","false","[1,2,0]","111","111","0","","","","","","",""
"","","","","","image-keyboard-response","101","282471","0.0-76.0","6594720fa43b97e09c261749","665500ab8938657b03fbdba8","6657926f7b985b0425e2afc0","741","stimuli/11111111.jpg"," ","","feedback_trial","1","","","","","","","","","","","","","","","","","","","","",""
"","","","","","image-keyboard-response","102","283569","0.0-77.0","6594720fa43b97e09c261749","665500ab8938657b03fbdba8","6657926f7b985b0425e2afc0","1097","stimuli/0010000.jpg","0","","prediction_trial","0","","true","","0","true","true","true","true","true","true","[0]","010","000","1","","","","","","",""
"","","","","","image-keyboard-response","103","284147","0.0-78.0","6594720fa43b97e09c261749","665500ab8938657b03fbdba8","6657926f7b985b0425e2afc0","577","stimuli/00100000.jpg"," ","","feedback_trial","0","","","","","","","","","","","","","","","","","","","","",""
"","","","","","image-keyboard-response","104","285494","0.0-79.0","6594720fa43b97e09c261749","665500ab8938657b03fbdba8","6657926f7b985b0425e2afc0","1346","stimuli/1111101.jpg","1","","prediction_trial","0","","false","","1","true","true","false","false","false","false","[0,1,2]","111","101","0","","","","","","",""
"","","","","","image-keyboard-response","105","286256","0.0-80.0","6594720fa43b97e09c261749","665500ab8938657b03fbdba8","6657926f7b985b0425e2afc0","760","stimuli/11111010.jpg"," ","","feedback_trial","0","","","","","","","","","","","","","","","","","","","","",""
"","","","","","image-keyboard-response","106","287046","0.0-81.0","6594720fa43b97e09c261749","665500ab8938657b03fbdba8","6657926f7b985b0425e2afc0","789","stimuli/2000001.jpg","2","","prediction_trial","2","","true","","2","false","true","true","true","false","true","[2]","000","001","1","","","","","","",""
"","","","","","image-keyboard-response","107","287602","0.0-82.0","6594720fa43b97e09c261749","665500ab8938657b03fbdba8","6657926f7b985b0425e2afc0","555","stimuli/20000012.jpg"," ","","feedback_trial","2","","","","","","","","","","","","","","","","","","","","",""
"","","","","","image-keyboard-response","108","288558","0.0-83.0","6594720fa43b97e09c261749","665500ab8938657b03fbdba8","6657926f7b985b0425e2afc0","955","stimuli/1001100.jpg","1","","prediction_trial","1","","true","","1","true","true","true","true","true","true","[1]","001","100","1","","","","","","",""
"","","","","","image-keyboard-response","109","289276","0.0-84.0","6594720fa43b97e09c261749","665500ab8938657b03fbdba8","6657926f7b985b0425e2afc0","717","stimuli/10011001.jpg"," ","","feedback_trial","1","","","","","","","","","","","","","","","","","","","","",""
"","","","","","image-keyboard-response","110","290489","0.0-85.0","6594720fa43b97e09c261749","665500ab8938657b03fbdba8","6657926f7b985b0425e2afc0","1211","stimuli/2101111.jpg","1","","prediction_trial","2","","false","","2","false","false","false","false","false","false","[0,2]","101","111","0","","","","","","",""
"","","","","","image-keyboard-response","111","291234","0.0-86.0","6594720fa43b97e09c261749","665500ab8938657b03fbdba8","6657926f7b985b0425e2afc0","743","stimuli/21011112.jpg"," ","","feedback_trial","0","","","","","","","","","","","","","","","","","","","","",""
"","","","","","image-keyboard-response","112","291814","0.0-87.0","6594720fa43b97e09c261749","665500ab8938657b03fbdba8","6657926f7b985b0425e2afc0","580","stimuli/2110110.jpg","2","","prediction_trial","2","","true","","2","true","true","true","true","true","true","[2]","110","110","1","","","","","","",""
"","","","","","image-keyboard-response","113","292269","0.0-88.0","6594720fa43b97e09c261749","665500ab8938657b03fbdba8","6657926f7b985b0425e2afc0","454","stimuli/21101102.jpg"," ","","feedback_trial","2","","","","","","","","","","","","","","","","","","","","",""
"","","","","","image-keyboard-response","114","293199","0.0-89.0","6594720fa43b97e09c261749","665500ab8938657b03fbdba8","6657926f7b985b0425e2afc0","929","stimuli/0000000.jpg","0","","prediction_trial","0","","true","","0","true","true","true","true","true","true","[0]","000","000","1","","","","","","",""
"","","","","","image-keyboard-response","115","294241","0.0-90.0","6594720fa43b97e09c261749","665500ab8938657b03fbdba8","6657926f7b985b0425e2afc0","1041","stimuli/00000000.jpg"," ","","feedback_trial","0","","","","","","","","","","","","","","","","","","","","",""
"","","","","","image-keyboard-response","116","295323","0.0-91.0","6594720fa43b97e09c261749","665500ab8938657b03fbdba8","6657926f7b985b0425e2afc0","1076","stimuli/2011001.jpg","2","","prediction_trial","2","","true","","2","false","true","false","false","false","false","[2,1]","011","001","1","","","","","","",""
"","","","","","image-keyboard-response","117","297536","0.0-92.0","6594720fa43b97e09c261749","665500ab8938657b03fbdba8","6657926f7b985b0425e2afc0","2212","stimuli/20110012.jpg"," ","","feedback_trial","2","","","","","","","","","","","","","","","","","","","","",""
"","","","","","image-keyboard-response","118","299854","0.0-93.0","6594720fa43b97e09c261749","665500ab8938657b03fbdba8","6657926f7b985b0425e2afc0","2317","stimuli/0000101.jpg","0","","prediction_trial","0","","true","","0","false","false","true","true","false","false","[0]","000","101","1","","","","","","",""
"","","","","","image-keyboard-response","119","300663","0.0-94.0","6594720fa43b97e09c261749","665500ab8938657b03fbdba8","6657926f7b985b0425e2afc0","808","stimuli/00001010.jpg"," ","","feedback_trial","0","","","","","","","","","","","","","","","","","","","","",""
"","","","","","image-keyboard-response","120","301831","0.0-95.0","6594720fa43b97e09c261749","665500ab8938657b03fbdba8","6657926f7b985b0425e2afc0","1167","stimuli/0011001.jpg","0","","prediction_trial","0","","true","","0","true","true","true","true","true","true","[0]","011","001","1","","","","","","",""
"","","","","","image-keyboard-response","121","302408","0.0-96.0","6594720fa43b97e09c261749","665500ab8938657b03fbdba8","6657926f7b985b0425e2afc0","576","stimuli/00110010.jpg"," ","","feedback_trial","0","","","","","","","","","","","","","","","","","","","","",""
"","","","","","image-keyboard-response","122","304098","0.0-97.0","6594720fa43b97e09c261749","665500ab8938657b03fbdba8","6657926f7b985b0425e2afc0","1689","stimuli/1111001.jpg","2","","prediction_trial","1","","false","","1","true","true","false","false","false","false","[1,0,2]","111","001","0","","","","","","",""
"","","","","","image-keyboard-response","123","305321","0.0-98.0","6594720fa43b97e09c261749","665500ab8938657b03fbdba8","6657926f7b985b0425e2afc0","1222","stimuli/11110011.jpg"," ","","feedback_trial","1","","","","","","","","","","","","","","","","","","","","",""
"","","","","","image-keyboard-response","124","306387","0.0-99.0","6594720fa43b97e09c261749","665500ab8938657b03fbdba8","6657926f7b985b0425e2afc0","1064","stimuli/2010001.jpg","2","","prediction_trial","2","","true","","2","false","true","true","true","false","true","[2]","010","001","1","","","","","","",""
"","","","","","image-keyboard-response","125","307378","0.0-100.0","6594720fa43b97e09c261749","665500ab8938657b03fbdba8","6657926f7b985b0425e2afc0","990","stimuli/20100012.jpg"," ","","feedback_trial","2","","","","","","","","","","","","","","","","","","","","",""
"","","","","","image-keyboard-response","126","309144","0.0-101.0","6594720fa43b97e09c261749","665500ab8938657b03fbdba8","6657926f7b985b0425e2afc0","1765","stimuli/0111110.jpg","0","","prediction_trial","1","","false","","0","false","false","false","false","false","false","[1,2,0]","111","110","0","","","","","","",""
"","","","","","image-keyboard-response","127","309897","0.0-102.0","6594720fa43b97e09c261749","665500ab8938657b03fbdba8","6657926f7b985b0425e2afc0","752","stimuli/01111101.jpg"," ","","feedback_trial","1","","","","","","","","","","","","","","","","","","","","",""
"","","","","","image-keyboard-response","128","310948","0.0-103.0","6594720fa43b97e09c261749","665500ab8938657b03fbdba8","6657926f7b985b0425e2afc0","1050","stimuli/0110111.jpg","1","","prediction_trial","0","","false","","0","false","false","false","false","false","false","[1,0]","110","111","0","","","","","","",""
"","","","","","image-keyboard-response","129","311755","0.0-104.0","6594720fa43b97e09c261749","665500ab8938657b03fbdba8","6657926f7b985b0425e2afc0","806","stimuli/01101110.jpg"," ","","feedback_trial","1","","","","","","","","","","","","","","","","","","","","",""
"","","","","","image-keyboard-response","130","312944","0.0-105.0","6594720fa43b97e09c261749","665500ab8938657b03fbdba8","6657926f7b985b0425e2afc0","1189","stimuli/1011111.jpg","0","","prediction_trial","2","","false","","1","false","false","false","false","false","false","[1,2]","011","111","0","","","","","","",""
"","","","","","image-keyboard-response","131","313768","0.0-106.0","6594720fa43b97e09c261749","665500ab8938657b03fbdba8","6657926f7b985b0425e2afc0","823","stimuli/10111112.jpg"," ","","feedback_trial","1","","","","","","","","","","","","","","","","","","","","",""
"","","","","","image-keyboard-response","132","314713","0.0-107.0","6594720fa43b97e09c261749","665500ab8938657b03fbdba8","6657926f7b985b0425e2afc0","944","stimuli/0000010.jpg","0","","prediction_trial","0","","true","","0","true","true","true","true","true","true","[0]","000","010","1","","","","","","",""
"","","","","","image-keyboard-response","133","315214","0.0-108.0","6594720fa43b97e09c261749","665500ab8938657b03fbdba8","6657926f7b985b0425e2afc0","500","stimuli/00000100.jpg"," ","","feedback_trial","0","","","","","","","","","","","","","","","","","","","","",""
"","","","","","image-keyboard-response","134","317184","0.0-109.0","6594720fa43b97e09c261749","665500ab8938657b03fbdba8","6657926f7b985b0425e2afc0","1968","stimuli/1000011.jpg","1","","prediction_trial","1","","true","","1","false","false","true","true","false","false","[1]","000","011","1","","","","","","",""
"","","","","","image-keyboard-response","135","317800","0.0-110.0","6594720fa43b97e09c261749","665500ab8938657b03fbdba8","6657926f7b985b0425e2afc0","615","stimuli/10000111.jpg"," ","","feedback_trial","1","","","","","","","","","","","","","","","","","","","","",""
"","","","","","image-keyboard-response","136","319810","0.0-111.0","6594720fa43b97e09c261749","665500ab8938657b03fbdba8","6657926f7b985b0425e2afc0","2009","stimuli/2101000.jpg","2","","prediction_trial","2","","true","","2","true","true","false","false","false","false","[2,0]","101","000","1","","","","","","",""
"","","","","","image-keyboard-response","137","320446","0.0-112.0","6594720fa43b97e09c261749","665500ab8938657b03fbdba8","6657926f7b985b0425e2afc0","635","stimuli/21010002.jpg"," ","","feedback_trial","2","","","","","","","","","","","","","","","","","","","","",""
"","","","","","image-keyboard-response","138","322560","0.0-113.0","6594720fa43b97e09c261749","665500ab8938657b03fbdba8","6657926f7b985b0425e2afc0","2112","stimuli/0100100.jpg","0","","prediction_trial","0","","true","","0","false","true","false","true","false","true","[0]","100","100","1","","","","","","",""
"","","","","","image-keyboard-response","139","323219","0.0-114.0","6594720fa43b97e09c261749","665500ab8938657b03fbdba8","6657926f7b985b0425e2afc0","659","stimuli/01001000.jpg"," ","","feedback_trial","0","","","","","","","","","","","","","","","","","","","","",""
"","","","","","image-keyboard-response","140","324493","0.0-115.0","6594720fa43b97e09c261749","665500ab8938657b03fbdba8","6657926f7b985b0425e2afc0","1273","stimuli/1110011.jpg","2","","prediction_trial","1","","false","","1","false","false","false","false","false","false","[1,0]","110","011","0","","","","","","",""
"","","","","","image-keyboard-response","141","325377","0.0-116.0","6594720fa43b97e09c261749","665500ab8938657b03fbdba8","6657926f7b985b0425e2afc0","884","stimuli/11100111.jpg"," ","","feedback_trial","1","","","","","","","","","","","","","","","","","","","","",""
"","","","","","image-keyboard-response","142","326367","0.0-117.0","6594720fa43b97e09c261749","665500ab8938657b03fbdba8","6657926f7b985b0425e2afc0","988","stimuli/0001001.jpg","0","","prediction_trial","0","","true","","0","true","true","true","true","true","true","[0]","001","001","1","","","","","","",""
"","","","","","image-keyboard-response","143","326802","0.0-118.0","6594720fa43b97e09c261749","665500ab8938657b03fbdba8","6657926f7b985b0425e2afc0","434","stimuli/00010010.jpg"," ","","feedback_trial","0","","","","","","","","","","","","","","","","","","","","",""
"","","","","","image-keyboard-response","144","328915","0.0-119.0","6594720fa43b97e09c261749","665500ab8938657b03fbdba8","6657926f7b985b0425e2afc0","2112","stimuli/2001110.jpg","2","","prediction_trial","2","","true","","2","true","true","false","true","false","true","[2]","001","110","1","","","","","","",""
"","","","","","image-keyboard-response","145","329511","0.0-120.0","6594720fa43b97e09c261749","665500ab8938657b03fbdba8","6657926f7b985b0425e2afc0","595","stimuli/20011102.jpg"," ","","feedback_trial","2","","","","","","","","","","","","","","","","","","","","",""
"","","","","","image-keyboard-response","146","331690","0.0-121.0","6594720fa43b97e09c261749","665500ab8938657b03fbdba8","6657926f7b985b0425e2afc0","2178","stimuli/0110011.jpg","0","","prediction_trial","0","","true","","0","true","true","false","false","false","false","[0,1]","110","011","1","","","","","","",""
"","","","","","image-keyboard-response","147","332333","0.0-122.0","6594720fa43b97e09c261749","665500ab8938657b03fbdba8","6657926f7b985b0425e2afc0","641","stimuli/01100110.jpg"," ","","feedback_trial","0","","","","","","","","","","","","","","","","","","","","",""
"","","","","","image-keyboard-response","148","334243","0.0-123.0","6594720fa43b97e09c261749","665500ab8938657b03fbdba8","6657926f7b985b0425e2afc0","1909","stimuli/2011101.jpg","0","","prediction_trial","2","","false","","2","false","false","false","false","false","false","[1,2]","011","101","0","","","","","","",""
"","","","","","image-keyboard-response","149","334948","0.0-124.0","6594720fa43b97e09c261749","665500ab8938657b03fbdba8","6657926f7b985b0425e2afc0","704","stimuli/20111012.jpg"," ","","feedback_trial","1","","","","","","","","","","","","","","","","","","","","",""
"","","","","","image-keyboard-response","150","337434","0.0-125.0","6594720fa43b97e09c261749","665500ab8938657b03fbdba8","6657926f7b985b0425e2afc0","2485","stimuli/2011110.jpg","0","","prediction_trial","1","","false","","2","true","true","false","false","false","false","[1,2]","011","110","0","","","","","","",""
"","","","","","image-keyboard-response","151","338183","0.0-126.0","6594720fa43b97e09c261749","665500ab8938657b03fbdba8","6657926f7b985b0425e2afc0","748","stimuli/20111101.jpg"," ","","feedback_trial","1","","","","","","","","","","","","","","","","","","","","",""
"","","","","","image-keyboard-response","152","339599","0.0-127.0","6594720fa43b97e09c261749","665500ab8938657b03fbdba8","6657926f7b985b0425e2afc0","1413","stimuli/2111011.jpg","2","","prediction_trial","2","","true","","2","false","false","false","false","false","false","[1,0,2]","111","011","1","","","","","","",""
"","","","","","image-keyboard-response","153","340406","0.0-128.0","6594720fa43b97e09c261749","665500ab8938657b03fbdba8","6657926f7b985b0425e2afc0","805","stimuli/21110112.jpg"," ","","feedback_trial","1","","","","","","","","","","","","","","","","","","","","",""
"","","","","","image-keyboard-response","154","341334","0.0-129.0","6594720fa43b97e09c261749","665500ab8938657b03fbdba8","6657926f7b985b0425e2afc0","927","stimuli/1111011.jpg","1","","prediction_trial","2","","false","","1","false","false","false","false","false","false","[2,1,0]","111","011","0","","","","","","",""
"","","","","","image-keyboard-response","155","342109","0.0-130.0","6594720fa43b97e09c261749","665500ab8938657b03fbdba8","6657926f7b985b0425e2afc0","774","stimuli/11110112.jpg"," ","","feedback_trial","2","","","","","","","","","","","","","","","","","","","","",""
"","","","","","image-keyboard-response","156","343818","0.0-131.0","6594720fa43b97e09c261749","665500ab8938657b03fbdba8","6657926f7b985b0425e2afc0","1708","stimuli/1100100.jpg","1","","prediction_trial","1","","true","","1","true","true","true","true","true","true","[1]","100","100","1","","","","","","",""
"","","","","","image-keyboard-response","157","344465","0.0-132.0","6594720fa43b97e09c261749","665500ab8938657b03fbdba8","6657926f7b985b0425e2afc0","646","stimuli/11001001.jpg"," ","","feedback_trial","1","","","","","","","","","","","","","","","","","","","","",""
"","","","","","image-keyboard-response","158","347036","0.0-133.0","6594720fa43b97e09c261749","665500ab8938657b03fbdba8","6657926f7b985b0425e2afc0","2570","stimuli/0100010.jpg","0","","prediction_trial","0","","true","","0","true","true","false","true","false","true","[0]","100","010","1","","","","","","",""
"","","","","","image-keyboard-response","159","347671","0.0-134.0","6594720fa43b97e09c261749","665500ab8938657b03fbdba8","6657926f7b985b0425e2afc0","634","stimuli/01000100.jpg"," ","","feedback_trial","0","","","","","","","","","","","","","","","","","","","","",""
"","","","","","image-keyboard-response","160","348931","0.0-135.0","6594720fa43b97e09c261749","665500ab8938657b03fbdba8","6657926f7b985b0425e2afc0","1258","stimuli/2110001.jpg","2","","prediction_trial","2","","true","","2","false","true","true","true","false","true","[2]","110","001","1","","","","","","",""
"","","","","","image-keyboard-response","161","349414","0.0-136.0","6594720fa43b97e09c261749","665500ab8938657b03fbdba8","6657926f7b985b0425e2afc0","482","stimuli/21100012.jpg"," ","","feedback_trial","2","","","","","","","","","","","","","","","","","","","","",""
"","","","","","image-keyboard-response","162","351912","0.0-137.0","6594720fa43b97e09c261749","665500ab8938657b03fbdba8","6657926f7b985b0425e2afc0","2497","stimuli/1110101.jpg","1","","prediction_trial","1","","true","","1","true","true","false","false","false","false","[0,1]","110","101","1","","","","","","",""
"","","","","","image-keyboard-response","163","352589","0.0-138.0","6594720fa43b97e09c261749","665500ab8938657b03fbdba8","6657926f7b985b0425e2afc0","677","stimuli/11101011.jpg"," ","","feedback_trial","0","","","","","","","","","","","","","","","","","","","","",""
"","","","","","image-keyboard-response","164","354669","0.0-139.0","6594720fa43b97e09c261749","665500ab8938657b03fbdba8","6657926f7b985b0425e2afc0","2079","stimuli/1001110.jpg","0","","prediction_trial","1","","false","","1","false","false","true","true","false","false","[1]","001","110","0","","","","","","",""
"","","","","","image-keyboard-response","165","355508","0.0-140.0","6594720fa43b97e09c261749","665500ab8938657b03fbdba8","6657926f7b985b0425e2afc0","839","stimuli/10011101.jpg"," ","","feedback_trial","1","","","","","","","","","","","","","","","","","","","","",""
"","","","","","image-keyboard-response","166","356906","0.0-141.0","6594720fa43b97e09c261749","665500ab8938657b03fbdba8","6657926f7b985b0425e2afc0","1397","stimuli/1110010.jpg","1","","prediction_trial","1","","true","","1","false","true","false","false","false","false","[0,1]","110","010","1","","","","","","",""
"","","","","","image-keyboard-response","167","357289","0.0-142.0","6594720fa43b97e09c261749","665500ab8938657b03fbdba8","6657926f7b985b0425e2afc0","382","stimuli/11100101.jpg"," ","","feedback_trial","0","","","","","","","","","","","","","","","","","","","","",""
"","","","","","image-keyboard-response","168","358760","0.0-143.0","6594720fa43b97e09c261749","665500ab8938657b03fbdba8","6657926f7b985b0425e2afc0","1470","stimuli/2011011.jpg","1","","prediction_trial","1","","true","","2","false","false","false","false","false","false","[1,2]","011","011","1","","","","","","",""
"","","","","","image-keyboard-response","169","359346","0.0-144.0","6594720fa43b97e09c261749","665500ab8938657b03fbdba8","6657926f7b985b0425e2afc0","586","stimuli/20110111.jpg"," ","","feedback_trial","1","","","","","","","","","","","","","","","","","","","","",""
"","","","","","image-keyboard-response","170","360101","0.0-145.0","6594720fa43b97e09c261749","665500ab8938657b03fbdba8","6657926f7b985b0425e2afc0","751","stimuli/1000000.jpg","1","","prediction_trial","1","","true","","1","true","true","true","true","true","true","[1]","000","000","1","","","","","","",""
"","","","","","image-keyboard-response","171","360629","0.0-146.0","6594720fa43b97e09c261749","665500ab8938657b03fbdba8","6657926f7b985b0425e2afc0","527","stimuli/10000001.jpg"," ","","feedback_trial","1","","","","","","","","","","","","","","","","","","","","",""
"","","","","","image-keyboard-response","172","362773","0.0-147.0","6594720fa43b97e09c261749","665500ab8938657b03fbdba8","6657926f7b985b0425e2afc0","2142","stimuli/2010111.jpg","1","","prediction_trial","2","","false","","2","false","false","true","true","false","false","[2]","010","111","0","","","","","","",""
"","","","","","image-keyboard-response","173","363525","0.0-148.0","6594720fa43b97e09c261749","665500ab8938657b03fbdba8","6657926f7b985b0425e2afc0","752","stimuli/20101112.jpg"," ","","feedback_trial","2","","","","","","","","","","","","","","","","","","","","",""
"","","","","","image-keyboard-response","174","365123","0.0-149.0","6594720fa43b97e09c261749","665500ab8938657b03fbdba8","6657926f7b985b0425e2afc0","1597","stimuli/2001000.jpg","2","","prediction_trial","2","","true","","2","true","true","false","true","false","true","[2]","001","000","1","","","","","","",""
"","","","","","image-keyboard-response","175","365596","0.0-150.0","6594720fa43b97e09c261749","665500ab8938657b03fbdba8","6657926f7b985b0425e2afc0","472","stimuli/20010002.jpg"," ","","feedback_trial","2","","","","","","","","","","","","","","","","","","","","",""
"","","","","","image-keyboard-response","176","367393","0.0-151.0","6594720fa43b97e09c261749","665500ab8938657b03fbdba8","6657926f7b985b0425e2afc0","1796","stimuli/0001101.jpg","0","","prediction_trial","0","","true","","0","false","false","true","true","false","false","[0]","001","101","1","","","","","","",""
"","","","","","image-keyboard-response","177","368194","0.0-152.0","6594720fa43b97e09c261749","665500ab8938657b03fbdba8","6657926f7b985b0425e2afc0","800","stimuli/00011010.jpg"," ","","feedback_trial","0","","","","","","","","","","","","","","","","","","","","",""
"","","","","","image-keyboard-response","178","370546","0.0-153.0","6594720fa43b97e09c261749","665500ab8938657b03fbdba8","6657926f7b985b0425e2afc0","2351","stimuli/0110000.jpg","0","","prediction_trial","1","","false","","0","true","true","false","false","false","false","[0,1]","110","000","0","","","","","","",""
"","","","","","image-keyboard-response","179","371470","0.0-154.0","6594720fa43b97e09c261749","665500ab8938657b03fbdba8","6657926f7b985b0425e2afc0","922","stimuli/01100001.jpg"," ","","feedback_trial","0","","","","","","","","","","","","","","","","","","","","",""
"","","","","","image-keyboard-response","180","373617","0.0-155.0","6594720fa43b97e09c261749","665500ab8938657b03fbdba8","6657926f7b985b0425e2afc0","2147","stimuli/0101110.jpg","1","","prediction_trial","0","","false","","0","false","false","false","false","false","false","[2,0]","101","110","0","","","","","","",""
"","","","","","image-keyboard-response","181","374312","0.0-156.0","6594720fa43b97e09c261749","665500ab8938657b03fbdba8","6657926f7b985b0425e2afc0","694","stimuli/01011100.jpg"," ","","feedback_trial","2","","","","","","","","","","","","","","","","","","","","",""
"","","","","","image-keyboard-response","182","375788","0.0-157.0","6594720fa43b97e09c261749","665500ab8938657b03fbdba8","6657926f7b985b0425e2afc0","1476","stimuli/2100010.jpg","2","","prediction_trial","2","","true","","2","true","true","true","true","true","true","[2]","100","010","1","","","","","","",""
"","","","","","image-keyboard-response","183","377063","0.0-158.0","6594720fa43b97e09c261749","665500ab8938657b03fbdba8","6657926f7b985b0425e2afc0","1273","stimuli/21000102.jpg"," ","","feedback_trial","2","","","","","","","","","","","","","","","","","","","","",""
"","","","","","image-keyboard-response","184","378398","0.0-159.0","6594720fa43b97e09c261749","665500ab8938657b03fbdba8","6657926f7b985b0425e2afc0","1334","stimuli/1000110.jpg","1","","prediction_trial","1","","true","","1","false","false","true","true","false","false","[1]","000","110","1","","","","","","",""
"","","","","","image-keyboard-response","185","379000","0.0-160.0","6594720fa43b97e09c261749","665500ab8938657b03fbdba8","6657926f7b985b0425e2afc0","601","stimuli/10001101.jpg"," ","","feedback_trial","1","","","","","","","","","","","","","","","","","","","","",""
"","","","","","image-keyboard-response","186","380711","0.0-161.0","6594720fa43b97e09c261749","665500ab8938657b03fbdba8","6657926f7b985b0425e2afc0","1710","stimuli/1111000.jpg","1","","prediction_trial","0","","false","","1","true","true","false","false","false","false","[1,2,0]","111","000","0","","","","","","",""
"","","","","","image-keyboard-response","187","381988","0.0-162.0","6594720fa43b97e09c261749","665500ab8938657b03fbdba8","6657926f7b985b0425e2afc0","1276","stimuli/11110000.jpg"," ","","feedback_trial","1","","","","","","","","","","","","","","","","","","","","",""
"","","","","","image-keyboard-response","188","383203","0.0-163.0","6594720fa43b97e09c261749","665500ab8938657b03fbdba8","6657926f7b985b0425e2afc0","1214","stimuli/1101000.jpg","1","","prediction_trial","1","","true","","1","true","true","true","true","true","true","[1]","101","000","1","","","","","","",""
"","","","","","image-keyboard-response","189","383822","0.0-164.0","6594720fa43b97e09c261749","665500ab8938657b03fbdba8","6657926f7b985b0425e2afc0","618","stimuli/11010001.jpg"," ","","feedback_trial","1","","","","","","","","","","","","","","","","","","","","",""
"","","","","","image-keyboard-response","190","385540","0.0-165.0","6594720fa43b97e09c261749","665500ab8938657b03fbdba8","6657926f7b985b0425e2afc0","1717","stimuli/2101100.jpg","2","","prediction_trial","2","","true","","2","true","true","false","false","false","false","[0,2]","101","100","1","","","","","","",""
"","","","","","image-keyboard-response","191","386224","0.0-166.0","6594720fa43b97e09c261749","665500ab8938657b03fbdba8","6657926f7b985b0425e2afc0","684","stimuli/21011002.jpg"," ","","feedback_trial","0","","","","","","","","","","","","","","","","","","","","",""
"","","","","","image-keyboard-response","192","388421","0.0-167.0","6594720fa43b97e09c261749","665500ab8938657b03fbdba8","6657926f7b985b0425e2afc0","2196","stimuli/0111011.jpg","0","","prediction_trial","2","","false","","0","true","true","false","false","false","false","[0,1,2]","111","011","0","","","","","","",""
"","","","","","image-keyboard-response","193","389255","0.0-168.0","6594720fa43b97e09c261749","665500ab8938657b03fbdba8","6657926f7b985b0425e2afc0","834","stimuli/01110112.jpg"," ","","feedback_trial","0","","","","","","","","","","","","","","","","","","","","",""
"","","","","","image-keyboard-response","194","390678","0.0-169.0","6594720fa43b97e09c261749","665500ab8938657b03fbdba8","6657926f7b985b0425e2afc0","1422","stimuli/1101110.jpg","1","","prediction_trial","1","","true","","1","false","false","true","true","false","false","[1]","101","110","1","","","","","","",""
"","","","","","image-keyboard-response","195","391430","0.0-170.0","6594720fa43b97e09c261749","665500ab8938657b03fbdba8","6657926f7b985b0425e2afc0","751","stimuli/11011101.jpg"," ","","feedback_trial","1","","","","","","","","","","","","","","","","","","","","",""
"","","","","","image-keyboard-response","196","393736","0.0-171.0","6594720fa43b97e09c261749","665500ab8938657b03fbdba8","6657926f7b985b0425e2afc0","2305","stimuli/0101000.jpg","0","","prediction_trial","2","","false","","0","true","true","false","false","false","false","[0,2]","101","000","0","","","","","","",""
"","","","","","image-keyboard-response","197","394600","0.0-172.0","6594720fa43b97e09c261749","665500ab8938657b03fbdba8","6657926f7b985b0425e2afc0","863","stimuli/01010002.jpg"," ","","feedback_trial","0","","","","","","","","","","","","","","","","","","","","",""
"","","","","","image-keyboard-response","198","395741","0.0-173.0","6594720fa43b97e09c261749","665500ab8938657b03fbdba8","6657926f7b985b0425e2afc0","1140","stimuli/2000110.jpg","2","","prediction_trial","2","","true","","2","true","true","true","true","true","true","[2]","000","110","1","","","","","","",""
"","","","","","image-keyboard-response","199","396199","0.0-174.0","6594720fa43b97e09c261749","665500ab8938657b03fbdba8","6657926f7b985b0425e2afc0","457","stimuli/20001102.jpg"," ","","feedback_trial","2","","","","","","","","","","","","","","","","","","","","",""
"","","","","","image-keyboard-response","200","397645","0.0-175.0","6594720fa43b97e09c261749","665500ab8938657b03fbdba8","6657926f7b985b0425e2afc0","1444","stimuli/1100011.jpg","1","","prediction_trial","1","","true","","1","false","false","true","true","false","false","[1]","100","011","1","","","","","","",""
"","","","","","image-keyboard-response","201","398288","0.0-176.0","6594720fa43b97e09c261749","665500ab8938657b03fbdba8","6657926f7b985b0425e2afc0","642","stimuli/11000111.jpg"," ","","feedback_trial","1","","","","","","","","","","","","","","","","","","","","",""
"","","","","","image-keyboard-response","202","400519","0.0-177.0","6594720fa43b97e09c261749","665500ab8938657b03fbdba8","6657926f7b985b0425e2afc0","2231","stimuli/1011101.jpg","2","","prediction_trial","2","","true","","1","true","true","false","false","false","false","[2,1]","011","101","1","","","","","","",""
"","","","","","image-keyboard-response","203","401365","0.0-178.0","6594720fa43b97e09c261749","665500ab8938657b03fbdba8","6657926f7b985b0425e2afc0","845","stimuli/10111012.jpg"," ","","feedback_trial","2","","","","","","","","","","","","","","","","","","","","",""
"","","","","","image-keyboard-response","204","404760","0.0-179.0","6594720fa43b97e09c261749","665500ab8938657b03fbdba8","6657926f7b985b0425e2afc0","3393","stimuli/1101001.jpg","1","","prediction_trial","1","","true","","1","true","true","true","true","true","true","[1]","101","001","1","","","","","","",""
"","","","","","image-keyboard-response","205","406111","0.0-180.0","6594720fa43b97e09c261749","665500ab8938657b03fbdba8","6657926f7b985b0425e2afc0","1350","stimuli/11010011.jpg"," ","","feedback_trial","1","","","","","","","","","","","","","","","","","","","","",""
"","","","","","image-keyboard-response","206","408207","0.0-181.0","6594720fa43b97e09c261749","665500ab8938657b03fbdba8","6657926f7b985b0425e2afc0","2095","stimuli/2111110.jpg","2","","prediction_trial","1","","false","","2","true","true","false","false","false","false","[1,0,2]","111","110","0","","","","","","",""
"","","","","","image-keyboard-response","207","408875","0.0-182.0","6594720fa43b97e09c261749","665500ab8938657b03fbdba8","6657926f7b985b0425e2afc0","668","stimuli/21111101.jpg"," ","","feedback_trial","1","","","","","","","","","","","","","","","","","","","","",""
"","","","","","image-keyboard-response","208","410636","0.0-183.0","6594720fa43b97e09c261749","665500ab8938657b03fbdba8","6657926f7b985b0425e2afc0","1760","stimuli/0110100.jpg","0","","prediction_trial","1","","false","","0","false","true","false","false","false","false","[1,0]","110","100","0","","","","","","",""
"","","","","","image-keyboard-response","209","411307","0.0-184.0","6594720fa43b97e09c261749","665500ab8938657b03fbdba8","6657926f7b985b0425e2afc0","670","stimuli/01101001.jpg"," ","","feedback_trial","1","","","","","","","","","","","","","","","","","","","","",""
"","","","","","image-keyboard-response","210","413378","0.0-185.0","6594720fa43b97e09c261749","665500ab8938657b03fbdba8","6657926f7b985b0425e2afc0","2069","stimuli/1101101.jpg","1","","prediction_trial","1","","true","","1","true","true","true","true","true","true","[1]","101","101","1","","","","","","",""
"","","","","","image-keyboard-response","211","414828","0.0-186.0","6594720fa43b97e09c261749","665500ab8938657b03fbdba8","6657926f7b985b0425e2afc0","1449","stimuli/11011011.jpg"," ","","feedback_trial","1","","","","","","","","","","","","","","","","","","","","",""
"","","","","","image-keyboard-response","212","416633","0.0-187.0","6594720fa43b97e09c261749","665500ab8938657b03fbdba8","6657926f7b985b0425e2afc0","1805","stimuli/0000110.jpg","0","","prediction_trial","0","","true","","0","false","false","true","true","false","false","[0]","000","110","1","","","","","","",""
"","","","","","image-keyboard-response","213","419049","0.0-188.0","6594720fa43b97e09c261749","665500ab8938657b03fbdba8","6657926f7b985b0425e2afc0","2415","stimuli/00001100.jpg"," ","","feedback_trial","0","","","","","","","","","","","","","","","","","","","","",""
"","","","","","image-keyboard-response","214","422251","0.0-189.0","6594720fa43b97e09c261749","665500ab8938657b03fbdba8","6657926f7b985b0425e2afc0","3202","stimuli/2001100.jpg","2","","prediction_trial","2","","true","","2","true","true","false","true","false","true","[2]","001","100","1","","","","","","",""
"","","","","","image-keyboard-response","215","422918","0.0-190.0","6594720fa43b97e09c261749","665500ab8938657b03fbdba8","6657926f7b985b0425e2afc0","666","stimuli/20011002.jpg"," ","","feedback_trial","2","","","","","","","","","","","","","","","","","","","","",""
"","","","","","image-keyboard-response","216","425350","0.0-191.0","6594720fa43b97e09c261749","665500ab8938657b03fbdba8","6657926f7b985b0425e2afc0","2431","stimuli/0110001.jpg","1","","prediction_trial","1","","true","","0","true","true","false","false","false","false","[0,1]","110","001","1","","","","","","",""
"","","","","","image-keyboard-response","217","425897","0.0-192.0","6594720fa43b97e09c261749","665500ab8938657b03fbdba8","6657926f7b985b0425e2afc0","545","stimuli/01100011.jpg"," ","","feedback_trial","0","","","","","","","","","","","","","","","","","","","","",""
"","","","","","image-keyboard-response","218","428061","0.0-193.0","6594720fa43b97e09c261749","665500ab8938657b03fbdba8","6657926f7b985b0425e2afc0","2163","stimuli/2001011.jpg","1","","prediction_trial","2","","false","","2","false","false","false","true","false","false","[2]","001","011","0","","","","","","",""
"","","","","","image-keyboard-response","219","429158","0.0-194.0","6594720fa43b97e09c261749","665500ab8938657b03fbdba8","6657926f7b985b0425e2afc0","1096","stimuli/20010112.jpg"," ","","feedback_trial","2","","","","","","","","","","","","","","","","","","","","",""
"","","","","","image-keyboard-response","220","430554","0.0-195.0","6594720fa43b97e09c261749","665500ab8938657b03fbdba8","6657926f7b985b0425e2afc0","1395","stimuli/0111101.jpg","2","","prediction_trial","2","","true","","0","false","false","false","false","false","false","[2,0,1]","111","101","1","","","","","","",""
"","","","","","image-keyboard-response","221","431264","0.0-196.0","6594720fa43b97e09c261749","665500ab8938657b03fbdba8","6657926f7b985b0425e2afc0","709","stimuli/01111012.jpg"," ","","feedback_trial","2","","","","","","","","","","","","","","","","","","","","",""
"","","","","","image-keyboard-response","222","432650","0.0-197.0","6594720fa43b97e09c261749","665500ab8938657b03fbdba8","6657926f7b985b0425e2afc0","1384","stimuli/0011111.jpg","0","","prediction_trial","0","","true","","0","false","false","true","true","false","false","[0]","011","111","1","","","","","","",""
"","","","","","image-keyboard-response","223","433376","0.0-198.0","6594720fa43b97e09c261749","665500ab8938657b03fbdba8","6657926f7b985b0425e2afc0","726","stimuli/00111110.jpg"," ","","feedback_trial","0","","","","","","","","","","","","","","","","","","","","",""
"","","","","","image-keyboard-response","224","435498","0.0-199.0","6594720fa43b97e09c261749","665500ab8938657b03fbdba8","6657926f7b985b0425e2afc0","2116","stimuli/2011010.jpg","1","","prediction_trial","2","","false","","2","true","true","false","false","false","false","[2,1]","011","010","0","","","","","","",""
"","","","","","image-keyboard-response","225","436251","0.0-200.0","6594720fa43b97e09c261749","665500ab8938657b03fbdba8","6657926f7b985b0425e2afc0","752","stimuli/20110102.jpg"," ","","feedback_trial","2","","","","","","","","","","","","","","","","","","","","",""
"","","","","","image-keyboard-response","226","437256","0.0-201.0","6594720fa43b97e09c261749","665500ab8938657b03fbdba8","6657926f7b985b0425e2afc0","1004","stimuli/2001001.jpg","2","","prediction_trial","2","","true","","2","false","true","false","true","false","true","[2]","001","001","1","","","","","","",""
"","","","","","image-keyboard-response","227","437908","0.0-202.0","6594720fa43b97e09c261749","665500ab8938657b03fbdba8","6657926f7b985b0425e2afc0","651","stimuli/20010012.jpg"," ","","feedback_trial","2","","","","","","","","","","","","","","","","","","","","",""
"","","","","","image-keyboard-response","228","446787","0.0-203.0","6594720fa43b97e09c261749","665500ab8938657b03fbdba8","6657926f7b985b0425e2afc0","8878","stimuli/1100110.jpg","1","","prediction_trial","1","","true","","1","false","false","true","true","false","false","[1]","100","110","1","","","","","","",""
"","","","","","image-keyboard-response","229","447874","0.0-204.0","6594720fa43b97e09c261749","665500ab8938657b03fbdba8","6657926f7b985b0425e2afc0","1087","stimuli/11001101.jpg"," ","","feedback_trial","1","","","","","","","","","","","","","","","","","","","","",""
"","","","","","image-keyboard-response","230","449320","0.0-205.0","6594720fa43b97e09c261749","665500ab8938657b03fbdba8","6657926f7b985b0425e2afc0","1445","stimuli/0000100.jpg","0","","prediction_trial","0","","true","","0","false","true","true","true","false","true","[0]","000","100","1","","","","","","",""
"","","","","","image-keyboard-response","231","451022","0.0-206.0","6594720fa43b97e09c261749","665500ab8938657b03fbdba8","6657926f7b985b0425e2afc0","1702","stimuli/00001000.jpg"," ","","feedback_trial","0","","","","","","","","","","","","","","","","","","","","",""
"","","","","","image-keyboard-response","232","453052","0.0-207.0","6594720fa43b97e09c261749","665500ab8938657b03fbdba8","6657926f7b985b0425e2afc0","2029","stimuli/2101010.jpg","2","","prediction_trial","2","","true","","2","true","true","false","false","false","false","[2,0]","101","010","1","","","","","","",""
"","","","","","image-keyboard-response","233","453842","0.0-208.0","6594720fa43b97e09c261749","665500ab8938657b03fbdba8","6657926f7b985b0425e2afc0","789","stimuli/21010102.jpg"," ","","feedback_trial","2","","","","","","","","","","","","","","","","","","","","",""
"","","","","","image-keyboard-response","234","455390","0.0-209.0","6594720fa43b97e09c261749","665500ab8938657b03fbdba8","6657926f7b985b0425e2afc0","1547","stimuli/2001010.jpg","1","","prediction_trial","2","","false","","2","true","true","false","true","false","true","[2]","001","010","0","","","","","","",""
"","","","","","image-keyboard-response","235","456096","0.0-210.0","6594720fa43b97e09c261749","665500ab8938657b03fbdba8","6657926f7b985b0425e2afc0","705","stimuli/20010102.jpg"," ","","feedback_trial","2","","","","","","","","","","","","","","","","","","","","",""
"","","","","","image-keyboard-response","236","457043","0.0-211.0","6594720fa43b97e09c261749","665500ab8938657b03fbdba8","6657926f7b985b0425e2afc0","946","stimuli/1000010.jpg","1","","prediction_trial","1","","true","","1","false","true","true","true","false","true","[1]","000","010","1","","","","","","",""
"","","","","","image-keyboard-response","237","457437","0.0-212.0","6594720fa43b97e09c261749","665500ab8938657b03fbdba8","6657926f7b985b0425e2afc0","394","stimuli/10000101.jpg"," ","","feedback_trial","1","","","","","","","","","","","","","","","","","","","","",""
"","","","","","image-keyboard-response","238","458844","0.0-213.0","6594720fa43b97e09c261749","665500ab8938657b03fbdba8","6657926f7b985b0425e2afc0","1405","stimuli/2110010.jpg","1","","prediction_trial","2","","false","","2","true","true","true","true","true","true","[2]","110","010","0","","","","","","",""
"","","","","","image-keyboard-response","239","460757","0.0-214.0","6594720fa43b97e09c261749","665500ab8938657b03fbdba8","6657926f7b985b0425e2afc0","1912","stimuli/21100102.jpg"," ","","feedback_trial","2","","","","","","","","","","","","","","","","","","","","",""
"","","","","","image-keyboard-response","240","462262","0.0-215.0","6594720fa43b97e09c261749","665500ab8938657b03fbdba8","6657926f7b985b0425e2afc0","1505","stimuli/0101001.jpg","0","","prediction_trial","2","","false","","0","true","true","false","false","false","false","[0,2]","101","001","0","","","","","","",""
"","","","","","image-keyboard-response","241","463652","0.0-216.0","6594720fa43b97e09c261749","665500ab8938657b03fbdba8","6657926f7b985b0425e2afc0","1389","stimuli/01010012.jpg"," ","","feedback_trial","0","","","","","","","","","","","","","","","","","","","","",""
"","","","","","image-keyboard-response","242","464651","0.0-217.0","6594720fa43b97e09c261749","665500ab8938657b03fbdba8","6657926f7b985b0425e2afc0","993","stimuli/1010101.jpg","1","","prediction_trial","1","","true","","1","true","true","false","true","false","true","[1]","010","101","1","","","","","","",""
"","","","","","image-keyboard-response","243","465259","0.0-218.0","6594720fa43b97e09c261749","665500ab8938657b03fbdba8","6657926f7b985b0425e2afc0","607","stimuli/10101011.jpg"," ","","feedback_trial","1","","","","","","","","","","","","","","","","","","","","",""
"","","","","","image-keyboard-response","244","466517","0.0-219.0","6594720fa43b97e09c261749","665500ab8938657b03fbdba8","6657926f7b985b0425e2afc0","1256","stimuli/0111111.jpg","2","","prediction_trial","1","","false","","0","false","false","false","false","false","false","[1,0,2]","111","111","0","","","","","","",""
"","","","","","image-keyboard-response","245","467480","0.0-220.0","6594720fa43b97e09c261749","665500ab8938657b03fbdba8","6657926f7b985b0425e2afc0","963","stimuli/01111111.jpg"," ","","feedback_trial","1","","","","","","","","","","","","","","","","","","","","",""
"","","","","","image-keyboard-response","246","469320","0.0-221.0","6594720fa43b97e09c261749","665500ab8938657b03fbdba8","6657926f7b985b0425e2afc0","1839","stimuli/1001010.jpg","1","","prediction_trial","1","","true","","1","false","true","true","true","false","true","[1]","001","010","1","","","","","","",""
"","","","","","image-keyboard-response","247","470037","0.0-222.0","6594720fa43b97e09c261749","665500ab8938657b03fbdba8","6657926f7b985b0425e2afc0","716","stimuli/10010101.jpg"," ","","feedback_trial","1","","","","","","","","","","","","","","","","","","","","",""
"","","","","","image-keyboard-response","248","471429","0.0-223.0","6594720fa43b97e09c261749","665500ab8938657b03fbdba8","6657926f7b985b0425e2afc0","1391","stimuli/0100101.jpg","0","","prediction_trial","0","","true","","0","false","false","false","true","false","false","[0]","100","101","1","","","","","","",""
"","","","","","image-keyboard-response","249","472180","0.0-224.0","6594720fa43b97e09c261749","665500ab8938657b03fbdba8","6657926f7b985b0425e2afc0","750","stimuli/01001010.jpg"," ","","feedback_trial","0","","","","","","","","","","","","","","","","","","","","",""
"","","","","","image-keyboard-response","250","473065","0.0-225.0","6594720fa43b97e09c261749","665500ab8938657b03fbdba8","6657926f7b985b0425e2afc0","884","stimuli/0011000.jpg","0","","prediction_trial","0","","true","","0","true","true","true","true","true","true","[0]","011","000","1","","","","","","",""
"","","","","","image-keyboard-response","251","473453","0.0-226.0","6594720fa43b97e09c261749","665500ab8938657b03fbdba8","6657926f7b985b0425e2afc0","387","stimuli/00110000.jpg"," ","","feedback_trial","0","","","","","","","","","","","","","","","","","","","","",""
"","","","","","image-keyboard-response","252","476265","0.0-227.0","6594720fa43b97e09c261749","665500ab8938657b03fbdba8","6657926f7b985b0425e2afc0","2810","stimuli/2101011.jpg","1","","prediction_trial","2","","false","","2","false","false","false","false","false","false","[0,2]","101","011","0","","","","","","",""
"","","","","","image-keyboard-response","253","476921","0.0-228.0","6594720fa43b97e09c261749","665500ab8938657b03fbdba8","6657926f7b985b0425e2afc0","655","stimuli/21010112.jpg"," ","","feedback_trial","0","","","","","","","","","","","","","","","","","","","","",""
"","","","","","image-keyboard-response","254","478607","0.0-229.0","6594720fa43b97e09c261749","665500ab8938657b03fbdba8","6657926f7b985b0425e2afc0","1685","stimuli/0111000.jpg","0","","prediction_trial","2","","false","","0","true","true","false","false","false","false","[1,2,0]","111","000","0","","","","","","",""
"","","","","","image-keyboard-response","255","479376","0.0-230.0","6594720fa43b97e09c261749","665500ab8938657b03fbdba8","6657926f7b985b0425e2afc0","767","stimuli/01110002.jpg"," ","","feedback_trial","1","","","","","","","","","","","","","","","","","","","","",""
"","","","","","image-keyboard-response","256","480559","0.0-231.0","6594720fa43b97e09c261749","665500ab8938657b03fbdba8","6657926f7b985b0425e2afc0","1183","stimuli/1101010.jpg","1","","prediction_trial","1","","true","","1","false","true","true","true","false","true","[1]","101","010","1","","","","","","",""
"","","","","","image-keyboard-response","257","481138","0.0-232.0","6594720fa43b97e09c261749","665500ab8938657b03fbdba8","6657926f7b985b0425e2afc0","579","stimuli/11010101.jpg"," ","","feedback_trial","1","","","","","","","","","","","","","","","","","","","","",""
"","","","","","image-keyboard-response","258","482075","0.0-233.0","6594720fa43b97e09c261749","665500ab8938657b03fbdba8","6657926f7b985b0425e2afc0","936","stimuli/2100101.jpg","2","","prediction_trial","2","","true","","2","false","false","true","true","false","false","[2]","100","101","1","","","","","","",""
"","","","","","image-keyboard-response","259","482679","0.0-234.0","6594720fa43b97e09c261749","665500ab8938657b03fbdba8","6657926f7b985b0425e2afc0","603","stimuli/21001012.jpg"," ","","feedback_trial","2","","","","","","","","","","","","","","","","","","","","",""
"","","","","","image-keyboard-response","260","483794","0.0-235.0","6594720fa43b97e09c261749","665500ab8938657b03fbdba8","6657926f7b985b0425e2afc0","1114","stimuli/2000111.jpg","0","","prediction_trial","2","","false","","2","false","false","true","true","false","false","[2]","000","111","0","","","","","","",""
"","","","","","image-keyboard-response","261","484530","0.0-236.0","6594720fa43b97e09c261749","665500ab8938657b03fbdba8","6657926f7b985b0425e2afc0","735","stimuli/20001112.jpg"," ","","feedback_trial","2","","","","","","","","","","","","","","","","","","","","",""
"","","","","","image-keyboard-response","262","486542","0.0-237.0","6594720fa43b97e09c261749","665500ab8938657b03fbdba8","6657926f7b985b0425e2afc0","2010","stimuli/0001111.jpg","1","","prediction_trial","0","","false","","0","false","false","true","true","false","false","[0]","001","111","0","","","","","","",""
"","","","","","image-keyboard-response","263","487317","0.0-238.0","6594720fa43b97e09c261749","665500ab8938657b03fbdba8","6657926f7b985b0425e2afc0","774","stimuli/00011110.jpg"," ","","feedback_trial","0","","","","","","","","","","","","","","","","","","","","",""
"","","","","","image-keyboard-response","264","488124","0.0-239.0","6594720fa43b97e09c261749","665500ab8938657b03fbdba8","6657926f7b985b0425e2afc0","806","stimuli/0100111.jpg","1","","prediction_trial","0","","false","","0","false","false","false","true","false","false","[0]","100","111","0","","","","","","",""
"","","","","","image-keyboard-response","265","489390","0.0-240.0","6594720fa43b97e09c261749","665500ab8938657b03fbdba8","6657926f7b985b0425e2afc0","1265","stimuli/01001110.jpg"," ","","feedback_trial","0","","","","","","","","","","","","","","","","","","","","",""
"","","","","","image-keyboard-response","266","492914","0.0-241.0","6594720fa43b97e09c261749","665500ab8938657b03fbdba8","6657926f7b985b0425e2afc0","3523","stimuli/0010110.jpg","0","","prediction_trial","0","","true","","0","false","false","true","true","false","false","[0]","010","110","1","","","","","","",""
"","","","","","image-keyboard-response","267","493522","0.0-242.0","6594720fa43b97e09c261749","665500ab8938657b03fbdba8","6657926f7b985b0425e2afc0","607","stimuli/00101100.jpg"," ","","feedback_trial","0","","","","","","","","","","","","","","","","","","","","",""
"","","","","","image-keyboard-response","268","495149","0.0-243.0","6594720fa43b97e09c261749","665500ab8938657b03fbdba8","6657926f7b985b0425e2afc0","1626","stimuli/2011111.jpg","1","","prediction_trial","1","","true","","2","false","false","false","false","false","false","[1,2]","011","111","1","","","","","","",""
"","","","","","image-keyboard-response","269","495764","0.0-244.0","6594720fa43b97e09c261749","665500ab8938657b03fbdba8","6657926f7b985b0425e2afc0","614","stimuli/20111111.jpg"," ","","feedback_trial","1","","","","","","","","","","","","","","","","","","","","",""
"","","","","","image-keyboard-response","270","496740","0.0-245.0","6594720fa43b97e09c261749","665500ab8938657b03fbdba8","6657926f7b985b0425e2afc0","975","stimuli/1100001.jpg","1","","prediction_trial","1","","true","","1","true","true","true","true","true","true","[1]","100","001","1","","","","","","",""
"","","","","","image-keyboard-response","271","497224","0.0-246.0","6594720fa43b97e09c261749","665500ab8938657b03fbdba8","6657926f7b985b0425e2afc0","483","stimuli/11000011.jpg"," ","","feedback_trial","1","","","","","","","","","","","","","","","","","","","","",""
"","","","","","image-keyboard-response","272","498362","0.0-247.0","6594720fa43b97e09c261749","665500ab8938657b03fbdba8","6657926f7b985b0425e2afc0","1137","stimuli/0010001.jpg","0","","prediction_trial","0","","true","","0","true","true","true","true","true","true","[0]","010","001","1","","","","","","",""
"","","","","","image-keyboard-response","273","498854","0.0-248.0","6594720fa43b97e09c261749","665500ab8938657b03fbdba8","6657926f7b985b0425e2afc0","491","stimuli/00100010.jpg"," ","","feedback_trial","0","","","","","","","","","","","","","","","","","","","","",""
"","","","","","image-keyboard-response","274","500010","0.0-249.0","6594720fa43b97e09c261749","665500ab8938657b03fbdba8","6657926f7b985b0425e2afc0","1155","stimuli/1010000.jpg","1","","prediction_trial","1","","true","","1","true","true","false","true","false","true","[1]","010","000","1","","","","","","",""
"","","","","","image-keyboard-response","275","500540","0.0-250.0","6594720fa43b97e09c261749","665500ab8938657b03fbdba8","6657926f7b985b0425e2afc0","530","stimuli/10100001.jpg"," ","","feedback_trial","1","","","","","","","","","","","","","","","","","","","","",""
"","","","","","image-keyboard-response","276","501930","0.0-251.0","6594720fa43b97e09c261749","665500ab8938657b03fbdba8","6657926f7b985b0425e2afc0","1389","stimuli/1001011.jpg","2","","prediction_trial","1","","false","","1","false","false","true","true","false","false","[1]","001","011","0","","","","","","",""
"","","","","","image-keyboard-response","277","502582","0.0-252.0","6594720fa43b97e09c261749","665500ab8938657b03fbdba8","6657926f7b985b0425e2afc0","652","stimuli/10010111.jpg"," ","","feedback_trial","1","","","","","","","","","","","","","","","","","","","","",""
"","","","","","image-keyboard-response","278","503519","0.0-253.0","6594720fa43b97e09c261749","665500ab8938657b03fbdba8","6657926f7b985b0425e2afc0","932","stimuli/1010111.jpg","2","","prediction_trial","1","","false","","1","false","false","false","true","false","false","[1]","010","111","0","","","","","","",""
"","","","","","image-keyboard-response","279","505002","0.0-254.0","6594720fa43b97e09c261749","665500ab8938657b03fbdba8","6657926f7b985b0425e2afc0","1482","stimuli/10101111.jpg"," ","","feedback_trial","1","","","","","","","","","","","","","","","","","","","","",""
"","","","","","image-keyboard-response","280","505999","0.0-255.0","6594720fa43b97e09c261749","665500ab8938657b03fbdba8","6657926f7b985b0425e2afc0","995","stimuli/1001101.jpg","1","","prediction_trial","1","","true","","1","true","true","true","true","true","true","[1]","001","101","1","","","","","","",""
"","","","","","image-keyboard-response","281","506429","0.0-256.0","6594720fa43b97e09c261749","665500ab8938657b03fbdba8","6657926f7b985b0425e2afc0","428","stimuli/10011011.jpg"," ","","feedback_trial","1","","","","","","","","","","","","","","","","","","","","",""
"","","","","","image-keyboard-response","282","508205","0.0-257.0","6594720fa43b97e09c261749","665500ab8938657b03fbdba8","6657926f7b985b0425e2afc0","1775","stimuli/1101111.jpg","1","","prediction_trial","1","","true","","1","false","false","true","true","false","false","[1]","101","111","1","","","","","","",""
"","","","","","image-keyboard-response","283","511239","0.0-258.0","6594720fa43b97e09c261749","665500ab8938657b03fbdba8","6657926f7b985b0425e2afc0","3034","stimuli/11011111.jpg"," ","","feedback_trial","1","","","","","","","","","","","","","","","","","","","","",""
"","","","","","image-keyboard-response","284","513910","0.0-259.0","6594720fa43b97e09c261749","665500ab8938657b03fbdba8","6657926f7b985b0425e2afc0","2670","stimuli/0011100.jpg","0","","prediction_trial","0","","true","","0","false","true","true","true","false","true","[0]","011","100","1","","","","","","",""
"","","","","","image-keyboard-response","285","514419","0.0-260.0","6594720fa43b97e09c261749","665500ab8938657b03fbdba8","6657926f7b985b0425e2afc0","508","stimuli/00111000.jpg"," ","","feedback_trial","0","","","","","","","","","","","","","","","","","","","","",""
"","","","","","image-keyboard-response","286","515424","0.0-261.0","6594720fa43b97e09c261749","665500ab8938657b03fbdba8","6657926f7b985b0425e2afc0","1004","stimuli/1010010.jpg","1","","prediction_trial","1","","true","","1","false","true","false","true","false","true","[1]","010","010","1","","","","","","",""
"","","","","","image-keyboard-response","287","515977","0.0-262.0","6594720fa43b97e09c261749","665500ab8938657b03fbdba8","6657926f7b985b0425e2afc0","552","stimuli/10100101.jpg"," ","","feedback_trial","1","","","","","","","","","","","","","","","","","","","","",""
"","","","","","image-keyboard-response","288","517476","0.0-263.0","6594720fa43b97e09c261749","665500ab8938657b03fbdba8","6657926f7b985b0425e2afc0","1498","stimuli/1100101.jpg","1","","prediction_trial","1","","true","","1","true","true","true","true","true","true","[1]","100","101","1","","","","","","",""
"","","","","","image-keyboard-response","289","518019","0.0-264.0","6594720fa43b97e09c261749","665500ab8938657b03fbdba8","6657926f7b985b0425e2afc0","542","stimuli/11001011.jpg"," ","","feedback_trial","1","","","","","","","","","","","","","","","","","","","","",""
"","","","","","image-keyboard-response","290","521471","0.0-265.0","6594720fa43b97e09c261749","665500ab8938657b03fbdba8","6657926f7b985b0425e2afc0","3451","stimuli/2111001.jpg","2","","prediction_trial","2","","true","","2","false","true","false","false","false","false","[1,0,2]","111","001","1","","","","","","",""
"","","","","","image-keyboard-response","291","522114","0.0-266.0","6594720fa43b97e09c261749","665500ab8938657b03fbdba8","6657926f7b985b0425e2afc0","642","stimuli/21110012.jpg"," ","","feedback_trial","1","","","","","","","","","","","","","","","","","","","","",""
"","","","","","image-keyboard-response","292","523528","0.0-267.0","6594720fa43b97e09c261749","665500ab8938657b03fbdba8","6657926f7b985b0425e2afc0","1413","stimuli/1001111.jpg","2","","prediction_trial","1","","false","","1","false","false","true","true","false","false","[1]","001","111","0","","","","","","",""
"","","","","","image-keyboard-response","293","524254","0.0-268.0","6594720fa43b97e09c261749","665500ab8938657b03fbdba8","6657926f7b985b0425e2afc0","726","stimuli/10011111.jpg"," ","","feedback_trial","1","","","","","","","","","","","","","","","","","","","","",""
"","","","","","image-keyboard-response","294","526552","0.0-269.0","6594720fa43b97e09c261749","665500ab8938657b03fbdba8","6657926f7b985b0425e2afc0","2296","stimuli/1110111.jpg","2","","prediction_trial","1","","false","","1","false","false","false","false","false","false","[1,0]","110","111","0","","","","","","",""
"","","","","","image-keyboard-response","295","527009","0.0-270.0","6594720fa43b97e09c261749","665500ab8938657b03fbdba8","6657926f7b985b0425e2afc0","456","stimuli/11101111.jpg"," ","","feedback_trial","1","","","","","","","","","","","","","","","","","","","","",""
"","","","","","image-keyboard-response","296","528166","0.0-271.0","6594720fa43b97e09c261749","665500ab8938657b03fbdba8","6657926f7b985b0425e2afc0","1156","stimuli/0111100.jpg","0","","prediction_trial","1","","false","","0","false","true","false","false","false","false","[1,0,2]","111","100","0","","","","","","",""
"","","","","","image-keyboard-response","297","528725","0.0-272.0","6594720fa43b97e09c261749","665500ab8938657b03fbdba8","6657926f7b985b0425e2afc0","557","stimuli/01111001.jpg"," ","","feedback_trial","1","","","","","","","","","","","","","","","","","","","","",""
"","","","","","image-keyboard-response","298","529598","0.0-273.0","6594720fa43b97e09c261749","665500ab8938657b03fbdba8","6657926f7b985b0425e2afc0","872","stimuli/2000100.jpg","2","","prediction_trial","2","","true","","2","true","true","true","true","true","true","[2]","000","100","1","","","","","","",""
"","","","","","image-keyboard-response","299","530153","0.0-274.0","6594720fa43b97e09c261749","665500ab8938657b03fbdba8","6657926f7b985b0425e2afc0","554","stimuli/20001002.jpg"," ","","feedback_trial","2","","","","","","","","","","","","","","","","","","","","",""
"","","","","","image-keyboard-response","300","531302","0.0-275.0","6594720fa43b97e09c261749","665500ab8938657b03fbdba8","6657926f7b985b0425e2afc0","1148","stimuli/2111101.jpg","2","","prediction_trial","2","","true","","2","false","false","false","false","false","false","[2,1,0]","111","101","1","","","","","","",""
"","","","","","image-keyboard-response","301","531924","0.0-276.0","6594720fa43b97e09c261749","665500ab8938657b03fbdba8","6657926f7b985b0425e2afc0","622","stimuli/21111012.jpg"," ","","feedback_trial","2","","","","","","","","","","","","","","","","","","","","",""
"","","","","","image-keyboard-response","302","532980","0.0-277.0","6594720fa43b97e09c261749","665500ab8938657b03fbdba8","6657926f7b985b0425e2afc0","1055","stimuli/1100000.jpg","1","","prediction_trial","1","","true","","1","true","true","true","true","true","true","[1]","100","000","1","","","","","","",""
"","","","","","image-keyboard-response","303","533387","0.0-278.0","6594720fa43b97e09c261749","665500ab8938657b03fbdba8","6657926f7b985b0425e2afc0","406","stimuli/11000001.jpg"," ","","feedback_trial","1","","","","","","","","","","","","","","","","","","","","",""
"","","","","","image-keyboard-response","304","534709","0.0-279.0","6594720fa43b97e09c261749","665500ab8938657b03fbdba8","6657926f7b985b0425e2afc0","1320","stimuli/0111010.jpg","0","","prediction_trial","1","","false","","0","true","true","false","false","false","false","[1,2,0]","111","010","0","","","","","","",""
"","","","","","image-keyboard-response","305","535431","0.0-280.0","6594720fa43b97e09c261749","665500ab8938657b03fbdba8","6657926f7b985b0425e2afc0","721","stimuli/01110101.jpg"," ","","feedback_trial","1","","","","","","","","","","","","","","","","","","","","",""
"","","","","","image-keyboard-response","306","536215","0.0-281.0","6594720fa43b97e09c261749","665500ab8938657b03fbdba8","6657926f7b985b0425e2afc0","783","stimuli/0110101.jpg","0","","prediction_trial","0","","true","","0","false","false","false","false","false","false","[1,0]","110","101","1","","","","","","",""
"","","","","","image-keyboard-response","307","536849","0.0-282.0","6594720fa43b97e09c261749","665500ab8938657b03fbdba8","6657926f7b985b0425e2afc0","632","stimuli/01101010.jpg"," ","","feedback_trial","1","","","","","","","","","","","","","","","","","","","","",""
"","","","","","image-keyboard-response","308","540264","0.0-283.0","6594720fa43b97e09c261749","665500ab8938657b03fbdba8","6657926f7b985b0425e2afc0","3414","stimuli/0011110.jpg","0","","prediction_trial","0","","true","","0","false","false","true","true","false","false","[0]","011","110","1","","","","","","",""
"","","","","","image-keyboard-response","309","541039","0.0-284.0","6594720fa43b97e09c261749","665500ab8938657b03fbdba8","6657926f7b985b0425e2afc0","775","stimuli/00111100.jpg"," ","","feedback_trial","0","","","","","","","","","","","","","","","","","","","","",""
"","","","","","image-keyboard-response","310","543080","0.0-285.0","6594720fa43b97e09c261749","665500ab8938657b03fbdba8","6657926f7b985b0425e2afc0","2040","stimuli/1010001.jpg","1","","prediction_trial","1","","true","","1","true","true","false","true","false","true","[1]","010","001","1","","","","","","",""
"","","","","","image-keyboard-response","311","543756","0.0-286.0","6594720fa43b97e09c261749","665500ab8938657b03fbdba8","6657926f7b985b0425e2afc0","675","stimuli/10100011.jpg"," ","","feedback_trial","1","","","","","","","","","","","","","","","","","","","","",""
"","","","","","image-keyboard-response","312","544731","0.0-287.0","6594720fa43b97e09c261749","665500ab8938657b03fbdba8","6657926f7b985b0425e2afc0","975","stimuli/2011000.jpg","2","","prediction_trial","2","","true","","2","true","true","false","false","false","false","[1,2]","011","000","1","","","","","","",""
"","","","","","image-keyboard-response","313","545416","0.0-288.0","6594720fa43b97e09c261749","665500ab8938657b03fbdba8","6657926f7b985b0425e2afc0","684","stimuli/20110002.jpg"," ","","feedback_trial","1","","","","","","","","","","","","","","","","","","","","",""
"","","","","","image-keyboard-response","314","546417","0.0-289.0","6594720fa43b97e09c261749","665500ab8938657b03fbdba8","6657926f7b985b0425e2afc0","999","stimuli/0000011.jpg","0","","prediction_trial","0","","true","","0","true","true","true","true","true","true","[0]","000","011","1","","","","","","",""
"","","","","","image-keyboard-response","315","546801","0.0-290.0","6594720fa43b97e09c261749","665500ab8938657b03fbdba8","6657926f7b985b0425e2afc0","383","stimuli/00000110.jpg"," ","","feedback_trial","0","","","","","","","","","","","","","","","","","","","","",""
"","","","","","image-keyboard-response","316","547422","0.0-291.0","6594720fa43b97e09c261749","665500ab8938657b03fbdba8","6657926f7b985b0425e2afc0","620","stimuli/2100100.jpg","2","","prediction_trial","2","","true","","2","true","true","true","true","true","true","[2]","100","100","1","","","","","","",""
"","","","","","image-keyboard-response","317","547856","0.0-292.0","6594720fa43b97e09c261749","665500ab8938657b03fbdba8","6657926f7b985b0425e2afc0","434","stimuli/21001002.jpg"," ","","feedback_trial","2","","","","","","","","","","","","","","","","","","","","",""
"","","","","","survey-html-form","318","598984","0.0-293.0","6594720fa43b97e09c261749","665500ab8938657b03fbdba8","6657926f7b985b0425e2afc0","51126","","{""feedback"":""I chose randomly when the red ball was not visible. I have no questions."",""age"":""42"",""gender"":""Female"",""other_gender"":"""",""race"":""Black/African American"",""other_race"":"""",""ethnicity"":""Non-Hispanic""}","","exit_survey","","","","","","","","","","","","","","","","I chose randomly when the red ball was not visible. I have no questions.","42","Non-Hispanic","Female","Black/African American","0.6388888888888888","0.6388888888888888"
