"success","timeout","failed_images","failed_audio","failed_video","trial_type","trial_index","time_elapsed","internal_node_id","prolific_id","prolific_study_id","prolific_session_id","rt","stimulus","response","view_history","trial","character_choice","stimulus_dict","accuracy","correct_response","ball_pos","ego_ball_visible","ego_can_infer","alter_ball_visible","alter_can_infer","collective_ball_visible","collective_can_infer","search_locations","alter_occluders","ego_occluders","accuracy_bool","feedback","age","ethnicity","gender","race","overall_accuracy","bonus"
"true","false","[]","[]","[]","preload","0","186404","0.0-0.0","63ade94905e590dbf726b7fb","665500ab8938657b03fbdba8","66579278e5ee9db44cd36c69","","","","","","","","","","","","","","","","","","","","","","","","","","",""
"true","","","","","fullscreen","1","210298","0.0-1.0","63ade94905e590dbf726b7fb","665500ab8938657b03fbdba8","66579278e5ee9db44cd36c69","","","","","","","","","","","","","","","","","","","","","","","","","","",""
"","","","","","html-button-response","2","215345","0.0-2.0","63ade94905e590dbf726b7fb","665500ab8938657b03fbdba8","66579278e5ee9db44cd36c69","5040","<p><b>Consent Form</b></p> <div style=""text-align:left;background-color:lightgrey; padding:20px; max-width:900px;""><p>Please consider this information carefully before deciding whether to participate in this research.</p> <p>The purpose of this research is to examine which factors influence social judgment and decision-making. You will be asked to make judgements about individuals and actions in social scenarios. We are simply interested in your judgement. The study will take less than 1 hour to complete, and you will receive less than $20 on Prolific. Your compensation and time commitment are specified in the study description. There are no anticipated risks associated with participating in this study. The effects of participating should be comparable to those you would ordinarily experience from viewing a computer monitor and using a mouse or keyboard for a similar amount of time. At the end of the study, we will provide an explanation of the questions that motivate this line of research and will describe the potential implications. </p><p> Your participation in this study is completely voluntary and you may refuse to participate or you may choose to withdraw at any time without penalty or loss of benefits to you which are otherwise entitled. Your participation in this study will remain confidential. No personally identifiable information will be associated with your data. Also, all analyses of the data will be averaged across all the participants, so your individual responses will never be specifically analyzed. </p><p> If you have questions or concerns about your participation or payment, or want to request a summary of research findings, please contact Dr. Jonathan Phillips at Jonathan.S.Phillips@dartmouth.edu. </p><p> Please save a copy of this form for your records. </p><p><b>Agreement: </b>The nature and purpose of this research have been sufficiently explained and I agree to participate in this study. I understand that I am free to withdraw at any time without incurring any penalty. Please consent by clicking the button below to continue. Otherwise, please exit the study at any time. </p>","0","","","","","","","","","","","","","","","","","","","","","","","",""
"","","","","","instructions","3","355843","0.0-3.0-0.0","63ade94905e590dbf726b7fb","665500ab8938657b03fbdba8","66579278e5ee9db44cd36c69","140497","","","[{""page_index"":0,""viewing_time"":1442},{""page_index"":1,""viewing_time"":2496},{""page_index"":2,""viewing_time"":5488},{""page_index"":3,""viewing_time"":16845},{""page_index"":4,""viewing_time"":3985},{""page_index"":5,""viewing_time"":6974},{""page_index"":6,""viewing_time"":1921},{""page_index"":7,""viewing_time"":15830},{""page_index"":8,""viewing_time"":3630},{""page_index"":9,""viewing_time"":2816},{""page_index"":10,""viewing_time"":68145},{""page_index"":11,""viewing_time"":5393},{""page_index"":12,""viewing_time"":3679},{""page_index"":13,""viewing_time"":1852}]","intro","","","","","","","","","","","","","","","","","","","","","",""
"","","","","","image-keyboard-response","4","363303","0.0-3.0-1.0","63ade94905e590dbf726b7fb","665500ab8938657b03fbdba8","66579278e5ee9db44cd36c69","7453","stimuli/0111001.jpg","1","","prediction_practice","2","{""filepath"":""stimuli/0111001.jpg"",""ball_pos"":0,""ego_ball_visible"":true,""ego_can_infer"":true,""alter_ball_visible"":false,""alter_can_infer"":false,""collective_ball_visible"":false,""collective_can_infer"":false,""search_locations"":[1,0,2],""alter_occluders"":""111"",""ego_occluders"":""001""}","false","","","","","","","","","","","","","","","","","","",""
"","","","","","image-keyboard-response","5","371029","0.0-3.0-2.0","63ade94905e590dbf726b7fb","665500ab8938657b03fbdba8","66579278e5ee9db44cd36c69","7722","stimuli/01110012.jpg"," ","","practrice_feedback","1","","","","","","","","","","","","","","","","","","","","",""
"","","","","","image-keyboard-response","6","373382","0.0-3.0-3.0","63ade94905e590dbf726b7fb","665500ab8938657b03fbdba8","66579278e5ee9db44cd36c69","2346","stimuli/2101000.jpg","0","","prediction_practice","2","{""filepath"":""stimuli/2101000.jpg"",""ball_pos"":2,""ego_ball_visible"":true,""ego_can_infer"":true,""alter_ball_visible"":false,""alter_can_infer"":false,""collective_ball_visible"":false,""collective_can_infer"":false,""search_locations"":[0,2],""alter_occluders"":""101"",""ego_occluders"":""000""}","false","","","","","","","","","","","","","","","","","","",""
"","","","","","image-keyboard-response","7","374361","0.0-3.0-4.0","63ade94905e590dbf726b7fb","665500ab8938657b03fbdba8","66579278e5ee9db44cd36c69","977","stimuli/21010002.jpg"," ","","practrice_feedback","0","","","","","","","","","","","","","","","","","","","","",""
"","","","","","image-keyboard-response","8","375843","0.0-3.0-5.0","63ade94905e590dbf726b7fb","665500ab8938657b03fbdba8","66579278e5ee9db44cd36c69","1475","stimuli/1011101.jpg","0","","prediction_practice","2","{""filepath"":""stimuli/1011101.jpg"",""ball_pos"":1,""ego_ball_visible"":true,""ego_can_infer"":true,""alter_ball_visible"":false,""alter_can_infer"":false,""collective_ball_visible"":false,""collective_can_infer"":false,""search_locations"":[2,1],""alter_occluders"":""011"",""ego_occluders"":""101""}","false","","","","","","","","","","","","","","","","","","",""
"","","","","","image-keyboard-response","9","376590","0.0-3.0-6.0","63ade94905e590dbf726b7fb","665500ab8938657b03fbdba8","66579278e5ee9db44cd36c69","743","stimuli/10111012.jpg"," ","","practrice_feedback","2","","","","","","","","","","","","","","","","","","","","",""
"","","","","","image-keyboard-response","10","378212","0.0-3.0-7.0","63ade94905e590dbf726b7fb","665500ab8938657b03fbdba8","66579278e5ee9db44cd36c69","1617","stimuli/0111100.jpg","2","","prediction_practice","0","{""filepath"":""stimuli/0111100.jpg"",""ball_pos"":0,""ego_ball_visible"":false,""ego_can_infer"":true,""alter_ball_visible"":false,""alter_can_infer"":false,""collective_ball_visible"":false,""collective_can_infer"":false,""search_locations"":[2,1,0],""alter_occluders"":""111"",""ego_occluders"":""100""}","false","","","","","","","","","","","","","","","","","","",""
"","","","","","image-keyboard-response","11","378957","0.0-3.0-8.0","63ade94905e590dbf726b7fb","665500ab8938657b03fbdba8","66579278e5ee9db44cd36c69","741","stimuli/01111000.jpg"," ","","practrice_feedback","2","","","","","","","","","","","","","","","","","","","","",""
"","","","","","image-keyboard-response","12","435037","0.0-3.0-9.0","63ade94905e590dbf726b7fb","665500ab8938657b03fbdba8","66579278e5ee9db44cd36c69","56077","stimuli/1101011.jpg","1","","prediction_practice","1","{""filepath"":""stimuli/1101011.jpg"",""ball_pos"":1,""ego_ball_visible"":false,""ego_can_infer"":false,""alter_ball_visible"":true,""alter_can_infer"":true,""collective_ball_visible"":false,""collective_can_infer"":false,""search_locations"":[1],""alter_occluders"":""101"",""ego_occluders"":""011""}","true","","","","","","","","","","","","","","","","","","",""
"","","","","","image-keyboard-response","13","438603","0.0-3.0-10.0","63ade94905e590dbf726b7fb","665500ab8938657b03fbdba8","66579278e5ee9db44cd36c69","3562","stimuli/11010111.jpg"," ","","practrice_feedback","1","","","","","","","","","","","","","","","","","","","","",""
"","","","","","image-keyboard-response","14","445052","0.0-3.0-11.0","63ade94905e590dbf726b7fb","665500ab8938657b03fbdba8","66579278e5ee9db44cd36c69","6447","stimuli/2110101.jpg","1","","prediction_practice","2","{""filepath"":""stimuli/2110101.jpg"",""ball_pos"":2,""ego_ball_visible"":false,""ego_can_infer"":false,""alter_ball_visible"":true,""alter_can_infer"":true,""collective_ball_visible"":false,""collective_can_infer"":false,""search_locations"":[2],""alter_occluders"":""110"",""ego_occluders"":""101""}","false","","","","","","","","","","","","","","","","","","",""
"","","","","","image-keyboard-response","15","447001","0.0-3.0-12.0","63ade94905e590dbf726b7fb","665500ab8938657b03fbdba8","66579278e5ee9db44cd36c69","1947","stimuli/21101012.jpg"," ","","practrice_feedback","2","","","","","","","","","","","","","","","","","","","","",""
"","","","","","image-keyboard-response","16","448387","0.0-3.0-13.0","63ade94905e590dbf726b7fb","665500ab8938657b03fbdba8","66579278e5ee9db44cd36c69","1383","stimuli/0101000.jpg","0","","prediction_practice","2","{""filepath"":""stimuli/0101000.jpg"",""ball_pos"":0,""ego_ball_visible"":true,""ego_can_infer"":true,""alter_ball_visible"":false,""alter_can_infer"":false,""collective_ball_visible"":false,""collective_can_infer"":false,""search_locations"":[0,2],""alter_occluders"":""101"",""ego_occluders"":""000""}","false","","","","","","","","","","","","","","","","","","",""
"","","","","","image-keyboard-response","17","449234","0.0-3.0-14.0","63ade94905e590dbf726b7fb","665500ab8938657b03fbdba8","66579278e5ee9db44cd36c69","844","stimuli/01010002.jpg"," ","","practrice_feedback","0","","","","","","","","","","","","","","","","","","","","",""
"","","","","","image-keyboard-response","18","453113","0.0-3.0-15.0","63ade94905e590dbf726b7fb","665500ab8938657b03fbdba8","66579278e5ee9db44cd36c69","3877","stimuli/2011001.jpg","2","","prediction_practice","2","{""filepath"":""stimuli/2011001.jpg"",""ball_pos"":2,""ego_ball_visible"":false,""ego_can_infer"":true,""alter_ball_visible"":false,""alter_can_infer"":false,""collective_ball_visible"":false,""collective_can_infer"":false,""search_locations"":[1,2],""alter_occluders"":""011"",""ego_occluders"":""001""}","true","","","","","","","","","","","","","","","","","","",""
"","","","","","image-keyboard-response","19","455103","0.0-3.0-16.0","63ade94905e590dbf726b7fb","665500ab8938657b03fbdba8","66579278e5ee9db44cd36c69","1987","stimuli/20110012.jpg"," ","","practrice_feedback","1","","","","","","","","","","","","","","","","","","","","",""
"","","","","","image-keyboard-response","20","456686","0.0-3.0-17.0","63ade94905e590dbf726b7fb","665500ab8938657b03fbdba8","66579278e5ee9db44cd36c69","1580","stimuli/2011100.jpg","2","","prediction_practice","1","{""filepath"":""stimuli/2011100.jpg"",""ball_pos"":2,""ego_ball_visible"":true,""ego_can_infer"":true,""alter_ball_visible"":false,""alter_can_infer"":false,""collective_ball_visible"":false,""collective_can_infer"":false,""search_locations"":[1,2],""alter_occluders"":""011"",""ego_occluders"":""100""}","false","","","","","","","","","","","","","","","","","","",""
"","","","","","image-keyboard-response","21","457451","0.0-3.0-18.0","63ade94905e590dbf726b7fb","665500ab8938657b03fbdba8","66579278e5ee9db44cd36c69","763","stimuli/20111001.jpg"," ","","practrice_feedback","1","","","","","","","","","","","","","","","","","","","","",""
"","","","","","image-keyboard-response","22","458452","0.0-3.0-19.0","63ade94905e590dbf726b7fb","665500ab8938657b03fbdba8","66579278e5ee9db44cd36c69","999","stimuli/0000100.jpg","2","","prediction_practice","0","{""filepath"":""stimuli/0000100.jpg"",""ball_pos"":0,""ego_ball_visible"":false,""ego_can_infer"":true,""alter_ball_visible"":true,""alter_can_infer"":true,""collective_ball_visible"":false,""collective_can_infer"":true,""search_locations"":[0],""alter_occluders"":""000"",""ego_occluders"":""100""}","false","","","","","","","","","","","","","","","","","","",""
"","","","","","image-keyboard-response","23","459167","0.0-3.0-20.0","63ade94905e590dbf726b7fb","665500ab8938657b03fbdba8","66579278e5ee9db44cd36c69","712","stimuli/00001000.jpg"," ","","practrice_feedback","0","","","","","","","","","","","","","","","","","","","","",""
"","","","","","html-button-response","24","465801","0.0-3.0-21.0","63ade94905e590dbf726b7fb","665500ab8938657b03fbdba8","66579278e5ee9db44cd36c69","6631","Now that you've had some practice, you'll be tested with a couple of easy trials. If you correctly predict Sam's choice, you'll move on to complete the experiment!","0","","","","","","","","","","","","","","","","","","","","","","","",""
"","","","","","image-keyboard-response","25","470040","0.0-3.0-22.0-0.0","63ade94905e590dbf726b7fb","665500ab8938657b03fbdba8","66579278e5ee9db44cd36c69","4237","stimuli/0000011.jpg","arrowleft","","comprehension_quiz","","","true","arrowleft","","","","","","","","","","","","","","","","","",""
"","","","","","image-keyboard-response","26","470675","0.0-3.0-22.0-1.0","63ade94905e590dbf726b7fb","665500ab8938657b03fbdba8","66579278e5ee9db44cd36c69","630","stimuli/00000110.jpg"," ","","comprehension_quiz","","","true"," ","","","","","","","","","","","","","","","","","",""
"","","","","","image-keyboard-response","27","473398","0.0-3.0-22.0-2.0","63ade94905e590dbf726b7fb","665500ab8938657b03fbdba8","66579278e5ee9db44cd36c69","2720","stimuli/1010010.jpg","arrowdown","","comprehension_quiz","","","true","arrowdown","","","","","","","","","","","","","","","","","",""
"","","","","","image-keyboard-response","28","474092","0.0-3.0-22.0-3.0","63ade94905e590dbf726b7fb","665500ab8938657b03fbdba8","66579278e5ee9db44cd36c69","691","stimuli/10100101.jpg"," ","","comprehension_quiz","","","true"," ","","","","","","","","","","","","","","","","","",""
"","","","","","html-button-response","29","476341","0.0-4.0","63ade94905e590dbf726b7fb","665500ab8938657b03fbdba8","66579278e5ee9db44cd36c69","2246","The experiment will now begin.","0","","","","","","","","","","","","","","","","","","","","","","","",""
"","","","","","image-keyboard-response","30","479142","0.0-5.0","63ade94905e590dbf726b7fb","665500ab8938657b03fbdba8","66579278e5ee9db44cd36c69","2783","stimuli/0011000.jpg","1","","prediction_trial","0","","false","","0","true","true","true","true","true","true","[0]","011","000","0","","","","","","",""
"","","","","","image-keyboard-response","31","479969","0.0-6.0","63ade94905e590dbf726b7fb","665500ab8938657b03fbdba8","66579278e5ee9db44cd36c69","824","stimuli/00110000.jpg"," ","","feedback_trial","0","","","","","","","","","","","","","","","","","","","","",""
"","","","","","image-keyboard-response","32","481131","0.0-7.0","63ade94905e590dbf726b7fb","665500ab8938657b03fbdba8","66579278e5ee9db44cd36c69","1155","stimuli/0011101.jpg","1","","prediction_trial","0","","false","","0","false","false","true","true","false","false","[0]","011","101","0","","","","","","",""
"","","","","","image-keyboard-response","33","481741","0.0-8.0","63ade94905e590dbf726b7fb","665500ab8938657b03fbdba8","66579278e5ee9db44cd36c69","609","stimuli/00111010.jpg"," ","","feedback_trial","0","","","","","","","","","","","","","","","","","","","","",""
"","","","","","image-keyboard-response","34","482743","0.0-9.0","63ade94905e590dbf726b7fb","665500ab8938657b03fbdba8","66579278e5ee9db44cd36c69","1000","stimuli/0101101.jpg","2","","prediction_trial","2","","true","","0","false","false","false","false","false","false","[2,0]","101","101","1","","","","","","",""
"","","","","","image-keyboard-response","35","483775","0.0-10.0","63ade94905e590dbf726b7fb","665500ab8938657b03fbdba8","66579278e5ee9db44cd36c69","1029","stimuli/01011012.jpg"," ","","feedback_trial","2","","","","","","","","","","","","","","","","","","","","",""
"","","","","","image-keyboard-response","36","485230","0.0-11.0","63ade94905e590dbf726b7fb","665500ab8938657b03fbdba8","66579278e5ee9db44cd36c69","1453","stimuli/2000000.jpg","2","","prediction_trial","2","","true","","2","true","true","true","true","true","true","[2]","000","000","1","","","","","","",""
"","","","","","image-keyboard-response","37","486148","0.0-12.0","63ade94905e590dbf726b7fb","665500ab8938657b03fbdba8","66579278e5ee9db44cd36c69","916","stimuli/20000002.jpg"," ","","feedback_trial","2","","","","","","","","","","","","","","","","","","","","",""
"","","","","","image-keyboard-response","38","488092","0.0-13.0","63ade94905e590dbf726b7fb","665500ab8938657b03fbdba8","66579278e5ee9db44cd36c69","1932","stimuli/0110101.jpg","2","","prediction_trial","0","","false","","0","false","false","false","false","false","false","[0,1]","110","101","0","","","","","","",""
"","","","","","image-keyboard-response","39","488971","0.0-14.0","63ade94905e590dbf726b7fb","665500ab8938657b03fbdba8","66579278e5ee9db44cd36c69","877","stimuli/01101010.jpg"," ","","feedback_trial","0","","","","","","","","","","","","","","","","","","","","",""
"","","","","","image-keyboard-response","40","491127","0.0-15.0","63ade94905e590dbf726b7fb","665500ab8938657b03fbdba8","66579278e5ee9db44cd36c69","2154","stimuli/1110001.jpg","1","","prediction_trial","1","","true","","1","true","true","false","false","false","false","[1,0]","110","001","1","","","","","","",""
"","","","","","image-keyboard-response","41","492160","0.0-16.0","63ade94905e590dbf726b7fb","665500ab8938657b03fbdba8","66579278e5ee9db44cd36c69","1030","stimuli/11100011.jpg"," ","","feedback_trial","1","","","","","","","","","","","","","","","","","","","","",""
"","","","","","image-keyboard-response","42","493468","0.0-17.0","63ade94905e590dbf726b7fb","665500ab8938657b03fbdba8","66579278e5ee9db44cd36c69","1306","stimuli/0111011.jpg","1","","prediction_trial","2","","false","","0","true","true","false","false","false","false","[0,1,2]","111","011","0","","","","","","",""
"","","","","","image-keyboard-response","43","494062","0.0-18.0","63ade94905e590dbf726b7fb","665500ab8938657b03fbdba8","66579278e5ee9db44cd36c69","590","stimuli/01110112.jpg"," ","","feedback_trial","0","","","","","","","","","","","","","","","","","","","","",""
"","","","","","image-keyboard-response","44","495140","0.0-19.0","63ade94905e590dbf726b7fb","665500ab8938657b03fbdba8","66579278e5ee9db44cd36c69","1074","stimuli/0101111.jpg","1","","prediction_trial","2","","false","","0","false","false","false","false","false","false","[2,0]","101","111","0","","","","","","",""
"","","","","","image-keyboard-response","45","495761","0.0-20.0","63ade94905e590dbf726b7fb","665500ab8938657b03fbdba8","66579278e5ee9db44cd36c69","618","stimuli/01011112.jpg"," ","","feedback_trial","2","","","","","","","","","","","","","","","","","","","","",""
"","","","","","image-keyboard-response","46","497208","0.0-21.0","63ade94905e590dbf726b7fb","665500ab8938657b03fbdba8","66579278e5ee9db44cd36c69","1442","stimuli/2001111.jpg","1","","prediction_trial","2","","false","","2","false","false","false","true","false","false","[2]","001","111","0","","","","","","",""
"","","","","","image-keyboard-response","47","497587","0.0-22.0","63ade94905e590dbf726b7fb","665500ab8938657b03fbdba8","66579278e5ee9db44cd36c69","377","stimuli/20011112.jpg"," ","","feedback_trial","2","","","","","","","","","","","","","","","","","","","","",""
"","","","","","image-keyboard-response","48","499872","0.0-23.0","63ade94905e590dbf726b7fb","665500ab8938657b03fbdba8","66579278e5ee9db44cd36c69","2282","stimuli/0100010.jpg","0","","prediction_trial","0","","true","","0","true","true","false","true","false","true","[0]","100","010","1","","","","","","",""
"","","","","","image-keyboard-response","49","500622","0.0-24.0","63ade94905e590dbf726b7fb","665500ab8938657b03fbdba8","66579278e5ee9db44cd36c69","747","stimuli/01000100.jpg"," ","","feedback_trial","0","","","","","","","","","","","","","","","","","","","","",""
"","","","","","image-keyboard-response","50","501831","0.0-25.0","63ade94905e590dbf726b7fb","665500ab8938657b03fbdba8","66579278e5ee9db44cd36c69","1204","stimuli/0011110.jpg","1","","prediction_trial","0","","false","","0","false","false","true","true","false","false","[0]","011","110","0","","","","","","",""
"","","","","","image-keyboard-response","51","502385","0.0-26.0","63ade94905e590dbf726b7fb","665500ab8938657b03fbdba8","66579278e5ee9db44cd36c69","551","stimuli/00111100.jpg"," ","","feedback_trial","0","","","","","","","","","","","","","","","","","","","","",""
"","","","","","image-keyboard-response","52","502981","0.0-27.0","63ade94905e590dbf726b7fb","665500ab8938657b03fbdba8","66579278e5ee9db44cd36c69","581","stimuli/0111111.jpg","1","","prediction_trial","1","","true","","0","false","false","false","false","false","false","[2,1,0]","111","111","1","","","","","","",""
"","","","","","image-keyboard-response","53","503451","0.0-28.0","63ade94905e590dbf726b7fb","665500ab8938657b03fbdba8","66579278e5ee9db44cd36c69","468","stimuli/01111111.jpg"," ","","feedback_trial","2","","","","","","","","","","","","","","","","","","","","",""
"","","","","","image-keyboard-response","54","505097","0.0-29.0","63ade94905e590dbf726b7fb","665500ab8938657b03fbdba8","66579278e5ee9db44cd36c69","1643","stimuli/0010000.jpg","0","","prediction_trial","0","","true","","0","true","true","true","true","true","true","[0]","010","000","1","","","","","","",""
"","","","","","image-keyboard-response","55","505755","0.0-30.0","63ade94905e590dbf726b7fb","665500ab8938657b03fbdba8","66579278e5ee9db44cd36c69","654","stimuli/00100000.jpg"," ","","feedback_trial","0","","","","","","","","","","","","","","","","","","","","",""
"","","","","","image-keyboard-response","56","507458","0.0-31.0","63ade94905e590dbf726b7fb","665500ab8938657b03fbdba8","66579278e5ee9db44cd36c69","1701","stimuli/2011101.jpg","2","","prediction_trial","2","","true","","2","false","false","false","false","false","false","[2,1]","011","101","1","","","","","","",""
"","","","","","image-keyboard-response","57","508192","0.0-32.0","63ade94905e590dbf726b7fb","665500ab8938657b03fbdba8","66579278e5ee9db44cd36c69","729","stimuli/20111012.jpg"," ","","feedback_trial","2","","","","","","","","","","","","","","","","","","","","",""
"","","","","","image-keyboard-response","58","509485","0.0-33.0","63ade94905e590dbf726b7fb","665500ab8938657b03fbdba8","66579278e5ee9db44cd36c69","1289","stimuli/0110001.jpg","0","","prediction_trial","1","","false","","0","true","true","false","false","false","false","[1,0]","110","001","0","","","","","","",""
"","","","","","image-keyboard-response","59","515221","0.0-34.0","63ade94905e590dbf726b7fb","665500ab8938657b03fbdba8","66579278e5ee9db44cd36c69","5732","stimuli/01100011.jpg"," ","","feedback_trial","1","","","","","","","","","","","","","","","","","","","","",""
"","","","","","image-keyboard-response","60","522286","0.0-35.0","63ade94905e590dbf726b7fb","665500ab8938657b03fbdba8","66579278e5ee9db44cd36c69","7063","stimuli/2101100.jpg","1","","prediction_trial","0","","false","","2","true","true","false","false","false","false","[0,2]","101","100","0","","","","","","",""
"","","","","","image-keyboard-response","61","522881","0.0-36.0","63ade94905e590dbf726b7fb","665500ab8938657b03fbdba8","66579278e5ee9db44cd36c69","592","stimuli/21011000.jpg"," ","","feedback_trial","0","","","","","","","","","","","","","","","","","","","","",""
"","","","","","image-keyboard-response","62","525038","0.0-37.0","63ade94905e590dbf726b7fb","665500ab8938657b03fbdba8","66579278e5ee9db44cd36c69","2155","stimuli/2001101.jpg","2","","prediction_trial","2","","true","","2","false","false","false","true","false","false","[2]","001","101","1","","","","","","",""
"","","","","","image-keyboard-response","63","525619","0.0-38.0","63ade94905e590dbf726b7fb","665500ab8938657b03fbdba8","66579278e5ee9db44cd36c69","568","stimuli/20011012.jpg"," ","","feedback_trial","2","","","","","","","","","","","","","","","","","","","","",""
"","","","","","image-keyboard-response","64","526237","0.0-39.0","63ade94905e590dbf726b7fb","665500ab8938657b03fbdba8","66579278e5ee9db44cd36c69","615","stimuli/1111100.jpg","2","","prediction_trial","0","","false","","1","true","true","false","false","false","false","[2,1,0]","111","100","0","","","","","","",""
"","","","","","image-keyboard-response","65","526520","0.0-40.0","63ade94905e590dbf726b7fb","665500ab8938657b03fbdba8","66579278e5ee9db44cd36c69","278","stimuli/11111000.jpg"," ","","feedback_trial","2","","","","","","","","","","","","","","","","","","","","",""
"","","","","","image-keyboard-response","66","527014","0.0-41.0","63ade94905e590dbf726b7fb","665500ab8938657b03fbdba8","66579278e5ee9db44cd36c69","487","stimuli/0100111.jpg","2","","prediction_trial","0","","false","","0","false","false","false","true","false","false","[0]","100","111","0","","","","","","",""
"","","","","","image-keyboard-response","67","527229","0.0-42.0","63ade94905e590dbf726b7fb","665500ab8938657b03fbdba8","66579278e5ee9db44cd36c69","211","stimuli/01001110.jpg"," ","","feedback_trial","0","","","","","","","","","","","","","","","","","","","","",""
"","","","","","image-keyboard-response","68","528031","0.0-43.0","63ade94905e590dbf726b7fb","665500ab8938657b03fbdba8","66579278e5ee9db44cd36c69","798","stimuli/1000011.jpg","2","","prediction_trial","1","","false","","1","false","false","true","true","false","false","[1]","000","011","0","","","","","","",""
"","","","","","image-keyboard-response","69","528565","0.0-44.0","63ade94905e590dbf726b7fb","665500ab8938657b03fbdba8","66579278e5ee9db44cd36c69","532","stimuli/10000111.jpg"," ","","feedback_trial","1","","","","","","","","","","","","","","","","","","","","",""
"","","","","","image-keyboard-response","70","529041","0.0-45.0","63ade94905e590dbf726b7fb","665500ab8938657b03fbdba8","66579278e5ee9db44cd36c69","472","stimuli/0001111.jpg","2","","prediction_trial","0","","false","","0","false","false","true","true","false","false","[0]","001","111","0","","","","","","",""
"","","","","","image-keyboard-response","71","529351","0.0-46.0","63ade94905e590dbf726b7fb","665500ab8938657b03fbdba8","66579278e5ee9db44cd36c69","303","stimuli/00011110.jpg"," ","","feedback_trial","0","","","","","","","","","","","","","","","","","","","","",""
"","","","","","image-keyboard-response","72","529770","0.0-47.0","63ade94905e590dbf726b7fb","665500ab8938657b03fbdba8","66579278e5ee9db44cd36c69","417","stimuli/0000111.jpg","2","","prediction_trial","0","","false","","0","false","false","true","true","false","false","[0]","000","111","0","","","","","","",""
"","","","","","image-keyboard-response","73","529980","0.0-48.0","63ade94905e590dbf726b7fb","665500ab8938657b03fbdba8","66579278e5ee9db44cd36c69","190","stimuli/00001110.jpg"," ","","feedback_trial","0","","","","","","","","","","","","","","","","","","","","",""
"","","","","","image-keyboard-response","74","530408","0.0-49.0","63ade94905e590dbf726b7fb","665500ab8938657b03fbdba8","66579278e5ee9db44cd36c69","423","stimuli/1001000.jpg","2","","prediction_trial","1","","false","","1","true","true","true","true","true","true","[1]","001","000","0","","","","","","",""
"","","","","","image-keyboard-response","75","530641","0.0-50.0","63ade94905e590dbf726b7fb","665500ab8938657b03fbdba8","66579278e5ee9db44cd36c69","223","stimuli/10010001.jpg"," ","","feedback_trial","1","","","","","","","","","","","","","","","","","","","","",""
"","","","","","image-keyboard-response","76","531436","0.0-51.0","63ade94905e590dbf726b7fb","665500ab8938657b03fbdba8","66579278e5ee9db44cd36c69","784","stimuli/0110010.jpg","2","","prediction_trial","0","","false","","0","true","true","false","false","false","false","[1,0]","110","010","0","","","","","","",""
"","","","","","image-keyboard-response","77","531717","0.0-52.0","63ade94905e590dbf726b7fb","665500ab8938657b03fbdba8","66579278e5ee9db44cd36c69","273","stimuli/01100100.jpg"," ","","feedback_trial","1","","","","","","","","","","","","","","","","","","","","",""
"","","","","","image-keyboard-response","78","532098","0.0-53.0","63ade94905e590dbf726b7fb","665500ab8938657b03fbdba8","66579278e5ee9db44cd36c69","379","stimuli/1110000.jpg","2","","prediction_trial","1","","false","","1","true","true","false","false","false","false","[1,0]","110","000","0","","","","","","",""
"","","","","","image-keyboard-response","79","532277","0.0-54.0","63ade94905e590dbf726b7fb","665500ab8938657b03fbdba8","66579278e5ee9db44cd36c69","175","stimuli/11100001.jpg"," ","","feedback_trial","1","","","","","","","","","","","","","","","","","","","","",""
"","","","","","image-keyboard-response","80","532643","0.0-55.0","63ade94905e590dbf726b7fb","665500ab8938657b03fbdba8","66579278e5ee9db44cd36c69","362","stimuli/2100101.jpg","2","","prediction_trial","2","","true","","2","false","false","true","true","false","false","[2]","100","101","1","","","","","","",""
"","","","","","image-keyboard-response","81","532849","0.0-56.0","63ade94905e590dbf726b7fb","665500ab8938657b03fbdba8","66579278e5ee9db44cd36c69","203","stimuli/21001012.jpg"," ","","feedback_trial","2","","","","","","","","","","","","","","","","","","","","",""
"","","","","","image-keyboard-response","82","533223","0.0-57.0","63ade94905e590dbf726b7fb","665500ab8938657b03fbdba8","66579278e5ee9db44cd36c69","372","stimuli/0010100.jpg","2","","prediction_trial","0","","false","","0","false","true","true","true","false","true","[0]","010","100","0","","","","","","",""
"","","","","","image-keyboard-response","83","533434","0.0-58.0","63ade94905e590dbf726b7fb","665500ab8938657b03fbdba8","66579278e5ee9db44cd36c69","204","stimuli/00101000.jpg"," ","","feedback_trial","0","","","","","","","","","","","","","","","","","","","","",""
"","","","","","image-keyboard-response","84","533901","0.0-59.0","63ade94905e590dbf726b7fb","665500ab8938657b03fbdba8","66579278e5ee9db44cd36c69","462","stimuli/2101010.jpg","2","","prediction_trial","2","","true","","2","true","true","false","false","false","false","[2,0]","101","010","1","","","","","","",""
"","","","","","image-keyboard-response","85","534362","0.0-60.0","63ade94905e590dbf726b7fb","665500ab8938657b03fbdba8","66579278e5ee9db44cd36c69","444","stimuli/21010102.jpg"," ","","feedback_trial","2","","","","","","","","","","","","","","","","","","","","",""
"","","","","","image-keyboard-response","86","534766","0.0-61.0","63ade94905e590dbf726b7fb","665500ab8938657b03fbdba8","66579278e5ee9db44cd36c69","401","stimuli/2110110.jpg","2","","prediction_trial","2","","true","","2","true","true","true","true","true","true","[2]","110","110","1","","","","","","",""
"","","","","","image-keyboard-response","87","534951","0.0-62.0","63ade94905e590dbf726b7fb","665500ab8938657b03fbdba8","66579278e5ee9db44cd36c69","183","stimuli/21101102.jpg"," ","","feedback_trial","2","","","","","","","","","","","","","","","","","","","","",""
"","","","","","image-keyboard-response","88","535311","0.0-63.0","63ade94905e590dbf726b7fb","665500ab8938657b03fbdba8","66579278e5ee9db44cd36c69","349","stimuli/0001101.jpg","2","","prediction_trial","0","","false","","0","false","false","true","true","false","false","[0]","001","101","0","","","","","","",""
"","","","","","image-keyboard-response","89","535507","0.0-64.0","63ade94905e590dbf726b7fb","665500ab8938657b03fbdba8","66579278e5ee9db44cd36c69","193","stimuli/00011010.jpg"," ","","feedback_trial","0","","","","","","","","","","","","","","","","","","","","",""
"","","","","","image-keyboard-response","90","535877","0.0-65.0","63ade94905e590dbf726b7fb","665500ab8938657b03fbdba8","66579278e5ee9db44cd36c69","367","stimuli/1101110.jpg","2","","prediction_trial","1","","false","","1","false","false","true","true","false","false","[1]","101","110","0","","","","","","",""
"","","","","","image-keyboard-response","91","536084","0.0-66.0","63ade94905e590dbf726b7fb","665500ab8938657b03fbdba8","66579278e5ee9db44cd36c69","203","stimuli/11011101.jpg"," ","","feedback_trial","1","","","","","","","","","","","","","","","","","","","","",""
"","","","","","image-keyboard-response","92","536514","0.0-67.0","63ade94905e590dbf726b7fb","665500ab8938657b03fbdba8","66579278e5ee9db44cd36c69","421","stimuli/0101011.jpg","2","","prediction_trial","0","","false","","0","true","true","false","false","false","false","[0,2]","101","011","0","","","","","","",""
"","","","","","image-keyboard-response","93","536709","0.0-68.0","63ade94905e590dbf726b7fb","665500ab8938657b03fbdba8","66579278e5ee9db44cd36c69","192","stimuli/01010110.jpg"," ","","feedback_trial","0","","","","","","","","","","","","","","","","","","","","",""
"","","","","","image-keyboard-response","94","537050","0.0-69.0","63ade94905e590dbf726b7fb","665500ab8938657b03fbdba8","66579278e5ee9db44cd36c69","339","stimuli/1001001.jpg","2","","prediction_trial","1","","false","","1","true","true","true","true","true","true","[1]","001","001","0","","","","","","",""
"","","","","","image-keyboard-response","95","537221","0.0-70.0","63ade94905e590dbf726b7fb","665500ab8938657b03fbdba8","66579278e5ee9db44cd36c69","161","stimuli/10010011.jpg"," ","","feedback_trial","1","","","","","","","","","","","","","","","","","","","","",""
"","","","","","image-keyboard-response","96","537612","0.0-71.0","63ade94905e590dbf726b7fb","665500ab8938657b03fbdba8","66579278e5ee9db44cd36c69","382","stimuli/1111101.jpg","2","","prediction_trial","1","","false","","1","true","true","false","false","false","false","[0,1,2]","111","101","0","","","","","","",""
"","","","","","image-keyboard-response","97","537785","0.0-72.0","63ade94905e590dbf726b7fb","665500ab8938657b03fbdba8","66579278e5ee9db44cd36c69","170","stimuli/11111011.jpg"," ","","feedback_trial","0","","","","","","","","","","","","","","","","","","","","",""
"","","","","","image-keyboard-response","98","538129","0.0-73.0","63ade94905e590dbf726b7fb","665500ab8938657b03fbdba8","66579278e5ee9db44cd36c69","337","stimuli/0101010.jpg","2","","prediction_trial","2","","true","","0","true","true","false","false","false","false","[2,0]","101","010","1","","","","","","",""
"","","","","","image-keyboard-response","99","538345","0.0-74.0","63ade94905e590dbf726b7fb","665500ab8938657b03fbdba8","66579278e5ee9db44cd36c69","211","stimuli/01010102.jpg"," ","","feedback_trial","2","","","","","","","","","","","","","","","","","","","","",""
"","","","","","image-keyboard-response","100","538681","0.0-75.0","63ade94905e590dbf726b7fb","665500ab8938657b03fbdba8","66579278e5ee9db44cd36c69","334","stimuli/0001100.jpg","2","","prediction_trial","0","","false","","0","false","true","true","true","false","true","[0]","001","100","0","","","","","","",""
"","","","","","image-keyboard-response","101","538896","0.0-76.0","63ade94905e590dbf726b7fb","665500ab8938657b03fbdba8","66579278e5ee9db44cd36c69","210","stimuli/00011000.jpg"," ","","feedback_trial","0","","","","","","","","","","","","","","","","","","","","",""
"","","","","","image-keyboard-response","102","539197","0.0-77.0","63ade94905e590dbf726b7fb","665500ab8938657b03fbdba8","66579278e5ee9db44cd36c69","297","stimuli/2100110.jpg","2","","prediction_trial","2","","true","","2","true","true","true","true","true","true","[2]","100","110","1","","","","","","",""
"","","","","","image-keyboard-response","103","539371","0.0-78.0","63ade94905e590dbf726b7fb","665500ab8938657b03fbdba8","66579278e5ee9db44cd36c69","170","stimuli/21001102.jpg"," ","","feedback_trial","2","","","","","","","","","","","","","","","","","","","","",""
"","","","","","image-keyboard-response","104","539711","0.0-79.0","63ade94905e590dbf726b7fb","665500ab8938657b03fbdba8","66579278e5ee9db44cd36c69","337","stimuli/1110111.jpg","2","","prediction_trial","0","","false","","1","false","false","false","false","false","false","[0,1]","110","111","0","","","","","","",""
"","","","","","image-keyboard-response","105","539949","0.0-80.0","63ade94905e590dbf726b7fb","665500ab8938657b03fbdba8","66579278e5ee9db44cd36c69","235","stimuli/11101110.jpg"," ","","feedback_trial","0","","","","","","","","","","","","","","","","","","","","",""
"","","","","","image-keyboard-response","106","540262","0.0-81.0","63ade94905e590dbf726b7fb","665500ab8938657b03fbdba8","66579278e5ee9db44cd36c69","305","stimuli/1011101.jpg","2","","prediction_trial","2","","true","","1","true","true","false","false","false","false","[2,1]","011","101","1","","","","","","",""
"","","","","","image-keyboard-response","107","540438","0.0-82.0","63ade94905e590dbf726b7fb","665500ab8938657b03fbdba8","66579278e5ee9db44cd36c69","173","stimuli/10111012.jpg"," ","","feedback_trial","2","","","","","","","","","","","","","","","","","","","","",""
"","","","","","image-keyboard-response","108","540844","0.0-83.0","63ade94905e590dbf726b7fb","665500ab8938657b03fbdba8","66579278e5ee9db44cd36c69","404","stimuli/2000010.jpg","2","","prediction_trial","2","","true","","2","true","true","true","true","true","true","[2]","000","010","1","","","","","","",""
"","","","","","image-keyboard-response","109","541043","0.0-84.0","63ade94905e590dbf726b7fb","665500ab8938657b03fbdba8","66579278e5ee9db44cd36c69","195","stimuli/20000102.jpg"," ","","feedback_trial","2","","","","","","","","","","","","","","","","","","","","",""
"","","","","","image-keyboard-response","110","541347","0.0-85.0","63ade94905e590dbf726b7fb","665500ab8938657b03fbdba8","66579278e5ee9db44cd36c69","302","stimuli/1110100.jpg","2","","prediction_trial","1","","false","","1","true","true","false","false","false","false","[0,1]","110","100","0","","","","","","",""
"","","","","","image-keyboard-response","111","541543","0.0-86.0","63ade94905e590dbf726b7fb","665500ab8938657b03fbdba8","66579278e5ee9db44cd36c69","193","stimuli/11101001.jpg"," ","","feedback_trial","0","","","","","","","","","","","","","","","","","","","","",""
"","","","","","image-keyboard-response","112","541857","0.0-87.0","63ade94905e590dbf726b7fb","665500ab8938657b03fbdba8","66579278e5ee9db44cd36c69","310","stimuli/0111000.jpg","2","","prediction_trial","2","","true","","0","true","true","false","false","false","false","[1,2,0]","111","000","1","","","","","","",""
"","","","","","image-keyboard-response","113","542038","0.0-88.0","63ade94905e590dbf726b7fb","665500ab8938657b03fbdba8","66579278e5ee9db44cd36c69","177","stimuli/01110002.jpg"," ","","feedback_trial","1","","","","","","","","","","","","","","","","","","","","",""
"","","","","","image-keyboard-response","114","542350","0.0-89.0","63ade94905e590dbf726b7fb","665500ab8938657b03fbdba8","66579278e5ee9db44cd36c69","311","stimuli/0110111.jpg","2","","prediction_trial","0","","false","","0","false","false","false","false","false","false","[1,0]","110","111","0","","","","","","",""
"","","","","","image-keyboard-response","115","542529","0.0-90.0","63ade94905e590dbf726b7fb","665500ab8938657b03fbdba8","66579278e5ee9db44cd36c69","166","stimuli/01101110.jpg"," ","","feedback_trial","1","","","","","","","","","","","","","","","","","","","","",""
"","","","","","image-keyboard-response","116","542920","0.0-91.0","63ade94905e590dbf726b7fb","665500ab8938657b03fbdba8","66579278e5ee9db44cd36c69","388","stimuli/0010001.jpg","2","","prediction_trial","0","","false","","0","true","true","true","true","true","true","[0]","010","001","0","","","","","","",""
"","","","","","image-keyboard-response","117","543115","0.0-92.0","63ade94905e590dbf726b7fb","665500ab8938657b03fbdba8","66579278e5ee9db44cd36c69","192","stimuli/00100010.jpg"," ","","feedback_trial","0","","","","","","","","","","","","","","","","","","","","",""
"","","","","","image-keyboard-response","118","543474","0.0-93.0","63ade94905e590dbf726b7fb","665500ab8938657b03fbdba8","66579278e5ee9db44cd36c69","330","stimuli/1001010.jpg","2","","prediction_trial","1","","false","","1","false","true","true","true","false","true","[1]","001","010","0","","","","","","",""
"","","","","","image-keyboard-response","119","543654","0.0-94.0","63ade94905e590dbf726b7fb","665500ab8938657b03fbdba8","66579278e5ee9db44cd36c69","176","stimuli/10010101.jpg"," ","","feedback_trial","1","","","","","","","","","","","","","","","","","","","","",""
"","","","","","image-keyboard-response","120","544073","0.0-95.0","63ade94905e590dbf726b7fb","665500ab8938657b03fbdba8","66579278e5ee9db44cd36c69","416","stimuli/1100110.jpg","2","","prediction_trial","1","","false","","1","false","false","true","true","false","false","[1]","100","110","0","","","","","","",""
"","","","","","image-keyboard-response","121","544269","0.0-96.0","63ade94905e590dbf726b7fb","665500ab8938657b03fbdba8","66579278e5ee9db44cd36c69","191","stimuli/11001101.jpg"," ","","feedback_trial","1","","","","","","","","","","","","","","","","","","","","",""
"","","","","","image-keyboard-response","122","544594","0.0-97.0","63ade94905e590dbf726b7fb","665500ab8938657b03fbdba8","66579278e5ee9db44cd36c69","316","stimuli/2101000.jpg","2","","prediction_trial","2","","true","","2","true","true","false","false","false","false","[0,2]","101","000","1","","","","","","",""
"","","","","","image-keyboard-response","123","544845","0.0-98.0","63ade94905e590dbf726b7fb","665500ab8938657b03fbdba8","66579278e5ee9db44cd36c69","248","stimuli/21010002.jpg"," ","","feedback_trial","0","","","","","","","","","","","","","","","","","","","","",""
"","","","","","image-keyboard-response","124","545160","0.0-99.0","63ade94905e590dbf726b7fb","665500ab8938657b03fbdba8","66579278e5ee9db44cd36c69","312","stimuli/2111101.jpg","2","","prediction_trial","0","","false","","2","false","false","false","false","false","false","[2,0,1]","111","101","0","","","","","","",""
"","","","","","image-keyboard-response","125","545348","0.0-100.0","63ade94905e590dbf726b7fb","665500ab8938657b03fbdba8","66579278e5ee9db44cd36c69","186","stimuli/21111010.jpg"," ","","feedback_trial","2","","","","","","","","","","","","","","","","","","","","",""
"","","","","","image-keyboard-response","126","545712","0.0-101.0","63ade94905e590dbf726b7fb","665500ab8938657b03fbdba8","66579278e5ee9db44cd36c69","356","stimuli/1101101.jpg","2","","prediction_trial","1","","false","","1","true","true","true","true","true","true","[1]","101","101","0","","","","","","",""
"","","","","","image-keyboard-response","127","545913","0.0-102.0","63ade94905e590dbf726b7fb","665500ab8938657b03fbdba8","66579278e5ee9db44cd36c69","197","stimuli/11011011.jpg"," ","","feedback_trial","1","","","","","","","","","","","","","","","","","","","","",""
"","","","","","image-keyboard-response","128","546270","0.0-103.0","63ade94905e590dbf726b7fb","665500ab8938657b03fbdba8","66579278e5ee9db44cd36c69","355","stimuli/2000111.jpg","2","","prediction_trial","2","","true","","2","false","false","true","true","false","false","[2]","000","111","1","","","","","","",""
"","","","","","image-keyboard-response","129","546457","0.0-104.0","63ade94905e590dbf726b7fb","665500ab8938657b03fbdba8","66579278e5ee9db44cd36c69","180","stimuli/20001112.jpg"," ","","feedback_trial","2","","","","","","","","","","","","","","","","","","","","",""
"","","","","","image-keyboard-response","130","546829","0.0-105.0","63ade94905e590dbf726b7fb","665500ab8938657b03fbdba8","66579278e5ee9db44cd36c69","367","stimuli/1011100.jpg","2","","prediction_trial","2","","true","","1","true","true","false","false","false","false","[2,1]","011","100","1","","","","","","",""
"","","","","","image-keyboard-response","131","547014","0.0-106.0","63ade94905e590dbf726b7fb","665500ab8938657b03fbdba8","66579278e5ee9db44cd36c69","183","stimuli/10111002.jpg"," ","","feedback_trial","2","","","","","","","","","","","","","","","","","","","","",""
"","","","","","image-keyboard-response","132","547366","0.0-107.0","63ade94905e590dbf726b7fb","665500ab8938657b03fbdba8","66579278e5ee9db44cd36c69","344","stimuli/2100000.jpg","2","","prediction_trial","2","","true","","2","true","true","true","true","true","true","[2]","100","000","1","","","","","","",""
"","","","","","image-keyboard-response","133","547576","0.0-108.0","63ade94905e590dbf726b7fb","665500ab8938657b03fbdba8","66579278e5ee9db44cd36c69","205","stimuli/21000002.jpg"," ","","feedback_trial","2","","","","","","","","","","","","","","","","","","","","",""
"","","","","","image-keyboard-response","134","547965","0.0-109.0","63ade94905e590dbf726b7fb","665500ab8938657b03fbdba8","66579278e5ee9db44cd36c69","386","stimuli/1110010.jpg","2","","prediction_trial","1","","false","","1","false","true","false","false","false","false","[1,0]","110","010","0","","","","","","",""
"","","","","","image-keyboard-response","135","548165","0.0-110.0","63ade94905e590dbf726b7fb","665500ab8938657b03fbdba8","66579278e5ee9db44cd36c69","195","stimuli/11100101.jpg"," ","","feedback_trial","1","","","","","","","","","","","","","","","","","","","","",""
"","","","","","image-keyboard-response","136","548471","0.0-111.0","63ade94905e590dbf726b7fb","665500ab8938657b03fbdba8","66579278e5ee9db44cd36c69","299","stimuli/2001011.jpg","2","","prediction_trial","2","","true","","2","false","false","false","true","false","false","[2]","001","011","1","","","","","","",""
"","","","","","image-keyboard-response","137","548651","0.0-112.0","63ade94905e590dbf726b7fb","665500ab8938657b03fbdba8","66579278e5ee9db44cd36c69","176","stimuli/20010112.jpg"," ","","feedback_trial","2","","","","","","","","","","","","","","","","","","","","",""
"","","","","","image-keyboard-response","138","549027","0.0-113.0","63ade94905e590dbf726b7fb","665500ab8938657b03fbdba8","66579278e5ee9db44cd36c69","372","stimuli/2010000.jpg","2","","prediction_trial","2","","true","","2","true","true","true","true","true","true","[2]","010","000","1","","","","","","",""
"","","","","","image-keyboard-response","139","549247","0.0-114.0","63ade94905e590dbf726b7fb","665500ab8938657b03fbdba8","66579278e5ee9db44cd36c69","216","stimuli/20100002.jpg"," ","","feedback_trial","2","","","","","","","","","","","","","","","","","","","","",""
"","","","","","image-keyboard-response","140","549562","0.0-115.0","63ade94905e590dbf726b7fb","665500ab8938657b03fbdba8","66579278e5ee9db44cd36c69","301","stimuli/0001110.jpg","2","","prediction_trial","0","","false","","0","false","false","true","true","false","false","[0]","001","110","0","","","","","","",""
"","","","","","image-keyboard-response","141","549753","0.0-116.0","63ade94905e590dbf726b7fb","665500ab8938657b03fbdba8","66579278e5ee9db44cd36c69","188","stimuli/00011100.jpg"," ","","feedback_trial","0","","","","","","","","","","","","","","","","","","","","",""
"","","","","","image-keyboard-response","142","550069","0.0-117.0","63ade94905e590dbf726b7fb","665500ab8938657b03fbdba8","66579278e5ee9db44cd36c69","306","stimuli/0000011.jpg","2","","prediction_trial","0","","false","","0","true","true","true","true","true","true","[0]","000","011","0","","","","","","",""
"","","","","","image-keyboard-response","143","550302","0.0-118.0","63ade94905e590dbf726b7fb","665500ab8938657b03fbdba8","66579278e5ee9db44cd36c69","226","stimuli/00000110.jpg"," ","","feedback_trial","0","","","","","","","","","","","","","","","","","","","","",""
"","","","","","image-keyboard-response","144","550764","0.0-119.0","63ade94905e590dbf726b7fb","665500ab8938657b03fbdba8","66579278e5ee9db44cd36c69","460","stimuli/1101010.jpg","2","","prediction_trial","1","","false","","1","false","true","true","true","false","true","[1]","101","010","0","","","","","","",""
"","","","","","image-keyboard-response","145","550953","0.0-120.0","63ade94905e590dbf726b7fb","665500ab8938657b03fbdba8","66579278e5ee9db44cd36c69","181","stimuli/11010101.jpg"," ","","feedback_trial","1","","","","","","","","","","","","","","","","","","","","",""
"","","","","","image-keyboard-response","146","551303","0.0-121.0","63ade94905e590dbf726b7fb","665500ab8938657b03fbdba8","66579278e5ee9db44cd36c69","347","stimuli/2000101.jpg","2","","prediction_trial","2","","true","","2","false","false","true","true","false","false","[2]","000","101","1","","","","","","",""
"","","","","","image-keyboard-response","147","551543","0.0-122.0","63ade94905e590dbf726b7fb","665500ab8938657b03fbdba8","66579278e5ee9db44cd36c69","231","stimuli/20001012.jpg"," ","","feedback_trial","2","","","","","","","","","","","","","","","","","","","","",""
"","","","","","image-keyboard-response","148","551886","0.0-123.0","63ade94905e590dbf726b7fb","665500ab8938657b03fbdba8","66579278e5ee9db44cd36c69","339","stimuli/0100110.jpg","2","","prediction_trial","0","","false","","0","false","false","false","true","false","false","[0]","100","110","0","","","","","","",""
"","","","","","image-keyboard-response","149","552101","0.0-124.0","63ade94905e590dbf726b7fb","665500ab8938657b03fbdba8","66579278e5ee9db44cd36c69","213","stimuli/01001100.jpg"," ","","feedback_trial","0","","","","","","","","","","","","","","","","","","","","",""
"","","","","","image-keyboard-response","150","552455","0.0-125.0","63ade94905e590dbf726b7fb","665500ab8938657b03fbdba8","66579278e5ee9db44cd36c69","344","stimuli/1000000.jpg","2","","prediction_trial","1","","false","","1","true","true","true","true","true","true","[1]","000","000","0","","","","","","",""
"","","","","","image-keyboard-response","151","552695","0.0-126.0","63ade94905e590dbf726b7fb","665500ab8938657b03fbdba8","66579278e5ee9db44cd36c69","236","stimuli/10000001.jpg"," ","","feedback_trial","1","","","","","","","","","","","","","","","","","","","","",""
"","","","","","image-keyboard-response","152","553069","0.0-127.0","63ade94905e590dbf726b7fb","665500ab8938657b03fbdba8","66579278e5ee9db44cd36c69","371","stimuli/1010111.jpg","2","","prediction_trial","1","","false","","1","false","false","false","true","false","false","[1]","010","111","0","","","","","","",""
"","","","","","image-keyboard-response","153","553229","0.0-128.0","63ade94905e590dbf726b7fb","665500ab8938657b03fbdba8","66579278e5ee9db44cd36c69","158","stimuli/10101111.jpg"," ","","feedback_trial","1","","","","","","","","","","","","","","","","","","","","",""
"","","","","","image-keyboard-response","154","553562","0.0-129.0","63ade94905e590dbf726b7fb","665500ab8938657b03fbdba8","66579278e5ee9db44cd36c69","330","stimuli/1001101.jpg","2","","prediction_trial","1","","false","","1","true","true","true","true","true","true","[1]","001","101","0","","","","","","",""
"","","","","","image-keyboard-response","155","553774","0.0-130.0","63ade94905e590dbf726b7fb","665500ab8938657b03fbdba8","66579278e5ee9db44cd36c69","206","stimuli/10011011.jpg"," ","","feedback_trial","1","","","","","","","","","","","","","","","","","","","","",""
"","","","","","image-keyboard-response","156","554126","0.0-131.0","63ade94905e590dbf726b7fb","665500ab8938657b03fbdba8","66579278e5ee9db44cd36c69","349","stimuli/0001001.jpg","2","","prediction_trial","0","","false","","0","true","true","true","true","true","true","[0]","001","001","0","","","","","","",""
"","","","","","image-keyboard-response","157","554294","0.0-132.0","63ade94905e590dbf726b7fb","665500ab8938657b03fbdba8","66579278e5ee9db44cd36c69","166","stimuli/00010010.jpg"," ","","feedback_trial","0","","","","","","","","","","","","","","","","","","","","",""
"","","","","","image-keyboard-response","158","554645","0.0-133.0","63ade94905e590dbf726b7fb","665500ab8938657b03fbdba8","66579278e5ee9db44cd36c69","350","stimuli/1100000.jpg","2","","prediction_trial","1","","false","","1","true","true","true","true","true","true","[1]","100","000","0","","","","","","",""
"","","","","","image-keyboard-response","159","554843","0.0-134.0","63ade94905e590dbf726b7fb","665500ab8938657b03fbdba8","66579278e5ee9db44cd36c69","193","stimuli/11000001.jpg"," ","","feedback_trial","1","","","","","","","","","","","","","","","","","","","","",""
"","","","","","image-keyboard-response","160","555161","0.0-135.0","63ade94905e590dbf726b7fb","665500ab8938657b03fbdba8","66579278e5ee9db44cd36c69","314","stimuli/1100111.jpg","2","","prediction_trial","1","","false","","1","false","false","true","true","false","false","[1]","100","111","0","","","","","","",""
"","","","","","image-keyboard-response","161","555360","0.0-136.0","63ade94905e590dbf726b7fb","665500ab8938657b03fbdba8","66579278e5ee9db44cd36c69","195","stimuli/11001111.jpg"," ","","feedback_trial","1","","","","","","","","","","","","","","","","","","","","",""
"","","","","","image-keyboard-response","162","555685","0.0-137.0","63ade94905e590dbf726b7fb","665500ab8938657b03fbdba8","66579278e5ee9db44cd36c69","301","stimuli/2100011.jpg","2","","prediction_trial","2","","true","","2","false","false","true","true","false","false","[2]","100","011","1","","","","","","",""
"","","","","","image-keyboard-response","163","555902","0.0-138.0","63ade94905e590dbf726b7fb","665500ab8938657b03fbdba8","66579278e5ee9db44cd36c69","206","stimuli/21000112.jpg"," ","","feedback_trial","2","","","","","","","","","","","","","","","","","","","","",""
"","","","","","image-keyboard-response","164","556246","0.0-139.0","63ade94905e590dbf726b7fb","665500ab8938657b03fbdba8","66579278e5ee9db44cd36c69","342","stimuli/2101001.jpg","2","","prediction_trial","0","","false","","2","false","true","false","false","false","false","[0,2]","101","001","0","","","","","","",""
"","","","","","image-keyboard-response","165","556485","0.0-140.0","63ade94905e590dbf726b7fb","665500ab8938657b03fbdba8","66579278e5ee9db44cd36c69","231","stimuli/21010010.jpg"," ","","feedback_trial","0","","","","","","","","","","","","","","","","","","","","",""
"","","","","","image-keyboard-response","166","556847","0.0-141.0","63ade94905e590dbf726b7fb","665500ab8938657b03fbdba8","66579278e5ee9db44cd36c69","355","stimuli/1011011.jpg","2","","prediction_trial","2","","true","","1","false","false","false","false","false","false","[1,2]","011","011","1","","","","","","",""
"","","","","","image-keyboard-response","167","557059","0.0-142.0","63ade94905e590dbf726b7fb","665500ab8938657b03fbdba8","66579278e5ee9db44cd36c69","206","stimuli/10110112.jpg"," ","","feedback_trial","1","","","","","","","","","","","","","","","","","","","","",""
"","","","","","image-keyboard-response","168","557437","0.0-143.0","63ade94905e590dbf726b7fb","665500ab8938657b03fbdba8","66579278e5ee9db44cd36c69","374","stimuli/1010000.jpg","2","","prediction_trial","1","","false","","1","true","true","false","true","false","true","[1]","010","000","0","","","","","","",""
"","","","","","image-keyboard-response","169","557606","0.0-144.0","63ade94905e590dbf726b7fb","665500ab8938657b03fbdba8","66579278e5ee9db44cd36c69","166","stimuli/10100001.jpg"," ","","feedback_trial","1","","","","","","","","","","","","","","","","","","","","",""
"","","","","","image-keyboard-response","170","558005","0.0-145.0","63ade94905e590dbf726b7fb","665500ab8938657b03fbdba8","66579278e5ee9db44cd36c69","396","stimuli/0111101.jpg","2","","prediction_trial","1","","false","","0","false","false","false","false","false","false","[2,1,0]","111","101","0","","","","","","",""
"","","","","","image-keyboard-response","171","558208","0.0-146.0","63ade94905e590dbf726b7fb","665500ab8938657b03fbdba8","66579278e5ee9db44cd36c69","198","stimuli/01111011.jpg"," ","","feedback_trial","2","","","","","","","","","","","","","","","","","","","","",""
"","","","","","image-keyboard-response","172","558609","0.0-147.0","63ade94905e590dbf726b7fb","665500ab8938657b03fbdba8","66579278e5ee9db44cd36c69","399","stimuli/0000101.jpg","2","","prediction_trial","0","","false","","0","false","false","true","true","false","false","[0]","000","101","0","","","","","","",""
"","","","","","image-keyboard-response","173","558776","0.0-148.0","63ade94905e590dbf726b7fb","665500ab8938657b03fbdba8","66579278e5ee9db44cd36c69","150","stimuli/00001010.jpg"," ","","feedback_trial","0","","","","","","","","","","","","","","","","","","","","",""
"","","","","","image-keyboard-response","174","559161","0.0-149.0","63ade94905e590dbf726b7fb","665500ab8938657b03fbdba8","66579278e5ee9db44cd36c69","382","stimuli/1100100.jpg","2","","prediction_trial","1","","false","","1","true","true","true","true","true","true","[1]","100","100","0","","","","","","",""
"","","","","","image-keyboard-response","175","559391","0.0-150.0","63ade94905e590dbf726b7fb","665500ab8938657b03fbdba8","66579278e5ee9db44cd36c69","228","stimuli/11001001.jpg"," ","","feedback_trial","1","","","","","","","","","","","","","","","","","","","","",""
"","","","","","image-keyboard-response","176","559752","0.0-151.0","63ade94905e590dbf726b7fb","665500ab8938657b03fbdba8","66579278e5ee9db44cd36c69","357","stimuli/1100010.jpg","2","","prediction_trial","1","","false","","1","false","true","true","true","false","true","[1]","100","010","0","","","","","","",""
"","","","","","image-keyboard-response","177","559972","0.0-152.0","63ade94905e590dbf726b7fb","665500ab8938657b03fbdba8","66579278e5ee9db44cd36c69","216","stimuli/11000101.jpg"," ","","feedback_trial","1","","","","","","","","","","","","","","","","","","","","",""
"","","","","","image-keyboard-response","178","560375","0.0-153.0","63ade94905e590dbf726b7fb","665500ab8938657b03fbdba8","66579278e5ee9db44cd36c69","400","stimuli/1101100.jpg","2","","prediction_trial","1","","false","","1","true","true","true","true","true","true","[1]","101","100","0","","","","","","",""
"","","","","","image-keyboard-response","179","560612","0.0-154.0","63ade94905e590dbf726b7fb","665500ab8938657b03fbdba8","66579278e5ee9db44cd36c69","234","stimuli/11011001.jpg"," ","","feedback_trial","1","","","","","","","","","","","","","","","","","","","","",""
"","","","","","image-keyboard-response","180","561021","0.0-155.0","63ade94905e590dbf726b7fb","665500ab8938657b03fbdba8","66579278e5ee9db44cd36c69","404","stimuli/1001011.jpg","2","","prediction_trial","1","","false","","1","false","false","true","true","false","false","[1]","001","011","0","","","","","","",""
"","","","","","image-keyboard-response","181","561201","0.0-156.0","63ade94905e590dbf726b7fb","665500ab8938657b03fbdba8","66579278e5ee9db44cd36c69","177","stimuli/10010111.jpg"," ","","feedback_trial","1","","","","","","","","","","","","","","","","","","","","",""
"","","","","","image-keyboard-response","182","561624","0.0-157.0","63ade94905e590dbf726b7fb","665500ab8938657b03fbdba8","66579278e5ee9db44cd36c69","421","stimuli/1000010.jpg","2","","prediction_trial","1","","false","","1","false","true","true","true","false","true","[1]","000","010","0","","","","","","",""
"","","","","","image-keyboard-response","183","561841","0.0-158.0","63ade94905e590dbf726b7fb","665500ab8938657b03fbdba8","66579278e5ee9db44cd36c69","213","stimuli/10000101.jpg"," ","","feedback_trial","1","","","","","","","","","","","","","","","","","","","","",""
"","","","","","image-keyboard-response","184","562161","0.0-159.0","63ade94905e590dbf726b7fb","665500ab8938657b03fbdba8","66579278e5ee9db44cd36c69","316","stimuli/1010100.jpg","2","","prediction_trial","1","","false","","1","true","true","false","true","false","true","[1]","010","100","0","","","","","","",""
"","","","","","image-keyboard-response","185","562405","0.0-160.0","63ade94905e590dbf726b7fb","665500ab8938657b03fbdba8","66579278e5ee9db44cd36c69","238","stimuli/10101001.jpg"," ","","feedback_trial","1","","","","","","","","","","","","","","","","","","","","",""
"","","","","","image-keyboard-response","186","562738","0.0-161.0","63ade94905e590dbf726b7fb","665500ab8938657b03fbdba8","66579278e5ee9db44cd36c69","330","stimuli/0011001.jpg","2","","prediction_trial","0","","false","","0","true","true","true","true","true","true","[0]","011","001","0","","","","","","",""
"","","","","","image-keyboard-response","187","562901","0.0-162.0","63ade94905e590dbf726b7fb","665500ab8938657b03fbdba8","66579278e5ee9db44cd36c69","159","stimuli/00110010.jpg"," ","","feedback_trial","0","","","","","","","","","","","","","","","","","","","","",""
"","","","","","image-keyboard-response","188","563228","0.0-163.0","63ade94905e590dbf726b7fb","665500ab8938657b03fbdba8","66579278e5ee9db44cd36c69","325","stimuli/2110101.jpg","2","","prediction_trial","2","","true","","2","false","false","true","true","false","false","[2]","110","101","1","","","","","","",""
"","","","","","image-keyboard-response","189","563425","0.0-164.0","63ade94905e590dbf726b7fb","665500ab8938657b03fbdba8","66579278e5ee9db44cd36c69","187","stimuli/21101012.jpg"," ","","feedback_trial","2","","","","","","","","","","","","","","","","","","","","",""
"","","","","","image-keyboard-response","190","563800","0.0-165.0","63ade94905e590dbf726b7fb","665500ab8938657b03fbdba8","66579278e5ee9db44cd36c69","371","stimuli/2011000.jpg","2","","prediction_trial","1","","false","","2","true","true","false","false","false","false","[2,1]","011","000","0","","","","","","",""
"","","","","","image-keyboard-response","191","563972","0.0-166.0","63ade94905e590dbf726b7fb","665500ab8938657b03fbdba8","66579278e5ee9db44cd36c69","169","stimuli/20110001.jpg"," ","","feedback_trial","2","","","","","","","","","","","","","","","","","","","","",""
"","","","","","image-keyboard-response","192","564324","0.0-167.0","63ade94905e590dbf726b7fb","665500ab8938657b03fbdba8","66579278e5ee9db44cd36c69","348","stimuli/0110011.jpg","2","","prediction_trial","0","","false","","0","true","true","false","false","false","false","[0,1]","110","011","0","","","","","","",""
"","","","","","image-keyboard-response","193","564503","0.0-168.0","63ade94905e590dbf726b7fb","665500ab8938657b03fbdba8","66579278e5ee9db44cd36c69","175","stimuli/01100110.jpg"," ","","feedback_trial","0","","","","","","","","","","","","","","","","","","","","",""
"","","","","","image-keyboard-response","194","564924","0.0-169.0","63ade94905e590dbf726b7fb","665500ab8938657b03fbdba8","66579278e5ee9db44cd36c69","418","stimuli/0001000.jpg","2","","prediction_trial","0","","false","","0","true","true","true","true","true","true","[0]","001","000","0","","","","","","",""
"","","","","","image-keyboard-response","195","565123","0.0-170.0","63ade94905e590dbf726b7fb","665500ab8938657b03fbdba8","66579278e5ee9db44cd36c69","195","stimuli/00010000.jpg"," ","","feedback_trial","0","","","","","","","","","","","","","","","","","","","","",""
"","","","","","image-keyboard-response","196","565526","0.0-171.0","63ade94905e590dbf726b7fb","665500ab8938657b03fbdba8","66579278e5ee9db44cd36c69","398","stimuli/2101101.jpg","2","","prediction_trial","0","","false","","2","false","false","false","false","false","false","[2,0]","101","101","0","","","","","","",""
"","","","","","image-keyboard-response","197","565721","0.0-172.0","63ade94905e590dbf726b7fb","665500ab8938657b03fbdba8","66579278e5ee9db44cd36c69","189","stimuli/21011010.jpg"," ","","feedback_trial","2","","","","","","","","","","","","","","","","","","","","",""
"","","","","","image-keyboard-response","198","566088","0.0-173.0","63ade94905e590dbf726b7fb","665500ab8938657b03fbdba8","66579278e5ee9db44cd36c69","364","stimuli/2001010.jpg","2","","prediction_trial","2","","true","","2","true","true","false","true","false","true","[2]","001","010","1","","","","","","",""
"","","","","","image-keyboard-response","199","566257","0.0-174.0","63ade94905e590dbf726b7fb","665500ab8938657b03fbdba8","66579278e5ee9db44cd36c69","166","stimuli/20010102.jpg"," ","","feedback_trial","2","","","","","","","","","","","","","","","","","","","","",""
"","","","","","image-keyboard-response","200","566676","0.0-175.0","63ade94905e590dbf726b7fb","665500ab8938657b03fbdba8","66579278e5ee9db44cd36c69","415","stimuli/1010010.jpg","2","","prediction_trial","1","","false","","1","false","true","false","true","false","true","[1]","010","010","0","","","","","","",""
"","","","","","image-keyboard-response","201","566802","0.0-176.0","63ade94905e590dbf726b7fb","665500ab8938657b03fbdba8","66579278e5ee9db44cd36c69","121","stimuli/10100101.jpg"," ","","feedback_trial","1","","","","","","","","","","","","","","","","","","","","",""
"","","","","","image-keyboard-response","202","567156","0.0-177.0","63ade94905e590dbf726b7fb","665500ab8938657b03fbdba8","66579278e5ee9db44cd36c69","350","stimuli/0001010.jpg","2","","prediction_trial","0","","false","","0","true","true","true","true","true","true","[0]","001","010","0","","","","","","",""
"","","","","","image-keyboard-response","203","567376","0.0-178.0","63ade94905e590dbf726b7fb","665500ab8938657b03fbdba8","66579278e5ee9db44cd36c69","217","stimuli/00010100.jpg"," ","","feedback_trial","0","","","","","","","","","","","","","","","","","","","","",""
"","","","","","image-keyboard-response","204","567699","0.0-179.0","63ade94905e590dbf726b7fb","665500ab8938657b03fbdba8","66579278e5ee9db44cd36c69","317","stimuli/2111110.jpg","2","","prediction_trial","1","","false","","2","true","true","false","false","false","false","[2,0,1]","111","110","0","","","","","","",""
"","","","","","image-keyboard-response","205","567877","0.0-180.0","63ade94905e590dbf726b7fb","665500ab8938657b03fbdba8","66579278e5ee9db44cd36c69","175","stimuli/21111101.jpg"," ","","feedback_trial","2","","","","","","","","","","","","","","","","","","","","",""
"","","","","","image-keyboard-response","206","568210","0.0-181.0","63ade94905e590dbf726b7fb","665500ab8938657b03fbdba8","66579278e5ee9db44cd36c69","328","stimuli/2001110.jpg","2","","prediction_trial","2","","true","","2","true","true","false","true","false","true","[2]","001","110","1","","","","","","",""
"","","","","","image-keyboard-response","207","568387","0.0-182.0","63ade94905e590dbf726b7fb","665500ab8938657b03fbdba8","66579278e5ee9db44cd36c69","171","stimuli/20011102.jpg"," ","","feedback_trial","2","","","","","","","","","","","","","","","","","","","","",""
"","","","","","image-keyboard-response","208","568698","0.0-183.0","63ade94905e590dbf726b7fb","665500ab8938657b03fbdba8","66579278e5ee9db44cd36c69","309","stimuli/2011111.jpg","2","","prediction_trial","2","","true","","2","false","false","false","false","false","false","[1,2]","011","111","1","","","","","","",""
"","","","","","image-keyboard-response","209","568915","0.0-184.0","63ade94905e590dbf726b7fb","665500ab8938657b03fbdba8","66579278e5ee9db44cd36c69","204","stimuli/20111112.jpg"," ","","feedback_trial","1","","","","","","","","","","","","","","","","","","","","",""
"","","","","","image-keyboard-response","210","569243","0.0-185.0","63ade94905e590dbf726b7fb","665500ab8938657b03fbdba8","66579278e5ee9db44cd36c69","319","stimuli/1001111.jpg","2","","prediction_trial","1","","false","","1","false","false","true","true","false","false","[1]","001","111","0","","","","","","",""
"","","","","","image-keyboard-response","211","569408","0.0-186.0","63ade94905e590dbf726b7fb","665500ab8938657b03fbdba8","66579278e5ee9db44cd36c69","156","stimuli/10011111.jpg"," ","","feedback_trial","1","","","","","","","","","","","","","","","","","","","","",""
"","","","","","image-keyboard-response","212","569748","0.0-187.0","63ade94905e590dbf726b7fb","665500ab8938657b03fbdba8","66579278e5ee9db44cd36c69","338","stimuli/2100111.jpg","2","","prediction_trial","2","","true","","2","false","false","true","true","false","false","[2]","100","111","1","","","","","","",""
"","","","","","image-keyboard-response","213","569936","0.0-188.0","63ade94905e590dbf726b7fb","665500ab8938657b03fbdba8","66579278e5ee9db44cd36c69","181","stimuli/21001112.jpg"," ","","feedback_trial","2","","","","","","","","","","","","","","","","","","","","",""
"","","","","","image-keyboard-response","214","570256","0.0-189.0","63ade94905e590dbf726b7fb","665500ab8938657b03fbdba8","66579278e5ee9db44cd36c69","317","stimuli/2100100.jpg","2","","prediction_trial","2","","true","","2","true","true","true","true","true","true","[2]","100","100","1","","","","","","",""
"","","","","","image-keyboard-response","215","570432","0.0-190.0","63ade94905e590dbf726b7fb","665500ab8938657b03fbdba8","66579278e5ee9db44cd36c69","173","stimuli/21001002.jpg"," ","","feedback_trial","2","","","","","","","","","","","","","","","","","","","","",""
"","","","","","image-keyboard-response","216","570731","0.0-191.0","63ade94905e590dbf726b7fb","665500ab8938657b03fbdba8","66579278e5ee9db44cd36c69","292","stimuli/2110000.jpg","2","","prediction_trial","2","","true","","2","true","true","true","true","true","true","[2]","110","000","1","","","","","","",""
"","","","","","image-keyboard-response","217","570913","0.0-192.0","63ade94905e590dbf726b7fb","665500ab8938657b03fbdba8","66579278e5ee9db44cd36c69","179","stimuli/21100002.jpg"," ","","feedback_trial","2","","","","","","","","","","","","","","","","","","","","",""
"","","","","","image-keyboard-response","218","571256","0.0-193.0","63ade94905e590dbf726b7fb","665500ab8938657b03fbdba8","66579278e5ee9db44cd36c69","340","stimuli/0011010.jpg","2","","prediction_trial","0","","false","","0","true","true","true","true","true","true","[0]","011","010","0","","","","","","",""
"","","","","","image-keyboard-response","219","571401","0.0-194.0","63ade94905e590dbf726b7fb","665500ab8938657b03fbdba8","66579278e5ee9db44cd36c69","142","stimuli/00110100.jpg"," ","","feedback_trial","0","","","","","","","","","","","","","","","","","","","","",""
"","","","","","image-keyboard-response","220","571753","0.0-195.0","63ade94905e590dbf726b7fb","665500ab8938657b03fbdba8","66579278e5ee9db44cd36c69","346","stimuli/0110100.jpg","2","","prediction_trial","1","","false","","0","false","true","false","false","false","false","[0,1]","110","100","0","","","","","","",""
"","","","","","image-keyboard-response","221","571931","0.0-196.0","63ade94905e590dbf726b7fb","665500ab8938657b03fbdba8","66579278e5ee9db44cd36c69","175","stimuli/01101001.jpg"," ","","feedback_trial","0","","","","","","","","","","","","","","","","","","","","",""
"","","","","","image-keyboard-response","222","572243","0.0-197.0","63ade94905e590dbf726b7fb","665500ab8938657b03fbdba8","66579278e5ee9db44cd36c69","310","stimuli/0101110.jpg","2","","prediction_trial","2","","true","","0","false","false","false","false","false","false","[2,0]","101","110","1","","","","","","",""
"","","","","","image-keyboard-response","223","572407","0.0-198.0","63ade94905e590dbf726b7fb","665500ab8938657b03fbdba8","66579278e5ee9db44cd36c69","151","stimuli/01011102.jpg"," ","","feedback_trial","2","","","","","","","","","","","","","","","","","","","","",""
"","","","","","image-keyboard-response","224","572755","0.0-199.0","63ade94905e590dbf726b7fb","665500ab8938657b03fbdba8","66579278e5ee9db44cd36c69","345","stimuli/0010010.jpg","2","","prediction_trial","0","","false","","0","true","true","true","true","true","true","[0]","010","010","0","","","","","","",""
"","","","","","image-keyboard-response","225","572919","0.0-200.0","63ade94905e590dbf726b7fb","665500ab8938657b03fbdba8","66579278e5ee9db44cd36c69","162","stimuli/00100100.jpg"," ","","feedback_trial","0","","","","","","","","","","","","","","","","","","","","",""
"","","","","","image-keyboard-response","226","573265","0.0-201.0","63ade94905e590dbf726b7fb","665500ab8938657b03fbdba8","66579278e5ee9db44cd36c69","343","stimuli/0011011.jpg","2","","prediction_trial","0","","false","","0","true","true","true","true","true","true","[0]","011","011","0","","","","","","",""
"","","","","","image-keyboard-response","227","573453","0.0-202.0","63ade94905e590dbf726b7fb","665500ab8938657b03fbdba8","66579278e5ee9db44cd36c69","185","stimuli/00110110.jpg"," ","","feedback_trial","0","","","","","","","","","","","","","","","","","","","","",""
"","","","","","image-keyboard-response","228","573806","0.0-203.0","63ade94905e590dbf726b7fb","665500ab8938657b03fbdba8","66579278e5ee9db44cd36c69","349","stimuli/0101000.jpg","2","","prediction_trial","0","","false","","0","true","true","false","false","false","false","[0,2]","101","000","0","","","","","","",""
"","","","","","image-keyboard-response","229","573989","0.0-204.0","63ade94905e590dbf726b7fb","665500ab8938657b03fbdba8","66579278e5ee9db44cd36c69","179","stimuli/01010000.jpg"," ","","feedback_trial","0","","","","","","","","","","","","","","","","","","","","",""
"","","","","","image-keyboard-response","230","574371","0.0-205.0","63ade94905e590dbf726b7fb","665500ab8938657b03fbdba8","66579278e5ee9db44cd36c69","377","stimuli/0010101.jpg","2","","prediction_trial","0","","false","","0","false","false","true","true","false","false","[0]","010","101","0","","","","","","",""
"","","","","","image-keyboard-response","231","574553","0.0-206.0","63ade94905e590dbf726b7fb","665500ab8938657b03fbdba8","66579278e5ee9db44cd36c69","179","stimuli/00101010.jpg"," ","","feedback_trial","0","","","","","","","","","","","","","","","","","","","","",""
"","","","","","image-keyboard-response","232","574958","0.0-207.0","63ade94905e590dbf726b7fb","665500ab8938657b03fbdba8","66579278e5ee9db44cd36c69","401","stimuli/1110101.jpg","2","","prediction_trial","0","","false","","1","true","true","false","false","false","false","[1,0]","110","101","0","","","","","","",""
"","","","","","image-keyboard-response","233","575167","0.0-208.0","63ade94905e590dbf726b7fb","665500ab8938657b03fbdba8","66579278e5ee9db44cd36c69","200","stimuli/11101010.jpg"," ","","feedback_trial","1","","","","","","","","","","","","","","","","","","","","",""
"","","","","","image-keyboard-response","234","576121","0.0-209.0","63ade94905e590dbf726b7fb","665500ab8938657b03fbdba8","66579278e5ee9db44cd36c69","949","stimuli/1000111.jpg","0","","prediction_trial","1","","false","","1","false","false","true","true","false","false","[1]","000","111","0","","","","","","",""
"","","","","","image-keyboard-response","235","576338","0.0-210.0","63ade94905e590dbf726b7fb","665500ab8938657b03fbdba8","66579278e5ee9db44cd36c69","214","stimuli/10001111.jpg"," ","","feedback_trial","1","","","","","","","","","","","","","","","","","","","","",""
"","","","","","image-keyboard-response","236","576737","0.0-211.0","63ade94905e590dbf726b7fb","665500ab8938657b03fbdba8","66579278e5ee9db44cd36c69","396","stimuli/2000110.jpg","0","","prediction_trial","2","","false","","2","true","true","true","true","true","true","[2]","000","110","0","","","","","","",""
"","","","","","image-keyboard-response","237","576938","0.0-212.0","63ade94905e590dbf726b7fb","665500ab8938657b03fbdba8","66579278e5ee9db44cd36c69","198","stimuli/20001102.jpg"," ","","feedback_trial","2","","","","","","","","","","","","","","","","","","","","",""
"","","","","","image-keyboard-response","238","577272","0.0-213.0","63ade94905e590dbf726b7fb","665500ab8938657b03fbdba8","66579278e5ee9db44cd36c69","329","stimuli/0101100.jpg","0","","prediction_trial","2","","false","","0","false","true","false","false","false","false","[2,0]","101","100","0","","","","","","",""
"","","","","","image-keyboard-response","239","577447","0.0-214.0","63ade94905e590dbf726b7fb","665500ab8938657b03fbdba8","66579278e5ee9db44cd36c69","169","stimuli/01011002.jpg"," ","","feedback_trial","2","","","","","","","","","","","","","","","","","","","","",""
"","","","","","image-keyboard-response","240","577844","0.0-215.0","63ade94905e590dbf726b7fb","665500ab8938657b03fbdba8","66579278e5ee9db44cd36c69","394","stimuli/1100001.jpg","0","","prediction_trial","1","","false","","1","true","true","true","true","true","true","[1]","100","001","0","","","","","","",""
"","","","","","image-keyboard-response","241","578037","0.0-216.0","63ade94905e590dbf726b7fb","665500ab8938657b03fbdba8","66579278e5ee9db44cd36c69","179","stimuli/11000011.jpg"," ","","feedback_trial","1","","","","","","","","","","","","","","","","","","","","",""
"","","","","","image-keyboard-response","242","578373","0.0-217.0","63ade94905e590dbf726b7fb","665500ab8938657b03fbdba8","66579278e5ee9db44cd36c69","332","stimuli/0100100.jpg","0","","prediction_trial","0","","true","","0","false","true","false","true","false","true","[0]","100","100","1","","","","","","",""
"","","","","","image-keyboard-response","243","578590","0.0-218.0","63ade94905e590dbf726b7fb","665500ab8938657b03fbdba8","66579278e5ee9db44cd36c69","213","stimuli/01001000.jpg"," ","","feedback_trial","0","","","","","","","","","","","","","","","","","","","","",""
"","","","","","image-keyboard-response","244","578914","0.0-219.0","63ade94905e590dbf726b7fb","665500ab8938657b03fbdba8","66579278e5ee9db44cd36c69","313","stimuli/2011011.jpg","0","","prediction_trial","1","","false","","2","false","false","false","false","false","false","[1,2]","011","011","0","","","","","","",""
"","","","","","image-keyboard-response","245","579128","0.0-220.0","63ade94905e590dbf726b7fb","665500ab8938657b03fbdba8","66579278e5ee9db44cd36c69","208","stimuli/20110111.jpg"," ","","feedback_trial","1","","","","","","","","","","","","","","","","","","","","",""
"","","","","","image-keyboard-response","246","579452","0.0-221.0","63ade94905e590dbf726b7fb","665500ab8938657b03fbdba8","66579278e5ee9db44cd36c69","315","stimuli/2110111.jpg","0","","prediction_trial","2","","false","","2","false","false","true","true","false","false","[2]","110","111","0","","","","","","",""
"","","","","","image-keyboard-response","247","579635","0.0-222.0","63ade94905e590dbf726b7fb","665500ab8938657b03fbdba8","66579278e5ee9db44cd36c69","180","stimuli/21101112.jpg"," ","","feedback_trial","2","","","","","","","","","","","","","","","","","","","","",""
"","","","","","image-keyboard-response","248","579990","0.0-223.0","63ade94905e590dbf726b7fb","665500ab8938657b03fbdba8","66579278e5ee9db44cd36c69","353","stimuli/1000101.jpg","0","","prediction_trial","1","","false","","1","true","true","true","true","true","true","[1]","000","101","0","","","","","","",""
"","","","","","image-keyboard-response","249","580182","0.0-224.0","63ade94905e590dbf726b7fb","665500ab8938657b03fbdba8","66579278e5ee9db44cd36c69","188","stimuli/10001011.jpg"," ","","feedback_trial","1","","","","","","","","","","","","","","","","","","","","",""
"","","","","","image-keyboard-response","250","581003","0.0-225.0","63ade94905e590dbf726b7fb","665500ab8938657b03fbdba8","66579278e5ee9db44cd36c69","818","stimuli/2011100.jpg","0","","prediction_trial","2","","false","","2","true","true","false","false","false","false","[1,2]","011","100","0","","","","","","",""
"","","","","","image-keyboard-response","251","581279","0.0-226.0","63ade94905e590dbf726b7fb","665500ab8938657b03fbdba8","66579278e5ee9db44cd36c69","273","stimuli/20111002.jpg"," ","","feedback_trial","1","","","","","","","","","","","","","","","","","","","","",""
"","","","","","image-keyboard-response","252","581562","0.0-227.0","63ade94905e590dbf726b7fb","665500ab8938657b03fbdba8","66579278e5ee9db44cd36c69","277","stimuli/2001000.jpg","0","","prediction_trial","2","","false","","2","true","true","false","true","false","true","[2]","001","000","0","","","","","","",""
"","","","","","image-keyboard-response","253","581784","0.0-228.0","63ade94905e590dbf726b7fb","665500ab8938657b03fbdba8","66579278e5ee9db44cd36c69","218","stimuli/20010002.jpg"," ","","feedback_trial","2","","","","","","","","","","","","","","","","","","","","",""
"","","","","","image-keyboard-response","254","582083","0.0-229.0","63ade94905e590dbf726b7fb","665500ab8938657b03fbdba8","66579278e5ee9db44cd36c69","296","stimuli/2010011.jpg","0","","prediction_trial","2","","false","","2","false","false","true","true","false","false","[2]","010","011","0","","","","","","",""
"","","","","","image-keyboard-response","255","582284","0.0-230.0","63ade94905e590dbf726b7fb","665500ab8938657b03fbdba8","66579278e5ee9db44cd36c69","198","stimuli/20100112.jpg"," ","","feedback_trial","2","","","","","","","","","","","","","","","","","","","","",""
"","","","","","image-keyboard-response","256","582598","0.0-231.0","63ade94905e590dbf726b7fb","665500ab8938657b03fbdba8","66579278e5ee9db44cd36c69","313","stimuli/1101111.jpg","0","","prediction_trial","1","","false","","1","false","false","true","true","false","false","[1]","101","111","0","","","","","","",""
"","","","","","image-keyboard-response","257","582847","0.0-232.0","63ade94905e590dbf726b7fb","665500ab8938657b03fbdba8","66579278e5ee9db44cd36c69","246","stimuli/11011111.jpg"," ","","feedback_trial","1","","","","","","","","","","","","","","","","","","","","",""
"","","","","","image-keyboard-response","258","583138","0.0-233.0","63ade94905e590dbf726b7fb","665500ab8938657b03fbdba8","66579278e5ee9db44cd36c69","288","stimuli/1001110.jpg","0","","prediction_trial","1","","false","","1","false","false","true","true","false","false","[1]","001","110","0","","","","","","",""
"","","","","","image-keyboard-response","259","583343","0.0-234.0","63ade94905e590dbf726b7fb","665500ab8938657b03fbdba8","66579278e5ee9db44cd36c69","196","stimuli/10011101.jpg"," ","","feedback_trial","1","","","","","","","","","","","","","","","","","","","","",""
"","","","","","image-keyboard-response","260","583637","0.0-235.0","63ade94905e590dbf726b7fb","665500ab8938657b03fbdba8","66579278e5ee9db44cd36c69","290","stimuli/1011111.jpg","0","","prediction_trial","2","","false","","1","false","false","false","false","false","false","[1,2]","011","111","0","","","","","","",""
"","","","","","image-keyboard-response","261","583845","0.0-236.0","63ade94905e590dbf726b7fb","665500ab8938657b03fbdba8","66579278e5ee9db44cd36c69","200","stimuli/10111112.jpg"," ","","feedback_trial","1","","","","","","","","","","","","","","","","","","","","",""
"","","","","","image-keyboard-response","262","584130","0.0-237.0","63ade94905e590dbf726b7fb","665500ab8938657b03fbdba8","66579278e5ee9db44cd36c69","278","stimuli/1000100.jpg","0","","prediction_trial","1","","false","","1","true","true","true","true","true","true","[1]","000","100","0","","","","","","",""
"","","","","","image-keyboard-response","263","584286","0.0-238.0","63ade94905e590dbf726b7fb","665500ab8938657b03fbdba8","66579278e5ee9db44cd36c69","153","stimuli/10001001.jpg"," ","","feedback_trial","1","","","","","","","","","","","","","","","","","","","","",""
"","","","","","image-keyboard-response","264","584610","0.0-239.0","63ade94905e590dbf726b7fb","665500ab8938657b03fbdba8","66579278e5ee9db44cd36c69","321","stimuli/1110011.jpg","0","","prediction_trial","1","","false","","1","false","false","false","false","false","false","[0,1]","110","011","0","","","","","","",""
"","","","","","image-keyboard-response","265","585127","0.0-240.0","63ade94905e590dbf726b7fb","665500ab8938657b03fbdba8","66579278e5ee9db44cd36c69","514","stimuli/11100111.jpg"," ","","feedback_trial","0","","","","","","","","","","","","","","","","","","","","",""
"","","","","","image-keyboard-response","266","585624","0.0-241.0","63ade94905e590dbf726b7fb","665500ab8938657b03fbdba8","66579278e5ee9db44cd36c69","494","stimuli/2110001.jpg","0","","prediction_trial","2","","false","","2","false","true","true","true","false","true","[2]","110","001","0","","","","","","",""
"","","","","","image-keyboard-response","267","585861","0.0-242.0","63ade94905e590dbf726b7fb","665500ab8938657b03fbdba8","66579278e5ee9db44cd36c69","226","stimuli/21100012.jpg"," ","","feedback_trial","2","","","","","","","","","","","","","","","","","","","","",""
"","","","","","image-keyboard-response","268","585886","0.0-243.0","63ade94905e590dbf726b7fb","665500ab8938657b03fbdba8","66579278e5ee9db44cd36c69","20","stimuli/0000000.jpg","0","","prediction_trial","0","","true","","0","true","true","true","true","true","true","[0]","000","000","1","","","","","","",""
"","","","","","image-keyboard-response","269","586080","0.0-244.0","63ade94905e590dbf726b7fb","665500ab8938657b03fbdba8","66579278e5ee9db44cd36c69","184","stimuli/00000000.jpg"," ","","feedback_trial","0","","","","","","","","","","","","","","","","","","","","",""
"","","","","","image-keyboard-response","270","586361","0.0-245.0","63ade94905e590dbf726b7fb","665500ab8938657b03fbdba8","66579278e5ee9db44cd36c69","274","stimuli/1010101.jpg","0","","prediction_trial","1","","false","","1","true","true","false","true","false","true","[1]","010","101","0","","","","","","",""
"","","","","","image-keyboard-response","271","586594","0.0-246.0","63ade94905e590dbf726b7fb","665500ab8938657b03fbdba8","66579278e5ee9db44cd36c69","229","stimuli/10101011.jpg"," ","","feedback_trial","1","","","","","","","","","","","","","","","","","","","","",""
"","","","","","image-keyboard-response","272","586651","0.0-247.0","63ade94905e590dbf726b7fb","665500ab8938657b03fbdba8","66579278e5ee9db44cd36c69","49","stimuli/1100011.jpg","0","","prediction_trial","1","","false","","1","false","false","true","true","false","false","[1]","100","011","0","","","","","","",""
"","","","","","image-keyboard-response","273","586958","0.0-248.0","63ade94905e590dbf726b7fb","665500ab8938657b03fbdba8","66579278e5ee9db44cd36c69","302","stimuli/11000111.jpg"," ","","feedback_trial","1","","","","","","","","","","","","","","","","","","","","",""
"","","","","","image-keyboard-response","274","587211","0.0-249.0","63ade94905e590dbf726b7fb","665500ab8938657b03fbdba8","66579278e5ee9db44cd36c69","243","stimuli/1011001.jpg","0","","prediction_trial","2","","false","","1","true","true","false","false","false","false","[1,2]","011","001","0","","","","","","",""
"","","","","","image-keyboard-response","275","587391","0.0-250.0","63ade94905e590dbf726b7fb","665500ab8938657b03fbdba8","66579278e5ee9db44cd36c69","175","stimuli/10110012.jpg"," ","","feedback_trial","1","","","","","","","","","","","","","","","","","","","","",""
"","","","","","image-keyboard-response","276","587638","0.0-251.0","63ade94905e590dbf726b7fb","665500ab8938657b03fbdba8","66579278e5ee9db44cd36c69","240","stimuli/2000001.jpg","0","","prediction_trial","2","","false","","2","false","true","true","true","false","true","[2]","000","001","0","","","","","","",""
"","","","","","image-keyboard-response","277","587832","0.0-252.0","63ade94905e590dbf726b7fb","665500ab8938657b03fbdba8","66579278e5ee9db44cd36c69","184","stimuli/20000012.jpg"," ","","feedback_trial","2","","","","","","","","","","","","","","","","","","","","",""
"","","","","","image-keyboard-response","278","588080","0.0-253.0","63ade94905e590dbf726b7fb","665500ab8938657b03fbdba8","66579278e5ee9db44cd36c69","246","stimuli/0000110.jpg","0","","prediction_trial","0","","true","","0","false","false","true","true","false","false","[0]","000","110","1","","","","","","",""
"","","","","","image-keyboard-response","279","588265","0.0-254.0","63ade94905e590dbf726b7fb","665500ab8938657b03fbdba8","66579278e5ee9db44cd36c69","182","stimuli/00001100.jpg"," ","","feedback_trial","0","","","","","","","","","","","","","","","","","","","","",""
"","","","","","image-keyboard-response","280","588541","0.0-255.0","63ade94905e590dbf726b7fb","665500ab8938657b03fbdba8","66579278e5ee9db44cd36c69","273","stimuli/1111010.jpg","0","","prediction_trial","2","","false","","1","false","true","false","false","false","false","[0,2,1]","111","010","0","","","","","","",""
"","","","","","image-keyboard-response","281","588710","0.0-256.0","63ade94905e590dbf726b7fb","665500ab8938657b03fbdba8","66579278e5ee9db44cd36c69","162","stimuli/11110102.jpg"," ","","feedback_trial","0","","","","","","","","","","","","","","","","","","","","",""
"","","","","","image-keyboard-response","282","588945","0.0-257.0","63ade94905e590dbf726b7fb","665500ab8938657b03fbdba8","66579278e5ee9db44cd36c69","231","stimuli/1111011.jpg","0","","prediction_trial","1","","false","","1","false","false","false","false","false","false","[0,2,1]","111","011","0","","","","","","",""
"","","","","","image-keyboard-response","283","589136","0.0-258.0","63ade94905e590dbf726b7fb","665500ab8938657b03fbdba8","66579278e5ee9db44cd36c69","186","stimuli/11110111.jpg"," ","","feedback_trial","0","","","","","","","","","","","","","","","","","","","","",""
"","","","","","image-keyboard-response","284","589452","0.0-259.0","63ade94905e590dbf726b7fb","665500ab8938657b03fbdba8","66579278e5ee9db44cd36c69","303","stimuli/2010100.jpg","0","","prediction_trial","2","","false","","2","true","true","true","true","true","true","[2]","010","100","0","","","","","","",""
"","","","","","image-keyboard-response","285","589633","0.0-260.0","63ade94905e590dbf726b7fb","665500ab8938657b03fbdba8","66579278e5ee9db44cd36c69","177","stimuli/20101002.jpg"," ","","feedback_trial","2","","","","","","","","","","","","","","","","","","","","",""
"","","","","","image-keyboard-response","286","589885","0.0-261.0","63ade94905e590dbf726b7fb","665500ab8938657b03fbdba8","66579278e5ee9db44cd36c69","250","stimuli/0111110.jpg","0","","prediction_trial","2","","false","","0","false","false","false","false","false","false","[0,1,2]","111","110","0","","","","","","",""
"","","","","","image-keyboard-response","287","590085","0.0-262.0","63ade94905e590dbf726b7fb","665500ab8938657b03fbdba8","66579278e5ee9db44cd36c69","198","stimuli/01111102.jpg"," ","","feedback_trial","0","","","","","","","","","","","","","","","","","","","","",""
"","","","","","image-keyboard-response","288","630735","0.0-263.0","63ade94905e590dbf726b7fb","665500ab8938657b03fbdba8","66579278e5ee9db44cd36c69","40648","stimuli/1111111.jpg","2","","prediction_trial","2","","true","","1","false","false","false","false","false","false","[1,2,0]","111","111","1","","","","","","",""
"","","","","","image-keyboard-response","289","632025","0.0-264.0","63ade94905e590dbf726b7fb","665500ab8938657b03fbdba8","66579278e5ee9db44cd36c69","1285","stimuli/11111112.jpg"," ","","feedback_trial","1","","","","","","","","","","","","","","","","","","","","",""
"","","","","","image-keyboard-response","290","633106","0.0-265.0","63ade94905e590dbf726b7fb","665500ab8938657b03fbdba8","66579278e5ee9db44cd36c69","1075","stimuli/0010110.jpg","2","","prediction_trial","0","","false","","0","false","false","true","true","false","false","[0]","010","110","0","","","","","","",""
"","","","","","image-keyboard-response","291","633620","0.0-266.0","63ade94905e590dbf726b7fb","665500ab8938657b03fbdba8","66579278e5ee9db44cd36c69","511","stimuli/00101100.jpg"," ","","feedback_trial","0","","","","","","","","","","","","","","","","","","","","",""
"","","","","","image-keyboard-response","292","633929","0.0-267.0","63ade94905e590dbf726b7fb","665500ab8938657b03fbdba8","66579278e5ee9db44cd36c69","306","stimuli/2110011.jpg","2","","prediction_trial","2","","true","","2","false","false","true","true","false","false","[2]","110","011","1","","","","","","",""
"","","","","","image-keyboard-response","293","634099","0.0-268.0","63ade94905e590dbf726b7fb","665500ab8938657b03fbdba8","66579278e5ee9db44cd36c69","169","stimuli/21100112.jpg"," ","","feedback_trial","2","","","","","","","","","","","","","","","","","","","","",""
"","","","","","image-keyboard-response","294","634480","0.0-269.0","63ade94905e590dbf726b7fb","665500ab8938657b03fbdba8","66579278e5ee9db44cd36c69","377","stimuli/2100001.jpg","2","","prediction_trial","2","","true","","2","false","true","true","true","false","true","[2]","100","001","1","","","","","","",""
"","","","","","image-keyboard-response","295","634701","0.0-270.0","63ade94905e590dbf726b7fb","665500ab8938657b03fbdba8","66579278e5ee9db44cd36c69","218","stimuli/21000012.jpg"," ","","feedback_trial","2","","","","","","","","","","","","","","","","","","","","",""
"","","","","","image-keyboard-response","296","634998","0.0-271.0","63ade94905e590dbf726b7fb","665500ab8938657b03fbdba8","66579278e5ee9db44cd36c69","295","stimuli/1010001.jpg","2","","prediction_trial","1","","false","","1","true","true","false","true","false","true","[1]","010","001","0","","","","","","",""
"","","","","","image-keyboard-response","297","635184","0.0-272.0","63ade94905e590dbf726b7fb","665500ab8938657b03fbdba8","66579278e5ee9db44cd36c69","183","stimuli/10100011.jpg"," ","","feedback_trial","1","","","","","","","","","","","","","","","","","","","","",""
"","","","","","image-keyboard-response","298","635448","0.0-273.0","63ade94905e590dbf726b7fb","665500ab8938657b03fbdba8","66579278e5ee9db44cd36c69","262","stimuli/1111000.jpg","2","","prediction_trial","2","","true","","1","true","true","false","false","false","false","[0,2,1]","111","000","1","","","","","","",""
"","","","","","image-keyboard-response","299","635617","0.0-274.0","63ade94905e590dbf726b7fb","665500ab8938657b03fbdba8","66579278e5ee9db44cd36c69","166","stimuli/11110002.jpg"," ","","feedback_trial","0","","","","","","","","","","","","","","","","","","","","",""
"","","","","","image-keyboard-response","300","635889","0.0-275.0","63ade94905e590dbf726b7fb","665500ab8938657b03fbdba8","66579278e5ee9db44cd36c69","269","stimuli/2111010.jpg","2","","prediction_trial","0","","false","","2","true","true","false","false","false","false","[0,2,1]","111","010","0","","","","","","",""
"","","","","","image-keyboard-response","301","636068","0.0-276.0","63ade94905e590dbf726b7fb","665500ab8938657b03fbdba8","66579278e5ee9db44cd36c69","176","stimuli/21110100.jpg"," ","","feedback_trial","0","","","","","","","","","","","","","","","","","","","","",""
"","","","","","image-keyboard-response","302","636334","0.0-277.0","63ade94905e590dbf726b7fb","665500ab8938657b03fbdba8","66579278e5ee9db44cd36c69","263","stimuli/2111011.jpg","2","","prediction_trial","1","","false","","2","false","false","false","false","false","false","[2,1,0]","111","011","0","","","","","","",""
"","","","","","image-keyboard-response","303","636458","0.0-278.0","63ade94905e590dbf726b7fb","665500ab8938657b03fbdba8","66579278e5ee9db44cd36c69","120","stimuli/21110111.jpg"," ","","feedback_trial","2","","","","","","","","","","","","","","","","","","","","",""
"","","","","","image-keyboard-response","304","636753","0.0-279.0","63ade94905e590dbf726b7fb","665500ab8938657b03fbdba8","66579278e5ee9db44cd36c69","286","stimuli/0110000.jpg","2","","prediction_trial","0","","false","","0","true","true","false","false","false","false","[0,1]","110","000","0","","","","","","",""
"","","","","","image-keyboard-response","305","636986","0.0-280.0","63ade94905e590dbf726b7fb","665500ab8938657b03fbdba8","66579278e5ee9db44cd36c69","229","stimuli/01100000.jpg"," ","","feedback_trial","0","","","","","","","","","","","","","","","","","","","","",""
"","","","","","image-keyboard-response","306","637230","0.0-281.0","63ade94905e590dbf726b7fb","665500ab8938657b03fbdba8","66579278e5ee9db44cd36c69","242","stimuli/0100000.jpg","2","","prediction_trial","0","","false","","0","true","true","false","true","false","true","[0]","100","000","0","","","","","","",""
"","","","","","image-keyboard-response","307","637407","0.0-282.0","63ade94905e590dbf726b7fb","665500ab8938657b03fbdba8","66579278e5ee9db44cd36c69","175","stimuli/01000000.jpg"," ","","feedback_trial","0","","","","","","","","","","","","","","","","","","","","",""
"","","","","","image-keyboard-response","308","637686","0.0-283.0","63ade94905e590dbf726b7fb","665500ab8938657b03fbdba8","66579278e5ee9db44cd36c69","271","stimuli/2010111.jpg","2","","prediction_trial","2","","true","","2","false","false","true","true","false","false","[2]","010","111","1","","","","","","",""
"","","","","","image-keyboard-response","309","637837","0.0-284.0","63ade94905e590dbf726b7fb","665500ab8938657b03fbdba8","66579278e5ee9db44cd36c69","149","stimuli/20101112.jpg"," ","","feedback_trial","2","","","","","","","","","","","","","","","","","","","","",""
"","","","","","image-keyboard-response","310","638122","0.0-285.0","63ade94905e590dbf726b7fb","665500ab8938657b03fbdba8","66579278e5ee9db44cd36c69","284","stimuli/2101110.jpg","2","","prediction_trial","2","","true","","2","true","true","false","false","false","false","[0,2]","101","110","1","","","","","","",""
"","","","","","image-keyboard-response","311","638384","0.0-286.0","63ade94905e590dbf726b7fb","665500ab8938657b03fbdba8","66579278e5ee9db44cd36c69","260","stimuli/21011102.jpg"," ","","feedback_trial","0","","","","","","","","","","","","","","","","","","","","",""
"","","","","","image-keyboard-response","312","638610","0.0-287.0","63ade94905e590dbf726b7fb","665500ab8938657b03fbdba8","66579278e5ee9db44cd36c69","224","stimuli/0111001.jpg","2","","prediction_trial","0","","false","","0","true","true","false","false","false","false","[1,0,2]","111","001","0","","","","","","",""
"","","","","","image-keyboard-response","313","638878","0.0-288.0","63ade94905e590dbf726b7fb","665500ab8938657b03fbdba8","66579278e5ee9db44cd36c69","266","stimuli/01110010.jpg"," ","","feedback_trial","1","","","","","","","","","","","","","","","","","","","","",""
"","","","","","image-keyboard-response","314","639096","0.0-289.0","63ade94905e590dbf726b7fb","665500ab8938657b03fbdba8","66579278e5ee9db44cd36c69","216","stimuli/2010110.jpg","2","","prediction_trial","2","","true","","2","true","true","true","true","true","true","[2]","010","110","1","","","","","","",""
"","","","","","image-keyboard-response","315","639285","0.0-290.0","63ade94905e590dbf726b7fb","665500ab8938657b03fbdba8","66579278e5ee9db44cd36c69","187","stimuli/20101102.jpg"," ","","feedback_trial","2","","","","","","","","","","","","","","","","","","","","",""
"","","","","","image-keyboard-response","316","639537","0.0-291.0","63ade94905e590dbf726b7fb","665500ab8938657b03fbdba8","66579278e5ee9db44cd36c69","250","stimuli/0011100.jpg","2","","prediction_trial","0","","false","","0","false","true","true","true","false","true","[0]","011","100","0","","","","","","",""
"","","","","","image-keyboard-response","317","639734","0.0-292.0","63ade94905e590dbf726b7fb","665500ab8938657b03fbdba8","66579278e5ee9db44cd36c69","193","stimuli/00111000.jpg"," ","","feedback_trial","0","","","","","","","","","","","","","","","","","","","","",""
"","","","","","survey-html-form","318","671831","0.0-293.0","63ade94905e590dbf726b7fb","665500ab8938657b03fbdba8","66579278e5ee9db44cd36c69","32092","","{""feedback"":"""",""age"":""50"",""gender"":""Male"",""other_gender"":"""",""race"":""Black/African American"",""other_race"":"""",""ethnicity"":""Non-Hispanic""}","","exit_survey","","","","","","","","","","","","","","","","","50","Non-Hispanic","Male","Black/African American","0.2986111111111111","0.2986111111111111"
