"success","timeout","failed_images","failed_audio","failed_video","trial_type","trial_index","time_elapsed","internal_node_id","prolific_id","prolific_study_id","prolific_session_id","rt","stimulus","response","view_history","trial","character_choice","stimulus_dict","accuracy","correct_response","ball_pos","ego_ball_visible","ego_can_infer","alter_ball_visible","alter_can_infer","collective_ball_visible","collective_can_infer","search_locations","alter_occluders","ego_occluders","accuracy_bool","feedback","age","ethnicity","gender","race","overall_accuracy","bonus"
"true","false","[]","[]","[]","preload","0","9805","0.0-0.0","5ae11f9709eae20001132c22","665500ab8938657b03fbdba8","665792dcb9254b075ddfeecb","","","","","","","","","","","","","","","","","","","","","","","","","","",""
"true","","","","","fullscreen","1","12087","0.0-1.0","5ae11f9709eae20001132c22","665500ab8938657b03fbdba8","665792dcb9254b075ddfeecb","","","","","","","","","","","","","","","","","","","","","","","","","","",""
"","","","","","html-button-response","2","13916","0.0-2.0","5ae11f9709eae20001132c22","665500ab8938657b03fbdba8","665792dcb9254b075ddfeecb","1828","<p><b>Consent Form</b></p> <div style=""text-align:left;background-color:lightgrey; padding:20px; max-width:900px;""><p>Please consider this information carefully before deciding whether to participate in this research.</p> <p>The purpose of this research is to examine which factors influence social judgment and decision-making. You will be asked to make judgements about individuals and actions in social scenarios. We are simply interested in your judgement. The study will take less than 1 hour to complete, and you will receive less than $20 on Prolific. Your compensation and time commitment are specified in the study description. There are no anticipated risks associated with participating in this study. The effects of participating should be comparable to those you would ordinarily experience from viewing a computer monitor and using a mouse or keyboard for a similar amount of time. At the end of the study, we will provide an explanation of the questions that motivate this line of research and will describe the potential implications. </p><p> Your participation in this study is completely voluntary and you may refuse to participate or you may choose to withdraw at any time without penalty or loss of benefits to you which are otherwise entitled. Your participation in this study will remain confidential. No personally identifiable information will be associated with your data. Also, all analyses of the data will be averaged across all the participants, so your individual responses will never be specifically analyzed. </p><p> If you have questions or concerns about your participation or payment, or want to request a summary of research findings, please contact Dr. Jonathan Phillips at Jonathan.S.Phillips@dartmouth.edu. </p><p> Please save a copy of this form for your records. </p><p><b>Agreement: </b>The nature and purpose of this research have been sufficiently explained and I agree to participate in this study. I understand that I am free to withdraw at any time without incurring any penalty. Please consent by clicking the button below to continue. Otherwise, please exit the study at any time. </p>","0","","","","","","","","","","","","","","","","","","","","","","","",""
"","","","","","instructions","3","59580","0.0-3.0-0.0","5ae11f9709eae20001132c22","665500ab8938657b03fbdba8","665792dcb9254b075ddfeecb","45663","","","[{""page_index"":0,""viewing_time"":1143},{""page_index"":1,""viewing_time"":1288},{""page_index"":2,""viewing_time"":1872},{""page_index"":3,""viewing_time"":3520},{""page_index"":4,""viewing_time"":2144},{""page_index"":5,""viewing_time"":2888},{""page_index"":6,""viewing_time"":2472},{""page_index"":7,""viewing_time"":2688},{""page_index"":8,""viewing_time"":4824},{""page_index"":9,""viewing_time"":2280},{""page_index"":10,""viewing_time"":9712},{""page_index"":11,""viewing_time"":6160},{""page_index"":12,""viewing_time"":3592},{""page_index"":13,""viewing_time"":1080}]","intro","","","","","","","","","","","","","","","","","","","","","",""
"","","","","","image-keyboard-response","4","67261","0.0-3.0-1.0","5ae11f9709eae20001132c22","665500ab8938657b03fbdba8","665792dcb9254b075ddfeecb","7678","stimuli/2011010.jpg","2","","prediction_practice","2","{""filepath"":""stimuli/2011010.jpg"",""ball_pos"":2,""ego_ball_visible"":true,""ego_can_infer"":true,""alter_ball_visible"":false,""alter_can_infer"":false,""collective_ball_visible"":false,""collective_can_infer"":false,""search_locations"":[1,2],""alter_occluders"":""011"",""ego_occluders"":""010""}","true","","","","","","","","","","","","","","","","","","",""
"","","","","","image-keyboard-response","5","68662","0.0-3.0-2.0","5ae11f9709eae20001132c22","665500ab8938657b03fbdba8","665792dcb9254b075ddfeecb","1399","stimuli/20110102.jpg"," ","","practrice_feedback","1","","","","","","","","","","","","","","","","","","","","",""
"","","","","","image-keyboard-response","6","69726","0.0-3.0-3.0","5ae11f9709eae20001132c22","665500ab8938657b03fbdba8","665792dcb9254b075ddfeecb","1064","stimuli/1011100.jpg","1","","prediction_practice","1","{""filepath"":""stimuli/1011100.jpg"",""ball_pos"":1,""ego_ball_visible"":true,""ego_can_infer"":true,""alter_ball_visible"":false,""alter_can_infer"":false,""collective_ball_visible"":false,""collective_can_infer"":false,""search_locations"":[1,2],""alter_occluders"":""011"",""ego_occluders"":""100""}","true","","","","","","","","","","","","","","","","","","",""
"","","","","","image-keyboard-response","7","70645","0.0-3.0-4.0","5ae11f9709eae20001132c22","665500ab8938657b03fbdba8","665792dcb9254b075ddfeecb","918","stimuli/10111001.jpg"," ","","practrice_feedback","1","","","","","","","","","","","","","","","","","","","","",""
"","","","","","image-keyboard-response","8","72290","0.0-3.0-5.0","5ae11f9709eae20001132c22","665500ab8938657b03fbdba8","665792dcb9254b075ddfeecb","1644","stimuli/0111001.jpg","0","","prediction_practice","0","{""filepath"":""stimuli/0111001.jpg"",""ball_pos"":0,""ego_ball_visible"":true,""ego_can_infer"":true,""alter_ball_visible"":false,""alter_can_infer"":false,""collective_ball_visible"":false,""collective_can_infer"":false,""search_locations"":[2,0,1],""alter_occluders"":""111"",""ego_occluders"":""001""}","true","","","","","","","","","","","","","","","","","","",""
"","","","","","image-keyboard-response","9","73375","0.0-3.0-6.0","5ae11f9709eae20001132c22","665500ab8938657b03fbdba8","665792dcb9254b075ddfeecb","1084","stimuli/01110010.jpg"," ","","practrice_feedback","2","","","","","","","","","","","","","","","","","","","","",""
"","","","","","image-keyboard-response","10","74883","0.0-3.0-7.0","5ae11f9709eae20001132c22","665500ab8938657b03fbdba8","665792dcb9254b075ddfeecb","1507","stimuli/1010010.jpg","1","","prediction_practice","1","{""filepath"":""stimuli/1010010.jpg"",""ball_pos"":1,""ego_ball_visible"":false,""ego_can_infer"":true,""alter_ball_visible"":false,""alter_can_infer"":true,""collective_ball_visible"":false,""collective_can_infer"":true,""search_locations"":[1],""alter_occluders"":""010"",""ego_occluders"":""010""}","true","","","","","","","","","","","","","","","","","","",""
"","","","","","image-keyboard-response","11","75840","0.0-3.0-8.0","5ae11f9709eae20001132c22","665500ab8938657b03fbdba8","665792dcb9254b075ddfeecb","956","stimuli/10100101.jpg"," ","","practrice_feedback","1","","","","","","","","","","","","","","","","","","","","",""
"","","","","","image-keyboard-response","12","79301","0.0-3.0-9.0","5ae11f9709eae20001132c22","665500ab8938657b03fbdba8","665792dcb9254b075ddfeecb","3460","stimuli/2101111.jpg","2","","prediction_practice","2","{""filepath"":""stimuli/2101111.jpg"",""ball_pos"":2,""ego_ball_visible"":false,""ego_can_infer"":false,""alter_ball_visible"":false,""alter_can_infer"":false,""collective_ball_visible"":false,""collective_can_infer"":false,""search_locations"":[2,0],""alter_occluders"":""101"",""ego_occluders"":""111""}","true","","","","","","","","","","","","","","","","","","",""
"","","","","","image-keyboard-response","13","80050","0.0-3.0-10.0","5ae11f9709eae20001132c22","665500ab8938657b03fbdba8","665792dcb9254b075ddfeecb","747","stimuli/21011112.jpg"," ","","practrice_feedback","2","","","","","","","","","","","","","","","","","","","","",""
"","","","","","image-keyboard-response","14","82979","0.0-3.0-11.0","5ae11f9709eae20001132c22","665500ab8938657b03fbdba8","665792dcb9254b075ddfeecb","2928","stimuli/2111011.jpg","1","","prediction_practice","1","{""filepath"":""stimuli/2111011.jpg"",""ball_pos"":2,""ego_ball_visible"":false,""ego_can_infer"":false,""alter_ball_visible"":false,""alter_can_infer"":false,""collective_ball_visible"":false,""collective_can_infer"":false,""search_locations"":[2,1,0],""alter_occluders"":""111"",""ego_occluders"":""011""}","true","","","","","","","","","","","","","","","","","","",""
"","","","","","image-keyboard-response","15","83500","0.0-3.0-12.0","5ae11f9709eae20001132c22","665500ab8938657b03fbdba8","665792dcb9254b075ddfeecb","520","stimuli/21110111.jpg"," ","","practrice_feedback","2","","","","","","","","","","","","","","","","","","","","",""
"","","","","","image-keyboard-response","16","85025","0.0-3.0-13.0","5ae11f9709eae20001132c22","665500ab8938657b03fbdba8","665792dcb9254b075ddfeecb","1524","stimuli/0110011.jpg","0","","prediction_practice","0","{""filepath"":""stimuli/0110011.jpg"",""ball_pos"":0,""ego_ball_visible"":true,""ego_can_infer"":true,""alter_ball_visible"":false,""alter_can_infer"":false,""collective_ball_visible"":false,""collective_can_infer"":false,""search_locations"":[1,0],""alter_occluders"":""110"",""ego_occluders"":""011""}","true","","","","","","","","","","","","","","","","","","",""
"","","","","","image-keyboard-response","17","85568","0.0-3.0-14.0","5ae11f9709eae20001132c22","665500ab8938657b03fbdba8","665792dcb9254b075ddfeecb","543","stimuli/01100110.jpg"," ","","practrice_feedback","1","","","","","","","","","","","","","","","","","","","","",""
"","","","","","image-keyboard-response","18","86601","0.0-3.0-15.0","5ae11f9709eae20001132c22","665500ab8938657b03fbdba8","665792dcb9254b075ddfeecb","1032","stimuli/0111010.jpg","0","","prediction_practice","0","{""filepath"":""stimuli/0111010.jpg"",""ball_pos"":0,""ego_ball_visible"":true,""ego_can_infer"":true,""alter_ball_visible"":false,""alter_can_infer"":false,""collective_ball_visible"":false,""collective_can_infer"":false,""search_locations"":[0,1,2],""alter_occluders"":""111"",""ego_occluders"":""010""}","true","","","","","","","","","","","","","","","","","","",""
"","","","","","image-keyboard-response","19","86934","0.0-3.0-16.0","5ae11f9709eae20001132c22","665500ab8938657b03fbdba8","665792dcb9254b075ddfeecb","332","stimuli/01110100.jpg"," ","","practrice_feedback","0","","","","","","","","","","","","","","","","","","","","",""
"","","","","","image-keyboard-response","20","90748","0.0-3.0-17.0","5ae11f9709eae20001132c22","665500ab8938657b03fbdba8","665792dcb9254b075ddfeecb","3813","stimuli/1000011.jpg","1","","prediction_practice","1","{""filepath"":""stimuli/1000011.jpg"",""ball_pos"":1,""ego_ball_visible"":false,""ego_can_infer"":false,""alter_ball_visible"":true,""alter_can_infer"":true,""collective_ball_visible"":false,""collective_can_infer"":false,""search_locations"":[1],""alter_occluders"":""000"",""ego_occluders"":""011""}","true","","","","","","","","","","","","","","","","","","",""
"","","","","","image-keyboard-response","21","91335","0.0-3.0-18.0","5ae11f9709eae20001132c22","665500ab8938657b03fbdba8","665792dcb9254b075ddfeecb","586","stimuli/10000111.jpg"," ","","practrice_feedback","1","","","","","","","","","","","","","","","","","","","","",""
"","","","","","image-keyboard-response","22","92310","0.0-3.0-19.0","5ae11f9709eae20001132c22","665500ab8938657b03fbdba8","665792dcb9254b075ddfeecb","974","stimuli/0001000.jpg","0","","prediction_practice","0","{""filepath"":""stimuli/0001000.jpg"",""ball_pos"":0,""ego_ball_visible"":true,""ego_can_infer"":true,""alter_ball_visible"":true,""alter_can_infer"":true,""collective_ball_visible"":true,""collective_can_infer"":true,""search_locations"":[0],""alter_occluders"":""001"",""ego_occluders"":""000""}","true","","","","","","","","","","","","","","","","","","",""
"","","","","","image-keyboard-response","23","92766","0.0-3.0-20.0","5ae11f9709eae20001132c22","665500ab8938657b03fbdba8","665792dcb9254b075ddfeecb","456","stimuli/00010000.jpg"," ","","practrice_feedback","0","","","","","","","","","","","","","","","","","","","","",""
"","","","","","html-button-response","24","96620","0.0-3.0-21.0","5ae11f9709eae20001132c22","665500ab8938657b03fbdba8","665792dcb9254b075ddfeecb","3853","Now that you've had some practice, you'll be tested with a couple of easy trials. If you correctly predict Sam's choice, you'll move on to complete the experiment!","0","","","","","","","","","","","","","","","","","","","","","","","",""
"","","","","","image-keyboard-response","25","98428","0.0-3.0-22.0-0.0","5ae11f9709eae20001132c22","665500ab8938657b03fbdba8","665792dcb9254b075ddfeecb","1807","stimuli/0000011.jpg","arrowleft","","comprehension_quiz","","","true","arrowleft","","","","","","","","","","","","","","","","","",""
"","","","","","image-keyboard-response","26","98950","0.0-3.0-22.0-1.0","5ae11f9709eae20001132c22","665500ab8938657b03fbdba8","665792dcb9254b075ddfeecb","521","stimuli/00000110.jpg"," ","","comprehension_quiz","","","true"," ","","","","","","","","","","","","","","","","","",""
"","","","","","image-keyboard-response","27","100282","0.0-3.0-22.0-2.0","5ae11f9709eae20001132c22","665500ab8938657b03fbdba8","665792dcb9254b075ddfeecb","1330","stimuli/1010010.jpg","arrowdown","","comprehension_quiz","","","true","arrowdown","","","","","","","","","","","","","","","","","",""
"","","","","","image-keyboard-response","28","100639","0.0-3.0-22.0-3.0","5ae11f9709eae20001132c22","665500ab8938657b03fbdba8","665792dcb9254b075ddfeecb","356","stimuli/10100101.jpg"," ","","comprehension_quiz","","","true"," ","","","","","","","","","","","","","","","","","",""
"","","","","","html-button-response","29","102900","0.0-4.0","5ae11f9709eae20001132c22","665500ab8938657b03fbdba8","665792dcb9254b075ddfeecb","2259","The experiment will now begin.","0","","","","","","","","","","","","","","","","","","","","","","","",""
"","","","","","image-keyboard-response","30","107241","0.0-5.0","5ae11f9709eae20001132c22","665500ab8938657b03fbdba8","665792dcb9254b075ddfeecb","4341","stimuli/1101011.jpg","2","","prediction_trial","1","","false","","1","false","false","true","true","false","false","[1]","101","011","0","","","","","","",""
"","","","","","image-keyboard-response","31","108090","0.0-6.0","5ae11f9709eae20001132c22","665500ab8938657b03fbdba8","665792dcb9254b075ddfeecb","848","stimuli/11010111.jpg"," ","","feedback_trial","1","","","","","","","","","","","","","","","","","","","","",""
"","","","","","image-keyboard-response","32","108948","0.0-7.0","5ae11f9709eae20001132c22","665500ab8938657b03fbdba8","665792dcb9254b075ddfeecb","854","stimuli/0001011.jpg","0","","prediction_trial","0","","true","","0","true","true","true","true","true","true","[0]","001","011","1","","","","","","",""
"","","","","","image-keyboard-response","33","109712","0.0-8.0","5ae11f9709eae20001132c22","665500ab8938657b03fbdba8","665792dcb9254b075ddfeecb","762","stimuli/00010110.jpg"," ","","feedback_trial","0","","","","","","","","","","","","","","","","","","","","",""
"","","","","","image-keyboard-response","34","111455","0.0-9.0","5ae11f9709eae20001132c22","665500ab8938657b03fbdba8","665792dcb9254b075ddfeecb","1743","stimuli/0011110.jpg","1","","prediction_trial","0","","false","","0","false","false","true","true","false","false","[0]","011","110","0","","","","","","",""
"","","","","","image-keyboard-response","35","112517","0.0-10.0","5ae11f9709eae20001132c22","665500ab8938657b03fbdba8","665792dcb9254b075ddfeecb","1061","stimuli/00111100.jpg"," ","","feedback_trial","0","","","","","","","","","","","","","","","","","","","","",""
"","","","","","image-keyboard-response","36","113860","0.0-11.0","5ae11f9709eae20001132c22","665500ab8938657b03fbdba8","665792dcb9254b075ddfeecb","1342","stimuli/0011010.jpg","0","","prediction_trial","0","","true","","0","true","true","true","true","true","true","[0]","011","010","1","","","","","","",""
"","","","","","image-keyboard-response","37","114527","0.0-12.0","5ae11f9709eae20001132c22","665500ab8938657b03fbdba8","665792dcb9254b075ddfeecb","666","stimuli/00110100.jpg"," ","","feedback_trial","0","","","","","","","","","","","","","","","","","","","","",""
"","","","","","image-keyboard-response","38","115811","0.0-13.0","5ae11f9709eae20001132c22","665500ab8938657b03fbdba8","665792dcb9254b075ddfeecb","1283","stimuli/1011011.jpg","1","","prediction_trial","1","","true","","1","false","false","false","false","false","false","[1,2]","011","011","1","","","","","","",""
"","","","","","image-keyboard-response","39","116517","0.0-14.0","5ae11f9709eae20001132c22","665500ab8938657b03fbdba8","665792dcb9254b075ddfeecb","705","stimuli/10110111.jpg"," ","","feedback_trial","1","","","","","","","","","","","","","","","","","","","","",""
"","","","","","image-keyboard-response","40","118588","0.0-15.0","5ae11f9709eae20001132c22","665500ab8938657b03fbdba8","665792dcb9254b075ddfeecb","2070","stimuli/0000110.jpg","1","","prediction_trial","0","","false","","0","false","false","true","true","false","false","[0]","000","110","0","","","","","","",""
"","","","","","image-keyboard-response","41","119504","0.0-16.0","5ae11f9709eae20001132c22","665500ab8938657b03fbdba8","665792dcb9254b075ddfeecb","915","stimuli/00001100.jpg"," ","","feedback_trial","0","","","","","","","","","","","","","","","","","","","","",""
"","","","","","image-keyboard-response","42","120358","0.0-17.0","5ae11f9709eae20001132c22","665500ab8938657b03fbdba8","665792dcb9254b075ddfeecb","853","stimuli/1000001.jpg","1","","prediction_trial","1","","true","","1","true","true","true","true","true","true","[1]","000","001","1","","","","","","",""
"","","","","","image-keyboard-response","43","120781","0.0-18.0","5ae11f9709eae20001132c22","665500ab8938657b03fbdba8","665792dcb9254b075ddfeecb","423","stimuli/10000011.jpg"," ","","feedback_trial","1","","","","","","","","","","","","","","","","","","","","",""
"","","","","","image-keyboard-response","44","123311","0.0-19.0","5ae11f9709eae20001132c22","665500ab8938657b03fbdba8","665792dcb9254b075ddfeecb","2529","stimuli/0100010.jpg","0","","prediction_trial","0","","true","","0","true","true","false","true","false","true","[0]","100","010","1","","","","","","",""
"","","","","","image-keyboard-response","45","123692","0.0-20.0","5ae11f9709eae20001132c22","665500ab8938657b03fbdba8","665792dcb9254b075ddfeecb","380","stimuli/01000100.jpg"," ","","feedback_trial","0","","","","","","","","","","","","","","","","","","","","",""
"","","","","","image-keyboard-response","46","124805","0.0-21.0","5ae11f9709eae20001132c22","665500ab8938657b03fbdba8","665792dcb9254b075ddfeecb","1112","stimuli/1000110.jpg","1","","prediction_trial","1","","true","","1","false","false","true","true","false","false","[1]","000","110","1","","","","","","",""
"","","","","","image-keyboard-response","47","125496","0.0-22.0","5ae11f9709eae20001132c22","665500ab8938657b03fbdba8","665792dcb9254b075ddfeecb","690","stimuli/10001101.jpg"," ","","feedback_trial","1","","","","","","","","","","","","","","","","","","","","",""
"","","","","","image-keyboard-response","48","126333","0.0-23.0","5ae11f9709eae20001132c22","665500ab8938657b03fbdba8","665792dcb9254b075ddfeecb","836","stimuli/2111110.jpg","2","","prediction_trial","0","","false","","2","true","true","false","false","false","false","[2,1,0]","111","110","0","","","","","","",""
"","","","","","image-keyboard-response","49","127471","0.0-24.0","5ae11f9709eae20001132c22","665500ab8938657b03fbdba8","665792dcb9254b075ddfeecb","1138","stimuli/21111100.jpg"," ","","feedback_trial","2","","","","","","","","","","","","","","","","","","","","",""
"","","","","","image-keyboard-response","50","128089","0.0-25.0","5ae11f9709eae20001132c22","665500ab8938657b03fbdba8","665792dcb9254b075ddfeecb","611","stimuli/1100101.jpg","1","","prediction_trial","1","","true","","1","true","true","true","true","true","true","[1]","100","101","1","","","","","","",""
"","","","","","image-keyboard-response","51","128673","0.0-26.0","5ae11f9709eae20001132c22","665500ab8938657b03fbdba8","665792dcb9254b075ddfeecb","583","stimuli/11001011.jpg"," ","","feedback_trial","1","","","","","","","","","","","","","","","","","","","","",""
"","","","","","image-keyboard-response","52","129397","0.0-27.0","5ae11f9709eae20001132c22","665500ab8938657b03fbdba8","665792dcb9254b075ddfeecb","723","stimuli/1001110.jpg","1","","prediction_trial","1","","true","","1","false","false","true","true","false","false","[1]","001","110","1","","","","","","",""
"","","","","","image-keyboard-response","53","129965","0.0-28.0","5ae11f9709eae20001132c22","665500ab8938657b03fbdba8","665792dcb9254b075ddfeecb","567","stimuli/10011101.jpg"," ","","feedback_trial","1","","","","","","","","","","","","","","","","","","","","",""
"","","","","","image-keyboard-response","54","130515","0.0-29.0","5ae11f9709eae20001132c22","665500ab8938657b03fbdba8","665792dcb9254b075ddfeecb","549","stimuli/0000010.jpg","0","","prediction_trial","0","","true","","0","true","true","true","true","true","true","[0]","000","010","1","","","","","","",""
"","","","","","image-keyboard-response","55","131027","0.0-30.0","5ae11f9709eae20001132c22","665500ab8938657b03fbdba8","665792dcb9254b075ddfeecb","511","stimuli/00000100.jpg"," ","","feedback_trial","0","","","","","","","","","","","","","","","","","","","","",""
"","","","","","image-keyboard-response","56","132073","0.0-31.0","5ae11f9709eae20001132c22","665500ab8938657b03fbdba8","665792dcb9254b075ddfeecb","1045","stimuli/0101011.jpg","0","","prediction_trial","2","","false","","0","true","true","false","false","false","false","[2,0]","101","011","0","","","","","","",""
"","","","","","image-keyboard-response","57","132646","0.0-32.0","5ae11f9709eae20001132c22","665500ab8938657b03fbdba8","665792dcb9254b075ddfeecb","572","stimuli/01010112.jpg"," ","","feedback_trial","2","","","","","","","","","","","","","","","","","","","","",""
"","","","","","image-keyboard-response","58","133358","0.0-33.0","5ae11f9709eae20001132c22","665500ab8938657b03fbdba8","665792dcb9254b075ddfeecb","711","stimuli/0111000.jpg","0","","prediction_trial","0","","true","","0","true","true","false","false","false","false","[0,1,2]","111","000","1","","","","","","",""
"","","","","","image-keyboard-response","59","133926","0.0-34.0","5ae11f9709eae20001132c22","665500ab8938657b03fbdba8","665792dcb9254b075ddfeecb","567","stimuli/01110000.jpg"," ","","feedback_trial","0","","","","","","","","","","","","","","","","","","","","",""
"","","","","","image-keyboard-response","60","134944","0.0-35.0","5ae11f9709eae20001132c22","665500ab8938657b03fbdba8","665792dcb9254b075ddfeecb","1017","stimuli/2101011.jpg","1","","prediction_trial","0","","false","","2","false","false","false","false","false","false","[2,0]","101","011","0","","","","","","",""
"","","","","","image-keyboard-response","61","135802","0.0-36.0","5ae11f9709eae20001132c22","665500ab8938657b03fbdba8","665792dcb9254b075ddfeecb","857","stimuli/21010110.jpg"," ","","feedback_trial","2","","","","","","","","","","","","","","","","","","","","",""
"","","","","","image-keyboard-response","62","137172","0.0-37.0","5ae11f9709eae20001132c22","665500ab8938657b03fbdba8","665792dcb9254b075ddfeecb","1369","stimuli/1011101.jpg","1","","prediction_trial","1","","true","","1","true","true","false","false","false","false","[2,1]","011","101","1","","","","","","",""
"","","","","","image-keyboard-response","63","137716","0.0-38.0","5ae11f9709eae20001132c22","665500ab8938657b03fbdba8","665792dcb9254b075ddfeecb","543","stimuli/10111011.jpg"," ","","feedback_trial","2","","","","","","","","","","","","","","","","","","","","",""
"","","","","","image-keyboard-response","64","138327","0.0-39.0","5ae11f9709eae20001132c22","665500ab8938657b03fbdba8","665792dcb9254b075ddfeecb","610","stimuli/2111010.jpg","2","","prediction_trial","1","","false","","2","true","true","false","false","false","false","[2,1,0]","111","010","0","","","","","","",""
"","","","","","image-keyboard-response","65","139222","0.0-40.0","5ae11f9709eae20001132c22","665500ab8938657b03fbdba8","665792dcb9254b075ddfeecb","894","stimuli/21110101.jpg"," ","","feedback_trial","2","","","","","","","","","","","","","","","","","","","","",""
"","","","","","image-keyboard-response","66","140440","0.0-41.0","5ae11f9709eae20001132c22","665500ab8938657b03fbdba8","665792dcb9254b075ddfeecb","1216","stimuli/2111011.jpg","1","","prediction_trial","1","","true","","2","false","false","false","false","false","false","[2,1,0]","111","011","1","","","","","","",""
"","","","","","image-keyboard-response","67","141007","0.0-42.0","5ae11f9709eae20001132c22","665500ab8938657b03fbdba8","665792dcb9254b075ddfeecb","566","stimuli/21110111.jpg"," ","","feedback_trial","2","","","","","","","","","","","","","","","","","","","","",""
"","","","","","image-keyboard-response","68","141825","0.0-43.0","5ae11f9709eae20001132c22","665500ab8938657b03fbdba8","665792dcb9254b075ddfeecb","812","stimuli/1100000.jpg","1","","prediction_trial","1","","true","","1","true","true","true","true","true","true","[1]","100","000","1","","","","","","",""
"","","","","","image-keyboard-response","69","142186","0.0-44.0","5ae11f9709eae20001132c22","665500ab8938657b03fbdba8","665792dcb9254b075ddfeecb","360","stimuli/11000001.jpg"," ","","feedback_trial","1","","","","","","","","","","","","","","","","","","","","",""
"","","","","","image-keyboard-response","70","143511","0.0-45.0","5ae11f9709eae20001132c22","665500ab8938657b03fbdba8","665792dcb9254b075ddfeecb","1325","stimuli/1111001.jpg","1","","prediction_trial","1","","true","","1","true","true","false","false","false","false","[1,0,2]","111","001","1","","","","","","",""
"","","","","","image-keyboard-response","71","143861","0.0-46.0","5ae11f9709eae20001132c22","665500ab8938657b03fbdba8","665792dcb9254b075ddfeecb","349","stimuli/11110011.jpg"," ","","feedback_trial","1","","","","","","","","","","","","","","","","","","","","",""
"","","","","","image-keyboard-response","72","145054","0.0-47.0","5ae11f9709eae20001132c22","665500ab8938657b03fbdba8","665792dcb9254b075ddfeecb","1192","stimuli/1100011.jpg","1","","prediction_trial","1","","true","","1","false","false","true","true","false","false","[1]","100","011","1","","","","","","",""
"","","","","","image-keyboard-response","73","145356","0.0-48.0","5ae11f9709eae20001132c22","665500ab8938657b03fbdba8","665792dcb9254b075ddfeecb","301","stimuli/11000111.jpg"," ","","feedback_trial","1","","","","","","","","","","","","","","","","","","","","",""
"","","","","","image-keyboard-response","74","146118","0.0-49.0","5ae11f9709eae20001132c22","665500ab8938657b03fbdba8","665792dcb9254b075ddfeecb","761","stimuli/0001110.jpg","1","","prediction_trial","0","","false","","0","false","false","true","true","false","false","[0]","001","110","0","","","","","","",""
"","","","","","image-keyboard-response","75","146488","0.0-50.0","5ae11f9709eae20001132c22","665500ab8938657b03fbdba8","665792dcb9254b075ddfeecb","369","stimuli/00011100.jpg"," ","","feedback_trial","0","","","","","","","","","","","","","","","","","","","","",""
"","","","","","image-keyboard-response","76","147324","0.0-51.0","5ae11f9709eae20001132c22","665500ab8938657b03fbdba8","665792dcb9254b075ddfeecb","835","stimuli/0001100.jpg","0","","prediction_trial","0","","true","","0","false","true","true","true","false","true","[0]","001","100","1","","","","","","",""
"","","","","","image-keyboard-response","77","147794","0.0-52.0","5ae11f9709eae20001132c22","665500ab8938657b03fbdba8","665792dcb9254b075ddfeecb","469","stimuli/00011000.jpg"," ","","feedback_trial","0","","","","","","","","","","","","","","","","","","","","",""
"","","","","","image-keyboard-response","78","148910","0.0-53.0","5ae11f9709eae20001132c22","665500ab8938657b03fbdba8","665792dcb9254b075ddfeecb","1114","stimuli/0111011.jpg","0","","prediction_trial","0","","true","","0","true","true","false","false","false","false","[2,0,1]","111","011","1","","","","","","",""
"","","","","","image-keyboard-response","79","149505","0.0-54.0","5ae11f9709eae20001132c22","665500ab8938657b03fbdba8","665792dcb9254b075ddfeecb","595","stimuli/01110110.jpg"," ","","feedback_trial","2","","","","","","","","","","","","","","","","","","","","",""
"","","","","","image-keyboard-response","80","150383","0.0-55.0","5ae11f9709eae20001132c22","665500ab8938657b03fbdba8","665792dcb9254b075ddfeecb","876","stimuli/2001110.jpg","2","","prediction_trial","2","","true","","2","true","true","false","true","false","true","[2]","001","110","1","","","","","","",""
"","","","","","image-keyboard-response","81","150839","0.0-56.0","5ae11f9709eae20001132c22","665500ab8938657b03fbdba8","665792dcb9254b075ddfeecb","455","stimuli/20011102.jpg"," ","","feedback_trial","2","","","","","","","","","","","","","","","","","","","","",""
"","","","","","image-keyboard-response","82","151478","0.0-57.0","5ae11f9709eae20001132c22","665500ab8938657b03fbdba8","665792dcb9254b075ddfeecb","638","stimuli/1011100.jpg","1","","prediction_trial","2","","false","","1","true","true","false","false","false","false","[1,2]","011","100","0","","","","","","",""
"","","","","","image-keyboard-response","83","152386","0.0-58.0","5ae11f9709eae20001132c22","665500ab8938657b03fbdba8","665792dcb9254b075ddfeecb","906","stimuli/10111002.jpg"," ","","feedback_trial","1","","","","","","","","","","","","","","","","","","","","",""
"","","","","","image-keyboard-response","84","154122","0.0-59.0","5ae11f9709eae20001132c22","665500ab8938657b03fbdba8","665792dcb9254b075ddfeecb","1735","stimuli/0010101.jpg","0","","prediction_trial","0","","true","","0","false","false","true","true","false","false","[0]","010","101","1","","","","","","",""
"","","","","","image-keyboard-response","85","154688","0.0-60.0","5ae11f9709eae20001132c22","665500ab8938657b03fbdba8","665792dcb9254b075ddfeecb","565","stimuli/00101010.jpg"," ","","feedback_trial","0","","","","","","","","","","","","","","","","","","","","",""
"","","","","","image-keyboard-response","86","155449","0.0-61.0","5ae11f9709eae20001132c22","665500ab8938657b03fbdba8","665792dcb9254b075ddfeecb","755","stimuli/1111111.jpg","1","","prediction_trial","0","","false","","1","false","false","false","false","false","false","[2,1,0]","111","111","0","","","","","","",""
"","","","","","image-keyboard-response","87","156065","0.0-62.0","5ae11f9709eae20001132c22","665500ab8938657b03fbdba8","665792dcb9254b075ddfeecb","616","stimuli/11111110.jpg"," ","","feedback_trial","2","","","","","","","","","","","","","","","","","","","","",""
"","","","","","image-keyboard-response","88","157329","0.0-63.0","5ae11f9709eae20001132c22","665500ab8938657b03fbdba8","665792dcb9254b075ddfeecb","1262","stimuli/1010011.jpg","1","","prediction_trial","1","","true","","1","false","false","false","true","false","false","[1]","010","011","1","","","","","","",""
"","","","","","image-keyboard-response","89","157895","0.0-64.0","5ae11f9709eae20001132c22","665500ab8938657b03fbdba8","665792dcb9254b075ddfeecb","565","stimuli/10100111.jpg"," ","","feedback_trial","1","","","","","","","","","","","","","","","","","","","","",""
"","","","","","image-keyboard-response","90","158543","0.0-65.0","5ae11f9709eae20001132c22","665500ab8938657b03fbdba8","665792dcb9254b075ddfeecb","647","stimuli/2001100.jpg","2","","prediction_trial","2","","true","","2","true","true","false","true","false","true","[2]","001","100","1","","","","","","",""
"","","","","","image-keyboard-response","91","159068","0.0-66.0","5ae11f9709eae20001132c22","665500ab8938657b03fbdba8","665792dcb9254b075ddfeecb","523","stimuli/20011002.jpg"," ","","feedback_trial","2","","","","","","","","","","","","","","","","","","","","",""
"","","","","","image-keyboard-response","92","159712","0.0-67.0","5ae11f9709eae20001132c22","665500ab8938657b03fbdba8","665792dcb9254b075ddfeecb","643","stimuli/1010100.jpg","1","","prediction_trial","1","","true","","1","true","true","false","true","false","true","[1]","010","100","1","","","","","","",""
"","","","","","image-keyboard-response","93","159804","0.0-68.0","5ae11f9709eae20001132c22","665500ab8938657b03fbdba8","665792dcb9254b075ddfeecb","92","stimuli/10101001.jpg"," ","","feedback_trial","1","","","","","","","","","","","","","","","","","","","","",""
"","","","","","image-keyboard-response","94","160654","0.0-69.0","5ae11f9709eae20001132c22","665500ab8938657b03fbdba8","665792dcb9254b075ddfeecb","849","stimuli/1110010.jpg","1","","prediction_trial","1","","true","","1","false","true","false","false","false","false","[0,1]","110","010","1","","","","","","",""
"","","","","","image-keyboard-response","95","160714","0.0-70.0","5ae11f9709eae20001132c22","665500ab8938657b03fbdba8","665792dcb9254b075ddfeecb","58","stimuli/11100101.jpg"," ","","feedback_trial","0","","","","","","","","","","","","","","","","","","","","",""
"","","","","","image-keyboard-response","96","164056","0.0-71.0","5ae11f9709eae20001132c22","665500ab8938657b03fbdba8","665792dcb9254b075ddfeecb","3341","stimuli/0001111.jpg","1","","prediction_trial","0","","false","","0","false","false","true","true","false","false","[0]","001","111","0","","","","","","",""
"","","","","","image-keyboard-response","97","164575","0.0-72.0","5ae11f9709eae20001132c22","665500ab8938657b03fbdba8","665792dcb9254b075ddfeecb","517","stimuli/00011110.jpg"," ","","feedback_trial","0","","","","","","","","","","","","","","","","","","","","",""
"","","","","","image-keyboard-response","98","165311","0.0-73.0","5ae11f9709eae20001132c22","665500ab8938657b03fbdba8","665792dcb9254b075ddfeecb","736","stimuli/0111110.jpg","1","","prediction_trial","2","","false","","0","false","false","false","false","false","false","[2,1,0]","111","110","0","","","","","","",""
"","","","","","image-keyboard-response","99","165754","0.0-74.0","5ae11f9709eae20001132c22","665500ab8938657b03fbdba8","665792dcb9254b075ddfeecb","442","stimuli/01111102.jpg"," ","","feedback_trial","2","","","","","","","","","","","","","","","","","","","","",""
"","","","","","image-keyboard-response","100","166429","0.0-75.0","5ae11f9709eae20001132c22","665500ab8938657b03fbdba8","665792dcb9254b075ddfeecb","674","stimuli/2010010.jpg","2","","prediction_trial","2","","true","","2","true","true","true","true","true","true","[2]","010","010","1","","","","","","",""
"","","","","","image-keyboard-response","101","167018","0.0-76.0","5ae11f9709eae20001132c22","665500ab8938657b03fbdba8","665792dcb9254b075ddfeecb","588","stimuli/20100102.jpg"," ","","feedback_trial","2","","","","","","","","","","","","","","","","","","","","",""
"","","","","","image-keyboard-response","102","167612","0.0-77.0","5ae11f9709eae20001132c22","665500ab8938657b03fbdba8","665792dcb9254b075ddfeecb","594","stimuli/0000001.jpg","0","","prediction_trial","0","","true","","0","true","true","true","true","true","true","[0]","000","001","1","","","","","","",""
"","","","","","image-keyboard-response","103","167964","0.0-78.0","5ae11f9709eae20001132c22","665500ab8938657b03fbdba8","665792dcb9254b075ddfeecb","351","stimuli/00000010.jpg"," ","","feedback_trial","0","","","","","","","","","","","","","","","","","","","","",""
"","","","","","image-keyboard-response","104","168443","0.0-79.0","5ae11f9709eae20001132c22","665500ab8938657b03fbdba8","665792dcb9254b075ddfeecb","473","stimuli/2110000.jpg","2","","prediction_trial","2","","true","","2","true","true","true","true","true","true","[2]","110","000","1","","","","","","",""
"","","","","","image-keyboard-response","105","168780","0.0-80.0","5ae11f9709eae20001132c22","665500ab8938657b03fbdba8","665792dcb9254b075ddfeecb","336","stimuli/21100002.jpg"," ","","feedback_trial","2","","","","","","","","","","","","","","","","","","","","",""
"","","","","","image-keyboard-response","106","169353","0.0-81.0","5ae11f9709eae20001132c22","665500ab8938657b03fbdba8","665792dcb9254b075ddfeecb","572","stimuli/1101100.jpg","1","","prediction_trial","1","","true","","1","true","true","true","true","true","true","[1]","101","100","1","","","","","","",""
"","","","","","image-keyboard-response","107","169665","0.0-82.0","5ae11f9709eae20001132c22","665500ab8938657b03fbdba8","665792dcb9254b075ddfeecb","312","stimuli/11011001.jpg"," ","","feedback_trial","1","","","","","","","","","","","","","","","","","","","","",""
"","","","","","image-keyboard-response","108","170395","0.0-83.0","5ae11f9709eae20001132c22","665500ab8938657b03fbdba8","665792dcb9254b075ddfeecb","729","stimuli/0101100.jpg","0","","prediction_trial","0","","true","","0","false","true","false","false","false","false","[2,0]","101","100","1","","","","","","",""
"","","","","","image-keyboard-response","109","170718","0.0-84.0","5ae11f9709eae20001132c22","665500ab8938657b03fbdba8","665792dcb9254b075ddfeecb","323","stimuli/01011000.jpg"," ","","feedback_trial","2","","","","","","","","","","","","","","","","","","","","",""
"","","","","","image-keyboard-response","110","171254","0.0-85.0","5ae11f9709eae20001132c22","665500ab8938657b03fbdba8","665792dcb9254b075ddfeecb","535","stimuli/1001100.jpg","1","","prediction_trial","1","","true","","1","true","true","true","true","true","true","[1]","001","100","1","","","","","","",""
"","","","","","image-keyboard-response","111","171540","0.0-86.0","5ae11f9709eae20001132c22","665500ab8938657b03fbdba8","665792dcb9254b075ddfeecb","285","stimuli/10011001.jpg"," ","","feedback_trial","1","","","","","","","","","","","","","","","","","","","","",""
"","","","","","image-keyboard-response","112","172145","0.0-87.0","5ae11f9709eae20001132c22","665500ab8938657b03fbdba8","665792dcb9254b075ddfeecb","604","stimuli/1110000.jpg","1","","prediction_trial","0","","false","","1","true","true","false","false","false","false","[1,0]","110","000","0","","","","","","",""
"","","","","","image-keyboard-response","113","172428","0.0-88.0","5ae11f9709eae20001132c22","665500ab8938657b03fbdba8","665792dcb9254b075ddfeecb","282","stimuli/11100000.jpg"," ","","feedback_trial","1","","","","","","","","","","","","","","","","","","","","",""
"","","","","","image-keyboard-response","114","172972","0.0-89.0","5ae11f9709eae20001132c22","665500ab8938657b03fbdba8","665792dcb9254b075ddfeecb","543","stimuli/0001010.jpg","0","","prediction_trial","0","","true","","0","true","true","true","true","true","true","[0]","001","010","1","","","","","","",""
"","","","","","image-keyboard-response","115","173235","0.0-90.0","5ae11f9709eae20001132c22","665500ab8938657b03fbdba8","665792dcb9254b075ddfeecb","262","stimuli/00010100.jpg"," ","","feedback_trial","0","","","","","","","","","","","","","","","","","","","","",""
"","","","","","image-keyboard-response","116","173838","0.0-91.0","5ae11f9709eae20001132c22","665500ab8938657b03fbdba8","665792dcb9254b075ddfeecb","602","stimuli/0000111.jpg","1","","prediction_trial","0","","false","","0","false","false","true","true","false","false","[0]","000","111","0","","","","","","",""
"","","","","","image-keyboard-response","117","174217","0.0-92.0","5ae11f9709eae20001132c22","665500ab8938657b03fbdba8","665792dcb9254b075ddfeecb","379","stimuli/00001110.jpg"," ","","feedback_trial","0","","","","","","","","","","","","","","","","","","","","",""
"","","","","","image-keyboard-response","118","174830","0.0-93.0","5ae11f9709eae20001132c22","665500ab8938657b03fbdba8","665792dcb9254b075ddfeecb","612","stimuli/2001000.jpg","2","","prediction_trial","2","","true","","2","true","true","false","true","false","true","[2]","001","000","1","","","","","","",""
"","","","","","image-keyboard-response","119","175148","0.0-94.0","5ae11f9709eae20001132c22","665500ab8938657b03fbdba8","665792dcb9254b075ddfeecb","317","stimuli/20010002.jpg"," ","","feedback_trial","2","","","","","","","","","","","","","","","","","","","","",""
"","","","","","image-keyboard-response","120","175716","0.0-95.0","5ae11f9709eae20001132c22","665500ab8938657b03fbdba8","665792dcb9254b075ddfeecb","567","stimuli/1000000.jpg","1","","prediction_trial","1","","true","","1","true","true","true","true","true","true","[1]","000","000","1","","","","","","",""
"","","","","","image-keyboard-response","121","175966","0.0-96.0","5ae11f9709eae20001132c22","665500ab8938657b03fbdba8","665792dcb9254b075ddfeecb","248","stimuli/10000001.jpg"," ","","feedback_trial","1","","","","","","","","","","","","","","","","","","","","",""
"","","","","","image-keyboard-response","122","176615","0.0-97.0","5ae11f9709eae20001132c22","665500ab8938657b03fbdba8","665792dcb9254b075ddfeecb","644","stimuli/1111100.jpg","1","","prediction_trial","2","","false","","1","true","true","false","false","false","false","[0,1,2]","111","100","0","","","","","","",""
"","","","","","image-keyboard-response","123","176932","0.0-98.0","5ae11f9709eae20001132c22","665500ab8938657b03fbdba8","665792dcb9254b075ddfeecb","316","stimuli/11111002.jpg"," ","","feedback_trial","0","","","","","","","","","","","","","","","","","","","","",""
"","","","","","image-keyboard-response","124","177496","0.0-99.0","5ae11f9709eae20001132c22","665500ab8938657b03fbdba8","665792dcb9254b075ddfeecb","563","stimuli/0100011.jpg","0","","prediction_trial","0","","true","","0","true","true","false","true","false","true","[0]","100","011","1","","","","","","",""
"","","","","","image-keyboard-response","125","177760","0.0-100.0","5ae11f9709eae20001132c22","665500ab8938657b03fbdba8","665792dcb9254b075ddfeecb","264","stimuli/01000110.jpg"," ","","feedback_trial","0","","","","","","","","","","","","","","","","","","","","",""
"","","","","","image-keyboard-response","126","178948","0.0-101.0","5ae11f9709eae20001132c22","665500ab8938657b03fbdba8","665792dcb9254b075ddfeecb","1187","stimuli/2111101.jpg","2","","prediction_trial","1","","false","","2","false","false","false","false","false","false","[1,2,0]","111","101","0","","","","","","",""
"","","","","","image-keyboard-response","127","179369","0.0-102.0","5ae11f9709eae20001132c22","665500ab8938657b03fbdba8","665792dcb9254b075ddfeecb","420","stimuli/21111011.jpg"," ","","feedback_trial","1","","","","","","","","","","","","","","","","","","","","",""
"","","","","","image-keyboard-response","128","180173","0.0-103.0","5ae11f9709eae20001132c22","665500ab8938657b03fbdba8","665792dcb9254b075ddfeecb","803","stimuli/0101110.jpg","0","","prediction_trial","2","","false","","0","false","false","false","false","false","false","[0,2]","101","110","0","","","","","","",""
"","","","","","image-keyboard-response","129","180895","0.0-104.0","5ae11f9709eae20001132c22","665500ab8938657b03fbdba8","665792dcb9254b075ddfeecb","721","stimuli/01011102.jpg"," ","","feedback_trial","0","","","","","","","","","","","","","","","","","","","","",""
"","","","","","image-keyboard-response","130","181677","0.0-105.0","5ae11f9709eae20001132c22","665500ab8938657b03fbdba8","665792dcb9254b075ddfeecb","782","stimuli/2100010.jpg","2","","prediction_trial","2","","true","","2","true","true","true","true","true","true","[2]","100","010","1","","","","","","",""
"","","","","","image-keyboard-response","131","182110","0.0-106.0","5ae11f9709eae20001132c22","665500ab8938657b03fbdba8","665792dcb9254b075ddfeecb","432","stimuli/21000102.jpg"," ","","feedback_trial","2","","","","","","","","","","","","","","","","","","","","",""
"","","","","","image-keyboard-response","132","182893","0.0-107.0","5ae11f9709eae20001132c22","665500ab8938657b03fbdba8","665792dcb9254b075ddfeecb","781","stimuli/2101101.jpg","0","","prediction_trial","0","","true","","2","false","false","false","false","false","false","[0,2]","101","101","1","","","","","","",""
"","","","","","image-keyboard-response","133","183263","0.0-108.0","5ae11f9709eae20001132c22","665500ab8938657b03fbdba8","665792dcb9254b075ddfeecb","369","stimuli/21011010.jpg"," ","","feedback_trial","0","","","","","","","","","","","","","","","","","","","","",""
"","","","","","image-keyboard-response","134","185076","0.0-109.0","5ae11f9709eae20001132c22","665500ab8938657b03fbdba8","665792dcb9254b075ddfeecb","1812","stimuli/0110111.jpg","1","","prediction_trial","0","","false","","0","false","false","false","false","false","false","[0,1]","110","111","0","","","","","","",""
"","","","","","image-keyboard-response","135","185456","0.0-110.0","5ae11f9709eae20001132c22","665500ab8938657b03fbdba8","665792dcb9254b075ddfeecb","380","stimuli/01101110.jpg"," ","","feedback_trial","0","","","","","","","","","","","","","","","","","","","","",""
"","","","","","image-keyboard-response","136","186150","0.0-111.0","5ae11f9709eae20001132c22","665500ab8938657b03fbdba8","665792dcb9254b075ddfeecb","693","stimuli/2101110.jpg","2","","prediction_trial","0","","false","","2","true","true","false","false","false","false","[2,0]","101","110","0","","","","","","",""
"","","","","","image-keyboard-response","137","186491","0.0-112.0","5ae11f9709eae20001132c22","665500ab8938657b03fbdba8","665792dcb9254b075ddfeecb","340","stimuli/21011100.jpg"," ","","feedback_trial","2","","","","","","","","","","","","","","","","","","","","",""
"","","","","","image-keyboard-response","138","187074","0.0-113.0","5ae11f9709eae20001132c22","665500ab8938657b03fbdba8","665792dcb9254b075ddfeecb","583","stimuli/0101001.jpg","0","","prediction_trial","2","","false","","0","true","true","false","false","false","false","[0,2]","101","001","0","","","","","","",""
"","","","","","image-keyboard-response","139","187478","0.0-114.0","5ae11f9709eae20001132c22","665500ab8938657b03fbdba8","665792dcb9254b075ddfeecb","403","stimuli/01010012.jpg"," ","","feedback_trial","0","","","","","","","","","","","","","","","","","","","","",""
"","","","","","image-keyboard-response","140","188292","0.0-115.0","5ae11f9709eae20001132c22","665500ab8938657b03fbdba8","665792dcb9254b075ddfeecb","808","stimuli/2011011.jpg","2","","prediction_trial","1","","false","","2","false","false","false","false","false","false","[2,1]","011","011","0","","","","","","",""
"","","","","","image-keyboard-response","141","188753","0.0-116.0","5ae11f9709eae20001132c22","665500ab8938657b03fbdba8","665792dcb9254b075ddfeecb","461","stimuli/20110111.jpg"," ","","feedback_trial","2","","","","","","","","","","","","","","","","","","","","",""
"","","","","","image-keyboard-response","142","189452","0.0-117.0","5ae11f9709eae20001132c22","665500ab8938657b03fbdba8","665792dcb9254b075ddfeecb","698","stimuli/2111000.jpg","2","","prediction_trial","2","","true","","2","true","true","false","false","false","false","[2,1,0]","111","000","1","","","","","","",""
"","","","","","image-keyboard-response","143","189917","0.0-118.0","5ae11f9709eae20001132c22","665500ab8938657b03fbdba8","665792dcb9254b075ddfeecb","464","stimuli/21110002.jpg"," ","","feedback_trial","2","","","","","","","","","","","","","","","","","","","","",""
"","","","","","image-keyboard-response","144","190625","0.0-119.0","5ae11f9709eae20001132c22","665500ab8938657b03fbdba8","665792dcb9254b075ddfeecb","706","stimuli/0011101.jpg","0","","prediction_trial","0","","true","","0","false","false","true","true","false","false","[0]","011","101","1","","","","","","",""
"","","","","","image-keyboard-response","145","192591","0.0-120.0","5ae11f9709eae20001132c22","665500ab8938657b03fbdba8","665792dcb9254b075ddfeecb","1965","stimuli/00111010.jpg"," ","","feedback_trial","0","","","","","","","","","","","","","","","","","","","","",""
"","","","","","image-keyboard-response","146","193402","0.0-121.0","5ae11f9709eae20001132c22","665500ab8938657b03fbdba8","665792dcb9254b075ddfeecb","810","stimuli/1100010.jpg","1","","prediction_trial","1","","true","","1","false","true","true","true","false","true","[1]","100","010","1","","","","","","",""
"","","","","","image-keyboard-response","147","193936","0.0-122.0","5ae11f9709eae20001132c22","665500ab8938657b03fbdba8","665792dcb9254b075ddfeecb","534","stimuli/11000101.jpg"," ","","feedback_trial","1","","","","","","","","","","","","","","","","","","","","",""
"","","","","","image-keyboard-response","148","194547","0.0-123.0","5ae11f9709eae20001132c22","665500ab8938657b03fbdba8","665792dcb9254b075ddfeecb","610","stimuli/2111100.jpg","2","","prediction_trial","1","","false","","2","true","true","false","false","false","false","[1,0,2]","111","100","0","","","","","","",""
"","","","","","image-keyboard-response","149","195020","0.0-124.0","5ae11f9709eae20001132c22","665500ab8938657b03fbdba8","665792dcb9254b075ddfeecb","472","stimuli/21111001.jpg"," ","","feedback_trial","1","","","","","","","","","","","","","","","","","","","","",""
"","","","","","image-keyboard-response","150","195549","0.0-125.0","5ae11f9709eae20001132c22","665500ab8938657b03fbdba8","665792dcb9254b075ddfeecb","528","stimuli/1110001.jpg","1","","prediction_trial","0","","false","","1","true","true","false","false","false","false","[0,1]","110","001","0","","","","","","",""
"","","","","","image-keyboard-response","151","195929","0.0-126.0","5ae11f9709eae20001132c22","665500ab8938657b03fbdba8","665792dcb9254b075ddfeecb","379","stimuli/11100010.jpg"," ","","feedback_trial","0","","","","","","","","","","","","","","","","","","","","",""
"","","","","","image-keyboard-response","152","196776","0.0-127.0","5ae11f9709eae20001132c22","665500ab8938657b03fbdba8","665792dcb9254b075ddfeecb","846","stimuli/2010101.jpg","0","","prediction_trial","2","","false","","2","false","false","true","true","false","false","[2]","010","101","0","","","","","","",""
"","","","","","image-keyboard-response","153","197471","0.0-128.0","5ae11f9709eae20001132c22","665500ab8938657b03fbdba8","665792dcb9254b075ddfeecb","694","stimuli/20101012.jpg"," ","","feedback_trial","2","","","","","","","","","","","","","","","","","","","","",""
"","","","","","image-keyboard-response","154","198496","0.0-129.0","5ae11f9709eae20001132c22","665500ab8938657b03fbdba8","665792dcb9254b075ddfeecb","1024","stimuli/0100110.jpg","1","","prediction_trial","0","","false","","0","false","false","false","true","false","false","[0]","100","110","0","","","","","","",""
"","","","","","image-keyboard-response","155","198959","0.0-130.0","5ae11f9709eae20001132c22","665500ab8938657b03fbdba8","665792dcb9254b075ddfeecb","462","stimuli/01001100.jpg"," ","","feedback_trial","0","","","","","","","","","","","","","","","","","","","","",""
"","","","","","image-keyboard-response","156","200291","0.0-131.0","5ae11f9709eae20001132c22","665500ab8938657b03fbdba8","665792dcb9254b075ddfeecb","1330","stimuli/2101001.jpg","2","","prediction_trial","0","","false","","2","false","true","false","false","false","false","[2,0]","101","001","0","","","","","","",""
"","","","","","image-keyboard-response","157","200580","0.0-132.0","5ae11f9709eae20001132c22","665500ab8938657b03fbdba8","665792dcb9254b075ddfeecb","289","stimuli/21010010.jpg"," ","","feedback_trial","2","","","","","","","","","","","","","","","","","","","","",""
"","","","","","image-keyboard-response","158","201376","0.0-133.0","5ae11f9709eae20001132c22","665500ab8938657b03fbdba8","665792dcb9254b075ddfeecb","790","stimuli/0001001.jpg","0","","prediction_trial","0","","true","","0","true","true","true","true","true","true","[0]","001","001","1","","","","","","",""
"","","","","","image-keyboard-response","159","201722","0.0-134.0","5ae11f9709eae20001132c22","665500ab8938657b03fbdba8","665792dcb9254b075ddfeecb","344","stimuli/00010010.jpg"," ","","feedback_trial","0","","","","","","","","","","","","","","","","","","","","",""
"","","","","","image-keyboard-response","160","202395","0.0-135.0","5ae11f9709eae20001132c22","665500ab8938657b03fbdba8","665792dcb9254b075ddfeecb","672","stimuli/1110011.jpg","1","","prediction_trial","0","","false","","1","false","false","false","false","false","false","[0,1]","110","011","0","","","","","","",""
"","","","","","image-keyboard-response","161","202826","0.0-136.0","5ae11f9709eae20001132c22","665500ab8938657b03fbdba8","665792dcb9254b075ddfeecb","430","stimuli/11100110.jpg"," ","","feedback_trial","0","","","","","","","","","","","","","","","","","","","","",""
"","","","","","image-keyboard-response","162","203532","0.0-137.0","5ae11f9709eae20001132c22","665500ab8938657b03fbdba8","665792dcb9254b075ddfeecb","705","stimuli/2011110.jpg","2","","prediction_trial","1","","false","","2","true","true","false","false","false","false","[2,1]","011","110","0","","","","","","",""
"","","","","","image-keyboard-response","163","203995","0.0-138.0","5ae11f9709eae20001132c22","665500ab8938657b03fbdba8","665792dcb9254b075ddfeecb","462","stimuli/20111101.jpg"," ","","feedback_trial","2","","","","","","","","","","","","","","","","","","","","",""
"","","","","","image-keyboard-response","164","204500","0.0-139.0","5ae11f9709eae20001132c22","665500ab8938657b03fbdba8","665792dcb9254b075ddfeecb","504","stimuli/1011001.jpg","1","","prediction_trial","2","","false","","1","true","true","false","false","false","false","[1,2]","011","001","0","","","","","","",""
"","","","","","image-keyboard-response","165","204913","0.0-140.0","5ae11f9709eae20001132c22","665500ab8938657b03fbdba8","665792dcb9254b075ddfeecb","412","stimuli/10110012.jpg"," ","","feedback_trial","1","","","","","","","","","","","","","","","","","","","","",""
"","","","","","image-keyboard-response","166","205635","0.0-141.0","5ae11f9709eae20001132c22","665500ab8938657b03fbdba8","665792dcb9254b075ddfeecb","722","stimuli/2001111.jpg","1","","prediction_trial","2","","false","","2","false","false","false","true","false","false","[2]","001","111","0","","","","","","",""
"","","","","","image-keyboard-response","167","206085","0.0-142.0","5ae11f9709eae20001132c22","665500ab8938657b03fbdba8","665792dcb9254b075ddfeecb","449","stimuli/20011112.jpg"," ","","feedback_trial","2","","","","","","","","","","","","","","","","","","","","",""
"","","","","","image-keyboard-response","168","206626","0.0-143.0","5ae11f9709eae20001132c22","665500ab8938657b03fbdba8","665792dcb9254b075ddfeecb","540","stimuli/0000011.jpg","0","","prediction_trial","0","","true","","0","true","true","true","true","true","true","[0]","000","011","1","","","","","","",""
"","","","","","image-keyboard-response","169","207011","0.0-144.0","5ae11f9709eae20001132c22","665500ab8938657b03fbdba8","665792dcb9254b075ddfeecb","384","stimuli/00000110.jpg"," ","","feedback_trial","0","","","","","","","","","","","","","","","","","","","","",""
"","","","","","image-keyboard-response","170","207569","0.0-145.0","5ae11f9709eae20001132c22","665500ab8938657b03fbdba8","665792dcb9254b075ddfeecb","558","stimuli/0100111.jpg","1","","prediction_trial","0","","false","","0","false","false","false","true","false","false","[0]","100","111","0","","","","","","",""
"","","","","","image-keyboard-response","171","207983","0.0-146.0","5ae11f9709eae20001132c22","665500ab8938657b03fbdba8","665792dcb9254b075ddfeecb","412","stimuli/01001110.jpg"," ","","feedback_trial","0","","","","","","","","","","","","","","","","","","","","",""
"","","","","","image-keyboard-response","172","208481","0.0-147.0","5ae11f9709eae20001132c22","665500ab8938657b03fbdba8","665792dcb9254b075ddfeecb","498","stimuli/2000000.jpg","2","","prediction_trial","2","","true","","2","true","true","true","true","true","true","[2]","000","000","1","","","","","","",""
"","","","","","image-keyboard-response","173","208895","0.0-148.0","5ae11f9709eae20001132c22","665500ab8938657b03fbdba8","665792dcb9254b075ddfeecb","413","stimuli/20000002.jpg"," ","","feedback_trial","2","","","","","","","","","","","","","","","","","","","","",""
"","","","","","image-keyboard-response","174","209369","0.0-149.0","5ae11f9709eae20001132c22","665500ab8938657b03fbdba8","665792dcb9254b075ddfeecb","473","stimuli/1011010.jpg","1","","prediction_trial","1","","true","","1","false","true","false","false","false","false","[2,1]","011","010","1","","","","","","",""
"","","","","","image-keyboard-response","175","209811","0.0-150.0","5ae11f9709eae20001132c22","665500ab8938657b03fbdba8","665792dcb9254b075ddfeecb","442","stimuli/10110101.jpg"," ","","feedback_trial","2","","","","","","","","","","","","","","","","","","","","",""
"","","","","","image-keyboard-response","176","210428","0.0-151.0","5ae11f9709eae20001132c22","665500ab8938657b03fbdba8","665792dcb9254b075ddfeecb","615","stimuli/1010001.jpg","1","","prediction_trial","1","","true","","1","true","true","false","true","false","true","[1]","010","001","1","","","","","","",""
"","","","","","image-keyboard-response","177","210750","0.0-152.0","5ae11f9709eae20001132c22","665500ab8938657b03fbdba8","665792dcb9254b075ddfeecb","322","stimuli/10100011.jpg"," ","","feedback_trial","1","","","","","","","","","","","","","","","","","","","","",""
"","","","","","image-keyboard-response","178","211334","0.0-153.0","5ae11f9709eae20001132c22","665500ab8938657b03fbdba8","665792dcb9254b075ddfeecb","583","stimuli/1101010.jpg","1","","prediction_trial","1","","true","","1","false","true","true","true","false","true","[1]","101","010","1","","","","","","",""
"","","","","","image-keyboard-response","179","211952","0.0-154.0","5ae11f9709eae20001132c22","665500ab8938657b03fbdba8","665792dcb9254b075ddfeecb","617","stimuli/11010101.jpg"," ","","feedback_trial","1","","","","","","","","","","","","","","","","","","","","",""
"","","","","","image-keyboard-response","180","212695","0.0-155.0","5ae11f9709eae20001132c22","665500ab8938657b03fbdba8","665792dcb9254b075ddfeecb","742","stimuli/0010111.jpg","1","","prediction_trial","0","","false","","0","false","false","true","true","false","false","[0]","010","111","0","","","","","","",""
"","","","","","image-keyboard-response","181","213017","0.0-156.0","5ae11f9709eae20001132c22","665500ab8938657b03fbdba8","665792dcb9254b075ddfeecb","321","stimuli/00101110.jpg"," ","","feedback_trial","0","","","","","","","","","","","","","","","","","","","","",""
"","","","","","image-keyboard-response","182","213674","0.0-157.0","5ae11f9709eae20001132c22","665500ab8938657b03fbdba8","665792dcb9254b075ddfeecb","657","stimuli/0010100.jpg","0","","prediction_trial","0","","true","","0","false","true","true","true","false","true","[0]","010","100","1","","","","","","",""
"","","","","","image-keyboard-response","183","213960","0.0-158.0","5ae11f9709eae20001132c22","665500ab8938657b03fbdba8","665792dcb9254b075ddfeecb","284","stimuli/00101000.jpg"," ","","feedback_trial","0","","","","","","","","","","","","","","","","","","","","",""
"","","","","","image-keyboard-response","184","214859","0.0-159.0","5ae11f9709eae20001132c22","665500ab8938657b03fbdba8","665792dcb9254b075ddfeecb","898","stimuli/1100110.jpg","1","","prediction_trial","1","","true","","1","false","false","true","true","false","false","[1]","100","110","1","","","","","","",""
"","","","","","image-keyboard-response","185","215220","0.0-160.0","5ae11f9709eae20001132c22","665500ab8938657b03fbdba8","665792dcb9254b075ddfeecb","360","stimuli/11001101.jpg"," ","","feedback_trial","1","","","","","","","","","","","","","","","","","","","","",""
"","","","","","image-keyboard-response","186","216286","0.0-161.0","5ae11f9709eae20001132c22","665500ab8938657b03fbdba8","665792dcb9254b075ddfeecb","1065","stimuli/2010011.jpg","0","","prediction_trial","2","","false","","2","false","false","true","true","false","false","[2]","010","011","0","","","","","","",""
"","","","","","image-keyboard-response","187","216812","0.0-162.0","5ae11f9709eae20001132c22","665500ab8938657b03fbdba8","665792dcb9254b075ddfeecb","525","stimuli/20100112.jpg"," ","","feedback_trial","2","","","","","","","","","","","","","","","","","","","","",""
"","","","","","image-keyboard-response","188","217816","0.0-163.0","5ae11f9709eae20001132c22","665500ab8938657b03fbdba8","665792dcb9254b075ddfeecb","1003","stimuli/2100011.jpg","1","","prediction_trial","2","","false","","2","false","false","true","true","false","false","[2]","100","011","0","","","","","","",""
"","","","","","image-keyboard-response","189","218194","0.0-164.0","5ae11f9709eae20001132c22","665500ab8938657b03fbdba8","665792dcb9254b075ddfeecb","377","stimuli/21000112.jpg"," ","","feedback_trial","2","","","","","","","","","","","","","","","","","","","","",""
"","","","","","image-keyboard-response","190","218989","0.0-165.0","5ae11f9709eae20001132c22","665500ab8938657b03fbdba8","665792dcb9254b075ddfeecb","794","stimuli/2011000.jpg","2","","prediction_trial","2","","true","","2","true","true","false","false","false","false","[2,1]","011","000","1","","","","","","",""
"","","","","","image-keyboard-response","191","219363","0.0-166.0","5ae11f9709eae20001132c22","665500ab8938657b03fbdba8","665792dcb9254b075ddfeecb","373","stimuli/20110002.jpg"," ","","feedback_trial","2","","","","","","","","","","","","","","","","","","","","",""
"","","","","","image-keyboard-response","192","219832","0.0-167.0","5ae11f9709eae20001132c22","665500ab8938657b03fbdba8","665792dcb9254b075ddfeecb","468","stimuli/0101111.jpg","1","","prediction_trial","2","","false","","0","false","false","false","false","false","false","[2,0]","101","111","0","","","","","","",""
"","","","","","image-keyboard-response","193","220454","0.0-168.0","5ae11f9709eae20001132c22","665500ab8938657b03fbdba8","665792dcb9254b075ddfeecb","621","stimuli/01011112.jpg"," ","","feedback_trial","2","","","","","","","","","","","","","","","","","","","","",""
"","","","","","image-keyboard-response","194","220973","0.0-169.0","5ae11f9709eae20001132c22","665500ab8938657b03fbdba8","665792dcb9254b075ddfeecb","517","stimuli/1010010.jpg","1","","prediction_trial","1","","true","","1","false","true","false","true","false","true","[1]","010","010","1","","","","","","",""
"","","","","","image-keyboard-response","195","221401","0.0-170.0","5ae11f9709eae20001132c22","665500ab8938657b03fbdba8","665792dcb9254b075ddfeecb","428","stimuli/10100101.jpg"," ","","feedback_trial","1","","","","","","","","","","","","","","","","","","","","",""
"","","","","","image-keyboard-response","196","221977","0.0-171.0","5ae11f9709eae20001132c22","665500ab8938657b03fbdba8","665792dcb9254b075ddfeecb","575","stimuli/2100110.jpg","2","","prediction_trial","2","","true","","2","true","true","true","true","true","true","[2]","100","110","1","","","","","","",""
"","","","","","image-keyboard-response","197","222304","0.0-172.0","5ae11f9709eae20001132c22","665500ab8938657b03fbdba8","665792dcb9254b075ddfeecb","326","stimuli/21001102.jpg"," ","","feedback_trial","2","","","","","","","","","","","","","","","","","","","","",""
"","","","","","image-keyboard-response","198","223065","0.0-173.0","5ae11f9709eae20001132c22","665500ab8938657b03fbdba8","665792dcb9254b075ddfeecb","760","stimuli/2010001.jpg","2","","prediction_trial","2","","true","","2","false","true","true","true","false","true","[2]","010","001","1","","","","","","",""
"","","","","","image-keyboard-response","199","223442","0.0-174.0","5ae11f9709eae20001132c22","665500ab8938657b03fbdba8","665792dcb9254b075ddfeecb","376","stimuli/20100012.jpg"," ","","feedback_trial","2","","","","","","","","","","","","","","","","","","","","",""
"","","","","","image-keyboard-response","200","224064","0.0-175.0","5ae11f9709eae20001132c22","665500ab8938657b03fbdba8","665792dcb9254b075ddfeecb","622","stimuli/1101001.jpg","1","","prediction_trial","1","","true","","1","true","true","true","true","true","true","[1]","101","001","1","","","","","","",""
"","","","","","image-keyboard-response","201","224417","0.0-176.0","5ae11f9709eae20001132c22","665500ab8938657b03fbdba8","665792dcb9254b075ddfeecb","352","stimuli/11010011.jpg"," ","","feedback_trial","1","","","","","","","","","","","","","","","","","","","","",""
"","","","","","image-keyboard-response","202","224900","0.0-177.0","5ae11f9709eae20001132c22","665500ab8938657b03fbdba8","665792dcb9254b075ddfeecb","482","stimuli/1110101.jpg","1","","prediction_trial","0","","false","","1","true","true","false","false","false","false","[0,1]","110","101","0","","","","","","",""
"","","","","","image-keyboard-response","203","225257","0.0-178.0","5ae11f9709eae20001132c22","665500ab8938657b03fbdba8","665792dcb9254b075ddfeecb","356","stimuli/11101010.jpg"," ","","feedback_trial","0","","","","","","","","","","","","","","","","","","","","",""
"","","","","","image-keyboard-response","204","225783","0.0-179.0","5ae11f9709eae20001132c22","665500ab8938657b03fbdba8","665792dcb9254b075ddfeecb","526","stimuli/1001000.jpg","1","","prediction_trial","1","","true","","1","true","true","true","true","true","true","[1]","001","000","1","","","","","","",""
"","","","","","image-keyboard-response","205","226104","0.0-180.0","5ae11f9709eae20001132c22","665500ab8938657b03fbdba8","665792dcb9254b075ddfeecb","320","stimuli/10010001.jpg"," ","","feedback_trial","1","","","","","","","","","","","","","","","","","","","","",""
"","","","","","image-keyboard-response","206","226825","0.0-181.0","5ae11f9709eae20001132c22","665500ab8938657b03fbdba8","665792dcb9254b075ddfeecb","720","stimuli/2011001.jpg","2","","prediction_trial","1","","false","","2","false","true","false","false","false","false","[1,2]","011","001","0","","","","","","",""
"","","","","","image-keyboard-response","207","227262","0.0-182.0","5ae11f9709eae20001132c22","665500ab8938657b03fbdba8","665792dcb9254b075ddfeecb","436","stimuli/20110011.jpg"," ","","feedback_trial","1","","","","","","","","","","","","","","","","","","","","",""
"","","","","","image-keyboard-response","208","227867","0.0-183.0","5ae11f9709eae20001132c22","665500ab8938657b03fbdba8","665792dcb9254b075ddfeecb","605","stimuli/1100001.jpg","1","","prediction_trial","1","","true","","1","true","true","true","true","true","true","[1]","100","001","1","","","","","","",""
"","","","","","image-keyboard-response","209","228213","0.0-184.0","5ae11f9709eae20001132c22","665500ab8938657b03fbdba8","665792dcb9254b075ddfeecb","344","stimuli/11000011.jpg"," ","","feedback_trial","1","","","","","","","","","","","","","","","","","","","","",""
"","","","","","image-keyboard-response","210","228708","0.0-185.0","5ae11f9709eae20001132c22","665500ab8938657b03fbdba8","665792dcb9254b075ddfeecb","494","stimuli/2110100.jpg","2","","prediction_trial","2","","true","","2","true","true","true","true","true","true","[2]","110","100","1","","","","","","",""
"","","","","","image-keyboard-response","211","229023","0.0-186.0","5ae11f9709eae20001132c22","665500ab8938657b03fbdba8","665792dcb9254b075ddfeecb","314","stimuli/21101002.jpg"," ","","feedback_trial","2","","","","","","","","","","","","","","","","","","","","",""
"","","","","","image-keyboard-response","212","229530","0.0-187.0","5ae11f9709eae20001132c22","665500ab8938657b03fbdba8","665792dcb9254b075ddfeecb","505","stimuli/1011111.jpg","1","","prediction_trial","2","","false","","1","false","false","false","false","false","false","[2,1]","011","111","0","","","","","","",""
"","","","","","image-keyboard-response","213","229950","0.0-188.0","5ae11f9709eae20001132c22","665500ab8938657b03fbdba8","665792dcb9254b075ddfeecb","420","stimuli/10111112.jpg"," ","","feedback_trial","2","","","","","","","","","","","","","","","","","","","","",""
"","","","","","image-keyboard-response","214","230856","0.0-189.0","5ae11f9709eae20001132c22","665500ab8938657b03fbdba8","665792dcb9254b075ddfeecb","904","stimuli/0000101.jpg","2","","prediction_trial","0","","false","","0","false","false","true","true","false","false","[0]","000","101","0","","","","","","",""
"","","","","","image-keyboard-response","215","231301","0.0-190.0","5ae11f9709eae20001132c22","665500ab8938657b03fbdba8","665792dcb9254b075ddfeecb","444","stimuli/00001010.jpg"," ","","feedback_trial","0","","","","","","","","","","","","","","","","","","","","",""
"","","","","","image-keyboard-response","216","232056","0.0-191.0","5ae11f9709eae20001132c22","665500ab8938657b03fbdba8","665792dcb9254b075ddfeecb","754","stimuli/0110100.jpg","0","","prediction_trial","0","","true","","0","false","true","false","false","false","false","[1,0]","110","100","1","","","","","","",""
"","","","","","image-keyboard-response","217","232366","0.0-192.0","5ae11f9709eae20001132c22","665500ab8938657b03fbdba8","665792dcb9254b075ddfeecb","310","stimuli/01101000.jpg"," ","","feedback_trial","1","","","","","","","","","","","","","","","","","","","","",""
"","","","","","image-keyboard-response","218","232903","0.0-193.0","5ae11f9709eae20001132c22","665500ab8938657b03fbdba8","665792dcb9254b075ddfeecb","535","stimuli/1010000.jpg","1","","prediction_trial","1","","true","","1","true","true","false","true","false","true","[1]","010","000","1","","","","","","",""
"","","","","","image-keyboard-response","219","233184","0.0-194.0","5ae11f9709eae20001132c22","665500ab8938657b03fbdba8","665792dcb9254b075ddfeecb","280","stimuli/10100001.jpg"," ","","feedback_trial","1","","","","","","","","","","","","","","","","","","","","",""
"","","","","","image-keyboard-response","220","233715","0.0-195.0","5ae11f9709eae20001132c22","665500ab8938657b03fbdba8","665792dcb9254b075ddfeecb","531","stimuli/0111010.jpg","0","","prediction_trial","2","","false","","0","true","true","false","false","false","false","[0,1,2]","111","010","0","","","","","","",""
"","","","","","image-keyboard-response","221","233975","0.0-196.0","5ae11f9709eae20001132c22","665500ab8938657b03fbdba8","665792dcb9254b075ddfeecb","259","stimuli/01110102.jpg"," ","","feedback_trial","0","","","","","","","","","","","","","","","","","","","","",""
"","","","","","image-keyboard-response","222","234831","0.0-197.0","5ae11f9709eae20001132c22","665500ab8938657b03fbdba8","665792dcb9254b075ddfeecb","855","stimuli/0001101.jpg","2","","prediction_trial","0","","false","","0","false","false","true","true","false","false","[0]","001","101","0","","","","","","",""
"","","","","","image-keyboard-response","223","235292","0.0-198.0","5ae11f9709eae20001132c22","665500ab8938657b03fbdba8","665792dcb9254b075ddfeecb","460","stimuli/00011010.jpg"," ","","feedback_trial","0","","","","","","","","","","","","","","","","","","","","",""
"","","","","","image-keyboard-response","224","236079","0.0-199.0","5ae11f9709eae20001132c22","665500ab8938657b03fbdba8","665792dcb9254b075ddfeecb","786","stimuli/0110110.jpg","1","","prediction_trial","0","","false","","0","false","false","false","false","false","false","[0,1]","110","110","0","","","","","","",""
"","","","","","image-keyboard-response","225","236398","0.0-200.0","5ae11f9709eae20001132c22","665500ab8938657b03fbdba8","665792dcb9254b075ddfeecb","318","stimuli/01101100.jpg"," ","","feedback_trial","0","","","","","","","","","","","","","","","","","","","","",""
"","","","","","image-keyboard-response","226","237169","0.0-201.0","5ae11f9709eae20001132c22","665500ab8938657b03fbdba8","665792dcb9254b075ddfeecb","770","stimuli/2100111.jpg","0","","prediction_trial","2","","false","","2","false","false","true","true","false","false","[2]","100","111","0","","","","","","",""
"","","","","","image-keyboard-response","227","237852","0.0-202.0","5ae11f9709eae20001132c22","665500ab8938657b03fbdba8","665792dcb9254b075ddfeecb","682","stimuli/21001112.jpg"," ","","feedback_trial","2","","","","","","","","","","","","","","","","","","","","",""
"","","","","","image-keyboard-response","228","238589","0.0-203.0","5ae11f9709eae20001132c22","665500ab8938657b03fbdba8","665792dcb9254b075ddfeecb","736","stimuli/2000111.jpg","2","","prediction_trial","2","","true","","2","false","false","true","true","false","false","[2]","000","111","1","","","","","","",""
"","","","","","image-keyboard-response","229","239234","0.0-204.0","5ae11f9709eae20001132c22","665500ab8938657b03fbdba8","665792dcb9254b075ddfeecb","644","stimuli/20001112.jpg"," ","","feedback_trial","2","","","","","","","","","","","","","","","","","","","","",""
"","","","","","image-keyboard-response","230","239911","0.0-205.0","5ae11f9709eae20001132c22","665500ab8938657b03fbdba8","665792dcb9254b075ddfeecb","670","stimuli/0110000.jpg","0","","prediction_trial","0","","true","","0","true","true","false","false","false","false","[0,1]","110","000","1","","","","","","",""
"","","","","","image-keyboard-response","231","240232","0.0-206.0","5ae11f9709eae20001132c22","665500ab8938657b03fbdba8","665792dcb9254b075ddfeecb","321","stimuli/01100000.jpg"," ","","feedback_trial","0","","","","","","","","","","","","","","","","","","","","",""
"","","","","","image-keyboard-response","232","241340","0.0-207.0","5ae11f9709eae20001132c22","665500ab8938657b03fbdba8","665792dcb9254b075ddfeecb","1107","stimuli/2110111.jpg","1","","prediction_trial","2","","false","","2","false","false","true","true","false","false","[2]","110","111","0","","","","","","",""
"","","","","","image-keyboard-response","233","241713","0.0-208.0","5ae11f9709eae20001132c22","665500ab8938657b03fbdba8","665792dcb9254b075ddfeecb","372","stimuli/21101112.jpg"," ","","feedback_trial","2","","","","","","","","","","","","","","","","","","","","",""
"","","","","","image-keyboard-response","234","242348","0.0-209.0","5ae11f9709eae20001132c22","665500ab8938657b03fbdba8","665792dcb9254b075ddfeecb","634","stimuli/2111001.jpg","2","","prediction_trial","1","","false","","2","false","true","false","false","false","false","[0,1,2]","111","001","0","","","","","","",""
"","","","","","image-keyboard-response","235","243032","0.0-210.0","5ae11f9709eae20001132c22","665500ab8938657b03fbdba8","665792dcb9254b075ddfeecb","683","stimuli/21110011.jpg"," ","","feedback_trial","0","","","","","","","","","","","","","","","","","","","","",""
"","","","","","image-keyboard-response","236","244486","0.0-211.0","5ae11f9709eae20001132c22","665500ab8938657b03fbdba8","665792dcb9254b075ddfeecb","1452","stimuli/2001011.jpg","1","","prediction_trial","2","","false","","2","false","false","false","true","false","false","[2]","001","011","0","","","","","","",""
"","","","","","image-keyboard-response","237","244948","0.0-212.0","5ae11f9709eae20001132c22","665500ab8938657b03fbdba8","665792dcb9254b075ddfeecb","461","stimuli/20010112.jpg"," ","","feedback_trial","2","","","","","","","","","","","","","","","","","","","","",""
"","","","","","image-keyboard-response","238","245496","0.0-213.0","5ae11f9709eae20001132c22","665500ab8938657b03fbdba8","665792dcb9254b075ddfeecb","548","stimuli/0010110.jpg","1","","prediction_trial","0","","false","","0","false","false","true","true","false","false","[0]","010","110","0","","","","","","",""
"","","","","","image-keyboard-response","239","245963","0.0-214.0","5ae11f9709eae20001132c22","665500ab8938657b03fbdba8","665792dcb9254b075ddfeecb","466","stimuli/00101100.jpg"," ","","feedback_trial","0","","","","","","","","","","","","","","","","","","","","",""
"","","","","","image-keyboard-response","240","246573","0.0-215.0","5ae11f9709eae20001132c22","665500ab8938657b03fbdba8","665792dcb9254b075ddfeecb","609","stimuli/2011111.jpg","2","","prediction_trial","2","","true","","2","false","false","false","false","false","false","[1,2]","011","111","1","","","","","","",""
"","","","","","image-keyboard-response","241","247087","0.0-216.0","5ae11f9709eae20001132c22","665500ab8938657b03fbdba8","665792dcb9254b075ddfeecb","513","stimuli/20111112.jpg"," ","","feedback_trial","1","","","","","","","","","","","","","","","","","","","","",""
"","","","","","image-keyboard-response","242","247614","0.0-217.0","5ae11f9709eae20001132c22","665500ab8938657b03fbdba8","665792dcb9254b075ddfeecb","526","stimuli/1001001.jpg","1","","prediction_trial","1","","true","","1","true","true","true","true","true","true","[1]","001","001","1","","","","","","",""
"","","","","","image-keyboard-response","243","247939","0.0-218.0","5ae11f9709eae20001132c22","665500ab8938657b03fbdba8","665792dcb9254b075ddfeecb","325","stimuli/10010011.jpg"," ","","feedback_trial","1","","","","","","","","","","","","","","","","","","","","",""
"","","","","","image-keyboard-response","244","248447","0.0-219.0","5ae11f9709eae20001132c22","665500ab8938657b03fbdba8","665792dcb9254b075ddfeecb","507","stimuli/2110011.jpg","1","","prediction_trial","2","","false","","2","false","false","true","true","false","false","[2]","110","011","0","","","","","","",""
"","","","","","image-keyboard-response","245","249020","0.0-220.0","5ae11f9709eae20001132c22","665500ab8938657b03fbdba8","665792dcb9254b075ddfeecb","572","stimuli/21100112.jpg"," ","","feedback_trial","2","","","","","","","","","","","","","","","","","","","","",""
"","","","","","image-keyboard-response","246","249569","0.0-221.0","5ae11f9709eae20001132c22","665500ab8938657b03fbdba8","665792dcb9254b075ddfeecb","548","stimuli/2100000.jpg","2","","prediction_trial","2","","true","","2","true","true","true","true","true","true","[2]","100","000","1","","","","","","",""
"","","","","","image-keyboard-response","247","249871","0.0-222.0","5ae11f9709eae20001132c22","665500ab8938657b03fbdba8","665792dcb9254b075ddfeecb","301","stimuli/21000002.jpg"," ","","feedback_trial","2","","","","","","","","","","","","","","","","","","","","",""
"","","","","","image-keyboard-response","248","250427","0.0-223.0","5ae11f9709eae20001132c22","665500ab8938657b03fbdba8","665792dcb9254b075ddfeecb","550","stimuli/2110110.jpg","2","","prediction_trial","2","","true","","2","true","true","true","true","true","true","[2]","110","110","1","","","","","","",""
"","","","","","image-keyboard-response","249","250670","0.0-224.0","5ae11f9709eae20001132c22","665500ab8938657b03fbdba8","665792dcb9254b075ddfeecb","242","stimuli/21101102.jpg"," ","","feedback_trial","2","","","","","","","","","","","","","","","","","","","","",""
"","","","","","image-keyboard-response","250","251371","0.0-225.0","5ae11f9709eae20001132c22","665500ab8938657b03fbdba8","665792dcb9254b075ddfeecb","700","stimuli/2101010.jpg","2","","prediction_trial","0","","false","","2","true","true","false","false","false","false","[2,0]","101","010","0","","","","","","",""
"","","","","","image-keyboard-response","251","251618","0.0-226.0","5ae11f9709eae20001132c22","665500ab8938657b03fbdba8","665792dcb9254b075ddfeecb","246","stimuli/21010100.jpg"," ","","feedback_trial","2","","","","","","","","","","","","","","","","","","","","",""
"","","","","","image-keyboard-response","252","252239","0.0-227.0","5ae11f9709eae20001132c22","665500ab8938657b03fbdba8","665792dcb9254b075ddfeecb","620","stimuli/0011001.jpg","0","","prediction_trial","0","","true","","0","true","true","true","true","true","true","[0]","011","001","1","","","","","","",""
"","","","","","image-keyboard-response","253","252599","0.0-228.0","5ae11f9709eae20001132c22","665500ab8938657b03fbdba8","665792dcb9254b075ddfeecb","359","stimuli/00110010.jpg"," ","","feedback_trial","0","","","","","","","","","","","","","","","","","","","","",""
"","","","","","image-keyboard-response","254","253097","0.0-229.0","5ae11f9709eae20001132c22","665500ab8938657b03fbdba8","665792dcb9254b075ddfeecb","497","stimuli/1010101.jpg","1","","prediction_trial","1","","true","","1","true","true","false","true","false","true","[1]","010","101","1","","","","","","",""
"","","","","","image-keyboard-response","255","253412","0.0-230.0","5ae11f9709eae20001132c22","665500ab8938657b03fbdba8","665792dcb9254b075ddfeecb","314","stimuli/10101011.jpg"," ","","feedback_trial","1","","","","","","","","","","","","","","","","","","","","",""
"","","","","","image-keyboard-response","256","253986","0.0-231.0","5ae11f9709eae20001132c22","665500ab8938657b03fbdba8","665792dcb9254b075ddfeecb","573","stimuli/2100001.jpg","2","","prediction_trial","2","","true","","2","false","true","true","true","false","true","[2]","100","001","1","","","","","","",""
"","","","","","image-keyboard-response","257","254378","0.0-232.0","5ae11f9709eae20001132c22","665500ab8938657b03fbdba8","665792dcb9254b075ddfeecb","391","stimuli/21000012.jpg"," ","","feedback_trial","2","","","","","","","","","","","","","","","","","","","","",""
"","","","","","image-keyboard-response","258","255491","0.0-233.0","5ae11f9709eae20001132c22","665500ab8938657b03fbdba8","665792dcb9254b075ddfeecb","1112","stimuli/0110101.jpg","2","","prediction_trial","0","","false","","0","false","false","false","false","false","false","[0,1]","110","101","0","","","","","","",""
"","","","","","image-keyboard-response","259","256178","0.0-234.0","5ae11f9709eae20001132c22","665500ab8938657b03fbdba8","665792dcb9254b075ddfeecb","686","stimuli/01101010.jpg"," ","","feedback_trial","0","","","","","","","","","","","","","","","","","","","","",""
"","","","","","image-keyboard-response","260","256858","0.0-235.0","5ae11f9709eae20001132c22","665500ab8938657b03fbdba8","665792dcb9254b075ddfeecb","680","stimuli/2101111.jpg","1","","prediction_trial","2","","false","","2","false","false","false","false","false","false","[2,0]","101","111","0","","","","","","",""
"","","","","","image-keyboard-response","261","257377","0.0-236.0","5ae11f9709eae20001132c22","665500ab8938657b03fbdba8","665792dcb9254b075ddfeecb","518","stimuli/21011112.jpg"," ","","feedback_trial","2","","","","","","","","","","","","","","","","","","","","",""
"","","","","","image-keyboard-response","262","257913","0.0-237.0","5ae11f9709eae20001132c22","665500ab8938657b03fbdba8","665792dcb9254b075ddfeecb","535","stimuli/0111100.jpg","0","","prediction_trial","1","","false","","0","false","true","false","false","false","false","[0,2,1]","111","100","0","","","","","","",""
"","","","","","image-keyboard-response","263","258471","0.0-238.0","5ae11f9709eae20001132c22","665500ab8938657b03fbdba8","665792dcb9254b075ddfeecb","557","stimuli/01111001.jpg"," ","","feedback_trial","0","","","","","","","","","","","","","","","","","","","","",""
"","","","","","image-keyboard-response","264","259022","0.0-239.0","5ae11f9709eae20001132c22","665500ab8938657b03fbdba8","665792dcb9254b075ddfeecb","551","stimuli/0011100.jpg","0","","prediction_trial","0","","true","","0","false","true","true","true","false","true","[0]","011","100","1","","","","","","",""
"","","","","","image-keyboard-response","265","259440","0.0-240.0","5ae11f9709eae20001132c22","665500ab8938657b03fbdba8","665792dcb9254b075ddfeecb","417","stimuli/00111000.jpg"," ","","feedback_trial","0","","","","","","","","","","","","","","","","","","","","",""
"","","","","","image-keyboard-response","266","259983","0.0-241.0","5ae11f9709eae20001132c22","665500ab8938657b03fbdba8","665792dcb9254b075ddfeecb","542","stimuli/2011100.jpg","2","","prediction_trial","2","","true","","2","true","true","false","false","false","false","[1,2]","011","100","1","","","","","","",""
"","","","","","image-keyboard-response","267","260297","0.0-242.0","5ae11f9709eae20001132c22","665500ab8938657b03fbdba8","665792dcb9254b075ddfeecb","313","stimuli/20111002.jpg"," ","","feedback_trial","1","","","","","","","","","","","","","","","","","","","","",""
"","","","","","image-keyboard-response","268","260889","0.0-243.0","5ae11f9709eae20001132c22","665500ab8938657b03fbdba8","665792dcb9254b075ddfeecb","591","stimuli/1000101.jpg","1","","prediction_trial","1","","true","","1","true","true","true","true","true","true","[1]","000","101","1","","","","","","",""
"","","","","","image-keyboard-response","269","261163","0.0-244.0","5ae11f9709eae20001132c22","665500ab8938657b03fbdba8","665792dcb9254b075ddfeecb","273","stimuli/10001011.jpg"," ","","feedback_trial","1","","","","","","","","","","","","","","","","","","","","",""
"","","","","","image-keyboard-response","270","261948","0.0-245.0","5ae11f9709eae20001132c22","665500ab8938657b03fbdba8","665792dcb9254b075ddfeecb","785","stimuli/2111111.jpg","1","","prediction_trial","0","","false","","2","false","false","false","false","false","false","[1,0,2]","111","111","0","","","","","","",""
"","","","","","image-keyboard-response","271","262352","0.0-246.0","5ae11f9709eae20001132c22","665500ab8938657b03fbdba8","665792dcb9254b075ddfeecb","403","stimuli/21111110.jpg"," ","","feedback_trial","1","","","","","","","","","","","","","","","","","","","","",""
"","","","","","image-keyboard-response","272","262888","0.0-247.0","5ae11f9709eae20001132c22","665500ab8938657b03fbdba8","665792dcb9254b075ddfeecb","535","stimuli/1001101.jpg","1","","prediction_trial","1","","true","","1","true","true","true","true","true","true","[1]","001","101","1","","","","","","",""
"","","","","","image-keyboard-response","273","263170","0.0-248.0","5ae11f9709eae20001132c22","665500ab8938657b03fbdba8","665792dcb9254b075ddfeecb","281","stimuli/10011011.jpg"," ","","feedback_trial","1","","","","","","","","","","","","","","","","","","","","",""
"","","","","","image-keyboard-response","274","263916","0.0-249.0","5ae11f9709eae20001132c22","665500ab8938657b03fbdba8","665792dcb9254b075ddfeecb","745","stimuli/1110111.jpg","2","","prediction_trial","1","","false","","1","false","false","false","false","false","false","[0,1]","110","111","0","","","","","","",""
"","","","","","image-keyboard-response","275","264368","0.0-250.0","5ae11f9709eae20001132c22","665500ab8938657b03fbdba8","665792dcb9254b075ddfeecb","450","stimuli/11101111.jpg"," ","","feedback_trial","0","","","","","","","","","","","","","","","","","","","","",""
"","","","","","image-keyboard-response","276","264912","0.0-251.0","5ae11f9709eae20001132c22","665500ab8938657b03fbdba8","665792dcb9254b075ddfeecb","543","stimuli/2010000.jpg","2","","prediction_trial","2","","true","","2","true","true","true","true","true","true","[2]","010","000","1","","","","","","",""
"","","","","","image-keyboard-response","277","265176","0.0-252.0","5ae11f9709eae20001132c22","665500ab8938657b03fbdba8","665792dcb9254b075ddfeecb","264","stimuli/20100002.jpg"," ","","feedback_trial","2","","","","","","","","","","","","","","","","","","","","",""
"","","","","","image-keyboard-response","278","265652","0.0-253.0","5ae11f9709eae20001132c22","665500ab8938657b03fbdba8","665792dcb9254b075ddfeecb","475","stimuli/2101000.jpg","2","","prediction_trial","0","","false","","2","true","true","false","false","false","false","[2,0]","101","000","0","","","","","","",""
"","","","","","image-keyboard-response","279","265911","0.0-254.0","5ae11f9709eae20001132c22","665500ab8938657b03fbdba8","665792dcb9254b075ddfeecb","258","stimuli/21010000.jpg"," ","","feedback_trial","2","","","","","","","","","","","","","","","","","","","","",""
"","","","","","image-keyboard-response","280","267046","0.0-255.0","5ae11f9709eae20001132c22","665500ab8938657b03fbdba8","665792dcb9254b075ddfeecb","1134","stimuli/1010110.jpg","1","","prediction_trial","1","","true","","1","false","false","false","true","false","false","[1]","010","110","1","","","","","","",""
"","","","","","image-keyboard-response","281","267352","0.0-256.0","5ae11f9709eae20001132c22","665500ab8938657b03fbdba8","665792dcb9254b075ddfeecb","306","stimuli/10101101.jpg"," ","","feedback_trial","1","","","","","","","","","","","","","","","","","","","","",""
"","","","","","image-keyboard-response","282","267851","0.0-257.0","5ae11f9709eae20001132c22","665500ab8938657b03fbdba8","665792dcb9254b075ddfeecb","498","stimuli/0011000.jpg","0","","prediction_trial","0","","true","","0","true","true","true","true","true","true","[0]","011","000","1","","","","","","",""
"","","","","","image-keyboard-response","283","268143","0.0-258.0","5ae11f9709eae20001132c22","665500ab8938657b03fbdba8","665792dcb9254b075ddfeecb","291","stimuli/00110000.jpg"," ","","feedback_trial","0","","","","","","","","","","","","","","","","","","","","",""
"","","","","","image-keyboard-response","284","268924","0.0-259.0","5ae11f9709eae20001132c22","665500ab8938657b03fbdba8","665792dcb9254b075ddfeecb","775","stimuli/2000001.jpg","2","","prediction_trial","2","","true","","2","false","true","true","true","false","true","[2]","000","001","1","","","","","","",""
"","","","","","image-keyboard-response","285","269172","0.0-260.0","5ae11f9709eae20001132c22","665500ab8938657b03fbdba8","665792dcb9254b075ddfeecb","246","stimuli/20000012.jpg"," ","","feedback_trial","2","","","","","","","","","","","","","","","","","","","","",""
"","","","","","image-keyboard-response","286","269758","0.0-261.0","5ae11f9709eae20001132c22","665500ab8938657b03fbdba8","665792dcb9254b075ddfeecb","585","stimuli/0111001.jpg","0","","prediction_trial","1","","false","","0","true","true","false","false","false","false","[2,0,1]","111","001","0","","","","","","",""
"","","","","","image-keyboard-response","287","270065","0.0-262.0","5ae11f9709eae20001132c22","665500ab8938657b03fbdba8","665792dcb9254b075ddfeecb","307","stimuli/01110011.jpg"," ","","feedback_trial","2","","","","","","","","","","","","","","","","","","","","",""
"","","","","","image-keyboard-response","288","270813","0.0-263.0","5ae11f9709eae20001132c22","665500ab8938657b03fbdba8","665792dcb9254b075ddfeecb","746","stimuli/1011110.jpg","0","","prediction_trial","2","","false","","1","false","false","false","false","false","false","[2,1]","011","110","0","","","","","","",""
"","","","","","image-keyboard-response","289","271247","0.0-264.0","5ae11f9709eae20001132c22","665500ab8938657b03fbdba8","665792dcb9254b075ddfeecb","433","stimuli/10111102.jpg"," ","","feedback_trial","2","","","","","","","","","","","","","","","","","","","","",""
"","","","","","image-keyboard-response","290","271959","0.0-265.0","5ae11f9709eae20001132c22","665500ab8938657b03fbdba8","665792dcb9254b075ddfeecb","711","stimuli/1111010.jpg","1","","prediction_trial","1","","true","","1","false","true","false","false","false","false","[1,2,0]","111","010","1","","","","","","",""
"","","","","","image-keyboard-response","291","272279","0.0-266.0","5ae11f9709eae20001132c22","665500ab8938657b03fbdba8","665792dcb9254b075ddfeecb","319","stimuli/11110101.jpg"," ","","feedback_trial","1","","","","","","","","","","","","","","","","","","","","",""
"","","","","","image-keyboard-response","292","273039","0.0-267.0","5ae11f9709eae20001132c22","665500ab8938657b03fbdba8","665792dcb9254b075ddfeecb","760","stimuli/1000011.jpg","1","","prediction_trial","1","","true","","1","false","false","true","true","false","false","[1]","000","011","1","","","","","","",""
"","","","","","image-keyboard-response","293","273365","0.0-268.0","5ae11f9709eae20001132c22","665500ab8938657b03fbdba8","665792dcb9254b075ddfeecb","324","stimuli/10000111.jpg"," ","","feedback_trial","1","","","","","","","","","","","","","","","","","","","","",""
"","","","","","image-keyboard-response","294","274094","0.0-269.0","5ae11f9709eae20001132c22","665500ab8938657b03fbdba8","665792dcb9254b075ddfeecb","729","stimuli/2000010.jpg","2","","prediction_trial","2","","true","","2","true","true","true","true","true","true","[2]","000","010","1","","","","","","",""
"","","","","","image-keyboard-response","295","274254","0.0-270.0","5ae11f9709eae20001132c22","665500ab8938657b03fbdba8","665792dcb9254b075ddfeecb","159","stimuli/20000102.jpg"," ","","feedback_trial","2","","","","","","","","","","","","","","","","","","","","",""
"","","","","","image-keyboard-response","296","275000","0.0-271.0","5ae11f9709eae20001132c22","665500ab8938657b03fbdba8","665792dcb9254b075ddfeecb","745","stimuli/1001111.jpg","1","","prediction_trial","1","","true","","1","false","false","true","true","false","false","[1]","001","111","1","","","","","","",""
"","","","","","image-keyboard-response","297","275286","0.0-272.0","5ae11f9709eae20001132c22","665500ab8938657b03fbdba8","665792dcb9254b075ddfeecb","285","stimuli/10011111.jpg"," ","","feedback_trial","1","","","","","","","","","","","","","","","","","","","","",""
"","","","","","image-keyboard-response","298","275835","0.0-273.0","5ae11f9709eae20001132c22","665500ab8938657b03fbdba8","665792dcb9254b075ddfeecb","549","stimuli/0101010.jpg","0","","prediction_trial","0","","true","","0","true","true","false","false","false","false","[2,0]","101","010","1","","","","","","",""
"","","","","","image-keyboard-response","299","276095","0.0-274.0","5ae11f9709eae20001132c22","665500ab8938657b03fbdba8","665792dcb9254b075ddfeecb","259","stimuli/01010100.jpg"," ","","feedback_trial","2","","","","","","","","","","","","","","","","","","","","",""
"","","","","","image-keyboard-response","300","276781","0.0-275.0","5ae11f9709eae20001132c22","665500ab8938657b03fbdba8","665792dcb9254b075ddfeecb","685","stimuli/0010001.jpg","0","","prediction_trial","0","","true","","0","true","true","true","true","true","true","[0]","010","001","1","","","","","","",""
"","","","","","image-keyboard-response","301","277012","0.0-276.0","5ae11f9709eae20001132c22","665500ab8938657b03fbdba8","665792dcb9254b075ddfeecb","230","stimuli/00100010.jpg"," ","","feedback_trial","0","","","","","","","","","","","","","","","","","","","","",""
"","","","","","image-keyboard-response","302","277643","0.0-277.0","5ae11f9709eae20001132c22","665500ab8938657b03fbdba8","665792dcb9254b075ddfeecb","630","stimuli/0110001.jpg","0","","prediction_trial","0","","true","","0","true","true","false","false","false","false","[0,1]","110","001","1","","","","","","",""
"","","","","","image-keyboard-response","303","277716","0.0-278.0","5ae11f9709eae20001132c22","665500ab8938657b03fbdba8","665792dcb9254b075ddfeecb","72","stimuli/01100010.jpg"," ","","feedback_trial","0","","","","","","","","","","","","","","","","","","","","",""
"","","","","","image-keyboard-response","304","278265","0.0-279.0","5ae11f9709eae20001132c22","665500ab8938657b03fbdba8","665792dcb9254b075ddfeecb","549","stimuli/1011000.jpg","1","","prediction_trial","2","","false","","1","true","true","false","false","false","false","[1,2]","011","000","0","","","","","","",""
"","","","","","image-keyboard-response","305","278561","0.0-280.0","5ae11f9709eae20001132c22","665500ab8938657b03fbdba8","665792dcb9254b075ddfeecb","295","stimuli/10110002.jpg"," ","","feedback_trial","1","","","","","","","","","","","","","","","","","","","","",""
"","","","","","image-keyboard-response","306","279052","0.0-281.0","5ae11f9709eae20001132c22","665500ab8938657b03fbdba8","665792dcb9254b075ddfeecb","490","stimuli/1101000.jpg","1","","prediction_trial","1","","true","","1","true","true","true","true","true","true","[1]","101","000","1","","","","","","",""
"","","","","","image-keyboard-response","307","279121","0.0-282.0","5ae11f9709eae20001132c22","665500ab8938657b03fbdba8","665792dcb9254b075ddfeecb","68","stimuli/11010001.jpg"," ","","feedback_trial","1","","","","","","","","","","","","","","","","","","","","",""
"","","","","","image-keyboard-response","308","279741","0.0-283.0","5ae11f9709eae20001132c22","665500ab8938657b03fbdba8","665792dcb9254b075ddfeecb","620","stimuli/0010000.jpg","0","","prediction_trial","0","","true","","0","true","true","true","true","true","true","[0]","010","000","1","","","","","","",""
"","","","","","image-keyboard-response","309","279812","0.0-284.0","5ae11f9709eae20001132c22","665500ab8938657b03fbdba8","665792dcb9254b075ddfeecb","69","stimuli/00100000.jpg"," ","","feedback_trial","0","","","","","","","","","","","","","","","","","","","","",""
"","","","","","image-keyboard-response","310","280442","0.0-285.0","5ae11f9709eae20001132c22","665500ab8938657b03fbdba8","665792dcb9254b075ddfeecb","630","stimuli/2000110.jpg","2","","prediction_trial","2","","true","","2","true","true","true","true","true","true","[2]","000","110","1","","","","","","",""
"","","","","","image-keyboard-response","311","280512","0.0-286.0","5ae11f9709eae20001132c22","665500ab8938657b03fbdba8","665792dcb9254b075ddfeecb","68","stimuli/20001102.jpg"," ","","feedback_trial","2","","","","","","","","","","","","","","","","","","","","",""
"","","","","","image-keyboard-response","312","281157","0.0-287.0","5ae11f9709eae20001132c22","665500ab8938657b03fbdba8","665792dcb9254b075ddfeecb","644","stimuli/0010011.jpg","0","","prediction_trial","0","","true","","0","true","true","true","true","true","true","[0]","010","011","1","","","","","","",""
"","","","","","image-keyboard-response","313","281222","0.0-288.0","5ae11f9709eae20001132c22","665500ab8938657b03fbdba8","665792dcb9254b075ddfeecb","64","stimuli/00100110.jpg"," ","","feedback_trial","0","","","","","","","","","","","","","","","","","","","","",""
"","","","","","image-keyboard-response","314","281828","0.0-289.0","5ae11f9709eae20001132c22","665500ab8938657b03fbdba8","665792dcb9254b075ddfeecb","605","stimuli/0001000.jpg","0","","prediction_trial","0","","true","","0","true","true","true","true","true","true","[0]","001","000","1","","","","","","",""
"","","","","","image-keyboard-response","315","281893","0.0-290.0","5ae11f9709eae20001132c22","665500ab8938657b03fbdba8","665792dcb9254b075ddfeecb","64","stimuli/00010000.jpg"," ","","feedback_trial","0","","","","","","","","","","","","","","","","","","","","",""
"","","","","","image-keyboard-response","316","282609","0.0-291.0","5ae11f9709eae20001132c22","665500ab8938657b03fbdba8","665792dcb9254b075ddfeecb","716","stimuli/0011111.jpg","0","","prediction_trial","0","","true","","0","false","false","true","true","false","false","[0]","011","111","1","","","","","","",""
"","","","","","image-keyboard-response","317","282633","0.0-292.0","5ae11f9709eae20001132c22","665500ab8938657b03fbdba8","665792dcb9254b075ddfeecb","23","stimuli/00111110.jpg"," ","","feedback_trial","0","","","","","","","","","","","","","","","","","","","","",""
"","","","","","survey-html-form","318","290549","0.0-293.0","5ae11f9709eae20001132c22","665500ab8938657b03fbdba8","665792dcb9254b075ddfeecb","7914","","{""feedback"":"""",""age"":""38"",""gender"":""Male"",""other_gender"":"""",""race"":""White"",""other_race"":"""",""ethnicity"":""Non-Hispanic""}","","exit_survey","","","","","","","","","","","","","","","","","38","Non-Hispanic","Male","White","0.5972222222222222","0.5972222222222222"
