"success","timeout","failed_images","failed_audio","failed_video","trial_type","trial_index","time_elapsed","internal_node_id","prolific_id","prolific_study_id","prolific_session_id","rt","stimulus","response","view_history","trial","character_choice","stimulus_dict","accuracy","correct_response","ball_pos","ego_ball_visible","ego_can_infer","alter_ball_visible","alter_can_infer","collective_ball_visible","collective_can_infer","search_locations","alter_occluders","ego_occluders","accuracy_bool","feedback","age","ethnicity","gender","race","overall_accuracy","bonus"
"true","false","[]","[]","[]","preload","0","4185","0.0-0.0","5c10724111fe9a00013cd815","665500ab8938657b03fbdba8","66578095167444180ef3f52b","","","","","","","","","","","","","","","","","","","","","","","","","","",""
"true","","","","","fullscreen","1","8239","0.0-1.0","5c10724111fe9a00013cd815","665500ab8938657b03fbdba8","66578095167444180ef3f52b","","","","","","","","","","","","","","","","","","","","","","","","","","",""
"","","","","","html-button-response","2","16686","0.0-2.0","5c10724111fe9a00013cd815","665500ab8938657b03fbdba8","66578095167444180ef3f52b","8442","<p><b>Consent Form</b></p> <div style=""text-align:left;background-color:lightgrey; padding:20px; max-width:900px;""><p>Please consider this information carefully before deciding whether to participate in this research.</p> <p>The purpose of this research is to examine which factors influence social judgment and decision-making. You will be asked to make judgements about individuals and actions in social scenarios. We are simply interested in your judgement. The study will take less than 1 hour to complete, and you will receive less than $20 on Prolific. Your compensation and time commitment are specified in the study description. There are no anticipated risks associated with participating in this study. The effects of participating should be comparable to those you would ordinarily experience from viewing a computer monitor and using a mouse or keyboard for a similar amount of time. At the end of the study, we will provide an explanation of the questions that motivate this line of research and will describe the potential implications. </p><p> Your participation in this study is completely voluntary and you may refuse to participate or you may choose to withdraw at any time without penalty or loss of benefits to you which are otherwise entitled. Your participation in this study will remain confidential. No personally identifiable information will be associated with your data. Also, all analyses of the data will be averaged across all the participants, so your individual responses will never be specifically analyzed. </p><p> If you have questions or concerns about your participation or payment, or want to request a summary of research findings, please contact Dr. Jonathan Phillips at Jonathan.S.Phillips@dartmouth.edu. </p><p> Please save a copy of this form for your records. </p><p><b>Agreement: </b>The nature and purpose of this research have been sufficiently explained and I agree to participate in this study. I understand that I am free to withdraw at any time without incurring any penalty. Please consent by clicking the button below to continue. Otherwise, please exit the study at any time. </p>","0","","","","","","","","","","","","","","","","","","","","","","","",""
"","","","","","instructions","3","137923","0.0-3.0-0.0","5c10724111fe9a00013cd815","665500ab8938657b03fbdba8","66578095167444180ef3f52b","121236","","","[{""page_index"":0,""viewing_time"":3243},{""page_index"":1,""viewing_time"":3294},{""page_index"":2,""viewing_time"":4718},{""page_index"":3,""viewing_time"":6195},{""page_index"":4,""viewing_time"":5315},{""page_index"":5,""viewing_time"":4329},{""page_index"":6,""viewing_time"":4470},{""page_index"":7,""viewing_time"":4782},{""page_index"":8,""viewing_time"":6958},{""page_index"":9,""viewing_time"":3528},{""page_index"":10,""viewing_time"":49156},{""page_index"":11,""viewing_time"":16730},{""page_index"":12,""viewing_time"":6293},{""page_index"":13,""viewing_time"":2223}]","intro","","","","","","","","","","","","","","","","","","","","","",""
"","","","","","image-keyboard-response","4","147538","0.0-3.0-1.0","5c10724111fe9a00013cd815","665500ab8938657b03fbdba8","66578095167444180ef3f52b","9606","stimuli/1101101.jpg","1","","prediction_practice","1","{""filepath"":""stimuli/1101101.jpg"",""ball_pos"":1,""ego_ball_visible"":true,""ego_can_infer"":true,""alter_ball_visible"":true,""alter_can_infer"":true,""collective_ball_visible"":true,""collective_can_infer"":true,""search_locations"":[1],""alter_occluders"":""101"",""ego_occluders"":""101""}","true","","","","","","","","","","","","","","","","","","",""
"","","","","","image-keyboard-response","5","153579","0.0-3.0-2.0","5c10724111fe9a00013cd815","665500ab8938657b03fbdba8","66578095167444180ef3f52b","6036","stimuli/11011011.jpg"," ","","practrice_feedback","1","","","","","","","","","","","","","","","","","","","","",""
"","","","","","image-keyboard-response","6","157218","0.0-3.0-3.0","5c10724111fe9a00013cd815","665500ab8938657b03fbdba8","66578095167444180ef3f52b","3638","stimuli/0100011.jpg","0","","prediction_practice","0","{""filepath"":""stimuli/0100011.jpg"",""ball_pos"":0,""ego_ball_visible"":true,""ego_can_infer"":true,""alter_ball_visible"":false,""alter_can_infer"":true,""collective_ball_visible"":false,""collective_can_infer"":true,""search_locations"":[0],""alter_occluders"":""100"",""ego_occluders"":""011""}","true","","","","","","","","","","","","","","","","","","",""
"","","","","","image-keyboard-response","7","160147","0.0-3.0-4.0","5c10724111fe9a00013cd815","665500ab8938657b03fbdba8","66578095167444180ef3f52b","2928","stimuli/01000110.jpg"," ","","practrice_feedback","0","","","","","","","","","","","","","","","","","","","","",""
"","","","","","image-keyboard-response","8","164510","0.0-3.0-5.0","5c10724111fe9a00013cd815","665500ab8938657b03fbdba8","66578095167444180ef3f52b","4361","stimuli/2011001.jpg","0","","prediction_practice","1","{""filepath"":""stimuli/2011001.jpg"",""ball_pos"":2,""ego_ball_visible"":false,""ego_can_infer"":true,""alter_ball_visible"":false,""alter_can_infer"":false,""collective_ball_visible"":false,""collective_can_infer"":false,""search_locations"":[2,1],""alter_occluders"":""011"",""ego_occluders"":""001""}","false","","","","","","","","","","","","","","","","","","",""
"","","","","","image-keyboard-response","9","166531","0.0-3.0-6.0","5c10724111fe9a00013cd815","665500ab8938657b03fbdba8","66578095167444180ef3f52b","2020","stimuli/20110011.jpg"," ","","practrice_feedback","2","","","","","","","","","","","","","","","","","","","","",""
"","","","","","image-keyboard-response","10","170329","0.0-3.0-7.0","5c10724111fe9a00013cd815","665500ab8938657b03fbdba8","66578095167444180ef3f52b","3797","stimuli/0110111.jpg","2","","prediction_practice","0","{""filepath"":""stimuli/0110111.jpg"",""ball_pos"":0,""ego_ball_visible"":false,""ego_can_infer"":false,""alter_ball_visible"":false,""alter_can_infer"":false,""collective_ball_visible"":false,""collective_can_infer"":false,""search_locations"":[0,1],""alter_occluders"":""110"",""ego_occluders"":""111""}","false","","","","","","","","","","","","","","","","","","",""
"","","","","","image-keyboard-response","11","172431","0.0-3.0-8.0","5c10724111fe9a00013cd815","665500ab8938657b03fbdba8","66578095167444180ef3f52b","2100","stimuli/01101110.jpg"," ","","practrice_feedback","0","","","","","","","","","","","","","","","","","","","","",""
"","","","","","image-keyboard-response","12","174555","0.0-3.0-9.0","5c10724111fe9a00013cd815","665500ab8938657b03fbdba8","66578095167444180ef3f52b","2123","stimuli/0111000.jpg","0","","prediction_practice","2","{""filepath"":""stimuli/0111000.jpg"",""ball_pos"":0,""ego_ball_visible"":true,""ego_can_infer"":true,""alter_ball_visible"":false,""alter_can_infer"":false,""collective_ball_visible"":false,""collective_can_infer"":false,""search_locations"":[0,1,2],""alter_occluders"":""111"",""ego_occluders"":""000""}","false","","","","","","","","","","","","","","","","","","",""
"","","","","","image-keyboard-response","13","177065","0.0-3.0-10.0","5c10724111fe9a00013cd815","665500ab8938657b03fbdba8","66578095167444180ef3f52b","2509","stimuli/01110002.jpg"," ","","practrice_feedback","0","","","","","","","","","","","","","","","","","","","","",""
"","","","","","image-keyboard-response","14","180091","0.0-3.0-11.0","5c10724111fe9a00013cd815","665500ab8938657b03fbdba8","66578095167444180ef3f52b","3018","stimuli/1011001.jpg","1","","prediction_practice","1","{""filepath"":""stimuli/1011001.jpg"",""ball_pos"":1,""ego_ball_visible"":true,""ego_can_infer"":true,""alter_ball_visible"":false,""alter_can_infer"":false,""collective_ball_visible"":false,""collective_can_infer"":false,""search_locations"":[2,1],""alter_occluders"":""011"",""ego_occluders"":""001""}","true","","","","","","","","","","","","","","","","","","",""
"","","","","","image-keyboard-response","15","182114","0.0-3.0-12.0","5c10724111fe9a00013cd815","665500ab8938657b03fbdba8","66578095167444180ef3f52b","2022","stimuli/10110011.jpg"," ","","practrice_feedback","2","","","","","","","","","","","","","","","","","","","","",""
"","","","","","image-keyboard-response","16","184029","0.0-3.0-13.0","5c10724111fe9a00013cd815","665500ab8938657b03fbdba8","66578095167444180ef3f52b","1915","stimuli/0111011.jpg","0","","prediction_practice","0","{""filepath"":""stimuli/0111011.jpg"",""ball_pos"":0,""ego_ball_visible"":true,""ego_can_infer"":true,""alter_ball_visible"":false,""alter_can_infer"":false,""collective_ball_visible"":false,""collective_can_infer"":false,""search_locations"":[2,1,0],""alter_occluders"":""111"",""ego_occluders"":""011""}","true","","","","","","","","","","","","","","","","","","",""
"","","","","","image-keyboard-response","17","185420","0.0-3.0-14.0","5c10724111fe9a00013cd815","665500ab8938657b03fbdba8","66578095167444180ef3f52b","1390","stimuli/01110110.jpg"," ","","practrice_feedback","2","","","","","","","","","","","","","","","","","","","","",""
"","","","","","image-keyboard-response","18","187240","0.0-3.0-15.0","5c10724111fe9a00013cd815","665500ab8938657b03fbdba8","66578095167444180ef3f52b","1818","stimuli/2001111.jpg","2","","prediction_practice","2","{""filepath"":""stimuli/2001111.jpg"",""ball_pos"":2,""ego_ball_visible"":false,""ego_can_infer"":false,""alter_ball_visible"":false,""alter_can_infer"":true,""collective_ball_visible"":false,""collective_can_infer"":false,""search_locations"":[2],""alter_occluders"":""001"",""ego_occluders"":""111""}","true","","","","","","","","","","","","","","","","","","",""
"","","","","","image-keyboard-response","19","189128","0.0-3.0-16.0","5c10724111fe9a00013cd815","665500ab8938657b03fbdba8","66578095167444180ef3f52b","1887","stimuli/20011112.jpg"," ","","practrice_feedback","2","","","","","","","","","","","","","","","","","","","","",""
"","","","","","image-keyboard-response","20","192018","0.0-3.0-17.0","5c10724111fe9a00013cd815","665500ab8938657b03fbdba8","66578095167444180ef3f52b","2888","stimuli/0001101.jpg","1","","prediction_practice","0","{""filepath"":""stimuli/0001101.jpg"",""ball_pos"":0,""ego_ball_visible"":false,""ego_can_infer"":false,""alter_ball_visible"":true,""alter_can_infer"":true,""collective_ball_visible"":false,""collective_can_infer"":false,""search_locations"":[0],""alter_occluders"":""001"",""ego_occluders"":""101""}","false","","","","","","","","","","","","","","","","","","",""
"","","","","","image-keyboard-response","21","193523","0.0-3.0-18.0","5c10724111fe9a00013cd815","665500ab8938657b03fbdba8","66578095167444180ef3f52b","1504","stimuli/00011010.jpg"," ","","practrice_feedback","0","","","","","","","","","","","","","","","","","","","","",""
"","","","","","image-keyboard-response","22","195483","0.0-3.0-19.0","5c10724111fe9a00013cd815","665500ab8938657b03fbdba8","66578095167444180ef3f52b","1954","stimuli/0100101.jpg","0","","prediction_practice","0","{""filepath"":""stimuli/0100101.jpg"",""ball_pos"":0,""ego_ball_visible"":false,""ego_can_infer"":false,""alter_ball_visible"":false,""alter_can_infer"":true,""collective_ball_visible"":false,""collective_can_infer"":false,""search_locations"":[0],""alter_occluders"":""100"",""ego_occluders"":""101""}","true","","","","","","","","","","","","","","","","","","",""
"","","","","","image-keyboard-response","23","196754","0.0-3.0-20.0","5c10724111fe9a00013cd815","665500ab8938657b03fbdba8","66578095167444180ef3f52b","1270","stimuli/01001010.jpg"," ","","practrice_feedback","0","","","","","","","","","","","","","","","","","","","","",""
"","","","","","html-button-response","24","203703","0.0-3.0-21.0","5c10724111fe9a00013cd815","665500ab8938657b03fbdba8","66578095167444180ef3f52b","6948","Now that you've had some practice, you'll be tested with a couple of easy trials. If you correctly predict Sam's choice, you'll move on to complete the experiment!","0","","","","","","","","","","","","","","","","","","","","","","","",""
"","","","","","image-keyboard-response","25","205290","0.0-3.0-22.0-0.0","5c10724111fe9a00013cd815","665500ab8938657b03fbdba8","66578095167444180ef3f52b","1585","stimuli/0000011.jpg","arrowleft","","comprehension_quiz","","","true","arrowleft","","","","","","","","","","","","","","","","","",""
"","","","","","image-keyboard-response","26","206587","0.0-3.0-22.0-1.0","5c10724111fe9a00013cd815","665500ab8938657b03fbdba8","66578095167444180ef3f52b","1290","stimuli/00000110.jpg"," ","","comprehension_quiz","","","true"," ","","","","","","","","","","","","","","","","","",""
"","","","","","image-keyboard-response","27","208866","0.0-3.0-22.0-2.0","5c10724111fe9a00013cd815","665500ab8938657b03fbdba8","66578095167444180ef3f52b","2277","stimuli/1010010.jpg","arrowdown","","comprehension_quiz","","","true","arrowdown","","","","","","","","","","","","","","","","","",""
"","","","","","image-keyboard-response","28","210079","0.0-3.0-22.0-3.0","5c10724111fe9a00013cd815","665500ab8938657b03fbdba8","66578095167444180ef3f52b","1212","stimuli/10100101.jpg"," ","","comprehension_quiz","","","true"," ","","","","","","","","","","","","","","","","","",""
"","","","","","html-button-response","29","212282","0.0-4.0","5c10724111fe9a00013cd815","665500ab8938657b03fbdba8","66578095167444180ef3f52b","2202","The experiment will now begin.","0","","","","","","","","","","","","","","","","","","","","","","","",""
"","","","","","image-keyboard-response","30","213938","0.0-5.0","5c10724111fe9a00013cd815","665500ab8938657b03fbdba8","66578095167444180ef3f52b","1655","stimuli/2011110.jpg","2","","prediction_trial","2","","true","","2","true","true","false","false","false","false","[2,1]","011","110","1","","","","","","",""
"","","","","","image-keyboard-response","31","215034","0.0-6.0","5c10724111fe9a00013cd815","665500ab8938657b03fbdba8","66578095167444180ef3f52b","1093","stimuli/20111102.jpg"," ","","feedback_trial","2","","","","","","","","","","","","","","","","","","","","",""
"","","","","","image-keyboard-response","32","216992","0.0-7.0","5c10724111fe9a00013cd815","665500ab8938657b03fbdba8","66578095167444180ef3f52b","1956","stimuli/1010010.jpg","1","","prediction_trial","1","","true","","1","false","true","false","true","false","true","[1]","010","010","1","","","","","","",""
"","","","","","image-keyboard-response","33","218051","0.0-8.0","5c10724111fe9a00013cd815","665500ab8938657b03fbdba8","66578095167444180ef3f52b","1057","stimuli/10100101.jpg"," ","","feedback_trial","1","","","","","","","","","","","","","","","","","","","","",""
"","","","","","image-keyboard-response","34","219553","0.0-9.0","5c10724111fe9a00013cd815","665500ab8938657b03fbdba8","66578095167444180ef3f52b","1501","stimuli/0011110.jpg","0","","prediction_trial","0","","true","","0","false","false","true","true","false","false","[0]","011","110","1","","","","","","",""
"","","","","","image-keyboard-response","35","220549","0.0-10.0","5c10724111fe9a00013cd815","665500ab8938657b03fbdba8","66578095167444180ef3f52b","995","stimuli/00111100.jpg"," ","","feedback_trial","0","","","","","","","","","","","","","","","","","","","","",""
"","","","","","image-keyboard-response","36","222360","0.0-11.0","5c10724111fe9a00013cd815","665500ab8938657b03fbdba8","66578095167444180ef3f52b","1809","stimuli/2010101.jpg","2","","prediction_trial","2","","true","","2","false","false","true","true","false","false","[2]","010","101","1","","","","","","",""
"","","","","","image-keyboard-response","37","223328","0.0-12.0","5c10724111fe9a00013cd815","665500ab8938657b03fbdba8","66578095167444180ef3f52b","966","stimuli/20101012.jpg"," ","","feedback_trial","2","","","","","","","","","","","","","","","","","","","","",""
"","","","","","image-keyboard-response","38","224773","0.0-13.0","5c10724111fe9a00013cd815","665500ab8938657b03fbdba8","66578095167444180ef3f52b","1442","stimuli/0000000.jpg","0","","prediction_trial","0","","true","","0","true","true","true","true","true","true","[0]","000","000","1","","","","","","",""
"","","","","","image-keyboard-response","39","225620","0.0-14.0","5c10724111fe9a00013cd815","665500ab8938657b03fbdba8","66578095167444180ef3f52b","846","stimuli/00000000.jpg"," ","","feedback_trial","0","","","","","","","","","","","","","","","","","","","","",""
"","","","","","image-keyboard-response","40","227856","0.0-15.0","5c10724111fe9a00013cd815","665500ab8938657b03fbdba8","66578095167444180ef3f52b","2235","stimuli/1101011.jpg","2","","prediction_trial","1","","false","","1","false","false","true","true","false","false","[1]","101","011","0","","","","","","",""
"","","","","","image-keyboard-response","41","228803","0.0-16.0","5c10724111fe9a00013cd815","665500ab8938657b03fbdba8","66578095167444180ef3f52b","946","stimuli/11010111.jpg"," ","","feedback_trial","1","","","","","","","","","","","","","","","","","","","","",""
"","","","","","image-keyboard-response","42","230059","0.0-17.0","5c10724111fe9a00013cd815","665500ab8938657b03fbdba8","66578095167444180ef3f52b","1254","stimuli/2111110.jpg","2","","prediction_trial","1","","false","","2","true","true","false","false","false","false","[0,1,2]","111","110","0","","","","","","",""
"","","","","","image-keyboard-response","43","230991","0.0-18.0","5c10724111fe9a00013cd815","665500ab8938657b03fbdba8","66578095167444180ef3f52b","931","stimuli/21111101.jpg"," ","","feedback_trial","0","","","","","","","","","","","","","","","","","","","","",""
"","","","","","image-keyboard-response","44","232252","0.0-19.0","5c10724111fe9a00013cd815","665500ab8938657b03fbdba8","66578095167444180ef3f52b","1259","stimuli/1001111.jpg","0","","prediction_trial","1","","false","","1","false","false","true","true","false","false","[1]","001","111","0","","","","","","",""
"","","","","","image-keyboard-response","45","233060","0.0-20.0","5c10724111fe9a00013cd815","665500ab8938657b03fbdba8","66578095167444180ef3f52b","806","stimuli/10011111.jpg"," ","","feedback_trial","1","","","","","","","","","","","","","","","","","","","","",""
"","","","","","image-keyboard-response","46","234406","0.0-21.0","5c10724111fe9a00013cd815","665500ab8938657b03fbdba8","66578095167444180ef3f52b","1343","stimuli/1111010.jpg","1","","prediction_trial","0","","false","","1","false","true","false","false","false","false","[2,0,1]","111","010","0","","","","","","",""
"","","","","","image-keyboard-response","47","235238","0.0-22.0","5c10724111fe9a00013cd815","665500ab8938657b03fbdba8","66578095167444180ef3f52b","831","stimuli/11110100.jpg"," ","","feedback_trial","2","","","","","","","","","","","","","","","","","","","","",""
"","","","","","image-keyboard-response","48","236804","0.0-23.0","5c10724111fe9a00013cd815","665500ab8938657b03fbdba8","66578095167444180ef3f52b","1566","stimuli/1101100.jpg","1","","prediction_trial","1","","true","","1","true","true","true","true","true","true","[1]","101","100","1","","","","","","",""
"","","","","","image-keyboard-response","49","237650","0.0-24.0","5c10724111fe9a00013cd815","665500ab8938657b03fbdba8","66578095167444180ef3f52b","844","stimuli/11011001.jpg"," ","","feedback_trial","1","","","","","","","","","","","","","","","","","","","","",""
"","","","","","image-keyboard-response","50","239303","0.0-25.0","5c10724111fe9a00013cd815","665500ab8938657b03fbdba8","66578095167444180ef3f52b","1651","stimuli/0001110.jpg","0","","prediction_trial","0","","true","","0","false","false","true","true","false","false","[0]","001","110","1","","","","","","",""
"","","","","","image-keyboard-response","51","240081","0.0-26.0","5c10724111fe9a00013cd815","665500ab8938657b03fbdba8","66578095167444180ef3f52b","777","stimuli/00011100.jpg"," ","","feedback_trial","0","","","","","","","","","","","","","","","","","","","","",""
"","","","","","image-keyboard-response","52","243509","0.0-27.0","5c10724111fe9a00013cd815","665500ab8938657b03fbdba8","66578095167444180ef3f52b","3426","stimuli/1110010.jpg","1","","prediction_trial","0","","false","","1","false","true","false","false","false","false","[0,1]","110","010","0","","","","","","",""
"","","","","","image-keyboard-response","53","244293","0.0-28.0","5c10724111fe9a00013cd815","665500ab8938657b03fbdba8","66578095167444180ef3f52b","783","stimuli/11100100.jpg"," ","","feedback_trial","0","","","","","","","","","","","","","","","","","","","","",""
"","","","","","image-keyboard-response","54","246411","0.0-29.0","5c10724111fe9a00013cd815","665500ab8938657b03fbdba8","66578095167444180ef3f52b","2116","stimuli/0101101.jpg","1","","prediction_trial","0","","false","","0","false","false","false","false","false","false","[0,2]","101","101","0","","","","","","",""
"","","","","","image-keyboard-response","55","247173","0.0-30.0","5c10724111fe9a00013cd815","665500ab8938657b03fbdba8","66578095167444180ef3f52b","761","stimuli/01011010.jpg"," ","","feedback_trial","0","","","","","","","","","","","","","","","","","","","","",""
"","","","","","image-keyboard-response","56","248566","0.0-31.0","5c10724111fe9a00013cd815","665500ab8938657b03fbdba8","66578095167444180ef3f52b","1392","stimuli/2001010.jpg","2","","prediction_trial","2","","true","","2","true","true","false","true","false","true","[2]","001","010","1","","","","","","",""
"","","","","","image-keyboard-response","57","249307","0.0-32.0","5c10724111fe9a00013cd815","665500ab8938657b03fbdba8","66578095167444180ef3f52b","739","stimuli/20010102.jpg"," ","","feedback_trial","2","","","","","","","","","","","","","","","","","","","","",""
"","","","","","image-keyboard-response","58","250669","0.0-33.0","5c10724111fe9a00013cd815","665500ab8938657b03fbdba8","66578095167444180ef3f52b","1361","stimuli/2100000.jpg","2","","prediction_trial","2","","true","","2","true","true","true","true","true","true","[2]","100","000","1","","","","","","",""
"","","","","","image-keyboard-response","59","251516","0.0-34.0","5c10724111fe9a00013cd815","665500ab8938657b03fbdba8","66578095167444180ef3f52b","846","stimuli/21000002.jpg"," ","","feedback_trial","2","","","","","","","","","","","","","","","","","","","","",""
"","","","","","image-keyboard-response","60","253566","0.0-35.0","5c10724111fe9a00013cd815","665500ab8938657b03fbdba8","66578095167444180ef3f52b","2039","stimuli/1101101.jpg","1","","prediction_trial","1","","true","","1","true","true","true","true","true","true","[1]","101","101","1","","","","","","",""
"","","","","","image-keyboard-response","61","254403","0.0-36.0","5c10724111fe9a00013cd815","665500ab8938657b03fbdba8","66578095167444180ef3f52b","836","stimuli/11011011.jpg"," ","","feedback_trial","1","","","","","","","","","","","","","","","","","","","","",""
"","","","","","image-keyboard-response","62","256119","0.0-37.0","5c10724111fe9a00013cd815","665500ab8938657b03fbdba8","66578095167444180ef3f52b","1713","stimuli/0100110.jpg","0","","prediction_trial","0","","true","","0","false","false","false","true","false","false","[0]","100","110","1","","","","","","",""
"","","","","","image-keyboard-response","63","256915","0.0-38.0","5c10724111fe9a00013cd815","665500ab8938657b03fbdba8","66578095167444180ef3f52b","795","stimuli/01001100.jpg"," ","","feedback_trial","0","","","","","","","","","","","","","","","","","","","","",""
"","","","","","image-keyboard-response","64","258424","0.0-39.0","5c10724111fe9a00013cd815","665500ab8938657b03fbdba8","66578095167444180ef3f52b","1507","stimuli/2010111.jpg","0","","prediction_trial","2","","false","","2","false","false","true","true","false","false","[2]","010","111","0","","","","","","",""
"","","","","","image-keyboard-response","65","259144","0.0-40.0","5c10724111fe9a00013cd815","665500ab8938657b03fbdba8","66578095167444180ef3f52b","718","stimuli/20101112.jpg"," ","","feedback_trial","2","","","","","","","","","","","","","","","","","","","","",""
"","","","","","image-keyboard-response","66","260974","0.0-41.0","5c10724111fe9a00013cd815","665500ab8938657b03fbdba8","66578095167444180ef3f52b","1829","stimuli/2011001.jpg","2","","prediction_trial","2","","true","","2","false","true","false","false","false","false","[2,1]","011","001","1","","","","","","",""
"","","","","","image-keyboard-response","67","261767","0.0-42.0","5c10724111fe9a00013cd815","665500ab8938657b03fbdba8","66578095167444180ef3f52b","790","stimuli/20110012.jpg"," ","","feedback_trial","2","","","","","","","","","","","","","","","","","","","","",""
"","","","","","image-keyboard-response","68","264078","0.0-43.0","5c10724111fe9a00013cd815","665500ab8938657b03fbdba8","66578095167444180ef3f52b","2310","stimuli/2100101.jpg","0","","prediction_trial","2","","false","","2","false","false","true","true","false","false","[2]","100","101","0","","","","","","",""
"","","","","","image-keyboard-response","69","264874","0.0-44.0","5c10724111fe9a00013cd815","665500ab8938657b03fbdba8","66578095167444180ef3f52b","794","stimuli/21001012.jpg"," ","","feedback_trial","2","","","","","","","","","","","","","","","","","","","","",""
"","","","","","image-keyboard-response","70","266260","0.0-45.0","5c10724111fe9a00013cd815","665500ab8938657b03fbdba8","66578095167444180ef3f52b","1385","stimuli/0010010.jpg","0","","prediction_trial","0","","true","","0","true","true","true","true","true","true","[0]","010","010","1","","","","","","",""
"","","","","","image-keyboard-response","71","267009","0.0-46.0","5c10724111fe9a00013cd815","665500ab8938657b03fbdba8","66578095167444180ef3f52b","747","stimuli/00100100.jpg"," ","","feedback_trial","0","","","","","","","","","","","","","","","","","","","","",""
"","","","","","image-keyboard-response","72","268239","0.0-47.0","5c10724111fe9a00013cd815","665500ab8938657b03fbdba8","66578095167444180ef3f52b","1228","stimuli/0100011.jpg","0","","prediction_trial","0","","true","","0","true","true","false","true","false","true","[0]","100","011","1","","","","","","",""
"","","","","","image-keyboard-response","73","268931","0.0-48.0","5c10724111fe9a00013cd815","665500ab8938657b03fbdba8","66578095167444180ef3f52b","690","stimuli/01000110.jpg"," ","","feedback_trial","0","","","","","","","","","","","","","","","","","","","","",""
"","","","","","image-keyboard-response","74","270727","0.0-49.0","5c10724111fe9a00013cd815","665500ab8938657b03fbdba8","66578095167444180ef3f52b","1795","stimuli/1110001.jpg","1","","prediction_trial","0","","false","","1","true","true","false","false","false","false","[0,1]","110","001","0","","","","","","",""
"","","","","","image-keyboard-response","75","271655","0.0-50.0","5c10724111fe9a00013cd815","665500ab8938657b03fbdba8","66578095167444180ef3f52b","927","stimuli/11100010.jpg"," ","","feedback_trial","0","","","","","","","","","","","","","","","","","","","","",""
"","","","","","image-keyboard-response","76","273160","0.0-51.0","5c10724111fe9a00013cd815","665500ab8938657b03fbdba8","66578095167444180ef3f52b","1504","stimuli/0010111.jpg","2","","prediction_trial","0","","false","","0","false","false","true","true","false","false","[0]","010","111","0","","","","","","",""
"","","","","","image-keyboard-response","77","273978","0.0-52.0","5c10724111fe9a00013cd815","665500ab8938657b03fbdba8","66578095167444180ef3f52b","816","stimuli/00101110.jpg"," ","","feedback_trial","0","","","","","","","","","","","","","","","","","","","","",""
"","","","","","image-keyboard-response","78","275574","0.0-53.0","5c10724111fe9a00013cd815","665500ab8938657b03fbdba8","66578095167444180ef3f52b","1595","stimuli/1010001.jpg","1","","prediction_trial","1","","true","","1","true","true","false","true","false","true","[1]","010","001","1","","","","","","",""
"","","","","","image-keyboard-response","79","276331","0.0-54.0","5c10724111fe9a00013cd815","665500ab8938657b03fbdba8","66578095167444180ef3f52b","756","stimuli/10100011.jpg"," ","","feedback_trial","1","","","","","","","","","","","","","","","","","","","","",""
"","","","","","image-keyboard-response","80","277712","0.0-55.0","5c10724111fe9a00013cd815","665500ab8938657b03fbdba8","66578095167444180ef3f52b","1379","stimuli/1111101.jpg","1","","prediction_trial","0","","false","","1","true","true","false","false","false","false","[0,1,2]","111","101","0","","","","","","",""
"","","","","","image-keyboard-response","81","278494","0.0-56.0","5c10724111fe9a00013cd815","665500ab8938657b03fbdba8","66578095167444180ef3f52b","779","stimuli/11111010.jpg"," ","","feedback_trial","0","","","","","","","","","","","","","","","","","","","","",""
"","","","","","image-keyboard-response","82","279861","0.0-57.0","5c10724111fe9a00013cd815","665500ab8938657b03fbdba8","66578095167444180ef3f52b","1359","stimuli/2010000.jpg","2","","prediction_trial","2","","true","","2","true","true","true","true","true","true","[2]","010","000","1","","","","","","",""
"","","","","","image-keyboard-response","83","280687","0.0-58.0","5c10724111fe9a00013cd815","665500ab8938657b03fbdba8","66578095167444180ef3f52b","825","stimuli/20100002.jpg"," ","","feedback_trial","2","","","","","","","","","","","","","","","","","","","","",""
"","","","","","image-keyboard-response","84","282518","0.0-59.0","5c10724111fe9a00013cd815","665500ab8938657b03fbdba8","66578095167444180ef3f52b","1830","stimuli/1000011.jpg","1","","prediction_trial","1","","true","","1","false","false","true","true","false","false","[1]","000","011","1","","","","","","",""
"","","","","","image-keyboard-response","85","283344","0.0-60.0","5c10724111fe9a00013cd815","665500ab8938657b03fbdba8","66578095167444180ef3f52b","825","stimuli/10000111.jpg"," ","","feedback_trial","1","","","","","","","","","","","","","","","","","","","","",""
"","","","","","image-keyboard-response","86","284578","0.0-61.0","5c10724111fe9a00013cd815","665500ab8938657b03fbdba8","66578095167444180ef3f52b","1232","stimuli/0110010.jpg","0","","prediction_trial","1","","false","","0","true","true","false","false","false","false","[0,1]","110","010","0","","","","","","",""
"","","","","","image-keyboard-response","87","285963","0.0-62.0","5c10724111fe9a00013cd815","665500ab8938657b03fbdba8","66578095167444180ef3f52b","1384","stimuli/01100101.jpg"," ","","feedback_trial","0","","","","","","","","","","","","","","","","","","","","",""
"","","","","","image-keyboard-response","88","287424","0.0-63.0","5c10724111fe9a00013cd815","665500ab8938657b03fbdba8","66578095167444180ef3f52b","1460","stimuli/2001101.jpg","1","","prediction_trial","2","","false","","2","false","false","false","true","false","false","[2]","001","101","0","","","","","","",""
"","","","","","image-keyboard-response","89","288606","0.0-64.0","5c10724111fe9a00013cd815","665500ab8938657b03fbdba8","66578095167444180ef3f52b","1181","stimuli/20011012.jpg"," ","","feedback_trial","2","","","","","","","","","","","","","","","","","","","","",""
"","","","","","image-keyboard-response","90","289968","0.0-65.0","5c10724111fe9a00013cd815","665500ab8938657b03fbdba8","66578095167444180ef3f52b","1361","stimuli/1101001.jpg","1","","prediction_trial","1","","true","","1","true","true","true","true","true","true","[1]","101","001","1","","","","","","",""
"","","","","","image-keyboard-response","91","290835","0.0-66.0","5c10724111fe9a00013cd815","665500ab8938657b03fbdba8","66578095167444180ef3f52b","866","stimuli/11010011.jpg"," ","","feedback_trial","1","","","","","","","","","","","","","","","","","","","","",""
"","","","","","image-keyboard-response","92","292021","0.0-67.0","5c10724111fe9a00013cd815","665500ab8938657b03fbdba8","66578095167444180ef3f52b","1184","stimuli/0101000.jpg","0","","prediction_trial","0","","true","","0","true","true","false","false","false","false","[2,0]","101","000","1","","","","","","",""
"","","","","","image-keyboard-response","93","292863","0.0-68.0","5c10724111fe9a00013cd815","665500ab8938657b03fbdba8","66578095167444180ef3f52b","841","stimuli/01010000.jpg"," ","","feedback_trial","2","","","","","","","","","","","","","","","","","","","","",""
"","","","","","image-keyboard-response","94","294374","0.0-69.0","5c10724111fe9a00013cd815","665500ab8938657b03fbdba8","66578095167444180ef3f52b","1510","stimuli/2011100.jpg","2","","prediction_trial","1","","false","","2","true","true","false","false","false","false","[2,1]","011","100","0","","","","","","",""
"","","","","","image-keyboard-response","95","295248","0.0-70.0","5c10724111fe9a00013cd815","665500ab8938657b03fbdba8","66578095167444180ef3f52b","872","stimuli/20111001.jpg"," ","","feedback_trial","2","","","","","","","","","","","","","","","","","","","","",""
"","","","","","image-keyboard-response","96","296595","0.0-71.0","5c10724111fe9a00013cd815","665500ab8938657b03fbdba8","66578095167444180ef3f52b","1345","stimuli/0010110.jpg","0","","prediction_trial","0","","true","","0","false","false","true","true","false","false","[0]","010","110","1","","","","","","",""
"","","","","","image-keyboard-response","97","297634","0.0-72.0","5c10724111fe9a00013cd815","665500ab8938657b03fbdba8","66578095167444180ef3f52b","1039","stimuli/00101100.jpg"," ","","feedback_trial","0","","","","","","","","","","","","","","","","","","","","",""
"","","","","","image-keyboard-response","98","299005","0.0-73.0","5c10724111fe9a00013cd815","665500ab8938657b03fbdba8","66578095167444180ef3f52b","1370","stimuli/2001110.jpg","2","","prediction_trial","2","","true","","2","true","true","false","true","false","true","[2]","001","110","1","","","","","","",""
"","","","","","image-keyboard-response","99","299843","0.0-74.0","5c10724111fe9a00013cd815","665500ab8938657b03fbdba8","66578095167444180ef3f52b","836","stimuli/20011102.jpg"," ","","feedback_trial","2","","","","","","","","","","","","","","","","","","","","",""
"","","","","","image-keyboard-response","100","301004","0.0-75.0","5c10724111fe9a00013cd815","665500ab8938657b03fbdba8","66578095167444180ef3f52b","1160","stimuli/1010011.jpg","0","","prediction_trial","1","","false","","1","false","false","false","true","false","false","[1]","010","011","0","","","","","","",""
"","","","","","image-keyboard-response","101","301866","0.0-76.0","5c10724111fe9a00013cd815","665500ab8938657b03fbdba8","66578095167444180ef3f52b","861","stimuli/10100111.jpg"," ","","feedback_trial","1","","","","","","","","","","","","","","","","","","","","",""
"","","","","","image-keyboard-response","102","303073","0.0-77.0","5c10724111fe9a00013cd815","665500ab8938657b03fbdba8","66578095167444180ef3f52b","1206","stimuli/0101001.jpg","0","","prediction_trial","2","","false","","0","true","true","false","false","false","false","[2,0]","101","001","0","","","","","","",""
"","","","","","image-keyboard-response","103","303849","0.0-78.0","5c10724111fe9a00013cd815","665500ab8938657b03fbdba8","66578095167444180ef3f52b","775","stimuli/01010012.jpg"," ","","feedback_trial","2","","","","","","","","","","","","","","","","","","","","",""
"","","","","","image-keyboard-response","104","305111","0.0-79.0","5c10724111fe9a00013cd815","665500ab8938657b03fbdba8","66578095167444180ef3f52b","1260","stimuli/1000010.jpg","2","","prediction_trial","1","","false","","1","false","true","true","true","false","true","[1]","000","010","0","","","","","","",""
"","","","","","image-keyboard-response","105","306199","0.0-80.0","5c10724111fe9a00013cd815","665500ab8938657b03fbdba8","66578095167444180ef3f52b","1086","stimuli/10000101.jpg"," ","","feedback_trial","1","","","","","","","","","","","","","","","","","","","","",""
"","","","","","image-keyboard-response","106","307356","0.0-81.0","5c10724111fe9a00013cd815","665500ab8938657b03fbdba8","66578095167444180ef3f52b","1155","stimuli/0011010.jpg","0","","prediction_trial","0","","true","","0","true","true","true","true","true","true","[0]","011","010","1","","","","","","",""
"","","","","","image-keyboard-response","107","308138","0.0-82.0","5c10724111fe9a00013cd815","665500ab8938657b03fbdba8","66578095167444180ef3f52b","781","stimuli/00110100.jpg"," ","","feedback_trial","0","","","","","","","","","","","","","","","","","","","","",""
"","","","","","image-keyboard-response","108","309339","0.0-83.0","5c10724111fe9a00013cd815","665500ab8938657b03fbdba8","66578095167444180ef3f52b","1200","stimuli/2110100.jpg","2","","prediction_trial","2","","true","","2","true","true","true","true","true","true","[2]","110","100","1","","","","","","",""
"","","","","","image-keyboard-response","109","310194","0.0-84.0","5c10724111fe9a00013cd815","665500ab8938657b03fbdba8","66578095167444180ef3f52b","855","stimuli/21101002.jpg"," ","","feedback_trial","2","","","","","","","","","","","","","","","","","","","","",""
"","","","","","image-keyboard-response","110","311906","0.0-85.0","5c10724111fe9a00013cd815","665500ab8938657b03fbdba8","66578095167444180ef3f52b","1710","stimuli/2111011.jpg","1","","prediction_trial","0","","false","","2","false","false","false","false","false","false","[2,0,1]","111","011","0","","","","","","",""
"","","","","","image-keyboard-response","111","312710","0.0-86.0","5c10724111fe9a00013cd815","665500ab8938657b03fbdba8","66578095167444180ef3f52b","803","stimuli/21110110.jpg"," ","","feedback_trial","2","","","","","","","","","","","","","","","","","","","","",""
"","","","","","image-keyboard-response","112","313885","0.0-87.0","5c10724111fe9a00013cd815","665500ab8938657b03fbdba8","66578095167444180ef3f52b","1173","stimuli/2001100.jpg","2","","prediction_trial","2","","true","","2","true","true","false","true","false","true","[2]","001","100","1","","","","","","",""
"","","","","","image-keyboard-response","113","314688","0.0-88.0","5c10724111fe9a00013cd815","665500ab8938657b03fbdba8","66578095167444180ef3f52b","802","stimuli/20011002.jpg"," ","","feedback_trial","2","","","","","","","","","","","","","","","","","","","","",""
"","","","","","image-keyboard-response","114","315844","0.0-89.0","5c10724111fe9a00013cd815","665500ab8938657b03fbdba8","66578095167444180ef3f52b","1154","stimuli/0011000.jpg","0","","prediction_trial","0","","true","","0","true","true","true","true","true","true","[0]","011","000","1","","","","","","",""
"","","","","","image-keyboard-response","115","316690","0.0-90.0","5c10724111fe9a00013cd815","665500ab8938657b03fbdba8","66578095167444180ef3f52b","845","stimuli/00110000.jpg"," ","","feedback_trial","0","","","","","","","","","","","","","","","","","","","","",""
"","","","","","image-keyboard-response","116","317906","0.0-91.0","5c10724111fe9a00013cd815","665500ab8938657b03fbdba8","66578095167444180ef3f52b","1215","stimuli/1101000.jpg","1","","prediction_trial","1","","true","","1","true","true","true","true","true","true","[1]","101","000","1","","","","","","",""
"","","","","","image-keyboard-response","117","318744","0.0-92.0","5c10724111fe9a00013cd815","665500ab8938657b03fbdba8","66578095167444180ef3f52b","837","stimuli/11010001.jpg"," ","","feedback_trial","1","","","","","","","","","","","","","","","","","","","","",""
"","","","","","image-keyboard-response","118","319990","0.0-93.0","5c10724111fe9a00013cd815","665500ab8938657b03fbdba8","66578095167444180ef3f52b","1244","stimuli/0111101.jpg","2","","prediction_trial","2","","true","","0","false","false","false","false","false","false","[1,2,0]","111","101","1","","","","","","",""
"","","","","","image-keyboard-response","119","320822","0.0-94.0","5c10724111fe9a00013cd815","665500ab8938657b03fbdba8","66578095167444180ef3f52b","831","stimuli/01111012.jpg"," ","","feedback_trial","1","","","","","","","","","","","","","","","","","","","","",""
"","","","","","image-keyboard-response","120","322069","0.0-95.0","5c10724111fe9a00013cd815","665500ab8938657b03fbdba8","66578095167444180ef3f52b","1245","stimuli/1001101.jpg","1","","prediction_trial","1","","true","","1","true","true","true","true","true","true","[1]","001","101","1","","","","","","",""
"","","","","","image-keyboard-response","121","322870","0.0-96.0","5c10724111fe9a00013cd815","665500ab8938657b03fbdba8","66578095167444180ef3f52b","800","stimuli/10011011.jpg"," ","","feedback_trial","1","","","","","","","","","","","","","","","","","","","","",""
"","","","","","image-keyboard-response","122","323992","0.0-97.0","5c10724111fe9a00013cd815","665500ab8938657b03fbdba8","66578095167444180ef3f52b","1121","stimuli/1001110.jpg","0","","prediction_trial","1","","false","","1","false","false","true","true","false","false","[1]","001","110","0","","","","","","",""
"","","","","","image-keyboard-response","123","324834","0.0-98.0","5c10724111fe9a00013cd815","665500ab8938657b03fbdba8","66578095167444180ef3f52b","841","stimuli/10011101.jpg"," ","","feedback_trial","1","","","","","","","","","","","","","","","","","","","","",""
"","","","","","image-keyboard-response","124","326081","0.0-99.0","5c10724111fe9a00013cd815","665500ab8938657b03fbdba8","66578095167444180ef3f52b","1246","stimuli/2111101.jpg","2","","prediction_trial","2","","true","","2","false","false","false","false","false","false","[2,0,1]","111","101","1","","","","","","",""
"","","","","","image-keyboard-response","125","327003","0.0-100.0","5c10724111fe9a00013cd815","665500ab8938657b03fbdba8","66578095167444180ef3f52b","920","stimuli/21111012.jpg"," ","","feedback_trial","2","","","","","","","","","","","","","","","","","","","","",""
"","","","","","image-keyboard-response","126","327869","0.0-101.0","5c10724111fe9a00013cd815","665500ab8938657b03fbdba8","66578095167444180ef3f52b","864","stimuli/0101111.jpg","0","","prediction_trial","0","","true","","0","false","false","false","false","false","false","[0,2]","101","111","1","","","","","","",""
"","","","","","image-keyboard-response","127","328658","0.0-102.0","5c10724111fe9a00013cd815","665500ab8938657b03fbdba8","66578095167444180ef3f52b","787","stimuli/01011110.jpg"," ","","feedback_trial","0","","","","","","","","","","","","","","","","","","","","",""
"","","","","","image-keyboard-response","128","329923","0.0-103.0","5c10724111fe9a00013cd815","665500ab8938657b03fbdba8","66578095167444180ef3f52b","1264","stimuli/0110111.jpg","1","","prediction_trial","1","","true","","0","false","false","false","false","false","false","[0,1]","110","111","1","","","","","","",""
"","","","","","image-keyboard-response","129","330731","0.0-104.0","5c10724111fe9a00013cd815","665500ab8938657b03fbdba8","66578095167444180ef3f52b","807","stimuli/01101111.jpg"," ","","feedback_trial","0","","","","","","","","","","","","","","","","","","","","",""
"","","","","","image-keyboard-response","130","332311","0.0-105.0","5c10724111fe9a00013cd815","665500ab8938657b03fbdba8","66578095167444180ef3f52b","1579","stimuli/1001100.jpg","1","","prediction_trial","1","","true","","1","true","true","true","true","true","true","[1]","001","100","1","","","","","","",""
"","","","","","image-keyboard-response","131","333160","0.0-106.0","5c10724111fe9a00013cd815","665500ab8938657b03fbdba8","66578095167444180ef3f52b","847","stimuli/10011001.jpg"," ","","feedback_trial","1","","","","","","","","","","","","","","","","","","","","",""
"","","","","","image-keyboard-response","132","334236","0.0-107.0","5c10724111fe9a00013cd815","665500ab8938657b03fbdba8","66578095167444180ef3f52b","1075","stimuli/0100101.jpg","2","","prediction_trial","0","","false","","0","false","false","false","true","false","false","[0]","100","101","0","","","","","","",""
"","","","","","image-keyboard-response","133","335143","0.0-108.0","5c10724111fe9a00013cd815","665500ab8938657b03fbdba8","66578095167444180ef3f52b","906","stimuli/01001010.jpg"," ","","feedback_trial","0","","","","","","","","","","","","","","","","","","","","",""
"","","","","","image-keyboard-response","134","336024","0.0-109.0","5c10724111fe9a00013cd815","665500ab8938657b03fbdba8","66578095167444180ef3f52b","880","stimuli/0101011.jpg","0","","prediction_trial","0","","true","","0","true","true","false","false","false","false","[0,2]","101","011","1","","","","","","",""
"","","","","","image-keyboard-response","135","336851","0.0-110.0","5c10724111fe9a00013cd815","665500ab8938657b03fbdba8","66578095167444180ef3f52b","826","stimuli/01010110.jpg"," ","","feedback_trial","0","","","","","","","","","","","","","","","","","","","","",""
"","","","","","image-keyboard-response","136","337967","0.0-111.0","5c10724111fe9a00013cd815","665500ab8938657b03fbdba8","66578095167444180ef3f52b","1114","stimuli/0000101.jpg","2","","prediction_trial","0","","false","","0","false","false","true","true","false","false","[0]","000","101","0","","","","","","",""
"","","","","","image-keyboard-response","137","338895","0.0-112.0","5c10724111fe9a00013cd815","665500ab8938657b03fbdba8","66578095167444180ef3f52b","927","stimuli/00001010.jpg"," ","","feedback_trial","0","","","","","","","","","","","","","","","","","","","","",""
"","","","","","image-keyboard-response","138","340449","0.0-113.0","5c10724111fe9a00013cd815","665500ab8938657b03fbdba8","66578095167444180ef3f52b","1553","stimuli/1000100.jpg","1","","prediction_trial","1","","true","","1","true","true","true","true","true","true","[1]","000","100","1","","","","","","",""
"","","","","","image-keyboard-response","139","341628","0.0-114.0","5c10724111fe9a00013cd815","665500ab8938657b03fbdba8","66578095167444180ef3f52b","1178","stimuli/10001001.jpg"," ","","feedback_trial","1","","","","","","","","","","","","","","","","","","","","",""
"","","","","","image-keyboard-response","140","342889","0.0-115.0","5c10724111fe9a00013cd815","665500ab8938657b03fbdba8","66578095167444180ef3f52b","1260","stimuli/2101000.jpg","2","","prediction_trial","0","","false","","2","true","true","false","false","false","false","[0,2]","101","000","0","","","","","","",""
"","","","","","image-keyboard-response","141","343891","0.0-116.0","5c10724111fe9a00013cd815","665500ab8938657b03fbdba8","66578095167444180ef3f52b","1001","stimuli/21010000.jpg"," ","","feedback_trial","0","","","","","","","","","","","","","","","","","","","","",""
"","","","","","image-keyboard-response","142","344899","0.0-117.0","5c10724111fe9a00013cd815","665500ab8938657b03fbdba8","66578095167444180ef3f52b","1006","stimuli/2000100.jpg","2","","prediction_trial","2","","true","","2","true","true","true","true","true","true","[2]","000","100","1","","","","","","",""
"","","","","","image-keyboard-response","143","345840","0.0-118.0","5c10724111fe9a00013cd815","665500ab8938657b03fbdba8","66578095167444180ef3f52b","939","stimuli/20001002.jpg"," ","","feedback_trial","2","","","","","","","","","","","","","","","","","","","","",""
"","","","","","image-keyboard-response","144","347260","0.0-119.0","5c10724111fe9a00013cd815","665500ab8938657b03fbdba8","66578095167444180ef3f52b","1418","stimuli/1110110.jpg","1","","prediction_trial","1","","true","","1","false","false","false","false","false","false","[1,0]","110","110","1","","","","","","",""
"","","","","","image-keyboard-response","145","348084","0.0-120.0","5c10724111fe9a00013cd815","665500ab8938657b03fbdba8","66578095167444180ef3f52b","823","stimuli/11101101.jpg"," ","","feedback_trial","1","","","","","","","","","","","","","","","","","","","","",""
"","","","","","image-keyboard-response","146","349144","0.0-121.0","5c10724111fe9a00013cd815","665500ab8938657b03fbdba8","66578095167444180ef3f52b","1059","stimuli/1011011.jpg","0","","prediction_trial","2","","false","","1","false","false","false","false","false","false","[1,2]","011","011","0","","","","","","",""
"","","","","","image-keyboard-response","147","349918","0.0-122.0","5c10724111fe9a00013cd815","665500ab8938657b03fbdba8","66578095167444180ef3f52b","772","stimuli/10110112.jpg"," ","","feedback_trial","1","","","","","","","","","","","","","","","","","","","","",""
"","","","","","image-keyboard-response","148","351602","0.0-123.0","5c10724111fe9a00013cd815","665500ab8938657b03fbdba8","66578095167444180ef3f52b","1673","stimuli/1011110.jpg","1","","prediction_trial","1","","true","","1","false","false","false","false","false","false","[1,2]","011","110","1","","","","","","",""
"","","","","","image-keyboard-response","149","352799","0.0-124.0","5c10724111fe9a00013cd815","665500ab8938657b03fbdba8","66578095167444180ef3f52b","1196","stimuli/10111101.jpg"," ","","feedback_trial","1","","","","","","","","","","","","","","","","","","","","",""
"","","","","","image-keyboard-response","150","353906","0.0-125.0","5c10724111fe9a00013cd815","665500ab8938657b03fbdba8","66578095167444180ef3f52b","1106","stimuli/0111000.jpg","0","","prediction_trial","1","","false","","0","true","true","false","false","false","false","[0,1,2]","111","000","0","","","","","","",""
"","","","","","image-keyboard-response","151","354667","0.0-126.0","5c10724111fe9a00013cd815","665500ab8938657b03fbdba8","66578095167444180ef3f52b","760","stimuli/01110001.jpg"," ","","feedback_trial","0","","","","","","","","","","","","","","","","","","","","",""
"","","","","","image-keyboard-response","152","355704","0.0-127.0","5c10724111fe9a00013cd815","665500ab8938657b03fbdba8","66578095167444180ef3f52b","1036","stimuli/1100100.jpg","1","","prediction_trial","1","","true","","1","true","true","true","true","true","true","[1]","100","100","1","","","","","","",""
"","","","","","image-keyboard-response","153","356431","0.0-128.0","5c10724111fe9a00013cd815","665500ab8938657b03fbdba8","66578095167444180ef3f52b","726","stimuli/11001001.jpg"," ","","feedback_trial","1","","","","","","","","","","","","","","","","","","","","",""
"","","","","","image-keyboard-response","154","357553","0.0-129.0","5c10724111fe9a00013cd815","665500ab8938657b03fbdba8","66578095167444180ef3f52b","1120","stimuli/1110000.jpg","1","","prediction_trial","1","","true","","1","true","true","false","false","false","false","[1,0]","110","000","1","","","","","","",""
"","","","","","image-keyboard-response","155","358390","0.0-130.0","5c10724111fe9a00013cd815","665500ab8938657b03fbdba8","66578095167444180ef3f52b","835","stimuli/11100001.jpg"," ","","feedback_trial","1","","","","","","","","","","","","","","","","","","","","",""
"","","","","","image-keyboard-response","156","359512","0.0-131.0","5c10724111fe9a00013cd815","665500ab8938657b03fbdba8","66578095167444180ef3f52b","1121","stimuli/2100011.jpg","2","","prediction_trial","2","","true","","2","false","false","true","true","false","false","[2]","100","011","1","","","","","","",""
"","","","","","image-keyboard-response","157","360383","0.0-132.0","5c10724111fe9a00013cd815","665500ab8938657b03fbdba8","66578095167444180ef3f52b","870","stimuli/21000112.jpg"," ","","feedback_trial","2","","","","","","","","","","","","","","","","","","","","",""
"","","","","","image-keyboard-response","158","361516","0.0-133.0","5c10724111fe9a00013cd815","665500ab8938657b03fbdba8","66578095167444180ef3f52b","1132","stimuli/0100111.jpg","1","","prediction_trial","0","","false","","0","false","false","false","true","false","false","[0]","100","111","0","","","","","","",""
"","","","","","image-keyboard-response","159","362298","0.0-134.0","5c10724111fe9a00013cd815","665500ab8938657b03fbdba8","66578095167444180ef3f52b","781","stimuli/01001110.jpg"," ","","feedback_trial","0","","","","","","","","","","","","","","","","","","","","",""
"","","","","","image-keyboard-response","160","363609","0.0-135.0","5c10724111fe9a00013cd815","665500ab8938657b03fbdba8","66578095167444180ef3f52b","1309","stimuli/2101011.jpg","2","","prediction_trial","2","","true","","2","false","false","false","false","false","false","[0,2]","101","011","1","","","","","","",""
"","","","","","image-keyboard-response","161","364456","0.0-136.0","5c10724111fe9a00013cd815","665500ab8938657b03fbdba8","66578095167444180ef3f52b","845","stimuli/21010112.jpg"," ","","feedback_trial","0","","","","","","","","","","","","","","","","","","","","",""
"","","","","","image-keyboard-response","162","365958","0.0-137.0","5c10724111fe9a00013cd815","665500ab8938657b03fbdba8","66578095167444180ef3f52b","1501","stimuli/2111001.jpg","2","","prediction_trial","1","","false","","2","false","true","false","false","false","false","[0,2,1]","111","001","0","","","","","","",""
"","","","","","image-keyboard-response","163","366778","0.0-138.0","5c10724111fe9a00013cd815","665500ab8938657b03fbdba8","66578095167444180ef3f52b","818","stimuli/21110011.jpg"," ","","feedback_trial","0","","","","","","","","","","","","","","","","","","","","",""
"","","","","","image-keyboard-response","164","368002","0.0-139.0","5c10724111fe9a00013cd815","665500ab8938657b03fbdba8","66578095167444180ef3f52b","1222","stimuli/2011000.jpg","2","","prediction_trial","2","","true","","2","true","true","false","false","false","false","[2,1]","011","000","1","","","","","","",""
"","","","","","image-keyboard-response","165","368827","0.0-140.0","5c10724111fe9a00013cd815","665500ab8938657b03fbdba8","66578095167444180ef3f52b","824","stimuli/20110002.jpg"," ","","feedback_trial","2","","","","","","","","","","","","","","","","","","","","",""
"","","","","","image-keyboard-response","166","370209","0.0-141.0","5c10724111fe9a00013cd815","665500ab8938657b03fbdba8","66578095167444180ef3f52b","1381","stimuli/1110100.jpg","1","","prediction_trial","0","","false","","1","true","true","false","false","false","false","[0,1]","110","100","0","","","","","","",""
"","","","","","image-keyboard-response","167","371090","0.0-142.0","5c10724111fe9a00013cd815","665500ab8938657b03fbdba8","66578095167444180ef3f52b","880","stimuli/11101000.jpg"," ","","feedback_trial","0","","","","","","","","","","","","","","","","","","","","",""
"","","","","","image-keyboard-response","168","372490","0.0-143.0","5c10724111fe9a00013cd815","665500ab8938657b03fbdba8","66578095167444180ef3f52b","1398","stimuli/1110011.jpg","1","","prediction_trial","0","","false","","1","false","false","false","false","false","false","[1,0]","110","011","0","","","","","","",""
"","","","","","image-keyboard-response","169","373309","0.0-144.0","5c10724111fe9a00013cd815","665500ab8938657b03fbdba8","66578095167444180ef3f52b","817","stimuli/11100110.jpg"," ","","feedback_trial","1","","","","","","","","","","","","","","","","","","","","",""
"","","","","","image-keyboard-response","170","374356","0.0-145.0","5c10724111fe9a00013cd815","665500ab8938657b03fbdba8","66578095167444180ef3f52b","1036","stimuli/0100100.jpg","2","","prediction_trial","0","","false","","0","false","true","false","true","false","true","[0]","100","100","0","","","","","","",""
"","","","","","image-keyboard-response","171","375188","0.0-146.0","5c10724111fe9a00013cd815","665500ab8938657b03fbdba8","66578095167444180ef3f52b","830","stimuli/01001000.jpg"," ","","feedback_trial","0","","","","","","","","","","","","","","","","","","","","",""
"","","","","","image-keyboard-response","172","376282","0.0-147.0","5c10724111fe9a00013cd815","665500ab8938657b03fbdba8","66578095167444180ef3f52b","1093","stimuli/2000001.jpg","0","","prediction_trial","2","","false","","2","false","true","true","true","false","true","[2]","000","001","0","","","","","","",""
"","","","","","image-keyboard-response","173","377071","0.0-148.0","5c10724111fe9a00013cd815","665500ab8938657b03fbdba8","66578095167444180ef3f52b","787","stimuli/20000012.jpg"," ","","feedback_trial","2","","","","","","","","","","","","","","","","","","","","",""
"","","","","","image-keyboard-response","174","378154","0.0-149.0","5c10724111fe9a00013cd815","665500ab8938657b03fbdba8","66578095167444180ef3f52b","1082","stimuli/2111100.jpg","2","","prediction_trial","0","","false","","2","true","true","false","false","false","false","[1,0,2]","111","100","0","","","","","","",""
"","","","","","image-keyboard-response","175","379442","0.0-150.0","5c10724111fe9a00013cd815","665500ab8938657b03fbdba8","66578095167444180ef3f52b","1286","stimuli/21111000.jpg"," ","","feedback_trial","1","","","","","","","","","","","","","","","","","","","","",""
"","","","","","image-keyboard-response","176","380478","0.0-151.0","5c10724111fe9a00013cd815","665500ab8938657b03fbdba8","66578095167444180ef3f52b","1034","stimuli/0010011.jpg","0","","prediction_trial","0","","true","","0","true","true","true","true","true","true","[0]","010","011","1","","","","","","",""
"","","","","","image-keyboard-response","177","381268","0.0-152.0","5c10724111fe9a00013cd815","665500ab8938657b03fbdba8","66578095167444180ef3f52b","790","stimuli/00100110.jpg"," ","","feedback_trial","0","","","","","","","","","","","","","","","","","","","","",""
"","","","","","image-keyboard-response","178","382925","0.0-153.0","5c10724111fe9a00013cd815","665500ab8938657b03fbdba8","66578095167444180ef3f52b","1655","stimuli/0001011.jpg","1","","prediction_trial","0","","false","","0","true","true","true","true","true","true","[0]","001","011","0","","","","","","",""
"","","","","","image-keyboard-response","179","383703","0.0-154.0","5c10724111fe9a00013cd815","665500ab8938657b03fbdba8","66578095167444180ef3f52b","777","stimuli/00010110.jpg"," ","","feedback_trial","0","","","","","","","","","","","","","","","","","","","","",""
"","","","","","image-keyboard-response","180","384895","0.0-155.0","5c10724111fe9a00013cd815","665500ab8938657b03fbdba8","66578095167444180ef3f52b","1191","stimuli/1101111.jpg","2","","prediction_trial","1","","false","","1","false","false","true","true","false","false","[1]","101","111","0","","","","","","",""
"","","","","","image-keyboard-response","181","385816","0.0-156.0","5c10724111fe9a00013cd815","665500ab8938657b03fbdba8","66578095167444180ef3f52b","919","stimuli/11011111.jpg"," ","","feedback_trial","1","","","","","","","","","","","","","","","","","","","","",""
"","","","","","image-keyboard-response","182","386978","0.0-157.0","5c10724111fe9a00013cd815","665500ab8938657b03fbdba8","66578095167444180ef3f52b","1161","stimuli/0000001.jpg","0","","prediction_trial","0","","true","","0","true","true","true","true","true","true","[0]","000","001","1","","","","","","",""
"","","","","","image-keyboard-response","183","387865","0.0-158.0","5c10724111fe9a00013cd815","665500ab8938657b03fbdba8","66578095167444180ef3f52b","885","stimuli/00000010.jpg"," ","","feedback_trial","0","","","","","","","","","","","","","","","","","","","","",""
"","","","","","image-keyboard-response","184","388976","0.0-159.0","5c10724111fe9a00013cd815","665500ab8938657b03fbdba8","66578095167444180ef3f52b","1110","stimuli/2010010.jpg","2","","prediction_trial","2","","true","","2","true","true","true","true","true","true","[2]","010","010","1","","","","","","",""
"","","","","","image-keyboard-response","185","389833","0.0-160.0","5c10724111fe9a00013cd815","665500ab8938657b03fbdba8","66578095167444180ef3f52b","856","stimuli/20100102.jpg"," ","","feedback_trial","2","","","","","","","","","","","","","","","","","","","","",""
"","","","","","image-keyboard-response","186","391318","0.0-161.0","5c10724111fe9a00013cd815","665500ab8938657b03fbdba8","66578095167444180ef3f52b","1484","stimuli/2011101.jpg","2","","prediction_trial","1","","false","","2","false","false","false","false","false","false","[1,2]","011","101","0","","","","","","",""
"","","","","","image-keyboard-response","187","392136","0.0-162.0","5c10724111fe9a00013cd815","665500ab8938657b03fbdba8","66578095167444180ef3f52b","817","stimuli/20111011.jpg"," ","","feedback_trial","1","","","","","","","","","","","","","","","","","","","","",""
"","","","","","image-keyboard-response","188","393443","0.0-163.0","5c10724111fe9a00013cd815","665500ab8938657b03fbdba8","66578095167444180ef3f52b","1305","stimuli/1001011.jpg","0","","prediction_trial","1","","false","","1","false","false","true","true","false","false","[1]","001","011","0","","","","","","",""
"","","","","","image-keyboard-response","189","394210","0.0-164.0","5c10724111fe9a00013cd815","665500ab8938657b03fbdba8","66578095167444180ef3f52b","767","stimuli/10010111.jpg"," ","","feedback_trial","1","","","","","","","","","","","","","","","","","","","","",""
"","","","","","image-keyboard-response","190","395797","0.0-165.0","5c10724111fe9a00013cd815","665500ab8938657b03fbdba8","66578095167444180ef3f52b","1586","stimuli/1010110.jpg","1","","prediction_trial","1","","true","","1","false","false","false","true","false","false","[1]","010","110","1","","","","","","",""
"","","","","","image-keyboard-response","191","396629","0.0-166.0","5c10724111fe9a00013cd815","665500ab8938657b03fbdba8","66578095167444180ef3f52b","831","stimuli/10101101.jpg"," ","","feedback_trial","1","","","","","","","","","","","","","","","","","","","","",""
"","","","","","image-keyboard-response","192","397790","0.0-167.0","5c10724111fe9a00013cd815","665500ab8938657b03fbdba8","66578095167444180ef3f52b","1153","stimuli/2011010.jpg","2","","prediction_trial","2","","true","","2","true","true","false","false","false","false","[2,1]","011","010","1","","","","","","",""
"","","","","","image-keyboard-response","193","398617","0.0-168.0","5c10724111fe9a00013cd815","665500ab8938657b03fbdba8","66578095167444180ef3f52b","826","stimuli/20110102.jpg"," ","","feedback_trial","2","","","","","","","","","","","","","","","","","","","","",""
"","","","","","image-keyboard-response","194","400178","0.0-169.0","5c10724111fe9a00013cd815","665500ab8938657b03fbdba8","66578095167444180ef3f52b","1559","stimuli/2100001.jpg","2","","prediction_trial","2","","true","","2","false","true","true","true","false","true","[2]","100","001","1","","","","","","",""
"","","","","","image-keyboard-response","195","401005","0.0-170.0","5c10724111fe9a00013cd815","665500ab8938657b03fbdba8","66578095167444180ef3f52b","826","stimuli/21000012.jpg"," ","","feedback_trial","2","","","","","","","","","","","","","","","","","","","","",""
"","","","","","image-keyboard-response","196","402582","0.0-171.0","5c10724111fe9a00013cd815","665500ab8938657b03fbdba8","66578095167444180ef3f52b","1576","stimuli/2001011.jpg","1","","prediction_trial","2","","false","","2","false","false","false","true","false","false","[2]","001","011","0","","","","","","",""
"","","","","","image-keyboard-response","197","403344","0.0-172.0","5c10724111fe9a00013cd815","665500ab8938657b03fbdba8","66578095167444180ef3f52b","761","stimuli/20010112.jpg"," ","","feedback_trial","2","","","","","","","","","","","","","","","","","","","","",""
"","","","","","image-keyboard-response","198","404390","0.0-173.0","5c10724111fe9a00013cd815","665500ab8938657b03fbdba8","66578095167444180ef3f52b","1045","stimuli/0100000.jpg","0","","prediction_trial","0","","true","","0","true","true","false","true","false","true","[0]","100","000","1","","","","","","",""
"","","","","","image-keyboard-response","199","405087","0.0-174.0","5c10724111fe9a00013cd815","665500ab8938657b03fbdba8","66578095167444180ef3f52b","695","stimuli/01000000.jpg"," ","","feedback_trial","0","","","","","","","","","","","","","","","","","","","","",""
"","","","","","image-keyboard-response","200","407013","0.0-175.0","5c10724111fe9a00013cd815","665500ab8938657b03fbdba8","66578095167444180ef3f52b","1925","stimuli/2000000.jpg","2","","prediction_trial","2","","true","","2","true","true","true","true","true","true","[2]","000","000","1","","","","","","",""
"","","","","","image-keyboard-response","201","408700","0.0-176.0","5c10724111fe9a00013cd815","665500ab8938657b03fbdba8","66578095167444180ef3f52b","1686","stimuli/20000002.jpg"," ","","feedback_trial","2","","","","","","","","","","","","","","","","","","","","",""
"","","","","","image-keyboard-response","202","410082","0.0-177.0","5c10724111fe9a00013cd815","665500ab8938657b03fbdba8","66578095167444180ef3f52b","1381","stimuli/2110110.jpg","2","","prediction_trial","2","","true","","2","true","true","true","true","true","true","[2]","110","110","1","","","","","","",""
"","","","","","image-keyboard-response","203","411034","0.0-178.0","5c10724111fe9a00013cd815","665500ab8938657b03fbdba8","66578095167444180ef3f52b","950","stimuli/21101102.jpg"," ","","feedback_trial","2","","","","","","","","","","","","","","","","","","","","",""
"","","","","","image-keyboard-response","204","412090","0.0-179.0","5c10724111fe9a00013cd815","665500ab8938657b03fbdba8","66578095167444180ef3f52b","1055","stimuli/2100110.jpg","2","","prediction_trial","2","","true","","2","true","true","true","true","true","true","[2]","100","110","1","","","","","","",""
"","","","","","image-keyboard-response","205","412953","0.0-180.0","5c10724111fe9a00013cd815","665500ab8938657b03fbdba8","66578095167444180ef3f52b","862","stimuli/21001102.jpg"," ","","feedback_trial","2","","","","","","","","","","","","","","","","","","","","",""
"","","","","","image-keyboard-response","206","414719","0.0-181.0","5c10724111fe9a00013cd815","665500ab8938657b03fbdba8","66578095167444180ef3f52b","1765","stimuli/2110001.jpg","2","","prediction_trial","2","","true","","2","false","true","true","true","false","true","[2]","110","001","1","","","","","","",""
"","","","","","image-keyboard-response","207","415581","0.0-182.0","5c10724111fe9a00013cd815","665500ab8938657b03fbdba8","66578095167444180ef3f52b","861","stimuli/21100012.jpg"," ","","feedback_trial","2","","","","","","","","","","","","","","","","","","","","",""
"","","","","","image-keyboard-response","208","416858","0.0-183.0","5c10724111fe9a00013cd815","665500ab8938657b03fbdba8","66578095167444180ef3f52b","1275","stimuli/0111111.jpg","1","","prediction_trial","2","","false","","0","false","false","false","false","false","false","[1,0,2]","111","111","0","","","","","","",""
"","","","","","image-keyboard-response","209","417714","0.0-184.0","5c10724111fe9a00013cd815","665500ab8938657b03fbdba8","66578095167444180ef3f52b","855","stimuli/01111112.jpg"," ","","feedback_trial","1","","","","","","","","","","","","","","","","","","","","",""
"","","","","","image-keyboard-response","210","418756","0.0-185.0","5c10724111fe9a00013cd815","665500ab8938657b03fbdba8","66578095167444180ef3f52b","1041","stimuli/2001111.jpg","0","","prediction_trial","2","","false","","2","false","false","false","true","false","false","[2]","001","111","0","","","","","","",""
"","","","","","image-keyboard-response","211","419529","0.0-186.0","5c10724111fe9a00013cd815","665500ab8938657b03fbdba8","66578095167444180ef3f52b","772","stimuli/20011112.jpg"," ","","feedback_trial","2","","","","","","","","","","","","","","","","","","","","",""
"","","","","","image-keyboard-response","212","420915","0.0-187.0","5c10724111fe9a00013cd815","665500ab8938657b03fbdba8","66578095167444180ef3f52b","1385","stimuli/0110011.jpg","0","","prediction_trial","1","","false","","0","true","true","false","false","false","false","[1,0]","110","011","0","","","","","","",""
"","","","","","image-keyboard-response","213","421693","0.0-188.0","5c10724111fe9a00013cd815","665500ab8938657b03fbdba8","66578095167444180ef3f52b","777","stimuli/01100111.jpg"," ","","feedback_trial","1","","","","","","","","","","","","","","","","","","","","",""
"","","","","","image-keyboard-response","214","422849","0.0-189.0","5c10724111fe9a00013cd815","665500ab8938657b03fbdba8","66578095167444180ef3f52b","1144","stimuli/2101110.jpg","2","","prediction_trial","2","","true","","2","true","true","false","false","false","false","[0,2]","101","110","1","","","","","","",""
"","","","","","image-keyboard-response","215","423721","0.0-190.0","5c10724111fe9a00013cd815","665500ab8938657b03fbdba8","66578095167444180ef3f52b","870","stimuli/21011102.jpg"," ","","feedback_trial","0","","","","","","","","","","","","","","","","","","","","",""
"","","","","","image-keyboard-response","216","424818","0.0-191.0","5c10724111fe9a00013cd815","665500ab8938657b03fbdba8","66578095167444180ef3f52b","1096","stimuli/2010110.jpg","2","","prediction_trial","2","","true","","2","true","true","true","true","true","true","[2]","010","110","1","","","","","","",""
"","","","","","image-keyboard-response","217","425619","0.0-192.0","5c10724111fe9a00013cd815","665500ab8938657b03fbdba8","66578095167444180ef3f52b","799","stimuli/20101102.jpg"," ","","feedback_trial","2","","","","","","","","","","","","","","","","","","","","",""
"","","","","","image-keyboard-response","218","426947","0.0-193.0","5c10724111fe9a00013cd815","665500ab8938657b03fbdba8","66578095167444180ef3f52b","1327","stimuli/2101101.jpg","2","","prediction_trial","2","","true","","2","false","false","false","false","false","false","[2,0]","101","101","1","","","","","","",""
"","","","","","image-keyboard-response","219","427768","0.0-194.0","5c10724111fe9a00013cd815","665500ab8938657b03fbdba8","66578095167444180ef3f52b","820","stimuli/21011012.jpg"," ","","feedback_trial","2","","","","","","","","","","","","","","","","","","","","",""
"","","","","","image-keyboard-response","220","429061","0.0-195.0","5c10724111fe9a00013cd815","665500ab8938657b03fbdba8","66578095167444180ef3f52b","1291","stimuli/1011001.jpg","1","","prediction_trial","2","","false","","1","true","true","false","false","false","false","[2,1]","011","001","0","","","","","","",""
"","","","","","image-keyboard-response","221","429907","0.0-196.0","5c10724111fe9a00013cd815","665500ab8938657b03fbdba8","66578095167444180ef3f52b","845","stimuli/10110012.jpg"," ","","feedback_trial","2","","","","","","","","","","","","","","","","","","","","",""
"","","","","","image-keyboard-response","222","431012","0.0-197.0","5c10724111fe9a00013cd815","665500ab8938657b03fbdba8","66578095167444180ef3f52b","1103","stimuli/0011100.jpg","0","","prediction_trial","0","","true","","0","false","true","true","true","false","true","[0]","011","100","1","","","","","","",""
"","","","","","image-keyboard-response","223","431872","0.0-198.0","5c10724111fe9a00013cd815","665500ab8938657b03fbdba8","66578095167444180ef3f52b","857","stimuli/00111000.jpg"," ","","feedback_trial","0","","","","","","","","","","","","","","","","","","","","",""
"","","","","","image-keyboard-response","224","433181","0.0-199.0","5c10724111fe9a00013cd815","665500ab8938657b03fbdba8","66578095167444180ef3f52b","1307","stimuli/1111100.jpg","1","","prediction_trial","1","","true","","1","true","true","false","false","false","false","[0,2,1]","111","100","1","","","","","","",""
"","","","","","image-keyboard-response","225","434004","0.0-200.0","5c10724111fe9a00013cd815","665500ab8938657b03fbdba8","66578095167444180ef3f52b","821","stimuli/11111001.jpg"," ","","feedback_trial","0","","","","","","","","","","","","","","","","","","","","",""
"","","","","","image-keyboard-response","226","435285","0.0-201.0","5c10724111fe9a00013cd815","665500ab8938657b03fbdba8","66578095167444180ef3f52b","1280","stimuli/1011101.jpg","1","","prediction_trial","1","","true","","1","true","true","false","false","false","false","[2,1]","011","101","1","","","","","","",""
"","","","","","image-keyboard-response","227","436073","0.0-202.0","5c10724111fe9a00013cd815","665500ab8938657b03fbdba8","66578095167444180ef3f52b","787","stimuli/10111011.jpg"," ","","feedback_trial","2","","","","","","","","","","","","","","","","","","","","",""
"","","","","","image-keyboard-response","228","437465","0.0-203.0","5c10724111fe9a00013cd815","665500ab8938657b03fbdba8","66578095167444180ef3f52b","1390","stimuli/1011010.jpg","2","","prediction_trial","1","","false","","1","false","true","false","false","false","false","[2,1]","011","010","0","","","","","","",""
"","","","","","image-keyboard-response","229","438417","0.0-204.0","5c10724111fe9a00013cd815","665500ab8938657b03fbdba8","66578095167444180ef3f52b","949","stimuli/10110101.jpg"," ","","feedback_trial","2","","","","","","","","","","","","","","","","","","","","",""
"","","","","","image-keyboard-response","230","440079","0.0-205.0","5c10724111fe9a00013cd815","665500ab8938657b03fbdba8","66578095167444180ef3f52b","1660","stimuli/0111001.jpg","0","","prediction_trial","0","","true","","0","true","true","false","false","false","false","[0,2,1]","111","001","1","","","","","","",""
"","","","","","image-keyboard-response","231","440914","0.0-206.0","5c10724111fe9a00013cd815","665500ab8938657b03fbdba8","66578095167444180ef3f52b","834","stimuli/01110010.jpg"," ","","feedback_trial","0","","","","","","","","","","","","","","","","","","","","",""
"","","","","","image-keyboard-response","232","442370","0.0-207.0","5c10724111fe9a00013cd815","665500ab8938657b03fbdba8","66578095167444180ef3f52b","1455","stimuli/1101110.jpg","1","","prediction_trial","1","","true","","1","false","false","true","true","false","false","[1]","101","110","1","","","","","","",""
"","","","","","image-keyboard-response","233","443273","0.0-208.0","5c10724111fe9a00013cd815","665500ab8938657b03fbdba8","66578095167444180ef3f52b","902","stimuli/11011101.jpg"," ","","feedback_trial","1","","","","","","","","","","","","","","","","","","","","",""
"","","","","","image-keyboard-response","234","445283","0.0-209.0","5c10724111fe9a00013cd815","665500ab8938657b03fbdba8","66578095167444180ef3f52b","2009","stimuli/2010011.jpg","0","","prediction_trial","2","","false","","2","false","false","true","true","false","false","[2]","010","011","0","","","","","","",""
"","","","","","image-keyboard-response","235","446175","0.0-210.0","5c10724111fe9a00013cd815","665500ab8938657b03fbdba8","66578095167444180ef3f52b","891","stimuli/20100112.jpg"," ","","feedback_trial","2","","","","","","","","","","","","","","","","","","","","",""
"","","","","","image-keyboard-response","236","447403","0.0-211.0","5c10724111fe9a00013cd815","665500ab8938657b03fbdba8","66578095167444180ef3f52b","1224","stimuli/0001101.jpg","2","","prediction_trial","0","","false","","0","false","false","true","true","false","false","[0]","001","101","0","","","","","","",""
"","","","","","image-keyboard-response","237","448230","0.0-212.0","5c10724111fe9a00013cd815","665500ab8938657b03fbdba8","66578095167444180ef3f52b","826","stimuli/00011010.jpg"," ","","feedback_trial","0","","","","","","","","","","","","","","","","","","","","",""
"","","","","","image-keyboard-response","238","449673","0.0-213.0","5c10724111fe9a00013cd815","665500ab8938657b03fbdba8","66578095167444180ef3f52b","1441","stimuli/2000111.jpg","1","","prediction_trial","2","","false","","2","false","false","true","true","false","false","[2]","000","111","0","","","","","","",""
"","","","","","image-keyboard-response","239","450494","0.0-214.0","5c10724111fe9a00013cd815","665500ab8938657b03fbdba8","66578095167444180ef3f52b","820","stimuli/20001112.jpg"," ","","feedback_trial","2","","","","","","","","","","","","","","","","","","","","",""
"","","","","","image-keyboard-response","240","451727","0.0-215.0","5c10724111fe9a00013cd815","665500ab8938657b03fbdba8","66578095167444180ef3f52b","1232","stimuli/2100010.jpg","2","","prediction_trial","2","","true","","2","true","true","true","true","true","true","[2]","100","010","1","","","","","","",""
"","","","","","image-keyboard-response","241","452505","0.0-216.0","5c10724111fe9a00013cd815","665500ab8938657b03fbdba8","66578095167444180ef3f52b","777","stimuli/21000102.jpg"," ","","feedback_trial","2","","","","","","","","","","","","","","","","","","","","",""
"","","","","","image-keyboard-response","242","454396","0.0-217.0","5c10724111fe9a00013cd815","665500ab8938657b03fbdba8","66578095167444180ef3f52b","1890","stimuli/0000010.jpg","0","","prediction_trial","0","","true","","0","true","true","true","true","true","true","[0]","000","010","1","","","","","","",""
"","","","","","image-keyboard-response","243","455169","0.0-218.0","5c10724111fe9a00013cd815","665500ab8938657b03fbdba8","66578095167444180ef3f52b","771","stimuli/00000100.jpg"," ","","feedback_trial","0","","","","","","","","","","","","","","","","","","","","",""
"","","","","","image-keyboard-response","244","456364","0.0-219.0","5c10724111fe9a00013cd815","665500ab8938657b03fbdba8","66578095167444180ef3f52b","1194","stimuli/1001001.jpg","1","","prediction_trial","1","","true","","1","true","true","true","true","true","true","[1]","001","001","1","","","","","","",""
"","","","","","image-keyboard-response","245","457091","0.0-220.0","5c10724111fe9a00013cd815","665500ab8938657b03fbdba8","66578095167444180ef3f52b","726","stimuli/10010011.jpg"," ","","feedback_trial","1","","","","","","","","","","","","","","","","","","","","",""
"","","","","","image-keyboard-response","246","458482","0.0-221.0","5c10724111fe9a00013cd815","665500ab8938657b03fbdba8","66578095167444180ef3f52b","1390","stimuli/1000110.jpg","0","","prediction_trial","1","","false","","1","false","false","true","true","false","false","[1]","000","110","0","","","","","","",""
"","","","","","image-keyboard-response","247","459275","0.0-222.0","5c10724111fe9a00013cd815","665500ab8938657b03fbdba8","66578095167444180ef3f52b","791","stimuli/10001101.jpg"," ","","feedback_trial","1","","","","","","","","","","","","","","","","","","","","",""
"","","","","","image-keyboard-response","248","460597","0.0-223.0","5c10724111fe9a00013cd815","665500ab8938657b03fbdba8","66578095167444180ef3f52b","1320","stimuli/0010101.jpg","2","","prediction_trial","0","","false","","0","false","false","true","true","false","false","[0]","010","101","0","","","","","","",""
"","","","","","image-keyboard-response","249","461425","0.0-224.0","5c10724111fe9a00013cd815","665500ab8938657b03fbdba8","66578095167444180ef3f52b","827","stimuli/00101010.jpg"," ","","feedback_trial","0","","","","","","","","","","","","","","","","","","","","",""
"","","","","","image-keyboard-response","250","463171","0.0-225.0","5c10724111fe9a00013cd815","665500ab8938657b03fbdba8","66578095167444180ef3f52b","1744","stimuli/2001001.jpg","1","","prediction_trial","2","","false","","2","false","true","false","true","false","true","[2]","001","001","0","","","","","","",""
"","","","","","image-keyboard-response","251","463947","0.0-226.0","5c10724111fe9a00013cd815","665500ab8938657b03fbdba8","66578095167444180ef3f52b","774","stimuli/20010012.jpg"," ","","feedback_trial","2","","","","","","","","","","","","","","","","","","","","",""
"","","","","","image-keyboard-response","252","465310","0.0-227.0","5c10724111fe9a00013cd815","665500ab8938657b03fbdba8","66578095167444180ef3f52b","1362","stimuli/2110010.jpg","2","","prediction_trial","2","","true","","2","true","true","true","true","true","true","[2]","110","010","1","","","","","","",""
"","","","","","image-keyboard-response","253","466131","0.0-228.0","5c10724111fe9a00013cd815","665500ab8938657b03fbdba8","66578095167444180ef3f52b","820","stimuli/21100102.jpg"," ","","feedback_trial","2","","","","","","","","","","","","","","","","","","","","",""
"","","","","","image-keyboard-response","254","467407","0.0-229.0","5c10724111fe9a00013cd815","665500ab8938657b03fbdba8","66578095167444180ef3f52b","1274","stimuli/0111100.jpg","0","","prediction_trial","2","","false","","0","false","true","false","false","false","false","[1,2,0]","111","100","0","","","","","","",""
"","","","","","image-keyboard-response","255","468234","0.0-230.0","5c10724111fe9a00013cd815","665500ab8938657b03fbdba8","66578095167444180ef3f52b","826","stimuli/01111002.jpg"," ","","feedback_trial","1","","","","","","","","","","","","","","","","","","","","",""
"","","","","","image-keyboard-response","256","469346","0.0-231.0","5c10724111fe9a00013cd815","665500ab8938657b03fbdba8","66578095167444180ef3f52b","1111","stimuli/2101010.jpg","2","","prediction_trial","0","","false","","2","true","true","false","false","false","false","[0,2]","101","010","0","","","","","","",""
"","","","","","image-keyboard-response","257","470133","0.0-232.0","5c10724111fe9a00013cd815","665500ab8938657b03fbdba8","66578095167444180ef3f52b","786","stimuli/21010100.jpg"," ","","feedback_trial","0","","","","","","","","","","","","","","","","","","","","",""
"","","","","","image-keyboard-response","258","471629","0.0-233.0","5c10724111fe9a00013cd815","665500ab8938657b03fbdba8","66578095167444180ef3f52b","1494","stimuli/1111011.jpg","2","","prediction_trial","0","","false","","1","false","false","false","false","false","false","[1,2,0]","111","011","0","","","","","","",""
"","","","","","image-keyboard-response","259","472378","0.0-234.0","5c10724111fe9a00013cd815","665500ab8938657b03fbdba8","66578095167444180ef3f52b","748","stimuli/11110110.jpg"," ","","feedback_trial","1","","","","","","","","","","","","","","","","","","","","",""
"","","","","","image-keyboard-response","260","473864","0.0-235.0","5c10724111fe9a00013cd815","665500ab8938657b03fbdba8","66578095167444180ef3f52b","1484","stimuli/1010000.jpg","1","","prediction_trial","1","","true","","1","true","true","false","true","false","true","[1]","010","000","1","","","","","","",""
"","","","","","image-keyboard-response","261","474710","0.0-236.0","5c10724111fe9a00013cd815","665500ab8938657b03fbdba8","66578095167444180ef3f52b","846","stimuli/10100001.jpg"," ","","feedback_trial","1","","","","","","","","","","","","","","","","","","","","",""
"","","","","","image-keyboard-response","262","476213","0.0-237.0","5c10724111fe9a00013cd815","665500ab8938657b03fbdba8","66578095167444180ef3f52b","1502","stimuli/1010111.jpg","0","","prediction_trial","1","","false","","1","false","false","false","true","false","false","[1]","010","111","0","","","","","","",""
"","","","","","image-keyboard-response","263","477199","0.0-238.0","5c10724111fe9a00013cd815","665500ab8938657b03fbdba8","66578095167444180ef3f52b","985","stimuli/10101111.jpg"," ","","feedback_trial","1","","","","","","","","","","","","","","","","","","","","",""
"","","","","","image-keyboard-response","264","478350","0.0-239.0","5c10724111fe9a00013cd815","665500ab8938657b03fbdba8","66578095167444180ef3f52b","1150","stimuli/0001001.jpg","0","","prediction_trial","0","","true","","0","true","true","true","true","true","true","[0]","001","001","1","","","","","","",""
"","","","","","image-keyboard-response","265","479263","0.0-240.0","5c10724111fe9a00013cd815","665500ab8938657b03fbdba8","66578095167444180ef3f52b","911","stimuli/00010010.jpg"," ","","feedback_trial","0","","","","","","","","","","","","","","","","","","","","",""
"","","","","","image-keyboard-response","266","480544","0.0-241.0","5c10724111fe9a00013cd815","665500ab8938657b03fbdba8","66578095167444180ef3f52b","1280","stimuli/2010001.jpg","2","","prediction_trial","2","","true","","2","false","true","true","true","false","true","[2]","010","001","1","","","","","","",""
"","","","","","image-keyboard-response","267","481518","0.0-242.0","5c10724111fe9a00013cd815","665500ab8938657b03fbdba8","66578095167444180ef3f52b","973","stimuli/20100012.jpg"," ","","feedback_trial","2","","","","","","","","","","","","","","","","","","","","",""
"","","","","","image-keyboard-response","268","486877","0.0-243.0","5c10724111fe9a00013cd815","665500ab8938657b03fbdba8","66578095167444180ef3f52b","5357","stimuli/0001100.jpg","0","","prediction_trial","0","","true","","0","false","true","true","true","false","true","[0]","001","100","1","","","","","","",""
"","","","","","image-keyboard-response","269","487914","0.0-244.0","5c10724111fe9a00013cd815","665500ab8938657b03fbdba8","66578095167444180ef3f52b","1036","stimuli/00011000.jpg"," ","","feedback_trial","0","","","","","","","","","","","","","","","","","","","","",""
"","","","","","image-keyboard-response","270","489346","0.0-245.0","5c10724111fe9a00013cd815","665500ab8938657b03fbdba8","66578095167444180ef3f52b","1431","stimuli/0011101.jpg","0","","prediction_trial","0","","true","","0","false","false","true","true","false","false","[0]","011","101","1","","","","","","",""
"","","","","","image-keyboard-response","271","490118","0.0-246.0","5c10724111fe9a00013cd815","665500ab8938657b03fbdba8","66578095167444180ef3f52b","770","stimuli/00111010.jpg"," ","","feedback_trial","0","","","","","","","","","","","","","","","","","","","","",""
"","","","","","image-keyboard-response","272","491244","0.0-247.0","5c10724111fe9a00013cd815","665500ab8938657b03fbdba8","66578095167444180ef3f52b","1125","stimuli/0010001.jpg","0","","prediction_trial","0","","true","","0","true","true","true","true","true","true","[0]","010","001","1","","","","","","",""
"","","","","","image-keyboard-response","273","492002","0.0-248.0","5c10724111fe9a00013cd815","665500ab8938657b03fbdba8","66578095167444180ef3f52b","756","stimuli/00100010.jpg"," ","","feedback_trial","0","","","","","","","","","","","","","","","","","","","","",""
"","","","","","image-keyboard-response","274","493207","0.0-249.0","5c10724111fe9a00013cd815","665500ab8938657b03fbdba8","66578095167444180ef3f52b","1204","stimuli/2100111.jpg","2","","prediction_trial","2","","true","","2","false","false","true","true","false","false","[2]","100","111","1","","","","","","",""
"","","","","","image-keyboard-response","275","494080","0.0-250.0","5c10724111fe9a00013cd815","665500ab8938657b03fbdba8","66578095167444180ef3f52b","871","stimuli/21001112.jpg"," ","","feedback_trial","2","","","","","","","","","","","","","","","","","","","","",""
"","","","","","image-keyboard-response","276","495047","0.0-251.0","5c10724111fe9a00013cd815","665500ab8938657b03fbdba8","66578095167444180ef3f52b","966","stimuli/1000111.jpg","2","","prediction_trial","1","","false","","1","false","false","true","true","false","false","[1]","000","111","0","","","","","","",""
"","","","","","image-keyboard-response","277","495859","0.0-252.0","5c10724111fe9a00013cd815","665500ab8938657b03fbdba8","66578095167444180ef3f52b","812","stimuli/10001111.jpg"," ","","feedback_trial","1","","","","","","","","","","","","","","","","","","","","",""
"","","","","","image-keyboard-response","278","497310","0.0-253.0","5c10724111fe9a00013cd815","665500ab8938657b03fbdba8","66578095167444180ef3f52b","1449","stimuli/0110101.jpg","1","","prediction_trial","0","","false","","0","false","false","false","false","false","false","[0,1]","110","101","0","","","","","","",""
"","","","","","image-keyboard-response","279","498082","0.0-254.0","5c10724111fe9a00013cd815","665500ab8938657b03fbdba8","66578095167444180ef3f52b","771","stimuli/01101010.jpg"," ","","feedback_trial","0","","","","","","","","","","","","","","","","","","","","",""
"","","","","","image-keyboard-response","280","499054","0.0-255.0","5c10724111fe9a00013cd815","665500ab8938657b03fbdba8","66578095167444180ef3f52b","964","stimuli/0101010.jpg","0","","prediction_trial","2","","false","","0","true","true","false","false","false","false","[0,2]","101","010","0","","","","","","",""
"","","","","","image-keyboard-response","281","499892","0.0-256.0","5c10724111fe9a00013cd815","665500ab8938657b03fbdba8","66578095167444180ef3f52b","836","stimuli/01010102.jpg"," ","","feedback_trial","0","","","","","","","","","","","","","","","","","","","","",""
"","","","","","image-keyboard-response","282","500878","0.0-257.0","5c10724111fe9a00013cd815","665500ab8938657b03fbdba8","66578095167444180ef3f52b","984","stimuli/1100010.jpg","0","","prediction_trial","1","","false","","1","false","true","true","true","false","true","[1]","100","010","0","","","","","","",""
"","","","","","image-keyboard-response","283","501626","0.0-258.0","5c10724111fe9a00013cd815","665500ab8938657b03fbdba8","66578095167444180ef3f52b","747","stimuli/11000101.jpg"," ","","feedback_trial","1","","","","","","","","","","","","","","","","","","","","",""
"","","","","","image-keyboard-response","284","502752","0.0-259.0","5c10724111fe9a00013cd815","665500ab8938657b03fbdba8","66578095167444180ef3f52b","1124","stimuli/1011100.jpg","1","","prediction_trial","2","","false","","1","true","true","false","false","false","false","[2,1]","011","100","0","","","","","","",""
"","","","","","image-keyboard-response","285","503495","0.0-260.0","5c10724111fe9a00013cd815","665500ab8938657b03fbdba8","66578095167444180ef3f52b","740","stimuli/10111002.jpg"," ","","feedback_trial","2","","","","","","","","","","","","","","","","","","","","",""
"","","","","","image-keyboard-response","286","504631","0.0-261.0","5c10724111fe9a00013cd815","665500ab8938657b03fbdba8","66578095167444180ef3f52b","1134","stimuli/0000110.jpg","2","","prediction_trial","0","","false","","0","false","false","true","true","false","false","[0]","000","110","0","","","","","","",""
"","","","","","image-keyboard-response","287","505613","0.0-262.0","5c10724111fe9a00013cd815","665500ab8938657b03fbdba8","66578095167444180ef3f52b","981","stimuli/00001100.jpg"," ","","feedback_trial","0","","","","","","","","","","","","","","","","","","","","",""
"","","","","","image-keyboard-response","288","506814","0.0-263.0","5c10724111fe9a00013cd815","665500ab8938657b03fbdba8","66578095167444180ef3f52b","1200","stimuli/0111110.jpg","0","","prediction_trial","1","","false","","0","false","false","false","false","false","false","[0,1,2]","111","110","0","","","","","","",""
"","","","","","image-keyboard-response","289","507652","0.0-264.0","5c10724111fe9a00013cd815","665500ab8938657b03fbdba8","66578095167444180ef3f52b","836","stimuli/01111101.jpg"," ","","feedback_trial","0","","","","","","","","","","","","","","","","","","","","",""
"","","","","","image-keyboard-response","290","508943","0.0-265.0","5c10724111fe9a00013cd815","665500ab8938657b03fbdba8","66578095167444180ef3f52b","1290","stimuli/1100101.jpg","1","","prediction_trial","1","","true","","1","true","true","true","true","true","true","[1]","100","101","1","","","","","","",""
"","","","","","image-keyboard-response","291","509716","0.0-266.0","5c10724111fe9a00013cd815","665500ab8938657b03fbdba8","66578095167444180ef3f52b","772","stimuli/11001011.jpg"," ","","feedback_trial","1","","","","","","","","","","","","","","","","","","","","",""
"","","","","","image-keyboard-response","292","511049","0.0-267.0","5c10724111fe9a00013cd815","665500ab8938657b03fbdba8","66578095167444180ef3f52b","1331","stimuli/0000100.jpg","2","","prediction_trial","0","","false","","0","false","true","true","true","false","true","[0]","000","100","0","","","","","","",""
"","","","","","image-keyboard-response","293","512074","0.0-268.0","5c10724111fe9a00013cd815","665500ab8938657b03fbdba8","66578095167444180ef3f52b","1023","stimuli/00001000.jpg"," ","","feedback_trial","0","","","","","","","","","","","","","","","","","","","","",""
"","","","","","image-keyboard-response","294","513551","0.0-269.0","5c10724111fe9a00013cd815","665500ab8938657b03fbdba8","66578095167444180ef3f52b","1476","stimuli/2110111.jpg","1","","prediction_trial","2","","false","","2","false","false","true","true","false","false","[2]","110","111","0","","","","","","",""
"","","","","","image-keyboard-response","295","514288","0.0-270.0","5c10724111fe9a00013cd815","665500ab8938657b03fbdba8","66578095167444180ef3f52b","735","stimuli/21101112.jpg"," ","","feedback_trial","2","","","","","","","","","","","","","","","","","","","","",""
"","","","","","image-keyboard-response","296","515409","0.0-271.0","5c10724111fe9a00013cd815","665500ab8938657b03fbdba8","66578095167444180ef3f52b","1120","stimuli/0101110.jpg","0","","prediction_trial","0","","true","","0","false","false","false","false","false","false","[0,2]","101","110","1","","","","","","",""
"","","","","","image-keyboard-response","297","516247","0.0-272.0","5c10724111fe9a00013cd815","665500ab8938657b03fbdba8","66578095167444180ef3f52b","836","stimuli/01011100.jpg"," ","","feedback_trial","0","","","","","","","","","","","","","","","","","","","","",""
"","","","","","image-keyboard-response","298","517338","0.0-273.0","5c10724111fe9a00013cd815","665500ab8938657b03fbdba8","66578095167444180ef3f52b","1090","stimuli/0001000.jpg","0","","prediction_trial","0","","true","","0","true","true","true","true","true","true","[0]","001","000","1","","","","","","",""
"","","","","","image-keyboard-response","299","518051","0.0-274.0","5c10724111fe9a00013cd815","665500ab8938657b03fbdba8","66578095167444180ef3f52b","712","stimuli/00010000.jpg"," ","","feedback_trial","0","","","","","","","","","","","","","","","","","","","","",""
"","","","","","image-keyboard-response","300","519187","0.0-275.0","5c10724111fe9a00013cd815","665500ab8938657b03fbdba8","66578095167444180ef3f52b","1135","stimuli/1100001.jpg","1","","prediction_trial","1","","true","","1","true","true","true","true","true","true","[1]","100","001","1","","","","","","",""
"","","","","","image-keyboard-response","301","519919","0.0-276.0","5c10724111fe9a00013cd815","665500ab8938657b03fbdba8","66578095167444180ef3f52b","731","stimuli/11000011.jpg"," ","","feedback_trial","1","","","","","","","","","","","","","","","","","","","","",""
"","","","","","image-keyboard-response","302","520896","0.0-277.0","5c10724111fe9a00013cd815","665500ab8938657b03fbdba8","66578095167444180ef3f52b","969","stimuli/0011001.jpg","0","","prediction_trial","0","","true","","0","true","true","true","true","true","true","[0]","011","001","1","","","","","","",""
"","","","","","image-keyboard-response","303","521638","0.0-278.0","5c10724111fe9a00013cd815","665500ab8938657b03fbdba8","66578095167444180ef3f52b","740","stimuli/00110010.jpg"," ","","feedback_trial","0","","","","","","","","","","","","","","","","","","","","",""
"","","","","","image-keyboard-response","304","522664","0.0-279.0","5c10724111fe9a00013cd815","665500ab8938657b03fbdba8","66578095167444180ef3f52b","1025","stimuli/2000101.jpg","2","","prediction_trial","2","","true","","2","false","false","true","true","false","false","[2]","000","101","1","","","","","","",""
"","","","","","image-keyboard-response","305","523562","0.0-280.0","5c10724111fe9a00013cd815","665500ab8938657b03fbdba8","66578095167444180ef3f52b","897","stimuli/20001012.jpg"," ","","feedback_trial","2","","","","","","","","","","","","","","","","","","","","",""
"","","","","","image-keyboard-response","306","524650","0.0-281.0","5c10724111fe9a00013cd815","665500ab8938657b03fbdba8","66578095167444180ef3f52b","1087","stimuli/2010100.jpg","2","","prediction_trial","2","","true","","2","true","true","true","true","true","true","[2]","010","100","1","","","","","","",""
"","","","","","image-keyboard-response","307","525442","0.0-282.0","5c10724111fe9a00013cd815","665500ab8938657b03fbdba8","66578095167444180ef3f52b","790","stimuli/20101002.jpg"," ","","feedback_trial","2","","","","","","","","","","","","","","","","","","","","",""
"","","","","","image-keyboard-response","308","526558","0.0-283.0","5c10724111fe9a00013cd815","665500ab8938657b03fbdba8","66578095167444180ef3f52b","1115","stimuli/0100010.jpg","0","","prediction_trial","0","","true","","0","true","true","false","true","false","true","[0]","100","010","1","","","","","","",""
"","","","","","image-keyboard-response","309","527295","0.0-284.0","5c10724111fe9a00013cd815","665500ab8938657b03fbdba8","66578095167444180ef3f52b","735","stimuli/01000100.jpg"," ","","feedback_trial","0","","","","","","","","","","","","","","","","","","","","",""
"","","","","","image-keyboard-response","310","528582","0.0-285.0","5c10724111fe9a00013cd815","665500ab8938657b03fbdba8","66578095167444180ef3f52b","1286","stimuli/2111111.jpg","1","","prediction_trial","0","","false","","2","false","false","false","false","false","false","[2,1,0]","111","111","0","","","","","","",""
"","","","","","image-keyboard-response","311","529353","0.0-286.0","5c10724111fe9a00013cd815","665500ab8938657b03fbdba8","66578095167444180ef3f52b","769","stimuli/21111110.jpg"," ","","feedback_trial","2","","","","","","","","","","","","","","","","","","","","",""
"","","","","","image-keyboard-response","312","530316","0.0-287.0","5c10724111fe9a00013cd815","665500ab8938657b03fbdba8","66578095167444180ef3f52b","962","stimuli/1100011.jpg","2","","prediction_trial","1","","false","","1","false","false","true","true","false","false","[1]","100","011","0","","","","","","",""
"","","","","","image-keyboard-response","313","531327","0.0-288.0","5c10724111fe9a00013cd815","665500ab8938657b03fbdba8","66578095167444180ef3f52b","1010","stimuli/11000111.jpg"," ","","feedback_trial","1","","","","","","","","","","","","","","","","","","","","",""
"","","","","","image-keyboard-response","314","532216","0.0-289.0","5c10724111fe9a00013cd815","665500ab8938657b03fbdba8","66578095167444180ef3f52b","887","stimuli/1011000.jpg","0","","prediction_trial","1","","false","","1","true","true","false","false","false","false","[1,2]","011","000","0","","","","","","",""
"","","","","","image-keyboard-response","315","532978","0.0-290.0","5c10724111fe9a00013cd815","665500ab8938657b03fbdba8","66578095167444180ef3f52b","761","stimuli/10110001.jpg"," ","","feedback_trial","1","","","","","","","","","","","","","","","","","","","","",""
"","","","","","image-keyboard-response","316","534138","0.0-291.0","5c10724111fe9a00013cd815","665500ab8938657b03fbdba8","66578095167444180ef3f52b","1158","stimuli/0110100.jpg","0","","prediction_trial","0","","true","","0","false","true","false","false","false","false","[0,1]","110","100","1","","","","","","",""
"","","","","","image-keyboard-response","317","534867","0.0-292.0","5c10724111fe9a00013cd815","665500ab8938657b03fbdba8","66578095167444180ef3f52b","728","stimuli/01101000.jpg"," ","","feedback_trial","0","","","","","","","","","","","","","","","","","","","","",""
"","","","","","survey-html-form","318","592422","0.0-293.0","5c10724111fe9a00013cd815","665500ab8938657b03fbdba8","66578095167444180ef3f52b","57539","","{""feedback"":""I went with my gut instinct. Great experiment"",""age"":""58"",""gender"":""Female"",""other_gender"":"""",""race"":""Black/African American"",""other_race"":"""",""ethnicity"":""Non-Hispanic""}","","exit_survey","","","","","","","","","","","","","","","","I went with my gut instinct. Great experiment","58","Non-Hispanic","Female","Black/African American","0.5625","0.5625"
