"success","timeout","failed_images","failed_audio","failed_video","trial_type","trial_index","time_elapsed","internal_node_id","prolific_id","prolific_study_id","prolific_session_id","rt","stimulus","response","view_history","trial","character_choice","stimulus_dict","accuracy","correct_response","ball_pos","ego_ball_visible","ego_can_infer","alter_ball_visible","alter_can_infer","collective_ball_visible","collective_can_infer","search_locations","alter_occluders","ego_occluders","accuracy_bool","feedback","age","ethnicity","gender","race","overall_accuracy","bonus"
"true","false","[]","[]","[]","preload","0","6558","0.0-0.0","63a9a8f2f098b7e45bd03721","665500ab8938657b03fbdba8","6657953b3fa9bac66ec69436","","","","","","","","","","","","","","","","","","","","","","","","","","",""
"true","","","","","fullscreen","1","20935","0.0-1.0","63a9a8f2f098b7e45bd03721","665500ab8938657b03fbdba8","6657953b3fa9bac66ec69436","","","","","","","","","","","","","","","","","","","","","","","","","","",""
"","","","","","html-button-response","2","32977","0.0-2.0","63a9a8f2f098b7e45bd03721","665500ab8938657b03fbdba8","6657953b3fa9bac66ec69436","12040","<p><b>Consent Form</b></p> <div style=""text-align:left;background-color:lightgrey; padding:20px; max-width:900px;""><p>Please consider this information carefully before deciding whether to participate in this research.</p> <p>The purpose of this research is to examine which factors influence social judgment and decision-making. You will be asked to make judgements about individuals and actions in social scenarios. We are simply interested in your judgement. The study will take less than 1 hour to complete, and you will receive less than $20 on Prolific. Your compensation and time commitment are specified in the study description. There are no anticipated risks associated with participating in this study. The effects of participating should be comparable to those you would ordinarily experience from viewing a computer monitor and using a mouse or keyboard for a similar amount of time. At the end of the study, we will provide an explanation of the questions that motivate this line of research and will describe the potential implications. </p><p> Your participation in this study is completely voluntary and you may refuse to participate or you may choose to withdraw at any time without penalty or loss of benefits to you which are otherwise entitled. Your participation in this study will remain confidential. No personally identifiable information will be associated with your data. Also, all analyses of the data will be averaged across all the participants, so your individual responses will never be specifically analyzed. </p><p> If you have questions or concerns about your participation or payment, or want to request a summary of research findings, please contact Dr. Jonathan Phillips at Jonathan.S.Phillips@dartmouth.edu. </p><p> Please save a copy of this form for your records. </p><p><b>Agreement: </b>The nature and purpose of this research have been sufficiently explained and I agree to participate in this study. I understand that I am free to withdraw at any time without incurring any penalty. Please consent by clicking the button below to continue. Otherwise, please exit the study at any time. </p>","0","","","","","","","","","","","","","","","","","","","","","","","",""
"","","","","","instructions","3","102775","0.0-3.0-0.0","63a9a8f2f098b7e45bd03721","665500ab8938657b03fbdba8","6657953b3fa9bac66ec69436","69797","","","[{""page_index"":0,""viewing_time"":2181},{""page_index"":1,""viewing_time"":2621},{""page_index"":2,""viewing_time"":2419},{""page_index"":3,""viewing_time"":6429},{""page_index"":4,""viewing_time"":3664},{""page_index"":5,""viewing_time"":2661},{""page_index"":6,""viewing_time"":3601},{""page_index"":7,""viewing_time"":2930},{""page_index"":8,""viewing_time"":2854},{""page_index"":9,""viewing_time"":2259},{""page_index"":10,""viewing_time"":23814},{""page_index"":11,""viewing_time"":6095},{""page_index"":12,""viewing_time"":6942},{""page_index"":13,""viewing_time"":1326}]","intro","","","","","","","","","","","","","","","","","","","","","",""
"","","","","","image-keyboard-response","4","110991","0.0-3.0-1.0","63a9a8f2f098b7e45bd03721","665500ab8938657b03fbdba8","6657953b3fa9bac66ec69436","8214","stimuli/1110101.jpg","1","","prediction_practice","1","{""filepath"":""stimuli/1110101.jpg"",""ball_pos"":1,""ego_ball_visible"":true,""ego_can_infer"":true,""alter_ball_visible"":false,""alter_can_infer"":false,""collective_ball_visible"":false,""collective_can_infer"":false,""search_locations"":[1,0],""alter_occluders"":""110"",""ego_occluders"":""101""}","true","","","","","","","","","","","","","","","","","","",""
"","","","","","image-keyboard-response","5","113146","0.0-3.0-2.0","63a9a8f2f098b7e45bd03721","665500ab8938657b03fbdba8","6657953b3fa9bac66ec69436","2154","stimuli/11101011.jpg"," ","","practrice_feedback","1","","","","","","","","","","","","","","","","","","","","",""
"","","","","","image-keyboard-response","6","116828","0.0-3.0-3.0","63a9a8f2f098b7e45bd03721","665500ab8938657b03fbdba8","6657953b3fa9bac66ec69436","3681","stimuli/1011100.jpg","1","","prediction_practice","1","{""filepath"":""stimuli/1011100.jpg"",""ball_pos"":1,""ego_ball_visible"":true,""ego_can_infer"":true,""alter_ball_visible"":false,""alter_can_infer"":false,""collective_ball_visible"":false,""collective_can_infer"":false,""search_locations"":[2,1],""alter_occluders"":""011"",""ego_occluders"":""100""}","true","","","","","","","","","","","","","","","","","","",""
"","","","","","image-keyboard-response","7","118022","0.0-3.0-4.0","63a9a8f2f098b7e45bd03721","665500ab8938657b03fbdba8","6657953b3fa9bac66ec69436","1193","stimuli/10111001.jpg"," ","","practrice_feedback","2","","","","","","","","","","","","","","","","","","","","",""
"","","","","","image-keyboard-response","8","120221","0.0-3.0-5.0","63a9a8f2f098b7e45bd03721","665500ab8938657b03fbdba8","6657953b3fa9bac66ec69436","2198","stimuli/0010000.jpg","0","","prediction_practice","0","{""filepath"":""stimuli/0010000.jpg"",""ball_pos"":0,""ego_ball_visible"":true,""ego_can_infer"":true,""alter_ball_visible"":true,""alter_can_infer"":true,""collective_ball_visible"":true,""collective_can_infer"":true,""search_locations"":[0],""alter_occluders"":""010"",""ego_occluders"":""000""}","true","","","","","","","","","","","","","","","","","","",""
"","","","","","image-keyboard-response","9","121693","0.0-3.0-6.0","63a9a8f2f098b7e45bd03721","665500ab8938657b03fbdba8","6657953b3fa9bac66ec69436","1470","stimuli/00100000.jpg"," ","","practrice_feedback","0","","","","","","","","","","","","","","","","","","","","",""
"","","","","","image-keyboard-response","10","123638","0.0-3.0-7.0","63a9a8f2f098b7e45bd03721","665500ab8938657b03fbdba8","6657953b3fa9bac66ec69436","1944","stimuli/0000111.jpg","2","","prediction_practice","0","{""filepath"":""stimuli/0000111.jpg"",""ball_pos"":0,""ego_ball_visible"":false,""ego_can_infer"":false,""alter_ball_visible"":true,""alter_can_infer"":true,""collective_ball_visible"":false,""collective_can_infer"":false,""search_locations"":[0],""alter_occluders"":""000"",""ego_occluders"":""111""}","false","","","","","","","","","","","","","","","","","","",""
"","","","","","image-keyboard-response","11","124824","0.0-3.0-8.0","63a9a8f2f098b7e45bd03721","665500ab8938657b03fbdba8","6657953b3fa9bac66ec69436","1185","stimuli/00001110.jpg"," ","","practrice_feedback","0","","","","","","","","","","","","","","","","","","","","",""
"","","","","","image-keyboard-response","12","129836","0.0-3.0-9.0","63a9a8f2f098b7e45bd03721","665500ab8938657b03fbdba8","6657953b3fa9bac66ec69436","5010","stimuli/0001100.jpg","0","","prediction_practice","0","{""filepath"":""stimuli/0001100.jpg"",""ball_pos"":0,""ego_ball_visible"":false,""ego_can_infer"":true,""alter_ball_visible"":true,""alter_can_infer"":true,""collective_ball_visible"":false,""collective_can_infer"":true,""search_locations"":[0],""alter_occluders"":""001"",""ego_occluders"":""100""}","true","","","","","","","","","","","","","","","","","","",""
"","","","","","image-keyboard-response","13","130884","0.0-3.0-10.0","63a9a8f2f098b7e45bd03721","665500ab8938657b03fbdba8","6657953b3fa9bac66ec69436","1047","stimuli/00011000.jpg"," ","","practrice_feedback","0","","","","","","","","","","","","","","","","","","","","",""
"","","","","","image-keyboard-response","14","132826","0.0-3.0-11.0","63a9a8f2f098b7e45bd03721","665500ab8938657b03fbdba8","6657953b3fa9bac66ec69436","1941","stimuli/0110010.jpg","1","","prediction_practice","1","{""filepath"":""stimuli/0110010.jpg"",""ball_pos"":0,""ego_ball_visible"":true,""ego_can_infer"":true,""alter_ball_visible"":false,""alter_can_infer"":false,""collective_ball_visible"":false,""collective_can_infer"":false,""search_locations"":[0,1],""alter_occluders"":""110"",""ego_occluders"":""010""}","true","","","","","","","","","","","","","","","","","","",""
"","","","","","image-keyboard-response","15","133847","0.0-3.0-12.0","63a9a8f2f098b7e45bd03721","665500ab8938657b03fbdba8","6657953b3fa9bac66ec69436","1021","stimuli/01100101.jpg"," ","","practrice_feedback","0","","","","","","","","","","","","","","","","","","","","",""
"","","","","","image-keyboard-response","16","135529","0.0-3.0-13.0","63a9a8f2f098b7e45bd03721","665500ab8938657b03fbdba8","6657953b3fa9bac66ec69436","1681","stimuli/1100101.jpg","1","","prediction_practice","1","{""filepath"":""stimuli/1100101.jpg"",""ball_pos"":1,""ego_ball_visible"":true,""ego_can_infer"":true,""alter_ball_visible"":true,""alter_can_infer"":true,""collective_ball_visible"":true,""collective_can_infer"":true,""search_locations"":[1],""alter_occluders"":""100"",""ego_occluders"":""101""}","true","","","","","","","","","","","","","","","","","","",""
"","","","","","image-keyboard-response","17","136191","0.0-3.0-14.0","63a9a8f2f098b7e45bd03721","665500ab8938657b03fbdba8","6657953b3fa9bac66ec69436","661","stimuli/11001011.jpg"," ","","practrice_feedback","1","","","","","","","","","","","","","","","","","","","","",""
"","","","","","image-keyboard-response","18","137901","0.0-3.0-15.0","63a9a8f2f098b7e45bd03721","665500ab8938657b03fbdba8","6657953b3fa9bac66ec69436","1709","stimuli/1000111.jpg","0","","prediction_practice","1","{""filepath"":""stimuli/1000111.jpg"",""ball_pos"":1,""ego_ball_visible"":false,""ego_can_infer"":false,""alter_ball_visible"":true,""alter_can_infer"":true,""collective_ball_visible"":false,""collective_can_infer"":false,""search_locations"":[1],""alter_occluders"":""000"",""ego_occluders"":""111""}","false","","","","","","","","","","","","","","","","","","",""
"","","","","","image-keyboard-response","19","138896","0.0-3.0-16.0","63a9a8f2f098b7e45bd03721","665500ab8938657b03fbdba8","6657953b3fa9bac66ec69436","994","stimuli/10001111.jpg"," ","","practrice_feedback","1","","","","","","","","","","","","","","","","","","","","",""
"","","","","","image-keyboard-response","20","142181","0.0-3.0-17.0","63a9a8f2f098b7e45bd03721","665500ab8938657b03fbdba8","6657953b3fa9bac66ec69436","3284","stimuli/1000011.jpg","1","","prediction_practice","1","{""filepath"":""stimuli/1000011.jpg"",""ball_pos"":1,""ego_ball_visible"":false,""ego_can_infer"":false,""alter_ball_visible"":true,""alter_can_infer"":true,""collective_ball_visible"":false,""collective_can_infer"":false,""search_locations"":[1],""alter_occluders"":""000"",""ego_occluders"":""011""}","true","","","","","","","","","","","","","","","","","","",""
"","","","","","image-keyboard-response","21","143053","0.0-3.0-18.0","63a9a8f2f098b7e45bd03721","665500ab8938657b03fbdba8","6657953b3fa9bac66ec69436","871","stimuli/10000111.jpg"," ","","practrice_feedback","1","","","","","","","","","","","","","","","","","","","","",""
"","","","","","image-keyboard-response","22","144984","0.0-3.0-19.0","63a9a8f2f098b7e45bd03721","665500ab8938657b03fbdba8","6657953b3fa9bac66ec69436","1930","stimuli/2110110.jpg","2","","prediction_practice","2","{""filepath"":""stimuli/2110110.jpg"",""ball_pos"":2,""ego_ball_visible"":true,""ego_can_infer"":true,""alter_ball_visible"":true,""alter_can_infer"":true,""collective_ball_visible"":true,""collective_can_infer"":true,""search_locations"":[2],""alter_occluders"":""110"",""ego_occluders"":""110""}","true","","","","","","","","","","","","","","","","","","",""
"","","","","","image-keyboard-response","23","145765","0.0-3.0-20.0","63a9a8f2f098b7e45bd03721","665500ab8938657b03fbdba8","6657953b3fa9bac66ec69436","780","stimuli/21101102.jpg"," ","","practrice_feedback","2","","","","","","","","","","","","","","","","","","","","",""
"","","","","","html-button-response","24","151270","0.0-3.0-21.0","63a9a8f2f098b7e45bd03721","665500ab8938657b03fbdba8","6657953b3fa9bac66ec69436","5505","Now that you've had some practice, you'll be tested with a couple of easy trials. If you correctly predict Sam's choice, you'll move on to complete the experiment!","0","","","","","","","","","","","","","","","","","","","","","","","",""
"","","","","","image-keyboard-response","25","152613","0.0-3.0-22.0-0.0","63a9a8f2f098b7e45bd03721","665500ab8938657b03fbdba8","6657953b3fa9bac66ec69436","1342","stimuli/0000011.jpg","arrowleft","","comprehension_quiz","","","true","arrowleft","","","","","","","","","","","","","","","","","",""
"","","","","","image-keyboard-response","26","154627","0.0-3.0-22.0-1.0","63a9a8f2f098b7e45bd03721","665500ab8938657b03fbdba8","6657953b3fa9bac66ec69436","2013","stimuli/00000110.jpg"," ","","comprehension_quiz","","","true"," ","","","","","","","","","","","","","","","","","",""
"","","","","","image-keyboard-response","27","156349","0.0-3.0-22.0-2.0","63a9a8f2f098b7e45bd03721","665500ab8938657b03fbdba8","6657953b3fa9bac66ec69436","1721","stimuli/1010010.jpg","arrowdown","","comprehension_quiz","","","true","arrowdown","","","","","","","","","","","","","","","","","",""
"","","","","","image-keyboard-response","28","157243","0.0-3.0-22.0-3.0","63a9a8f2f098b7e45bd03721","665500ab8938657b03fbdba8","6657953b3fa9bac66ec69436","893","stimuli/10100101.jpg"," ","","comprehension_quiz","","","true"," ","","","","","","","","","","","","","","","","","",""
"","","","","","html-button-response","29","159090","0.0-4.0","63a9a8f2f098b7e45bd03721","665500ab8938657b03fbdba8","6657953b3fa9bac66ec69436","1846","The experiment will now begin.","0","","","","","","","","","","","","","","","","","","","","","","","",""
"","","","","","image-keyboard-response","30","165458","0.0-5.0","63a9a8f2f098b7e45bd03721","665500ab8938657b03fbdba8","6657953b3fa9bac66ec69436","6367","stimuli/0001101.jpg","0","","prediction_trial","0","","true","","0","false","false","true","true","false","false","[0]","001","101","1","","","","","","",""
"","","","","","image-keyboard-response","31","167018","0.0-6.0","63a9a8f2f098b7e45bd03721","665500ab8938657b03fbdba8","6657953b3fa9bac66ec69436","1557","stimuli/00011010.jpg"," ","","feedback_trial","0","","","","","","","","","","","","","","","","","","","","",""
"","","","","","image-keyboard-response","32","168226","0.0-7.0","63a9a8f2f098b7e45bd03721","665500ab8938657b03fbdba8","6657953b3fa9bac66ec69436","1203","stimuli/2110010.jpg","2","","prediction_trial","2","","true","","2","true","true","true","true","true","true","[2]","110","010","1","","","","","","",""
"","","","","","image-keyboard-response","33","169151","0.0-8.0","63a9a8f2f098b7e45bd03721","665500ab8938657b03fbdba8","6657953b3fa9bac66ec69436","924","stimuli/21100102.jpg"," ","","feedback_trial","2","","","","","","","","","","","","","","","","","","","","",""
"","","","","","image-keyboard-response","34","171798","0.0-9.0","63a9a8f2f098b7e45bd03721","665500ab8938657b03fbdba8","6657953b3fa9bac66ec69436","2647","stimuli/1110111.jpg","1","","prediction_trial","1","","true","","1","false","false","false","false","false","false","[0,1]","110","111","1","","","","","","",""
"","","","","","image-keyboard-response","35","172637","0.0-10.0","63a9a8f2f098b7e45bd03721","665500ab8938657b03fbdba8","6657953b3fa9bac66ec69436","837","stimuli/11101111.jpg"," ","","feedback_trial","0","","","","","","","","","","","","","","","","","","","","",""
"","","","","","image-keyboard-response","36","175072","0.0-11.0","63a9a8f2f098b7e45bd03721","665500ab8938657b03fbdba8","6657953b3fa9bac66ec69436","2434","stimuli/2111010.jpg","1","","prediction_trial","1","","true","","2","true","true","false","false","false","false","[2,0,1]","111","010","1","","","","","","",""
"","","","","","image-keyboard-response","37","175895","0.0-12.0","63a9a8f2f098b7e45bd03721","665500ab8938657b03fbdba8","6657953b3fa9bac66ec69436","822","stimuli/21110101.jpg"," ","","feedback_trial","2","","","","","","","","","","","","","","","","","","","","",""
"","","","","","image-keyboard-response","38","178026","0.0-13.0","63a9a8f2f098b7e45bd03721","665500ab8938657b03fbdba8","6657953b3fa9bac66ec69436","2129","stimuli/1111011.jpg","1","","prediction_trial","2","","false","","1","false","false","false","false","false","false","[1,2,0]","111","011","0","","","","","","",""
"","","","","","image-keyboard-response","39","179279","0.0-14.0","63a9a8f2f098b7e45bd03721","665500ab8938657b03fbdba8","6657953b3fa9bac66ec69436","1253","stimuli/11110112.jpg"," ","","feedback_trial","1","","","","","","","","","","","","","","","","","","","","",""
"","","","","","image-keyboard-response","40","180968","0.0-15.0","63a9a8f2f098b7e45bd03721","665500ab8938657b03fbdba8","6657953b3fa9bac66ec69436","1688","stimuli/1000000.jpg","1","","prediction_trial","1","","true","","1","true","true","true","true","true","true","[1]","000","000","1","","","","","","",""
"","","","","","image-keyboard-response","41","181541","0.0-16.0","63a9a8f2f098b7e45bd03721","665500ab8938657b03fbdba8","6657953b3fa9bac66ec69436","572","stimuli/10000001.jpg"," ","","feedback_trial","1","","","","","","","","","","","","","","","","","","","","",""
"","","","","","image-keyboard-response","42","183198","0.0-17.0","63a9a8f2f098b7e45bd03721","665500ab8938657b03fbdba8","6657953b3fa9bac66ec69436","1657","stimuli/0100011.jpg","0","","prediction_trial","0","","true","","0","true","true","false","true","false","true","[0]","100","011","1","","","","","","",""
"","","","","","image-keyboard-response","43","183653","0.0-18.0","63a9a8f2f098b7e45bd03721","665500ab8938657b03fbdba8","6657953b3fa9bac66ec69436","454","stimuli/01000110.jpg"," ","","feedback_trial","0","","","","","","","","","","","","","","","","","","","","",""
"","","","","","image-keyboard-response","44","185374","0.0-19.0","63a9a8f2f098b7e45bd03721","665500ab8938657b03fbdba8","6657953b3fa9bac66ec69436","1720","stimuli/0110100.jpg","0","","prediction_trial","1","","false","","0","false","true","false","false","false","false","[1,0]","110","100","0","","","","","","",""
"","","","","","image-keyboard-response","45","186791","0.0-20.0","63a9a8f2f098b7e45bd03721","665500ab8938657b03fbdba8","6657953b3fa9bac66ec69436","1415","stimuli/01101001.jpg"," ","","feedback_trial","1","","","","","","","","","","","","","","","","","","","","",""
"","","","","","image-keyboard-response","46","188521","0.0-21.0","63a9a8f2f098b7e45bd03721","665500ab8938657b03fbdba8","6657953b3fa9bac66ec69436","1728","stimuli/1100011.jpg","1","","prediction_trial","1","","true","","1","false","false","true","true","false","false","[1]","100","011","1","","","","","","",""
"","","","","","image-keyboard-response","47","189201","0.0-22.0","63a9a8f2f098b7e45bd03721","665500ab8938657b03fbdba8","6657953b3fa9bac66ec69436","679","stimuli/11000111.jpg"," ","","feedback_trial","1","","","","","","","","","","","","","","","","","","","","",""
"","","","","","image-keyboard-response","48","190750","0.0-23.0","63a9a8f2f098b7e45bd03721","665500ab8938657b03fbdba8","6657953b3fa9bac66ec69436","1547","stimuli/1000111.jpg","1","","prediction_trial","1","","true","","1","false","false","true","true","false","false","[1]","000","111","1","","","","","","",""
"","","","","","image-keyboard-response","49","191485","0.0-24.0","63a9a8f2f098b7e45bd03721","665500ab8938657b03fbdba8","6657953b3fa9bac66ec69436","733","stimuli/10001111.jpg"," ","","feedback_trial","1","","","","","","","","","","","","","","","","","","","","",""
"","","","","","image-keyboard-response","50","193665","0.0-25.0","63a9a8f2f098b7e45bd03721","665500ab8938657b03fbdba8","6657953b3fa9bac66ec69436","2179","stimuli/0101100.jpg","0","","prediction_trial","2","","false","","0","false","true","false","false","false","false","[0,2]","101","100","0","","","","","","",""
"","","","","","image-keyboard-response","51","194799","0.0-26.0","63a9a8f2f098b7e45bd03721","665500ab8938657b03fbdba8","6657953b3fa9bac66ec69436","1134","stimuli/01011002.jpg"," ","","feedback_trial","0","","","","","","","","","","","","","","","","","","","","",""
"","","","","","image-keyboard-response","52","196677","0.0-27.0","63a9a8f2f098b7e45bd03721","665500ab8938657b03fbdba8","6657953b3fa9bac66ec69436","1878","stimuli/2001111.jpg","1","","prediction_trial","2","","false","","2","false","false","false","true","false","false","[2]","001","111","0","","","","","","",""
"","","","","","image-keyboard-response","53","198058","0.0-28.0","63a9a8f2f098b7e45bd03721","665500ab8938657b03fbdba8","6657953b3fa9bac66ec69436","1380","stimuli/20011112.jpg"," ","","feedback_trial","2","","","","","","","","","","","","","","","","","","","","",""
"","","","","","image-keyboard-response","54","202384","0.0-29.0","63a9a8f2f098b7e45bd03721","665500ab8938657b03fbdba8","6657953b3fa9bac66ec69436","4325","stimuli/1010110.jpg","0","","prediction_trial","1","","false","","1","false","false","false","true","false","false","[1]","010","110","0","","","","","","",""
"","","","","","image-keyboard-response","55","203154","0.0-30.0","63a9a8f2f098b7e45bd03721","665500ab8938657b03fbdba8","6657953b3fa9bac66ec69436","768","stimuli/10101101.jpg"," ","","feedback_trial","1","","","","","","","","","","","","","","","","","","","","",""
"","","","","","image-keyboard-response","56","204341","0.0-31.0","63a9a8f2f098b7e45bd03721","665500ab8938657b03fbdba8","6657953b3fa9bac66ec69436","1185","stimuli/0100000.jpg","0","","prediction_trial","0","","true","","0","true","true","false","true","false","true","[0]","100","000","1","","","","","","",""
"","","","","","image-keyboard-response","57","204993","0.0-32.0","63a9a8f2f098b7e45bd03721","665500ab8938657b03fbdba8","6657953b3fa9bac66ec69436","652","stimuli/01000000.jpg"," ","","feedback_trial","0","","","","","","","","","","","","","","","","","","","","",""
"","","","","","image-keyboard-response","58","206005","0.0-33.0","63a9a8f2f098b7e45bd03721","665500ab8938657b03fbdba8","6657953b3fa9bac66ec69436","1008","stimuli/2000100.jpg","2","","prediction_trial","2","","true","","2","true","true","true","true","true","true","[2]","000","100","1","","","","","","",""
"","","","","","image-keyboard-response","59","206564","0.0-34.0","63a9a8f2f098b7e45bd03721","665500ab8938657b03fbdba8","6657953b3fa9bac66ec69436","558","stimuli/20001002.jpg"," ","","feedback_trial","2","","","","","","","","","","","","","","","","","","","","",""
"","","","","","image-keyboard-response","60","207942","0.0-35.0","63a9a8f2f098b7e45bd03721","665500ab8938657b03fbdba8","6657953b3fa9bac66ec69436","1377","stimuli/0110001.jpg","0","","prediction_trial","0","","true","","0","true","true","false","false","false","false","[0,1]","110","001","1","","","","","","",""
"","","","","","image-keyboard-response","61","208731","0.0-36.0","63a9a8f2f098b7e45bd03721","665500ab8938657b03fbdba8","6657953b3fa9bac66ec69436","787","stimuli/01100010.jpg"," ","","feedback_trial","0","","","","","","","","","","","","","","","","","","","","",""
"","","","","","image-keyboard-response","62","210713","0.0-37.0","63a9a8f2f098b7e45bd03721","665500ab8938657b03fbdba8","6657953b3fa9bac66ec69436","1981","stimuli/0110000.jpg","1","","prediction_trial","0","","false","","0","true","true","false","false","false","false","[1,0]","110","000","0","","","","","","",""
"","","","","","image-keyboard-response","63","211578","0.0-38.0","63a9a8f2f098b7e45bd03721","665500ab8938657b03fbdba8","6657953b3fa9bac66ec69436","865","stimuli/01100000.jpg"," ","","feedback_trial","1","","","","","","","","","","","","","","","","","","","","",""
"","","","","","image-keyboard-response","64","212442","0.0-39.0","63a9a8f2f098b7e45bd03721","665500ab8938657b03fbdba8","6657953b3fa9bac66ec69436","863","stimuli/1100101.jpg","1","","prediction_trial","1","","true","","1","true","true","true","true","true","true","[1]","100","101","1","","","","","","",""
"","","","","","image-keyboard-response","65","212898","0.0-40.0","63a9a8f2f098b7e45bd03721","665500ab8938657b03fbdba8","6657953b3fa9bac66ec69436","455","stimuli/11001011.jpg"," ","","feedback_trial","1","","","","","","","","","","","","","","","","","","","","",""
"","","","","","image-keyboard-response","66","214028","0.0-41.0","63a9a8f2f098b7e45bd03721","665500ab8938657b03fbdba8","6657953b3fa9bac66ec69436","1130","stimuli/1010001.jpg","1","","prediction_trial","1","","true","","1","true","true","false","true","false","true","[1]","010","001","1","","","","","","",""
"","","","","","image-keyboard-response","67","214451","0.0-42.0","63a9a8f2f098b7e45bd03721","665500ab8938657b03fbdba8","6657953b3fa9bac66ec69436","422","stimuli/10100011.jpg"," ","","feedback_trial","1","","","","","","","","","","","","","","","","","","","","",""
"","","","","","image-keyboard-response","68","216026","0.0-43.0","63a9a8f2f098b7e45bd03721","665500ab8938657b03fbdba8","6657953b3fa9bac66ec69436","1574","stimuli/2101100.jpg","2","","prediction_trial","0","","false","","2","true","true","false","false","false","false","[2,0]","101","100","0","","","","","","",""
"","","","","","image-keyboard-response","69","216805","0.0-44.0","63a9a8f2f098b7e45bd03721","665500ab8938657b03fbdba8","6657953b3fa9bac66ec69436","778","stimuli/21011000.jpg"," ","","feedback_trial","2","","","","","","","","","","","","","","","","","","","","",""
"","","","","","image-keyboard-response","70","218040","0.0-45.0","63a9a8f2f098b7e45bd03721","665500ab8938657b03fbdba8","6657953b3fa9bac66ec69436","1234","stimuli/2111100.jpg","2","","prediction_trial","0","","false","","2","true","true","false","false","false","false","[2,0,1]","111","100","0","","","","","","",""
"","","","","","image-keyboard-response","71","218727","0.0-46.0","63a9a8f2f098b7e45bd03721","665500ab8938657b03fbdba8","6657953b3fa9bac66ec69436","686","stimuli/21111000.jpg"," ","","feedback_trial","2","","","","","","","","","","","","","","","","","","","","",""
"","","","","","image-keyboard-response","72","219983","0.0-47.0","63a9a8f2f098b7e45bd03721","665500ab8938657b03fbdba8","6657953b3fa9bac66ec69436","1255","stimuli/1010101.jpg","1","","prediction_trial","1","","true","","1","true","true","false","true","false","true","[1]","010","101","1","","","","","","",""
"","","","","","image-keyboard-response","73","220370","0.0-48.0","63a9a8f2f098b7e45bd03721","665500ab8938657b03fbdba8","6657953b3fa9bac66ec69436","385","stimuli/10101011.jpg"," ","","feedback_trial","1","","","","","","","","","","","","","","","","","","","","",""
"","","","","","image-keyboard-response","74","221834","0.0-49.0","63a9a8f2f098b7e45bd03721","665500ab8938657b03fbdba8","6657953b3fa9bac66ec69436","1462","stimuli/2010001.jpg","2","","prediction_trial","2","","true","","2","false","true","true","true","false","true","[2]","010","001","1","","","","","","",""
"","","","","","image-keyboard-response","75","222232","0.0-50.0","63a9a8f2f098b7e45bd03721","665500ab8938657b03fbdba8","6657953b3fa9bac66ec69436","397","stimuli/20100012.jpg"," ","","feedback_trial","2","","","","","","","","","","","","","","","","","","","","",""
"","","","","","image-keyboard-response","76","223326","0.0-51.0","63a9a8f2f098b7e45bd03721","665500ab8938657b03fbdba8","6657953b3fa9bac66ec69436","1093","stimuli/1010000.jpg","1","","prediction_trial","1","","true","","1","true","true","false","true","false","true","[1]","010","000","1","","","","","","",""
"","","","","","image-keyboard-response","77","223696","0.0-52.0","63a9a8f2f098b7e45bd03721","665500ab8938657b03fbdba8","6657953b3fa9bac66ec69436","368","stimuli/10100001.jpg"," ","","feedback_trial","1","","","","","","","","","","","","","","","","","","","","",""
"","","","","","image-keyboard-response","78","225002","0.0-53.0","63a9a8f2f098b7e45bd03721","665500ab8938657b03fbdba8","6657953b3fa9bac66ec69436","1305","stimuli/0101011.jpg","0","","prediction_trial","2","","false","","0","true","true","false","false","false","false","[0,2]","101","011","0","","","","","","",""
"","","","","","image-keyboard-response","79","225433","0.0-54.0","63a9a8f2f098b7e45bd03721","665500ab8938657b03fbdba8","6657953b3fa9bac66ec69436","430","stimuli/01010112.jpg"," ","","feedback_trial","0","","","","","","","","","","","","","","","","","","","","",""
"","","","","","image-keyboard-response","80","226430","0.0-55.0","63a9a8f2f098b7e45bd03721","665500ab8938657b03fbdba8","6657953b3fa9bac66ec69436","996","stimuli/1010100.jpg","1","","prediction_trial","1","","true","","1","true","true","false","true","false","true","[1]","010","100","1","","","","","","",""
"","","","","","image-keyboard-response","81","226806","0.0-56.0","63a9a8f2f098b7e45bd03721","665500ab8938657b03fbdba8","6657953b3fa9bac66ec69436","376","stimuli/10101001.jpg"," ","","feedback_trial","1","","","","","","","","","","","","","","","","","","","","",""
"","","","","","image-keyboard-response","82","230099","0.0-57.0","63a9a8f2f098b7e45bd03721","665500ab8938657b03fbdba8","6657953b3fa9bac66ec69436","3291","stimuli/1011101.jpg","1","","prediction_trial","2","","false","","1","true","true","false","false","false","false","[1,2]","011","101","0","","","","","","",""
"","","","","","image-keyboard-response","83","230757","0.0-58.0","63a9a8f2f098b7e45bd03721","665500ab8938657b03fbdba8","6657953b3fa9bac66ec69436","657","stimuli/10111012.jpg"," ","","feedback_trial","1","","","","","","","","","","","","","","","","","","","","",""
"","","","","","image-keyboard-response","84","232001","0.0-59.0","63a9a8f2f098b7e45bd03721","665500ab8938657b03fbdba8","6657953b3fa9bac66ec69436","1243","stimuli/1011010.jpg","1","","prediction_trial","1","","true","","1","false","true","false","false","false","false","[1,2]","011","010","1","","","","","","",""
"","","","","","image-keyboard-response","85","232513","0.0-60.0","63a9a8f2f098b7e45bd03721","665500ab8938657b03fbdba8","6657953b3fa9bac66ec69436","511","stimuli/10110101.jpg"," ","","feedback_trial","1","","","","","","","","","","","","","","","","","","","","",""
"","","","","","image-keyboard-response","86","235006","0.0-61.0","63a9a8f2f098b7e45bd03721","665500ab8938657b03fbdba8","6657953b3fa9bac66ec69436","2491","stimuli/2000101.jpg","2","","prediction_trial","2","","true","","2","false","false","true","true","false","false","[2]","000","101","1","","","","","","",""
"","","","","","image-keyboard-response","87","235831","0.0-62.0","63a9a8f2f098b7e45bd03721","665500ab8938657b03fbdba8","6657953b3fa9bac66ec69436","824","stimuli/20001012.jpg"," ","","feedback_trial","2","","","","","","","","","","","","","","","","","","","","",""
"","","","","","image-keyboard-response","88","237416","0.0-63.0","63a9a8f2f098b7e45bd03721","665500ab8938657b03fbdba8","6657953b3fa9bac66ec69436","1584","stimuli/1110100.jpg","1","","prediction_trial","1","","true","","1","true","true","false","false","false","false","[0,1]","110","100","1","","","","","","",""
"","","","","","image-keyboard-response","89","237982","0.0-64.0","63a9a8f2f098b7e45bd03721","665500ab8938657b03fbdba8","6657953b3fa9bac66ec69436","565","stimuli/11101001.jpg"," ","","feedback_trial","0","","","","","","","","","","","","","","","","","","","","",""
"","","","","","image-keyboard-response","90","238992","0.0-65.0","63a9a8f2f098b7e45bd03721","665500ab8938657b03fbdba8","6657953b3fa9bac66ec69436","1009","stimuli/0100100.jpg","0","","prediction_trial","0","","true","","0","false","true","false","true","false","true","[0]","100","100","1","","","","","","",""
"","","","","","image-keyboard-response","91","239385","0.0-66.0","63a9a8f2f098b7e45bd03721","665500ab8938657b03fbdba8","6657953b3fa9bac66ec69436","391","stimuli/01001000.jpg"," ","","feedback_trial","0","","","","","","","","","","","","","","","","","","","","",""
"","","","","","image-keyboard-response","92","240524","0.0-67.0","63a9a8f2f098b7e45bd03721","665500ab8938657b03fbdba8","6657953b3fa9bac66ec69436","1138","stimuli/1000001.jpg","1","","prediction_trial","1","","true","","1","true","true","true","true","true","true","[1]","000","001","1","","","","","","",""
"","","","","","image-keyboard-response","93","240892","0.0-68.0","63a9a8f2f098b7e45bd03721","665500ab8938657b03fbdba8","6657953b3fa9bac66ec69436","367","stimuli/10000011.jpg"," ","","feedback_trial","1","","","","","","","","","","","","","","","","","","","","",""
"","","","","","image-keyboard-response","94","241652","0.0-69.0","63a9a8f2f098b7e45bd03721","665500ab8938657b03fbdba8","6657953b3fa9bac66ec69436","758","stimuli/0011001.jpg","0","","prediction_trial","0","","true","","0","true","true","true","true","true","true","[0]","011","001","1","","","","","","",""
"","","","","","image-keyboard-response","95","241988","0.0-70.0","63a9a8f2f098b7e45bd03721","665500ab8938657b03fbdba8","6657953b3fa9bac66ec69436","334","stimuli/00110010.jpg"," ","","feedback_trial","0","","","","","","","","","","","","","","","","","","","","",""
"","","","","","image-keyboard-response","96","242764","0.0-71.0","63a9a8f2f098b7e45bd03721","665500ab8938657b03fbdba8","6657953b3fa9bac66ec69436","775","stimuli/0011010.jpg","0","","prediction_trial","0","","true","","0","true","true","true","true","true","true","[0]","011","010","1","","","","","","",""
"","","","","","image-keyboard-response","97","243129","0.0-72.0","63a9a8f2f098b7e45bd03721","665500ab8938657b03fbdba8","6657953b3fa9bac66ec69436","363","stimuli/00110100.jpg"," ","","feedback_trial","0","","","","","","","","","","","","","","","","","","","","",""
"","","","","","image-keyboard-response","98","243935","0.0-73.0","63a9a8f2f098b7e45bd03721","665500ab8938657b03fbdba8","6657953b3fa9bac66ec69436","805","stimuli/2110100.jpg","2","","prediction_trial","2","","true","","2","true","true","true","true","true","true","[2]","110","100","1","","","","","","",""
"","","","","","image-keyboard-response","99","244273","0.0-74.0","63a9a8f2f098b7e45bd03721","665500ab8938657b03fbdba8","6657953b3fa9bac66ec69436","337","stimuli/21101002.jpg"," ","","feedback_trial","2","","","","","","","","","","","","","","","","","","","","",""
"","","","","","image-keyboard-response","100","245650","0.0-75.0","63a9a8f2f098b7e45bd03721","665500ab8938657b03fbdba8","6657953b3fa9bac66ec69436","1376","stimuli/2100001.jpg","2","","prediction_trial","2","","true","","2","false","true","true","true","false","true","[2]","100","001","1","","","","","","",""
"","","","","","image-keyboard-response","101","246045","0.0-76.0","63a9a8f2f098b7e45bd03721","665500ab8938657b03fbdba8","6657953b3fa9bac66ec69436","395","stimuli/21000012.jpg"," ","","feedback_trial","2","","","","","","","","","","","","","","","","","","","","",""
"","","","","","image-keyboard-response","102","247804","0.0-77.0","63a9a8f2f098b7e45bd03721","665500ab8938657b03fbdba8","6657953b3fa9bac66ec69436","1758","stimuli/0011110.jpg","0","","prediction_trial","0","","true","","0","false","false","true","true","false","false","[0]","011","110","1","","","","","","",""
"","","","","","image-keyboard-response","103","248258","0.0-78.0","63a9a8f2f098b7e45bd03721","665500ab8938657b03fbdba8","6657953b3fa9bac66ec69436","452","stimuli/00111100.jpg"," ","","feedback_trial","0","","","","","","","","","","","","","","","","","","","","",""
"","","","","","image-keyboard-response","104","249800","0.0-79.0","63a9a8f2f098b7e45bd03721","665500ab8938657b03fbdba8","6657953b3fa9bac66ec69436","1542","stimuli/0111111.jpg","1","","prediction_trial","2","","false","","0","false","false","false","false","false","false","[1,2,0]","111","111","0","","","","","","",""
"","","","","","image-keyboard-response","105","250603","0.0-80.0","63a9a8f2f098b7e45bd03721","665500ab8938657b03fbdba8","6657953b3fa9bac66ec69436","801","stimuli/01111112.jpg"," ","","feedback_trial","1","","","","","","","","","","","","","","","","","","","","",""
"","","","","","image-keyboard-response","106","252326","0.0-81.0","63a9a8f2f098b7e45bd03721","665500ab8938657b03fbdba8","6657953b3fa9bac66ec69436","1721","stimuli/2000011.jpg","1","","prediction_trial","2","","false","","2","false","false","true","true","false","false","[2]","000","011","0","","","","","","",""
"","","","","","image-keyboard-response","107","253013","0.0-82.0","63a9a8f2f098b7e45bd03721","665500ab8938657b03fbdba8","6657953b3fa9bac66ec69436","686","stimuli/20000112.jpg"," ","","feedback_trial","2","","","","","","","","","","","","","","","","","","","","",""
"","","","","","image-keyboard-response","108","254597","0.0-83.0","63a9a8f2f098b7e45bd03721","665500ab8938657b03fbdba8","6657953b3fa9bac66ec69436","1583","stimuli/0010110.jpg","0","","prediction_trial","0","","true","","0","false","false","true","true","false","false","[0]","010","110","1","","","","","","",""
"","","","","","image-keyboard-response","109","255225","0.0-84.0","63a9a8f2f098b7e45bd03721","665500ab8938657b03fbdba8","6657953b3fa9bac66ec69436","627","stimuli/00101100.jpg"," ","","feedback_trial","0","","","","","","","","","","","","","","","","","","","","",""
"","","","","","image-keyboard-response","110","256623","0.0-85.0","63a9a8f2f098b7e45bd03721","665500ab8938657b03fbdba8","6657953b3fa9bac66ec69436","1389","stimuli/1111000.jpg","1","","prediction_trial","1","","true","","1","true","true","false","false","false","false","[1,2,0]","111","000","1","","","","","","",""
"","","","","","image-keyboard-response","111","257111","0.0-86.0","63a9a8f2f098b7e45bd03721","665500ab8938657b03fbdba8","6657953b3fa9bac66ec69436","487","stimuli/11110001.jpg"," ","","feedback_trial","1","","","","","","","","","","","","","","","","","","","","",""
"","","","","","image-keyboard-response","112","259293","0.0-87.0","63a9a8f2f098b7e45bd03721","665500ab8938657b03fbdba8","6657953b3fa9bac66ec69436","2180","stimuli/0111001.jpg","0","","prediction_trial","2","","false","","0","true","true","false","false","false","false","[2,1,0]","111","001","0","","","","","","",""
"","","","","","image-keyboard-response","113","259922","0.0-88.0","63a9a8f2f098b7e45bd03721","665500ab8938657b03fbdba8","6657953b3fa9bac66ec69436","628","stimuli/01110012.jpg"," ","","feedback_trial","2","","","","","","","","","","","","","","","","","","","","",""
"","","","","","image-keyboard-response","114","260791","0.0-89.0","63a9a8f2f098b7e45bd03721","665500ab8938657b03fbdba8","6657953b3fa9bac66ec69436","868","stimuli/0000000.jpg","0","","prediction_trial","0","","true","","0","true","true","true","true","true","true","[0]","000","000","1","","","","","","",""
"","","","","","image-keyboard-response","115","261172","0.0-90.0","63a9a8f2f098b7e45bd03721","665500ab8938657b03fbdba8","6657953b3fa9bac66ec69436","379","stimuli/00000000.jpg"," ","","feedback_trial","0","","","","","","","","","","","","","","","","","","","","",""
"","","","","","image-keyboard-response","116","262224","0.0-91.0","63a9a8f2f098b7e45bd03721","665500ab8938657b03fbdba8","6657953b3fa9bac66ec69436","1050","stimuli/0000111.jpg","1","","prediction_trial","0","","false","","0","false","false","true","true","false","false","[0]","000","111","0","","","","","","",""
"","","","","","image-keyboard-response","117","262835","0.0-92.0","63a9a8f2f098b7e45bd03721","665500ab8938657b03fbdba8","6657953b3fa9bac66ec69436","610","stimuli/00001110.jpg"," ","","feedback_trial","0","","","","","","","","","","","","","","","","","","","","",""
"","","","","","image-keyboard-response","118","263893","0.0-93.0","63a9a8f2f098b7e45bd03721","665500ab8938657b03fbdba8","6657953b3fa9bac66ec69436","1057","stimuli/1111001.jpg","1","","prediction_trial","2","","false","","1","true","true","false","false","false","false","[2,1,0]","111","001","0","","","","","","",""
"","","","","","image-keyboard-response","119","264386","0.0-94.0","63a9a8f2f098b7e45bd03721","665500ab8938657b03fbdba8","6657953b3fa9bac66ec69436","492","stimuli/11110012.jpg"," ","","feedback_trial","2","","","","","","","","","","","","","","","","","","","","",""
"","","","","","image-keyboard-response","120","265483","0.0-95.0","63a9a8f2f098b7e45bd03721","665500ab8938657b03fbdba8","6657953b3fa9bac66ec69436","1095","stimuli/0110110.jpg","1","","prediction_trial","0","","false","","0","false","false","false","false","false","false","[0,1]","110","110","0","","","","","","",""
"","","","","","image-keyboard-response","121","265996","0.0-96.0","63a9a8f2f098b7e45bd03721","665500ab8938657b03fbdba8","6657953b3fa9bac66ec69436","512","stimuli/01101100.jpg"," ","","feedback_trial","0","","","","","","","","","","","","","","","","","","","","",""
"","","","","","image-keyboard-response","122","267065","0.0-97.0","63a9a8f2f098b7e45bd03721","665500ab8938657b03fbdba8","6657953b3fa9bac66ec69436","1067","stimuli/1111110.jpg","1","","prediction_trial","0","","false","","1","false","false","false","false","false","false","[2,0,1]","111","110","0","","","","","","",""
"","","","","","image-keyboard-response","123","267552","0.0-98.0","63a9a8f2f098b7e45bd03721","665500ab8938657b03fbdba8","6657953b3fa9bac66ec69436","478","stimuli/11111100.jpg"," ","","feedback_trial","2","","","","","","","","","","","","","","","","","","","","",""
"","","","","","image-keyboard-response","124","269143","0.0-99.0","63a9a8f2f098b7e45bd03721","665500ab8938657b03fbdba8","6657953b3fa9bac66ec69436","1590","stimuli/2100101.jpg","0","","prediction_trial","2","","false","","2","false","false","true","true","false","false","[2]","100","101","0","","","","","","",""
"","","","","","image-keyboard-response","125","269688","0.0-100.0","63a9a8f2f098b7e45bd03721","665500ab8938657b03fbdba8","6657953b3fa9bac66ec69436","543","stimuli/21001012.jpg"," ","","feedback_trial","2","","","","","","","","","","","","","","","","","","","","",""
"","","","","","image-keyboard-response","126","270950","0.0-101.0","63a9a8f2f098b7e45bd03721","665500ab8938657b03fbdba8","6657953b3fa9bac66ec69436","1261","stimuli/0100001.jpg","0","","prediction_trial","0","","true","","0","true","true","false","true","false","true","[0]","100","001","1","","","","","","",""
"","","","","","image-keyboard-response","127","271356","0.0-102.0","63a9a8f2f098b7e45bd03721","665500ab8938657b03fbdba8","6657953b3fa9bac66ec69436","405","stimuli/01000010.jpg"," ","","feedback_trial","0","","","","","","","","","","","","","","","","","","","","",""
"","","","","","image-keyboard-response","128","272472","0.0-103.0","63a9a8f2f098b7e45bd03721","665500ab8938657b03fbdba8","6657953b3fa9bac66ec69436","1114","stimuli/0011000.jpg","0","","prediction_trial","0","","true","","0","true","true","true","true","true","true","[0]","011","000","1","","","","","","",""
"","","","","","image-keyboard-response","129","272811","0.0-104.0","63a9a8f2f098b7e45bd03721","665500ab8938657b03fbdba8","6657953b3fa9bac66ec69436","338","stimuli/00110000.jpg"," ","","feedback_trial","0","","","","","","","","","","","","","","","","","","","","",""
"","","","","","image-keyboard-response","130","273559","0.0-105.0","63a9a8f2f098b7e45bd03721","665500ab8938657b03fbdba8","6657953b3fa9bac66ec69436","747","stimuli/0000010.jpg","0","","prediction_trial","0","","true","","0","true","true","true","true","true","true","[0]","000","010","1","","","","","","",""
"","","","","","image-keyboard-response","131","273875","0.0-106.0","63a9a8f2f098b7e45bd03721","665500ab8938657b03fbdba8","6657953b3fa9bac66ec69436","315","stimuli/00000100.jpg"," ","","feedback_trial","0","","","","","","","","","","","","","","","","","","","","",""
"","","","","","image-keyboard-response","132","275469","0.0-107.0","63a9a8f2f098b7e45bd03721","665500ab8938657b03fbdba8","6657953b3fa9bac66ec69436","1593","stimuli/0111100.jpg","2","","prediction_trial","0","","false","","0","false","true","false","false","false","false","[2,1,0]","111","100","0","","","","","","",""
"","","","","","image-keyboard-response","133","276232","0.0-108.0","63a9a8f2f098b7e45bd03721","665500ab8938657b03fbdba8","6657953b3fa9bac66ec69436","761","stimuli/01111000.jpg"," ","","feedback_trial","2","","","","","","","","","","","","","","","","","","","","",""
"","","","","","image-keyboard-response","134","277012","0.0-109.0","63a9a8f2f098b7e45bd03721","665500ab8938657b03fbdba8","6657953b3fa9bac66ec69436","779","stimuli/0000100.jpg","0","","prediction_trial","0","","true","","0","false","true","true","true","false","true","[0]","000","100","1","","","","","","",""
"","","","","","image-keyboard-response","135","277351","0.0-110.0","63a9a8f2f098b7e45bd03721","665500ab8938657b03fbdba8","6657953b3fa9bac66ec69436","338","stimuli/00001000.jpg"," ","","feedback_trial","0","","","","","","","","","","","","","","","","","","","","",""
"","","","","","image-keyboard-response","136","278709","0.0-111.0","63a9a8f2f098b7e45bd03721","665500ab8938657b03fbdba8","6657953b3fa9bac66ec69436","1357","stimuli/1001010.jpg","1","","prediction_trial","1","","true","","1","false","true","true","true","false","true","[1]","001","010","1","","","","","","",""
"","","","","","image-keyboard-response","137","279033","0.0-112.0","63a9a8f2f098b7e45bd03721","665500ab8938657b03fbdba8","6657953b3fa9bac66ec69436","322","stimuli/10010101.jpg"," ","","feedback_trial","1","","","","","","","","","","","","","","","","","","","","",""
"","","","","","image-keyboard-response","138","280915","0.0-113.0","63a9a8f2f098b7e45bd03721","665500ab8938657b03fbdba8","6657953b3fa9bac66ec69436","1881","stimuli/0111110.jpg","1","","prediction_trial","0","","false","","0","false","false","false","false","false","false","[0,2,1]","111","110","0","","","","","","",""
"","","","","","image-keyboard-response","139","281370","0.0-114.0","63a9a8f2f098b7e45bd03721","665500ab8938657b03fbdba8","6657953b3fa9bac66ec69436","454","stimuli/01111100.jpg"," ","","feedback_trial","0","","","","","","","","","","","","","","","","","","","","",""
"","","","","","image-keyboard-response","140","282956","0.0-115.0","63a9a8f2f098b7e45bd03721","665500ab8938657b03fbdba8","6657953b3fa9bac66ec69436","1585","stimuli/0100110.jpg","0","","prediction_trial","0","","true","","0","false","false","false","true","false","false","[0]","100","110","1","","","","","","",""
"","","","","","image-keyboard-response","141","283358","0.0-116.0","63a9a8f2f098b7e45bd03721","665500ab8938657b03fbdba8","6657953b3fa9bac66ec69436","401","stimuli/01001100.jpg"," ","","feedback_trial","0","","","","","","","","","","","","","","","","","","","","",""
"","","","","","image-keyboard-response","142","284694","0.0-117.0","63a9a8f2f098b7e45bd03721","665500ab8938657b03fbdba8","6657953b3fa9bac66ec69436","1335","stimuli/1011111.jpg","0","","prediction_trial","2","","false","","1","false","false","false","false","false","false","[1,2]","011","111","0","","","","","","",""
"","","","","","image-keyboard-response","143","285222","0.0-118.0","63a9a8f2f098b7e45bd03721","665500ab8938657b03fbdba8","6657953b3fa9bac66ec69436","527","stimuli/10111112.jpg"," ","","feedback_trial","1","","","","","","","","","","","","","","","","","","","","",""
"","","","","","image-keyboard-response","144","285870","0.0-119.0","63a9a8f2f098b7e45bd03721","665500ab8938657b03fbdba8","6657953b3fa9bac66ec69436","647","stimuli/1011000.jpg","1","","prediction_trial","1","","true","","1","true","true","false","false","false","false","[1,2]","011","000","1","","","","","","",""
"","","","","","image-keyboard-response","145","286238","0.0-120.0","63a9a8f2f098b7e45bd03721","665500ab8938657b03fbdba8","6657953b3fa9bac66ec69436","366","stimuli/10110001.jpg"," ","","feedback_trial","1","","","","","","","","","","","","","","","","","","","","",""
"","","","","","image-keyboard-response","146","288016","0.0-121.0","63a9a8f2f098b7e45bd03721","665500ab8938657b03fbdba8","6657953b3fa9bac66ec69436","1777","stimuli/2110011.jpg","2","","prediction_trial","2","","true","","2","false","false","true","true","false","false","[2]","110","011","1","","","","","","",""
"","","","","","image-keyboard-response","147","288406","0.0-122.0","63a9a8f2f098b7e45bd03721","665500ab8938657b03fbdba8","6657953b3fa9bac66ec69436","389","stimuli/21100112.jpg"," ","","feedback_trial","2","","","","","","","","","","","","","","","","","","","","",""
"","","","","","image-keyboard-response","148","289888","0.0-123.0","63a9a8f2f098b7e45bd03721","665500ab8938657b03fbdba8","6657953b3fa9bac66ec69436","1481","stimuli/2111111.jpg","2","","prediction_trial","1","","false","","2","false","false","false","false","false","false","[0,2,1]","111","111","0","","","","","","",""
"","","","","","image-keyboard-response","149","290270","0.0-124.0","63a9a8f2f098b7e45bd03721","665500ab8938657b03fbdba8","6657953b3fa9bac66ec69436","380","stimuli/21111111.jpg"," ","","feedback_trial","0","","","","","","","","","","","","","","","","","","","","",""
"","","","","","image-keyboard-response","150","290984","0.0-125.0","63a9a8f2f098b7e45bd03721","665500ab8938657b03fbdba8","6657953b3fa9bac66ec69436","712","stimuli/1100100.jpg","1","","prediction_trial","1","","true","","1","true","true","true","true","true","true","[1]","100","100","1","","","","","","",""
"","","","","","image-keyboard-response","151","291330","0.0-126.0","63a9a8f2f098b7e45bd03721","665500ab8938657b03fbdba8","6657953b3fa9bac66ec69436","345","stimuli/11001001.jpg"," ","","feedback_trial","1","","","","","","","","","","","","","","","","","","","","",""
"","","","","","image-keyboard-response","152","292349","0.0-127.0","63a9a8f2f098b7e45bd03721","665500ab8938657b03fbdba8","6657953b3fa9bac66ec69436","1018","stimuli/2101011.jpg","1","","prediction_trial","2","","false","","2","false","false","false","false","false","false","[0,2]","101","011","0","","","","","","",""
"","","","","","image-keyboard-response","153","292721","0.0-128.0","63a9a8f2f098b7e45bd03721","665500ab8938657b03fbdba8","6657953b3fa9bac66ec69436","371","stimuli/21010112.jpg"," ","","feedback_trial","0","","","","","","","","","","","","","","","","","","","","",""
"","","","","","image-keyboard-response","154","293538","0.0-129.0","63a9a8f2f098b7e45bd03721","665500ab8938657b03fbdba8","6657953b3fa9bac66ec69436","815","stimuli/2010100.jpg","2","","prediction_trial","2","","true","","2","true","true","true","true","true","true","[2]","010","100","1","","","","","","",""
"","","","","","image-keyboard-response","155","293846","0.0-130.0","63a9a8f2f098b7e45bd03721","665500ab8938657b03fbdba8","6657953b3fa9bac66ec69436","306","stimuli/20101002.jpg"," ","","feedback_trial","2","","","","","","","","","","","","","","","","","","","","",""
"","","","","","image-keyboard-response","156","296700","0.0-131.0","63a9a8f2f098b7e45bd03721","665500ab8938657b03fbdba8","6657953b3fa9bac66ec69436","2854","stimuli/2001011.jpg","1","","prediction_trial","2","","false","","2","false","false","false","true","false","false","[2]","001","011","0","","","","","","",""
"","","","","","image-keyboard-response","157","297112","0.0-132.0","63a9a8f2f098b7e45bd03721","665500ab8938657b03fbdba8","6657953b3fa9bac66ec69436","411","stimuli/20010112.jpg"," ","","feedback_trial","2","","","","","","","","","","","","","","","","","","","","",""
"","","","","","image-keyboard-response","158","298193","0.0-133.0","63a9a8f2f098b7e45bd03721","665500ab8938657b03fbdba8","6657953b3fa9bac66ec69436","1080","stimuli/1110001.jpg","1","","prediction_trial","0","","false","","1","true","true","false","false","false","false","[1,0]","110","001","0","","","","","","",""
"","","","","","image-keyboard-response","159","298588","0.0-134.0","63a9a8f2f098b7e45bd03721","665500ab8938657b03fbdba8","6657953b3fa9bac66ec69436","394","stimuli/11100010.jpg"," ","","feedback_trial","1","","","","","","","","","","","","","","","","","","","","",""
"","","","","","image-keyboard-response","160","300679","0.0-135.0","63a9a8f2f098b7e45bd03721","665500ab8938657b03fbdba8","6657953b3fa9bac66ec69436","2090","stimuli/1100110.jpg","0","","prediction_trial","1","","false","","1","false","false","true","true","false","false","[1]","100","110","0","","","","","","",""
"","","","","","image-keyboard-response","161","301195","0.0-136.0","63a9a8f2f098b7e45bd03721","665500ab8938657b03fbdba8","6657953b3fa9bac66ec69436","515","stimuli/11001101.jpg"," ","","feedback_trial","1","","","","","","","","","","","","","","","","","","","","",""
"","","","","","image-keyboard-response","162","302103","0.0-137.0","63a9a8f2f098b7e45bd03721","665500ab8938657b03fbdba8","6657953b3fa9bac66ec69436","907","stimuli/2001010.jpg","2","","prediction_trial","2","","true","","2","true","true","false","true","false","true","[2]","001","010","1","","","","","","",""
"","","","","","image-keyboard-response","163","302498","0.0-138.0","63a9a8f2f098b7e45bd03721","665500ab8938657b03fbdba8","6657953b3fa9bac66ec69436","394","stimuli/20010102.jpg"," ","","feedback_trial","2","","","","","","","","","","","","","","","","","","","","",""
"","","","","","image-keyboard-response","164","303797","0.0-139.0","63a9a8f2f098b7e45bd03721","665500ab8938657b03fbdba8","6657953b3fa9bac66ec69436","1297","stimuli/0101001.jpg","0","","prediction_trial","0","","true","","0","true","true","false","false","false","false","[2,0]","101","001","1","","","","","","",""
"","","","","","image-keyboard-response","165","304190","0.0-140.0","63a9a8f2f098b7e45bd03721","665500ab8938657b03fbdba8","6657953b3fa9bac66ec69436","392","stimuli/01010010.jpg"," ","","feedback_trial","2","","","","","","","","","","","","","","","","","","","","",""
"","","","","","image-keyboard-response","166","304997","0.0-141.0","63a9a8f2f098b7e45bd03721","665500ab8938657b03fbdba8","6657953b3fa9bac66ec69436","805","stimuli/1100001.jpg","1","","prediction_trial","1","","true","","1","true","true","true","true","true","true","[1]","100","001","1","","","","","","",""
"","","","","","image-keyboard-response","167","305313","0.0-142.0","63a9a8f2f098b7e45bd03721","665500ab8938657b03fbdba8","6657953b3fa9bac66ec69436","315","stimuli/11000011.jpg"," ","","feedback_trial","1","","","","","","","","","","","","","","","","","","","","",""
"","","","","","image-keyboard-response","168","306240","0.0-143.0","63a9a8f2f098b7e45bd03721","665500ab8938657b03fbdba8","6657953b3fa9bac66ec69436","926","stimuli/0110010.jpg","0","","prediction_trial","0","","true","","0","true","true","false","false","false","false","[0,1]","110","010","1","","","","","","",""
"","","","","","image-keyboard-response","169","306598","0.0-144.0","63a9a8f2f098b7e45bd03721","665500ab8938657b03fbdba8","6657953b3fa9bac66ec69436","357","stimuli/01100100.jpg"," ","","feedback_trial","0","","","","","","","","","","","","","","","","","","","","",""
"","","","","","image-keyboard-response","170","307560","0.0-145.0","63a9a8f2f098b7e45bd03721","665500ab8938657b03fbdba8","6657953b3fa9bac66ec69436","961","stimuli/2110000.jpg","2","","prediction_trial","2","","true","","2","true","true","true","true","true","true","[2]","110","000","1","","","","","","",""
"","","","","","image-keyboard-response","171","307889","0.0-146.0","63a9a8f2f098b7e45bd03721","665500ab8938657b03fbdba8","6657953b3fa9bac66ec69436","328","stimuli/21100002.jpg"," ","","feedback_trial","2","","","","","","","","","","","","","","","","","","","","",""
"","","","","","image-keyboard-response","172","308730","0.0-147.0","63a9a8f2f098b7e45bd03721","665500ab8938657b03fbdba8","6657953b3fa9bac66ec69436","839","stimuli/0110011.jpg","0","","prediction_trial","1","","false","","0","true","true","false","false","false","false","[0,1]","110","011","0","","","","","","",""
"","","","","","image-keyboard-response","173","309131","0.0-148.0","63a9a8f2f098b7e45bd03721","665500ab8938657b03fbdba8","6657953b3fa9bac66ec69436","401","stimuli/01100111.jpg"," ","","feedback_trial","0","","","","","","","","","","","","","","","","","","","","",""
"","","","","","image-keyboard-response","174","310907","0.0-149.0","63a9a8f2f098b7e45bd03721","665500ab8938657b03fbdba8","6657953b3fa9bac66ec69436","1775","stimuli/2010111.jpg","0","","prediction_trial","2","","false","","2","false","false","true","true","false","false","[2]","010","111","0","","","","","","",""
"","","","","","image-keyboard-response","175","311428","0.0-150.0","63a9a8f2f098b7e45bd03721","665500ab8938657b03fbdba8","6657953b3fa9bac66ec69436","520","stimuli/20101112.jpg"," ","","feedback_trial","2","","","","","","","","","","","","","","","","","","","","",""
"","","","","","image-keyboard-response","176","312268","0.0-151.0","63a9a8f2f098b7e45bd03721","665500ab8938657b03fbdba8","6657953b3fa9bac66ec69436","839","stimuli/2000111.jpg","0","","prediction_trial","2","","false","","2","false","false","true","true","false","false","[2]","000","111","0","","","","","","",""
"","","","","","image-keyboard-response","177","312673","0.0-152.0","63a9a8f2f098b7e45bd03721","665500ab8938657b03fbdba8","6657953b3fa9bac66ec69436","404","stimuli/20001112.jpg"," ","","feedback_trial","2","","","","","","","","","","","","","","","","","","","","",""
"","","","","","image-keyboard-response","178","313733","0.0-153.0","63a9a8f2f098b7e45bd03721","665500ab8938657b03fbdba8","6657953b3fa9bac66ec69436","1059","stimuli/0011100.jpg","0","","prediction_trial","0","","true","","0","false","true","true","true","false","true","[0]","011","100","1","","","","","","",""
"","","","","","image-keyboard-response","179","314094","0.0-154.0","63a9a8f2f098b7e45bd03721","665500ab8938657b03fbdba8","6657953b3fa9bac66ec69436","359","stimuli/00111000.jpg"," ","","feedback_trial","0","","","","","","","","","","","","","","","","","","","","",""
"","","","","","image-keyboard-response","180","315826","0.0-155.0","63a9a8f2f098b7e45bd03721","665500ab8938657b03fbdba8","6657953b3fa9bac66ec69436","1731","stimuli/0110111.jpg","1","","prediction_trial","0","","false","","0","false","false","false","false","false","false","[1,0]","110","111","0","","","","","","",""
"","","","","","image-keyboard-response","181","316261","0.0-156.0","63a9a8f2f098b7e45bd03721","665500ab8938657b03fbdba8","6657953b3fa9bac66ec69436","435","stimuli/01101110.jpg"," ","","feedback_trial","1","","","","","","","","","","","","","","","","","","","","",""
"","","","","","image-keyboard-response","182","316995","0.0-157.0","63a9a8f2f098b7e45bd03721","665500ab8938657b03fbdba8","6657953b3fa9bac66ec69436","733","stimuli/1101101.jpg","1","","prediction_trial","1","","true","","1","true","true","true","true","true","true","[1]","101","101","1","","","","","","",""
"","","","","","image-keyboard-response","183","317300","0.0-158.0","63a9a8f2f098b7e45bd03721","665500ab8938657b03fbdba8","6657953b3fa9bac66ec69436","304","stimuli/11011011.jpg"," ","","feedback_trial","1","","","","","","","","","","","","","","","","","","","","",""
"","","","","","image-keyboard-response","184","318480","0.0-159.0","63a9a8f2f098b7e45bd03721","665500ab8938657b03fbdba8","6657953b3fa9bac66ec69436","1179","stimuli/2110101.jpg","0","","prediction_trial","2","","false","","2","false","false","true","true","false","false","[2]","110","101","0","","","","","","",""
"","","","","","image-keyboard-response","185","318974","0.0-160.0","63a9a8f2f098b7e45bd03721","665500ab8938657b03fbdba8","6657953b3fa9bac66ec69436","493","stimuli/21101012.jpg"," ","","feedback_trial","2","","","","","","","","","","","","","","","","","","","","",""
"","","","","","image-keyboard-response","186","320576","0.0-161.0","63a9a8f2f098b7e45bd03721","665500ab8938657b03fbdba8","6657953b3fa9bac66ec69436","1600","stimuli/2100011.jpg","2","","prediction_trial","2","","true","","2","false","false","true","true","false","false","[2]","100","011","1","","","","","","",""
"","","","","","image-keyboard-response","187","321004","0.0-162.0","63a9a8f2f098b7e45bd03721","665500ab8938657b03fbdba8","6657953b3fa9bac66ec69436","428","stimuli/21000112.jpg"," ","","feedback_trial","2","","","","","","","","","","","","","","","","","","","","",""
"","","","","","image-keyboard-response","188","322280","0.0-163.0","63a9a8f2f098b7e45bd03721","665500ab8938657b03fbdba8","6657953b3fa9bac66ec69436","1271","stimuli/1000010.jpg","1","","prediction_trial","1","","true","","1","false","true","true","true","false","true","[1]","000","010","1","","","","","","",""
"","","","","","image-keyboard-response","189","322628","0.0-164.0","63a9a8f2f098b7e45bd03721","665500ab8938657b03fbdba8","6657953b3fa9bac66ec69436","347","stimuli/10000101.jpg"," ","","feedback_trial","1","","","","","","","","","","","","","","","","","","","","",""
"","","","","","image-keyboard-response","190","323397","0.0-165.0","63a9a8f2f098b7e45bd03721","665500ab8938657b03fbdba8","6657953b3fa9bac66ec69436","767","stimuli/1101001.jpg","1","","prediction_trial","1","","true","","1","true","true","true","true","true","true","[1]","101","001","1","","","","","","",""
"","","","","","image-keyboard-response","191","323758","0.0-166.0","63a9a8f2f098b7e45bd03721","665500ab8938657b03fbdba8","6657953b3fa9bac66ec69436","360","stimuli/11010011.jpg"," ","","feedback_trial","1","","","","","","","","","","","","","","","","","","","","",""
"","","","","","image-keyboard-response","192","326240","0.0-167.0","63a9a8f2f098b7e45bd03721","665500ab8938657b03fbdba8","6657953b3fa9bac66ec69436","2480","stimuli/1111100.jpg","0","","prediction_trial","0","","true","","1","true","true","false","false","false","false","[2,0,1]","111","100","1","","","","","","",""
"","","","","","image-keyboard-response","193","326617","0.0-168.0","63a9a8f2f098b7e45bd03721","665500ab8938657b03fbdba8","6657953b3fa9bac66ec69436","375","stimuli/11111000.jpg"," ","","feedback_trial","2","","","","","","","","","","","","","","","","","","","","",""
"","","","","","image-keyboard-response","194","328034","0.0-169.0","63a9a8f2f098b7e45bd03721","665500ab8938657b03fbdba8","6657953b3fa9bac66ec69436","1416","stimuli/0001111.jpg","1","","prediction_trial","0","","false","","0","false","false","true","true","false","false","[0]","001","111","0","","","","","","",""
"","","","","","image-keyboard-response","195","328502","0.0-170.0","63a9a8f2f098b7e45bd03721","665500ab8938657b03fbdba8","6657953b3fa9bac66ec69436","466","stimuli/00011110.jpg"," ","","feedback_trial","0","","","","","","","","","","","","","","","","","","","","",""
"","","","","","image-keyboard-response","196","329521","0.0-171.0","63a9a8f2f098b7e45bd03721","665500ab8938657b03fbdba8","6657953b3fa9bac66ec69436","1018","stimuli/2110111.jpg","2","","prediction_trial","2","","true","","2","false","false","true","true","false","false","[2]","110","111","1","","","","","","",""
"","","","","","image-keyboard-response","197","329948","0.0-172.0","63a9a8f2f098b7e45bd03721","665500ab8938657b03fbdba8","6657953b3fa9bac66ec69436","425","stimuli/21101112.jpg"," ","","feedback_trial","2","","","","","","","","","","","","","","","","","","","","",""
"","","","","","image-keyboard-response","198","331314","0.0-173.0","63a9a8f2f098b7e45bd03721","665500ab8938657b03fbdba8","6657953b3fa9bac66ec69436","1365","stimuli/1100111.jpg","1","","prediction_trial","1","","true","","1","false","false","true","true","false","false","[1]","100","111","1","","","","","","",""
"","","","","","image-keyboard-response","199","331724","0.0-174.0","63a9a8f2f098b7e45bd03721","665500ab8938657b03fbdba8","6657953b3fa9bac66ec69436","409","stimuli/11001111.jpg"," ","","feedback_trial","1","","","","","","","","","","","","","","","","","","","","",""
"","","","","","image-keyboard-response","200","333330","0.0-175.0","63a9a8f2f098b7e45bd03721","665500ab8938657b03fbdba8","6657953b3fa9bac66ec69436","1605","stimuli/1011100.jpg","1","","prediction_trial","1","","true","","1","true","true","false","false","false","false","[2,1]","011","100","1","","","","","","",""
"","","","","","image-keyboard-response","201","333751","0.0-176.0","63a9a8f2f098b7e45bd03721","665500ab8938657b03fbdba8","6657953b3fa9bac66ec69436","420","stimuli/10111001.jpg"," ","","feedback_trial","2","","","","","","","","","","","","","","","","","","","","",""
"","","","","","image-keyboard-response","202","335269","0.0-177.0","63a9a8f2f098b7e45bd03721","665500ab8938657b03fbdba8","6657953b3fa9bac66ec69436","1516","stimuli/1000110.jpg","1","","prediction_trial","1","","true","","1","false","false","true","true","false","false","[1]","000","110","1","","","","","","",""
"","","","","","image-keyboard-response","203","335688","0.0-178.0","63a9a8f2f098b7e45bd03721","665500ab8938657b03fbdba8","6657953b3fa9bac66ec69436","418","stimuli/10001101.jpg"," ","","feedback_trial","1","","","","","","","","","","","","","","","","","","","","",""
"","","","","","image-keyboard-response","204","336469","0.0-179.0","63a9a8f2f098b7e45bd03721","665500ab8938657b03fbdba8","6657953b3fa9bac66ec69436","780","stimuli/1000100.jpg","1","","prediction_trial","1","","true","","1","true","true","true","true","true","true","[1]","000","100","1","","","","","","",""
"","","","","","image-keyboard-response","205","336829","0.0-180.0","63a9a8f2f098b7e45bd03721","665500ab8938657b03fbdba8","6657953b3fa9bac66ec69436","358","stimuli/10001001.jpg"," ","","feedback_trial","1","","","","","","","","","","","","","","","","","","","","",""
"","","","","","image-keyboard-response","206","338961","0.0-181.0","63a9a8f2f098b7e45bd03721","665500ab8938657b03fbdba8","6657953b3fa9bac66ec69436","2130","stimuli/2101001.jpg","0","","prediction_trial","2","","false","","2","false","true","false","false","false","false","[2,0]","101","001","0","","","","","","",""
"","","","","","image-keyboard-response","207","339467","0.0-182.0","63a9a8f2f098b7e45bd03721","665500ab8938657b03fbdba8","6657953b3fa9bac66ec69436","505","stimuli/21010012.jpg"," ","","feedback_trial","2","","","","","","","","","","","","","","","","","","","","",""
"","","","","","image-keyboard-response","208","341137","0.0-183.0","63a9a8f2f098b7e45bd03721","665500ab8938657b03fbdba8","6657953b3fa9bac66ec69436","1669","stimuli/0110101.jpg","0","","prediction_trial","0","","true","","0","false","false","false","false","false","false","[1,0]","110","101","1","","","","","","",""
"","","","","","image-keyboard-response","209","341528","0.0-184.0","63a9a8f2f098b7e45bd03721","665500ab8938657b03fbdba8","6657953b3fa9bac66ec69436","389","stimuli/01101010.jpg"," ","","feedback_trial","1","","","","","","","","","","","","","","","","","","","","",""
"","","","","","image-keyboard-response","210","343365","0.0-185.0","63a9a8f2f098b7e45bd03721","665500ab8938657b03fbdba8","6657953b3fa9bac66ec69436","1835","stimuli/0111101.jpg","0","","prediction_trial","2","","false","","0","false","false","false","false","false","false","[0,2,1]","111","101","0","","","","","","",""
"","","","","","image-keyboard-response","211","343971","0.0-186.0","63a9a8f2f098b7e45bd03721","665500ab8938657b03fbdba8","6657953b3fa9bac66ec69436","605","stimuli/01111012.jpg"," ","","feedback_trial","0","","","","","","","","","","","","","","","","","","","","",""
"","","","","","image-keyboard-response","212","345215","0.0-187.0","63a9a8f2f098b7e45bd03721","665500ab8938657b03fbdba8","6657953b3fa9bac66ec69436","1243","stimuli/2111101.jpg","2","","prediction_trial","1","","false","","2","false","false","false","false","false","false","[1,0,2]","111","101","0","","","","","","",""
"","","","","","image-keyboard-response","213","346373","0.0-188.0","63a9a8f2f098b7e45bd03721","665500ab8938657b03fbdba8","6657953b3fa9bac66ec69436","1156","stimuli/21111011.jpg"," ","","feedback_trial","1","","","","","","","","","","","","","","","","","","","","",""
"","","","","","image-keyboard-response","214","347274","0.0-189.0","63a9a8f2f098b7e45bd03721","665500ab8938657b03fbdba8","6657953b3fa9bac66ec69436","900","stimuli/0111010.jpg","0","","prediction_trial","1","","false","","0","true","true","false","false","false","false","[2,1,0]","111","010","0","","","","","","",""
"","","","","","image-keyboard-response","215","347758","0.0-190.0","63a9a8f2f098b7e45bd03721","665500ab8938657b03fbdba8","6657953b3fa9bac66ec69436","483","stimuli/01110101.jpg"," ","","feedback_trial","2","","","","","","","","","","","","","","","","","","","","",""
"","","","","","image-keyboard-response","216","348811","0.0-191.0","63a9a8f2f098b7e45bd03721","665500ab8938657b03fbdba8","6657953b3fa9bac66ec69436","1051","stimuli/1110110.jpg","1","","prediction_trial","0","","false","","1","false","false","false","false","false","false","[0,1]","110","110","0","","","","","","",""
"","","","","","image-keyboard-response","217","349480","0.0-192.0","63a9a8f2f098b7e45bd03721","665500ab8938657b03fbdba8","6657953b3fa9bac66ec69436","667","stimuli/11101100.jpg"," ","","feedback_trial","0","","","","","","","","","","","","","","","","","","","","",""
"","","","","","image-keyboard-response","218","350624","0.0-193.0","63a9a8f2f098b7e45bd03721","665500ab8938657b03fbdba8","6657953b3fa9bac66ec69436","1143","stimuli/0101101.jpg","2","","prediction_trial","2","","true","","0","false","false","false","false","false","false","[2,0]","101","101","1","","","","","","",""
"","","","","","image-keyboard-response","219","351010","0.0-194.0","63a9a8f2f098b7e45bd03721","665500ab8938657b03fbdba8","6657953b3fa9bac66ec69436","385","stimuli/01011012.jpg"," ","","feedback_trial","2","","","","","","","","","","","","","","","","","","","","",""
"","","","","","image-keyboard-response","220","351817","0.0-195.0","63a9a8f2f098b7e45bd03721","665500ab8938657b03fbdba8","6657953b3fa9bac66ec69436","805","stimuli/2010110.jpg","2","","prediction_trial","2","","true","","2","true","true","true","true","true","true","[2]","010","110","1","","","","","","",""
"","","","","","image-keyboard-response","221","352162","0.0-196.0","63a9a8f2f098b7e45bd03721","665500ab8938657b03fbdba8","6657953b3fa9bac66ec69436","343","stimuli/20101102.jpg"," ","","feedback_trial","2","","","","","","","","","","","","","","","","","","","","",""
"","","","","","image-keyboard-response","222","352797","0.0-197.0","63a9a8f2f098b7e45bd03721","665500ab8938657b03fbdba8","6657953b3fa9bac66ec69436","634","stimuli/2100110.jpg","2","","prediction_trial","2","","true","","2","true","true","true","true","true","true","[2]","100","110","1","","","","","","",""
"","","","","","image-keyboard-response","223","353131","0.0-198.0","63a9a8f2f098b7e45bd03721","665500ab8938657b03fbdba8","6657953b3fa9bac66ec69436","333","stimuli/21001102.jpg"," ","","feedback_trial","2","","","","","","","","","","","","","","","","","","","","",""
"","","","","","image-keyboard-response","224","353675","0.0-199.0","63a9a8f2f098b7e45bd03721","665500ab8938657b03fbdba8","6657953b3fa9bac66ec69436","543","stimuli/2000110.jpg","2","","prediction_trial","2","","true","","2","true","true","true","true","true","true","[2]","000","110","1","","","","","","",""
"","","","","","image-keyboard-response","225","354014","0.0-200.0","63a9a8f2f098b7e45bd03721","665500ab8938657b03fbdba8","6657953b3fa9bac66ec69436","338","stimuli/20001102.jpg"," ","","feedback_trial","2","","","","","","","","","","","","","","","","","","","","",""
"","","","","","image-keyboard-response","226","355197","0.0-201.0","63a9a8f2f098b7e45bd03721","665500ab8938657b03fbdba8","6657953b3fa9bac66ec69436","1182","stimuli/1011001.jpg","1","","prediction_trial","2","","false","","1","true","true","false","false","false","false","[2,1]","011","001","0","","","","","","",""
"","","","","","image-keyboard-response","227","355589","0.0-202.0","63a9a8f2f098b7e45bd03721","665500ab8938657b03fbdba8","6657953b3fa9bac66ec69436","391","stimuli/10110012.jpg"," ","","feedback_trial","2","","","","","","","","","","","","","","","","","","","","",""
"","","","","","image-keyboard-response","228","356728","0.0-203.0","63a9a8f2f098b7e45bd03721","665500ab8938657b03fbdba8","6657953b3fa9bac66ec69436","1137","stimuli/2101101.jpg","0","","prediction_trial","0","","true","","2","false","false","false","false","false","false","[2,0]","101","101","1","","","","","","",""
"","","","","","image-keyboard-response","229","357068","0.0-204.0","63a9a8f2f098b7e45bd03721","665500ab8938657b03fbdba8","6657953b3fa9bac66ec69436","339","stimuli/21011010.jpg"," ","","feedback_trial","2","","","","","","","","","","","","","","","","","","","","",""
"","","","","","image-keyboard-response","230","358487","0.0-205.0","63a9a8f2f098b7e45bd03721","665500ab8938657b03fbdba8","6657953b3fa9bac66ec69436","1418","stimuli/2111001.jpg","2","","prediction_trial","1","","false","","2","false","true","false","false","false","false","[2,1,0]","111","001","0","","","","","","",""
"","","","","","image-keyboard-response","231","358983","0.0-206.0","63a9a8f2f098b7e45bd03721","665500ab8938657b03fbdba8","6657953b3fa9bac66ec69436","495","stimuli/21110011.jpg"," ","","feedback_trial","2","","","","","","","","","","","","","","","","","","","","",""
"","","","","","image-keyboard-response","232","360044","0.0-207.0","63a9a8f2f098b7e45bd03721","665500ab8938657b03fbdba8","6657953b3fa9bac66ec69436","1059","stimuli/1101011.jpg","2","","prediction_trial","1","","false","","1","false","false","true","true","false","false","[1]","101","011","0","","","","","","",""
"","","","","","image-keyboard-response","233","360479","0.0-208.0","63a9a8f2f098b7e45bd03721","665500ab8938657b03fbdba8","6657953b3fa9bac66ec69436","434","stimuli/11010111.jpg"," ","","feedback_trial","1","","","","","","","","","","","","","","","","","","","","",""
"","","","","","image-keyboard-response","234","361360","0.0-209.0","63a9a8f2f098b7e45bd03721","665500ab8938657b03fbdba8","6657953b3fa9bac66ec69436","879","stimuli/0001011.jpg","0","","prediction_trial","0","","true","","0","true","true","true","true","true","true","[0]","001","011","1","","","","","","",""
"","","","","","image-keyboard-response","235","361702","0.0-210.0","63a9a8f2f098b7e45bd03721","665500ab8938657b03fbdba8","6657953b3fa9bac66ec69436","341","stimuli/00010110.jpg"," ","","feedback_trial","0","","","","","","","","","","","","","","","","","","","","",""
"","","","","","image-keyboard-response","236","362499","0.0-211.0","63a9a8f2f098b7e45bd03721","665500ab8938657b03fbdba8","6657953b3fa9bac66ec69436","795","stimuli/2110110.jpg","2","","prediction_trial","2","","true","","2","true","true","true","true","true","true","[2]","110","110","1","","","","","","",""
"","","","","","image-keyboard-response","237","362846","0.0-212.0","63a9a8f2f098b7e45bd03721","665500ab8938657b03fbdba8","6657953b3fa9bac66ec69436","346","stimuli/21101102.jpg"," ","","feedback_trial","2","","","","","","","","","","","","","","","","","","","","",""
"","","","","","image-keyboard-response","238","364217","0.0-213.0","63a9a8f2f098b7e45bd03721","665500ab8938657b03fbdba8","6657953b3fa9bac66ec69436","1369","stimuli/1100010.jpg","1","","prediction_trial","1","","true","","1","false","true","true","true","false","true","[1]","100","010","1","","","","","","",""
"","","","","","image-keyboard-response","239","364621","0.0-214.0","63a9a8f2f098b7e45bd03721","665500ab8938657b03fbdba8","6657953b3fa9bac66ec69436","403","stimuli/11000101.jpg"," ","","feedback_trial","1","","","","","","","","","","","","","","","","","","","","",""
"","","","","","image-keyboard-response","240","365333","0.0-215.0","63a9a8f2f098b7e45bd03721","665500ab8938657b03fbdba8","6657953b3fa9bac66ec69436","709","stimuli/2010000.jpg","2","","prediction_trial","2","","true","","2","true","true","true","true","true","true","[2]","010","000","1","","","","","","",""
"","","","","","image-keyboard-response","241","365682","0.0-216.0","63a9a8f2f098b7e45bd03721","665500ab8938657b03fbdba8","6657953b3fa9bac66ec69436","348","stimuli/20100002.jpg"," ","","feedback_trial","2","","","","","","","","","","","","","","","","","","","","",""
"","","","","","image-keyboard-response","242","367020","0.0-217.0","63a9a8f2f098b7e45bd03721","665500ab8938657b03fbdba8","6657953b3fa9bac66ec69436","1337","stimuli/2001001.jpg","2","","prediction_trial","2","","true","","2","false","true","false","true","false","true","[2]","001","001","1","","","","","","",""
"","","","","","image-keyboard-response","243","367366","0.0-218.0","63a9a8f2f098b7e45bd03721","665500ab8938657b03fbdba8","6657953b3fa9bac66ec69436","345","stimuli/20010012.jpg"," ","","feedback_trial","2","","","","","","","","","","","","","","","","","","","","",""
"","","","","","image-keyboard-response","244","368659","0.0-219.0","63a9a8f2f098b7e45bd03721","665500ab8938657b03fbdba8","6657953b3fa9bac66ec69436","1292","stimuli/2011100.jpg","2","","prediction_trial","2","","true","","2","true","true","false","false","false","false","[1,2]","011","100","1","","","","","","",""
"","","","","","image-keyboard-response","245","369049","0.0-220.0","63a9a8f2f098b7e45bd03721","665500ab8938657b03fbdba8","6657953b3fa9bac66ec69436","388","stimuli/20111002.jpg"," ","","feedback_trial","1","","","","","","","","","","","","","","","","","","","","",""
"","","","","","image-keyboard-response","246","370268","0.0-221.0","63a9a8f2f098b7e45bd03721","665500ab8938657b03fbdba8","6657953b3fa9bac66ec69436","1218","stimuli/0010010.jpg","0","","prediction_trial","0","","true","","0","true","true","true","true","true","true","[0]","010","010","1","","","","","","",""
"","","","","","image-keyboard-response","247","370592","0.0-222.0","63a9a8f2f098b7e45bd03721","665500ab8938657b03fbdba8","6657953b3fa9bac66ec69436","322","stimuli/00100100.jpg"," ","","feedback_trial","0","","","","","","","","","","","","","","","","","","","","",""
"","","","","","image-keyboard-response","248","371627","0.0-223.0","63a9a8f2f098b7e45bd03721","665500ab8938657b03fbdba8","6657953b3fa9bac66ec69436","1034","stimuli/2101111.jpg","1","","prediction_trial","2","","false","","2","false","false","false","false","false","false","[2,0]","101","111","0","","","","","","",""
"","","","","","image-keyboard-response","249","372008","0.0-224.0","63a9a8f2f098b7e45bd03721","665500ab8938657b03fbdba8","6657953b3fa9bac66ec69436","379","stimuli/21011112.jpg"," ","","feedback_trial","2","","","","","","","","","","","","","","","","","","","","",""
"","","","","","image-keyboard-response","250","372746","0.0-225.0","63a9a8f2f098b7e45bd03721","665500ab8938657b03fbdba8","6657953b3fa9bac66ec69436","737","stimuli/2100010.jpg","2","","prediction_trial","2","","true","","2","true","true","true","true","true","true","[2]","100","010","1","","","","","","",""
"","","","","","image-keyboard-response","251","373071","0.0-226.0","63a9a8f2f098b7e45bd03721","665500ab8938657b03fbdba8","6657953b3fa9bac66ec69436","324","stimuli/21000102.jpg"," ","","feedback_trial","2","","","","","","","","","","","","","","","","","","","","",""
"","","","","","image-keyboard-response","252","374133","0.0-227.0","63a9a8f2f098b7e45bd03721","665500ab8938657b03fbdba8","6657953b3fa9bac66ec69436","1061","stimuli/1001110.jpg","0","","prediction_trial","1","","false","","1","false","false","true","true","false","false","[1]","001","110","0","","","","","","",""
"","","","","","image-keyboard-response","253","374521","0.0-228.0","63a9a8f2f098b7e45bd03721","665500ab8938657b03fbdba8","6657953b3fa9bac66ec69436","387","stimuli/10011101.jpg"," ","","feedback_trial","1","","","","","","","","","","","","","","","","","","","","",""
"","","","","","image-keyboard-response","254","375521","0.0-229.0","63a9a8f2f098b7e45bd03721","665500ab8938657b03fbdba8","6657953b3fa9bac66ec69436","1000","stimuli/1000011.jpg","1","","prediction_trial","1","","true","","1","false","false","true","true","false","false","[1]","000","011","1","","","","","","",""
"","","","","","image-keyboard-response","255","375873","0.0-230.0","63a9a8f2f098b7e45bd03721","665500ab8938657b03fbdba8","6657953b3fa9bac66ec69436","351","stimuli/10000111.jpg"," ","","feedback_trial","1","","","","","","","","","","","","","","","","","","","","",""
"","","","","","image-keyboard-response","256","376715","0.0-231.0","63a9a8f2f098b7e45bd03721","665500ab8938657b03fbdba8","6657953b3fa9bac66ec69436","841","stimuli/0011011.jpg","0","","prediction_trial","0","","true","","0","true","true","true","true","true","true","[0]","011","011","1","","","","","","",""
"","","","","","image-keyboard-response","257","377004","0.0-232.0","63a9a8f2f098b7e45bd03721","665500ab8938657b03fbdba8","6657953b3fa9bac66ec69436","288","stimuli/00110110.jpg"," ","","feedback_trial","0","","","","","","","","","","","","","","","","","","","","",""
"","","","","","image-keyboard-response","258","377775","0.0-233.0","63a9a8f2f098b7e45bd03721","665500ab8938657b03fbdba8","6657953b3fa9bac66ec69436","770","stimuli/1101000.jpg","1","","prediction_trial","1","","true","","1","true","true","true","true","true","true","[1]","101","000","1","","","","","","",""
"","","","","","image-keyboard-response","259","378077","0.0-234.0","63a9a8f2f098b7e45bd03721","665500ab8938657b03fbdba8","6657953b3fa9bac66ec69436","301","stimuli/11010001.jpg"," ","","feedback_trial","1","","","","","","","","","","","","","","","","","","","","",""
"","","","","","image-keyboard-response","260","379216","0.0-235.0","63a9a8f2f098b7e45bd03721","665500ab8938657b03fbdba8","6657953b3fa9bac66ec69436","1138","stimuli/0100111.jpg","1","","prediction_trial","0","","false","","0","false","false","false","true","false","false","[0]","100","111","0","","","","","","",""
"","","","","","image-keyboard-response","261","379825","0.0-236.0","63a9a8f2f098b7e45bd03721","665500ab8938657b03fbdba8","6657953b3fa9bac66ec69436","608","stimuli/01001110.jpg"," ","","feedback_trial","0","","","","","","","","","","","","","","","","","","","","",""
"","","","","","image-keyboard-response","262","380926","0.0-237.0","63a9a8f2f098b7e45bd03721","665500ab8938657b03fbdba8","6657953b3fa9bac66ec69436","1099","stimuli/2010011.jpg","1","","prediction_trial","2","","false","","2","false","false","true","true","false","false","[2]","010","011","0","","","","","","",""
"","","","","","image-keyboard-response","263","381299","0.0-238.0","63a9a8f2f098b7e45bd03721","665500ab8938657b03fbdba8","6657953b3fa9bac66ec69436","373","stimuli/20100112.jpg"," ","","feedback_trial","2","","","","","","","","","","","","","","","","","","","","",""
"","","","","","image-keyboard-response","264","382011","0.0-239.0","63a9a8f2f098b7e45bd03721","665500ab8938657b03fbdba8","6657953b3fa9bac66ec69436","711","stimuli/2001100.jpg","2","","prediction_trial","2","","true","","2","true","true","false","true","false","true","[2]","001","100","1","","","","","","",""
"","","","","","image-keyboard-response","265","382422","0.0-240.0","63a9a8f2f098b7e45bd03721","665500ab8938657b03fbdba8","6657953b3fa9bac66ec69436","411","stimuli/20011002.jpg"," ","","feedback_trial","2","","","","","","","","","","","","","","","","","","","","",""
"","","","","","image-keyboard-response","266","383569","0.0-241.0","63a9a8f2f098b7e45bd03721","665500ab8938657b03fbdba8","6657953b3fa9bac66ec69436","1145","stimuli/2101110.jpg","2","","prediction_trial","2","","true","","2","true","true","false","false","false","false","[0,2]","101","110","1","","","","","","",""
"","","","","","image-keyboard-response","267","383935","0.0-242.0","63a9a8f2f098b7e45bd03721","665500ab8938657b03fbdba8","6657953b3fa9bac66ec69436","365","stimuli/21011102.jpg"," ","","feedback_trial","0","","","","","","","","","","","","","","","","","","","","",""
"","","","","","image-keyboard-response","268","385683","0.0-243.0","63a9a8f2f098b7e45bd03721","665500ab8938657b03fbdba8","6657953b3fa9bac66ec69436","1746","stimuli/2011111.jpg","1","","prediction_trial","2","","false","","2","false","false","false","false","false","false","[1,2]","011","111","0","","","","","","",""
"","","","","","image-keyboard-response","269","386162","0.0-244.0","63a9a8f2f098b7e45bd03721","665500ab8938657b03fbdba8","6657953b3fa9bac66ec69436","478","stimuli/20111112.jpg"," ","","feedback_trial","1","","","","","","","","","","","","","","","","","","","","",""
"","","","","","image-keyboard-response","270","386846","0.0-245.0","63a9a8f2f098b7e45bd03721","665500ab8938657b03fbdba8","6657953b3fa9bac66ec69436","683","stimuli/1101100.jpg","1","","prediction_trial","1","","true","","1","true","true","true","true","true","true","[1]","101","100","1","","","","","","",""
"","","","","","image-keyboard-response","271","387145","0.0-246.0","63a9a8f2f098b7e45bd03721","665500ab8938657b03fbdba8","6657953b3fa9bac66ec69436","297","stimuli/11011001.jpg"," ","","feedback_trial","1","","","","","","","","","","","","","","","","","","","","",""
"","","","","","image-keyboard-response","272","389169","0.0-247.0","63a9a8f2f098b7e45bd03721","665500ab8938657b03fbdba8","6657953b3fa9bac66ec69436","2022","stimuli/0010100.jpg","0","","prediction_trial","0","","true","","0","false","true","true","true","false","true","[0]","010","100","1","","","","","","",""
"","","","","","image-keyboard-response","273","389545","0.0-248.0","63a9a8f2f098b7e45bd03721","665500ab8938657b03fbdba8","6657953b3fa9bac66ec69436","376","stimuli/00101000.jpg"," ","","feedback_trial","0","","","","","","","","","","","","","","","","","","","","",""
"","","","","","image-keyboard-response","274","391887","0.0-249.0","63a9a8f2f098b7e45bd03721","665500ab8938657b03fbdba8","6657953b3fa9bac66ec69436","2340","stimuli/0010101.jpg","2","","prediction_trial","0","","false","","0","false","false","true","true","false","false","[0]","010","101","0","","","","","","",""
"","","","","","image-keyboard-response","275","392567","0.0-250.0","63a9a8f2f098b7e45bd03721","665500ab8938657b03fbdba8","6657953b3fa9bac66ec69436","679","stimuli/00101010.jpg"," ","","feedback_trial","0","","","","","","","","","","","","","","","","","","","","",""
"","","","","","image-keyboard-response","276","395477","0.0-251.0","63a9a8f2f098b7e45bd03721","665500ab8938657b03fbdba8","6657953b3fa9bac66ec69436","2910","stimuli/0011101.jpg","0","","prediction_trial","0","","true","","0","false","false","true","true","false","false","[0]","011","101","1","","","","","","",""
"","","","","","image-keyboard-response","277","395839","0.0-252.0","63a9a8f2f098b7e45bd03721","665500ab8938657b03fbdba8","6657953b3fa9bac66ec69436","361","stimuli/00111010.jpg"," ","","feedback_trial","0","","","","","","","","","","","","","","","","","","","","",""
"","","","","","image-keyboard-response","278","397090","0.0-253.0","63a9a8f2f098b7e45bd03721","665500ab8938657b03fbdba8","6657953b3fa9bac66ec69436","1251","stimuli/2110001.jpg","2","","prediction_trial","2","","true","","2","false","true","true","true","false","true","[2]","110","001","1","","","","","","",""
"","","","","","image-keyboard-response","279","397639","0.0-254.0","63a9a8f2f098b7e45bd03721","665500ab8938657b03fbdba8","6657953b3fa9bac66ec69436","548","stimuli/21100012.jpg"," ","","feedback_trial","2","","","","","","","","","","","","","","","","","","","","",""
"","","","","","image-keyboard-response","280","400224","0.0-255.0","63a9a8f2f098b7e45bd03721","665500ab8938657b03fbdba8","6657953b3fa9bac66ec69436","2583","stimuli/1111111.jpg","1","","prediction_trial","2","","false","","1","false","false","false","false","false","false","[1,2,0]","111","111","0","","","","","","",""
"","","","","","image-keyboard-response","281","400666","0.0-256.0","63a9a8f2f098b7e45bd03721","665500ab8938657b03fbdba8","6657953b3fa9bac66ec69436","441","stimuli/11111112.jpg"," ","","feedback_trial","1","","","","","","","","","","","","","","","","","","","","",""
"","","","","","image-keyboard-response","282","401470","0.0-257.0","63a9a8f2f098b7e45bd03721","665500ab8938657b03fbdba8","6657953b3fa9bac66ec69436","803","stimuli/2101010.jpg","2","","prediction_trial","0","","false","","2","true","true","false","false","false","false","[2,0]","101","010","0","","","","","","",""
"","","","","","image-keyboard-response","283","402137","0.0-258.0","63a9a8f2f098b7e45bd03721","665500ab8938657b03fbdba8","6657953b3fa9bac66ec69436","666","stimuli/21010100.jpg"," ","","feedback_trial","2","","","","","","","","","","","","","","","","","","","","",""
"","","","","","image-keyboard-response","284","402530","0.0-259.0","63a9a8f2f098b7e45bd03721","665500ab8938657b03fbdba8","6657953b3fa9bac66ec69436","392","stimuli/0001001.jpg","2","","prediction_trial","0","","false","","0","true","true","true","true","true","true","[0]","001","001","0","","","","","","",""
"","","","","","image-keyboard-response","285","404315","0.0-260.0","63a9a8f2f098b7e45bd03721","665500ab8938657b03fbdba8","6657953b3fa9bac66ec69436","1784","stimuli/00010010.jpg"," ","","feedback_trial","0","","","","","","","","","","","","","","","","","","","","",""
"","","","","","image-keyboard-response","286","405307","0.0-261.0","63a9a8f2f098b7e45bd03721","665500ab8938657b03fbdba8","6657953b3fa9bac66ec69436","991","stimuli/1101110.jpg","1","","prediction_trial","1","","true","","1","false","false","true","true","false","false","[1]","101","110","1","","","","","","",""
"","","","","","image-keyboard-response","287","405691","0.0-262.0","63a9a8f2f098b7e45bd03721","665500ab8938657b03fbdba8","6657953b3fa9bac66ec69436","382","stimuli/11011101.jpg"," ","","feedback_trial","1","","","","","","","","","","","","","","","","","","","","",""
"","","","","","image-keyboard-response","288","406917","0.0-263.0","63a9a8f2f098b7e45bd03721","665500ab8938657b03fbdba8","6657953b3fa9bac66ec69436","1225","stimuli/0000101.jpg","2","","prediction_trial","0","","false","","0","false","false","true","true","false","false","[0]","000","101","0","","","","","","",""
"","","","","","image-keyboard-response","289","408028","0.0-264.0","63a9a8f2f098b7e45bd03721","665500ab8938657b03fbdba8","6657953b3fa9bac66ec69436","1110","stimuli/00001010.jpg"," ","","feedback_trial","0","","","","","","","","","","","","","","","","","","","","",""
"","","","","","image-keyboard-response","290","408790","0.0-265.0","63a9a8f2f098b7e45bd03721","665500ab8938657b03fbdba8","6657953b3fa9bac66ec69436","761","stimuli/0001010.jpg","0","","prediction_trial","0","","true","","0","true","true","true","true","true","true","[0]","001","010","1","","","","","","",""
"","","","","","image-keyboard-response","291","409061","0.0-266.0","63a9a8f2f098b7e45bd03721","665500ab8938657b03fbdba8","6657953b3fa9bac66ec69436","271","stimuli/00010100.jpg"," ","","feedback_trial","0","","","","","","","","","","","","","","","","","","","","",""
"","","","","","image-keyboard-response","292","410127","0.0-267.0","63a9a8f2f098b7e45bd03721","665500ab8938657b03fbdba8","6657953b3fa9bac66ec69436","1064","stimuli/1111101.jpg","1","","prediction_trial","1","","true","","1","true","true","false","false","false","false","[0,1,2]","111","101","1","","","","","","",""
"","","","","","image-keyboard-response","293","410451","0.0-268.0","63a9a8f2f098b7e45bd03721","665500ab8938657b03fbdba8","6657953b3fa9bac66ec69436","322","stimuli/11111011.jpg"," ","","feedback_trial","0","","","","","","","","","","","","","","","","","","","","",""
"","","","","","image-keyboard-response","294","412066","0.0-269.0","63a9a8f2f098b7e45bd03721","665500ab8938657b03fbdba8","6657953b3fa9bac66ec69436","1613","stimuli/0111000.jpg","0","","prediction_trial","0","","true","","0","true","true","false","false","false","false","[2,0,1]","111","000","1","","","","","","",""
"","","","","","image-keyboard-response","295","412394","0.0-270.0","63a9a8f2f098b7e45bd03721","665500ab8938657b03fbdba8","6657953b3fa9bac66ec69436","327","stimuli/01110000.jpg"," ","","feedback_trial","2","","","","","","","","","","","","","","","","","","","","",""
"","","","","","image-keyboard-response","296","413966","0.0-271.0","63a9a8f2f098b7e45bd03721","665500ab8938657b03fbdba8","6657953b3fa9bac66ec69436","1570","stimuli/1111010.jpg","1","","prediction_trial","0","","false","","1","false","true","false","false","false","false","[2,0,1]","111","010","0","","","","","","",""
"","","","","","image-keyboard-response","297","414329","0.0-272.0","63a9a8f2f098b7e45bd03721","665500ab8938657b03fbdba8","6657953b3fa9bac66ec69436","362","stimuli/11110100.jpg"," ","","feedback_trial","2","","","","","","","","","","","","","","","","","","","","",""
"","","","","","image-keyboard-response","298","416435","0.0-273.0","63a9a8f2f098b7e45bd03721","665500ab8938657b03fbdba8","6657953b3fa9bac66ec69436","2105","stimuli/2011011.jpg","1","","prediction_trial","1","","true","","2","false","false","false","false","false","false","[1,2]","011","011","1","","","","","","",""
"","","","","","image-keyboard-response","299","416820","0.0-274.0","63a9a8f2f098b7e45bd03721","665500ab8938657b03fbdba8","6657953b3fa9bac66ec69436","384","stimuli/20110111.jpg"," ","","feedback_trial","1","","","","","","","","","","","","","","","","","","","","",""
"","","","","","image-keyboard-response","300","417662","0.0-275.0","63a9a8f2f098b7e45bd03721","665500ab8938657b03fbdba8","6657953b3fa9bac66ec69436","841","stimuli/1001100.jpg","1","","prediction_trial","1","","true","","1","true","true","true","true","true","true","[1]","001","100","1","","","","","","",""
"","","","","","image-keyboard-response","301","417976","0.0-276.0","63a9a8f2f098b7e45bd03721","665500ab8938657b03fbdba8","6657953b3fa9bac66ec69436","313","stimuli/10011001.jpg"," ","","feedback_trial","1","","","","","","","","","","","","","","","","","","","","",""
"","","","","","image-keyboard-response","302","418675","0.0-277.0","63a9a8f2f098b7e45bd03721","665500ab8938657b03fbdba8","6657953b3fa9bac66ec69436","698","stimuli/1000101.jpg","1","","prediction_trial","1","","true","","1","true","true","true","true","true","true","[1]","000","101","1","","","","","","",""
"","","","","","image-keyboard-response","303","418987","0.0-278.0","63a9a8f2f098b7e45bd03721","665500ab8938657b03fbdba8","6657953b3fa9bac66ec69436","312","stimuli/10001011.jpg"," ","","feedback_trial","1","","","","","","","","","","","","","","","","","","","","",""
"","","","","","image-keyboard-response","304","422517","0.0-279.0","63a9a8f2f098b7e45bd03721","665500ab8938657b03fbdba8","6657953b3fa9bac66ec69436","3529","stimuli/2001101.jpg","2","","prediction_trial","2","","true","","2","false","false","false","true","false","false","[2]","001","101","1","","","","","","",""
"","","","","","image-keyboard-response","305","422856","0.0-280.0","63a9a8f2f098b7e45bd03721","665500ab8938657b03fbdba8","6657953b3fa9bac66ec69436","337","stimuli/20011012.jpg"," ","","feedback_trial","2","","","","","","","","","","","","","","","","","","","","",""
"","","","","","image-keyboard-response","306","423701","0.0-281.0","63a9a8f2f098b7e45bd03721","665500ab8938657b03fbdba8","6657953b3fa9bac66ec69436","844","stimuli/2100000.jpg","2","","prediction_trial","2","","true","","2","true","true","true","true","true","true","[2]","100","000","1","","","","","","",""
"","","","","","image-keyboard-response","307","424021","0.0-282.0","63a9a8f2f098b7e45bd03721","665500ab8938657b03fbdba8","6657953b3fa9bac66ec69436","319","stimuli/21000002.jpg"," ","","feedback_trial","2","","","","","","","","","","","","","","","","","","","","",""
"","","","","","image-keyboard-response","308","425308","0.0-283.0","63a9a8f2f098b7e45bd03721","665500ab8938657b03fbdba8","6657953b3fa9bac66ec69436","1285","stimuli/0101010.jpg","0","","prediction_trial","2","","false","","0","true","true","false","false","false","false","[2,0]","101","010","0","","","","","","",""
"","","","","","image-keyboard-response","309","425675","0.0-284.0","63a9a8f2f098b7e45bd03721","665500ab8938657b03fbdba8","6657953b3fa9bac66ec69436","365","stimuli/01010102.jpg"," ","","feedback_trial","2","","","","","","","","","","","","","","","","","","","","",""
"","","","","","image-keyboard-response","310","427009","0.0-285.0","63a9a8f2f098b7e45bd03721","665500ab8938657b03fbdba8","6657953b3fa9bac66ec69436","1333","stimuli/1010111.jpg","1","","prediction_trial","1","","true","","1","false","false","false","true","false","false","[1]","010","111","1","","","","","","",""
"","","","","","image-keyboard-response","311","427352","0.0-286.0","63a9a8f2f098b7e45bd03721","665500ab8938657b03fbdba8","6657953b3fa9bac66ec69436","341","stimuli/10101111.jpg"," ","","feedback_trial","1","","","","","","","","","","","","","","","","","","","","",""
"","","","","","image-keyboard-response","312","428630","0.0-287.0","63a9a8f2f098b7e45bd03721","665500ab8938657b03fbdba8","6657953b3fa9bac66ec69436","1277","stimuli/2011010.jpg","2","","prediction_trial","1","","false","","2","true","true","false","false","false","false","[2,1]","011","010","0","","","","","","",""
"","","","","","image-keyboard-response","313","429009","0.0-288.0","63a9a8f2f098b7e45bd03721","665500ab8938657b03fbdba8","6657953b3fa9bac66ec69436","377","stimuli/20110101.jpg"," ","","feedback_trial","2","","","","","","","","","","","","","","","","","","","","",""
"","","","","","image-keyboard-response","314","429859","0.0-289.0","63a9a8f2f098b7e45bd03721","665500ab8938657b03fbdba8","6657953b3fa9bac66ec69436","849","stimuli/2000010.jpg","2","","prediction_trial","2","","true","","2","true","true","true","true","true","true","[2]","000","010","1","","","","","","",""
"","","","","","image-keyboard-response","315","430148","0.0-290.0","63a9a8f2f098b7e45bd03721","665500ab8938657b03fbdba8","6657953b3fa9bac66ec69436","288","stimuli/20000102.jpg"," ","","feedback_trial","2","","","","","","","","","","","","","","","","","","","","",""
"","","","","","image-keyboard-response","316","430874","0.0-291.0","63a9a8f2f098b7e45bd03721","665500ab8938657b03fbdba8","6657953b3fa9bac66ec69436","725","stimuli/0001000.jpg","0","","prediction_trial","0","","true","","0","true","true","true","true","true","true","[0]","001","000","1","","","","","","",""
"","","","","","image-keyboard-response","317","431135","0.0-292.0","63a9a8f2f098b7e45bd03721","665500ab8938657b03fbdba8","6657953b3fa9bac66ec69436","260","stimuli/00010000.jpg"," ","","feedback_trial","0","","","","","","","","","","","","","","","","","","","","",""
"","","","","","survey-html-form","318","512818","0.0-293.0","63a9a8f2f098b7e45bd03721","665500ab8938657b03fbdba8","6657953b3fa9bac66ec69436","81679","","{""feedback"":""For some, it was easy as there was an obvious choice. For others, it could be narrowed down to two choices, and I just picked one. On others, it could have been any of the three, and that was just a pure guess."",""age"":""69"",""gender"":""Male"",""other_gender"":"""",""race"":""White"",""other_race"":"""",""ethnicity"":""Non-Hispanic""}","","exit_survey","","","","","","","","","","","","","","","","For some, it was easy as there was an obvious choice. For others, it could be narrowed down to two choices, and I just picked one. On others, it could have been any of the three, and that was just a pure guess.","69","Non-Hispanic","Male","White","0.6319444444444444","0.6319444444444444"
