"success","timeout","failed_images","failed_audio","failed_video","trial_type","trial_index","time_elapsed","internal_node_id","prolific_id","prolific_study_id","prolific_session_id","rt","stimulus","response","view_history","trial","character_choice","stimulus_dict","accuracy","correct_response","ball_pos","ego_ball_visible","ego_can_infer","alter_ball_visible","alter_can_infer","collective_ball_visible","collective_can_infer","search_locations","alter_occluders","ego_occluders","accuracy_bool","feedback","age","ethnicity","gender","race","overall_accuracy","bonus"
"true","false","[]","[]","[]","preload","0","838032","0.0-0.0","634282de38138fa9316eb482","665500ab8938657b03fbdba8","66579294c69c7faa76e73c7c","","","","","","","","","","","","","","","","","","","","","","","","","","",""
"true","","","","","fullscreen","1","873870","0.0-1.0","634282de38138fa9316eb482","665500ab8938657b03fbdba8","66579294c69c7faa76e73c7c","","","","","","","","","","","","","","","","","","","","","","","","","","",""
"","","","","","html-button-response","2","883124","0.0-2.0","634282de38138fa9316eb482","665500ab8938657b03fbdba8","66579294c69c7faa76e73c7c","9251","<p><b>Consent Form</b></p> <div style=""text-align:left;background-color:lightgrey; padding:20px; max-width:900px;""><p>Please consider this information carefully before deciding whether to participate in this research.</p> <p>The purpose of this research is to examine which factors influence social judgment and decision-making. You will be asked to make judgements about individuals and actions in social scenarios. We are simply interested in your judgement. The study will take less than 1 hour to complete, and you will receive less than $20 on Prolific. Your compensation and time commitment are specified in the study description. There are no anticipated risks associated with participating in this study. The effects of participating should be comparable to those you would ordinarily experience from viewing a computer monitor and using a mouse or keyboard for a similar amount of time. At the end of the study, we will provide an explanation of the questions that motivate this line of research and will describe the potential implications. </p><p> Your participation in this study is completely voluntary and you may refuse to participate or you may choose to withdraw at any time without penalty or loss of benefits to you which are otherwise entitled. Your participation in this study will remain confidential. No personally identifiable information will be associated with your data. Also, all analyses of the data will be averaged across all the participants, so your individual responses will never be specifically analyzed. </p><p> If you have questions or concerns about your participation or payment, or want to request a summary of research findings, please contact Dr. Jonathan Phillips at Jonathan.S.Phillips@dartmouth.edu. </p><p> Please save a copy of this form for your records. </p><p><b>Agreement: </b>The nature and purpose of this research have been sufficiently explained and I agree to participate in this study. I understand that I am free to withdraw at any time without incurring any penalty. Please consent by clicking the button below to continue. Otherwise, please exit the study at any time. </p>","0","","","","","","","","","","","","","","","","","","","","","","","",""
"","","","","","instructions","3","1078529","0.0-3.0-0.0","634282de38138fa9316eb482","665500ab8938657b03fbdba8","66579294c69c7faa76e73c7c","195396","","","[{""page_index"":0,""viewing_time"":2849},{""page_index"":1,""viewing_time"":1984},{""page_index"":2,""viewing_time"":3646},{""page_index"":3,""viewing_time"":12243},{""page_index"":4,""viewing_time"":3763},{""page_index"":5,""viewing_time"":2049},{""page_index"":6,""viewing_time"":5405},{""page_index"":7,""viewing_time"":15032},{""page_index"":8,""viewing_time"":5996},{""page_index"":9,""viewing_time"":4274},{""page_index"":10,""viewing_time"":65122},{""page_index"":11,""viewing_time"":61112},{""page_index"":12,""viewing_time"":9297},{""page_index"":13,""viewing_time"":2623}]","intro","","","","","","","","","","","","","","","","","","","","","",""
"","","","","","image-keyboard-response","4","1080662","0.0-3.0-1.0","634282de38138fa9316eb482","665500ab8938657b03fbdba8","66579294c69c7faa76e73c7c","2121","stimuli/2110100.jpg","2","","prediction_practice","2","{""filepath"":""stimuli/2110100.jpg"",""ball_pos"":2,""ego_ball_visible"":true,""ego_can_infer"":true,""alter_ball_visible"":true,""alter_can_infer"":true,""collective_ball_visible"":true,""collective_can_infer"":true,""search_locations"":[2],""alter_occluders"":""110"",""ego_occluders"":""100""}","true","","","","","","","","","","","","","","","","","","",""
"","","","","","image-keyboard-response","5","1084106","0.0-3.0-2.0","634282de38138fa9316eb482","665500ab8938657b03fbdba8","66579294c69c7faa76e73c7c","3423","stimuli/21101002.jpg"," ","","practrice_feedback","2","","","","","","","","","","","","","","","","","","","","",""
"","","","","","image-keyboard-response","6","1086035","0.0-3.0-3.0","634282de38138fa9316eb482","665500ab8938657b03fbdba8","66579294c69c7faa76e73c7c","1928","stimuli/1110000.jpg","1","","prediction_practice","0","{""filepath"":""stimuli/1110000.jpg"",""ball_pos"":1,""ego_ball_visible"":true,""ego_can_infer"":true,""alter_ball_visible"":false,""alter_can_infer"":false,""collective_ball_visible"":false,""collective_can_infer"":false,""search_locations"":[0,1],""alter_occluders"":""110"",""ego_occluders"":""000""}","false","","","","","","","","","","","","","","","","","","",""
"","","","","","image-keyboard-response","7","1091785","0.0-3.0-4.0","634282de38138fa9316eb482","665500ab8938657b03fbdba8","66579294c69c7faa76e73c7c","5749","stimuli/11100000.jpg"," ","","practrice_feedback","0","","","","","","","","","","","","","","","","","","","","",""
"","","","","","image-keyboard-response","8","1093699","0.0-3.0-5.0","634282de38138fa9316eb482","665500ab8938657b03fbdba8","66579294c69c7faa76e73c7c","1912","stimuli/0001001.jpg","0","","prediction_practice","0","{""filepath"":""stimuli/0001001.jpg"",""ball_pos"":0,""ego_ball_visible"":true,""ego_can_infer"":true,""alter_ball_visible"":true,""alter_can_infer"":true,""collective_ball_visible"":true,""collective_can_infer"":true,""search_locations"":[0],""alter_occluders"":""001"",""ego_occluders"":""001""}","true","","","","","","","","","","","","","","","","","","",""
"","","","","","image-keyboard-response","9","1095484","0.0-3.0-6.0","634282de38138fa9316eb482","665500ab8938657b03fbdba8","66579294c69c7faa76e73c7c","1784","stimuli/00010010.jpg"," ","","practrice_feedback","0","","","","","","","","","","","","","","","","","","","","",""
"","","","","","image-keyboard-response","10","1097138","0.0-3.0-7.0","634282de38138fa9316eb482","665500ab8938657b03fbdba8","66579294c69c7faa76e73c7c","1652","stimuli/0001000.jpg","0","","prediction_practice","0","{""filepath"":""stimuli/0001000.jpg"",""ball_pos"":0,""ego_ball_visible"":true,""ego_can_infer"":true,""alter_ball_visible"":true,""alter_can_infer"":true,""collective_ball_visible"":true,""collective_can_infer"":true,""search_locations"":[0],""alter_occluders"":""001"",""ego_occluders"":""000""}","true","","","","","","","","","","","","","","","","","","",""
"","","","","","image-keyboard-response","11","1098081","0.0-3.0-8.0","634282de38138fa9316eb482","665500ab8938657b03fbdba8","66579294c69c7faa76e73c7c","941","stimuli/00010000.jpg"," ","","practrice_feedback","0","","","","","","","","","","","","","","","","","","","","",""
"","","","","","image-keyboard-response","12","1101399","0.0-3.0-9.0","634282de38138fa9316eb482","665500ab8938657b03fbdba8","66579294c69c7faa76e73c7c","3308","stimuli/1110101.jpg","1","","prediction_practice","1","{""filepath"":""stimuli/1110101.jpg"",""ball_pos"":1,""ego_ball_visible"":true,""ego_can_infer"":true,""alter_ball_visible"":false,""alter_can_infer"":false,""collective_ball_visible"":false,""collective_can_infer"":false,""search_locations"":[1,0],""alter_occluders"":""110"",""ego_occluders"":""101""}","true","","","","","","","","","","","","","","","","","","",""
"","","","","","image-keyboard-response","13","1102852","0.0-3.0-10.0","634282de38138fa9316eb482","665500ab8938657b03fbdba8","66579294c69c7faa76e73c7c","1451","stimuli/11101011.jpg"," ","","practrice_feedback","1","","","","","","","","","","","","","","","","","","","","",""
"","","","","","image-keyboard-response","14","1104268","0.0-3.0-11.0","634282de38138fa9316eb482","665500ab8938657b03fbdba8","66579294c69c7faa76e73c7c","1415","stimuli/0000000.jpg","0","","prediction_practice","0","{""filepath"":""stimuli/0000000.jpg"",""ball_pos"":0,""ego_ball_visible"":true,""ego_can_infer"":true,""alter_ball_visible"":true,""alter_can_infer"":true,""collective_ball_visible"":true,""collective_can_infer"":true,""search_locations"":[0],""alter_occluders"":""000"",""ego_occluders"":""000""}","true","","","","","","","","","","","","","","","","","","",""
"","","","","","image-keyboard-response","15","1105149","0.0-3.0-12.0","634282de38138fa9316eb482","665500ab8938657b03fbdba8","66579294c69c7faa76e73c7c","880","stimuli/00000000.jpg"," ","","practrice_feedback","0","","","","","","","","","","","","","","","","","","","","",""
"","","","","","image-keyboard-response","16","1107550","0.0-3.0-13.0","634282de38138fa9316eb482","665500ab8938657b03fbdba8","66579294c69c7faa76e73c7c","2399","stimuli/0010101.jpg","2","","prediction_practice","0","{""filepath"":""stimuli/0010101.jpg"",""ball_pos"":0,""ego_ball_visible"":false,""ego_can_infer"":false,""alter_ball_visible"":true,""alter_can_infer"":true,""collective_ball_visible"":false,""collective_can_infer"":false,""search_locations"":[0],""alter_occluders"":""010"",""ego_occluders"":""101""}","false","","","","","","","","","","","","","","","","","","",""
"","","","","","image-keyboard-response","17","1108715","0.0-3.0-14.0","634282de38138fa9316eb482","665500ab8938657b03fbdba8","66579294c69c7faa76e73c7c","1164","stimuli/00101010.jpg"," ","","practrice_feedback","0","","","","","","","","","","","","","","","","","","","","",""
"","","","","","image-keyboard-response","18","1110147","0.0-3.0-15.0","634282de38138fa9316eb482","665500ab8938657b03fbdba8","66579294c69c7faa76e73c7c","1431","stimuli/2110101.jpg","2","","prediction_practice","2","{""filepath"":""stimuli/2110101.jpg"",""ball_pos"":2,""ego_ball_visible"":false,""ego_can_infer"":false,""alter_ball_visible"":true,""alter_can_infer"":true,""collective_ball_visible"":false,""collective_can_infer"":false,""search_locations"":[2],""alter_occluders"":""110"",""ego_occluders"":""101""}","true","","","","","","","","","","","","","","","","","","",""
"","","","","","image-keyboard-response","19","1111087","0.0-3.0-16.0","634282de38138fa9316eb482","665500ab8938657b03fbdba8","66579294c69c7faa76e73c7c","940","stimuli/21101012.jpg"," ","","practrice_feedback","2","","","","","","","","","","","","","","","","","","","","",""
"","","","","","image-keyboard-response","20","1112603","0.0-3.0-17.0","634282de38138fa9316eb482","665500ab8938657b03fbdba8","66579294c69c7faa76e73c7c","1514","stimuli/0011111.jpg","1","","prediction_practice","0","{""filepath"":""stimuli/0011111.jpg"",""ball_pos"":0,""ego_ball_visible"":false,""ego_can_infer"":false,""alter_ball_visible"":true,""alter_can_infer"":true,""collective_ball_visible"":false,""collective_can_infer"":false,""search_locations"":[0],""alter_occluders"":""011"",""ego_occluders"":""111""}","false","","","","","","","","","","","","","","","","","","",""
"","","","","","image-keyboard-response","21","1113555","0.0-3.0-18.0","634282de38138fa9316eb482","665500ab8938657b03fbdba8","66579294c69c7faa76e73c7c","943","stimuli/00111110.jpg"," ","","practrice_feedback","0","","","","","","","","","","","","","","","","","","","","",""
"","","","","","image-keyboard-response","22","1114201","0.0-3.0-19.0","634282de38138fa9316eb482","665500ab8938657b03fbdba8","66579294c69c7faa76e73c7c","644","stimuli/0011100.jpg","2","","prediction_practice","0","{""filepath"":""stimuli/0011100.jpg"",""ball_pos"":0,""ego_ball_visible"":false,""ego_can_infer"":true,""alter_ball_visible"":true,""alter_can_infer"":true,""collective_ball_visible"":false,""collective_can_infer"":true,""search_locations"":[0],""alter_occluders"":""011"",""ego_occluders"":""100""}","false","","","","","","","","","","","","","","","","","","",""
"","","","","","image-keyboard-response","23","1115170","0.0-3.0-20.0","634282de38138fa9316eb482","665500ab8938657b03fbdba8","66579294c69c7faa76e73c7c","969","stimuli/00111000.jpg"," ","","practrice_feedback","0","","","","","","","","","","","","","","","","","","","","",""
"","","","","","html-button-response","24","1118291","0.0-3.0-21.0","634282de38138fa9316eb482","665500ab8938657b03fbdba8","66579294c69c7faa76e73c7c","3120","Now that you've had some practice, you'll be tested with a couple of easy trials. If you correctly predict Sam's choice, you'll move on to complete the experiment!","0","","","","","","","","","","","","","","","","","","","","","","","",""
"","","","","","image-keyboard-response","25","1119781","0.0-3.0-22.0-0.0","634282de38138fa9316eb482","665500ab8938657b03fbdba8","66579294c69c7faa76e73c7c","1489","stimuli/0000011.jpg","arrowleft","","comprehension_quiz","","","true","arrowleft","","","","","","","","","","","","","","","","","",""
"","","","","","image-keyboard-response","26","1120614","0.0-3.0-22.0-1.0","634282de38138fa9316eb482","665500ab8938657b03fbdba8","66579294c69c7faa76e73c7c","831","stimuli/00000110.jpg"," ","","comprehension_quiz","","","true"," ","","","","","","","","","","","","","","","","","",""
"","","","","","image-keyboard-response","27","1122148","0.0-3.0-22.0-2.0","634282de38138fa9316eb482","665500ab8938657b03fbdba8","66579294c69c7faa76e73c7c","1533","stimuli/1010010.jpg","arrowdown","","comprehension_quiz","","","true","arrowdown","","","","","","","","","","","","","","","","","",""
"","","","","","image-keyboard-response","28","1122822","0.0-3.0-22.0-3.0","634282de38138fa9316eb482","665500ab8938657b03fbdba8","66579294c69c7faa76e73c7c","673","stimuli/10100101.jpg"," ","","comprehension_quiz","","","true"," ","","","","","","","","","","","","","","","","","",""
"","","","","","html-button-response","29","1163870","0.0-4.0","634282de38138fa9316eb482","665500ab8938657b03fbdba8","66579294c69c7faa76e73c7c","41049","The experiment will now begin.","0","","","","","","","","","","","","","","","","","","","","","","","",""
"","","","","","image-keyboard-response","30","1166595","0.0-5.0","634282de38138fa9316eb482","665500ab8938657b03fbdba8","66579294c69c7faa76e73c7c","2725","stimuli/0110010.jpg","0","","prediction_trial","1","","false","","0","true","true","false","false","false","false","[0,1]","110","010","0","","","","","","",""
"","","","","","image-keyboard-response","31","1170542","0.0-6.0","634282de38138fa9316eb482","665500ab8938657b03fbdba8","66579294c69c7faa76e73c7c","3945","stimuli/01100101.jpg"," ","","feedback_trial","0","","","","","","","","","","","","","","","","","","","","",""
"","","","","","image-keyboard-response","32","1171792","0.0-7.0","634282de38138fa9316eb482","665500ab8938657b03fbdba8","66579294c69c7faa76e73c7c","1242","stimuli/2010100.jpg","2","","prediction_trial","2","","true","","2","true","true","true","true","true","true","[2]","010","100","1","","","","","","",""
"","","","","","image-keyboard-response","33","1172386","0.0-8.0","634282de38138fa9316eb482","665500ab8938657b03fbdba8","66579294c69c7faa76e73c7c","592","stimuli/20101002.jpg"," ","","feedback_trial","2","","","","","","","","","","","","","","","","","","","","",""
"","","","","","image-keyboard-response","34","1173582","0.0-9.0","634282de38138fa9316eb482","665500ab8938657b03fbdba8","66579294c69c7faa76e73c7c","1195","stimuli/0011010.jpg","0","","prediction_trial","0","","true","","0","true","true","true","true","true","true","[0]","011","010","1","","","","","","",""
"","","","","","image-keyboard-response","35","1174192","0.0-10.0","634282de38138fa9316eb482","665500ab8938657b03fbdba8","66579294c69c7faa76e73c7c","609","stimuli/00110100.jpg"," ","","feedback_trial","0","","","","","","","","","","","","","","","","","","","","",""
"","","","","","image-keyboard-response","36","1175997","0.0-11.0","634282de38138fa9316eb482","665500ab8938657b03fbdba8","66579294c69c7faa76e73c7c","1804","stimuli/2000111.jpg","1","","prediction_trial","2","","false","","2","false","false","true","true","false","false","[2]","000","111","0","","","","","","",""
"","","","","","image-keyboard-response","37","1176719","0.0-12.0","634282de38138fa9316eb482","665500ab8938657b03fbdba8","66579294c69c7faa76e73c7c","720","stimuli/20001112.jpg"," ","","feedback_trial","2","","","","","","","","","","","","","","","","","","","","",""
"","","","","","image-keyboard-response","38","1177937","0.0-13.0","634282de38138fa9316eb482","665500ab8938657b03fbdba8","66579294c69c7faa76e73c7c","1217","stimuli/0101100.jpg","0","","prediction_trial","2","","false","","0","false","true","false","false","false","false","[0,2]","101","100","0","","","","","","",""
"","","","","","image-keyboard-response","39","1179474","0.0-14.0","634282de38138fa9316eb482","665500ab8938657b03fbdba8","66579294c69c7faa76e73c7c","1536","stimuli/01011002.jpg"," ","","feedback_trial","0","","","","","","","","","","","","","","","","","","","","",""
"","","","","","image-keyboard-response","40","1182818","0.0-15.0","634282de38138fa9316eb482","665500ab8938657b03fbdba8","66579294c69c7faa76e73c7c","3342","stimuli/2001011.jpg","1","","prediction_trial","2","","false","","2","false","false","false","true","false","false","[2]","001","011","0","","","","","","",""
"","","","","","image-keyboard-response","41","1183433","0.0-16.0","634282de38138fa9316eb482","665500ab8938657b03fbdba8","66579294c69c7faa76e73c7c","607","stimuli/20010112.jpg"," ","","feedback_trial","2","","","","","","","","","","","","","","","","","","","","",""
"","","","","","image-keyboard-response","42","1184220","0.0-17.0","634282de38138fa9316eb482","665500ab8938657b03fbdba8","66579294c69c7faa76e73c7c","786","stimuli/2101010.jpg","1","","prediction_trial","0","","false","","2","true","true","false","false","false","false","[2,0]","101","010","0","","","","","","",""
"","","","","","image-keyboard-response","43","1186330","0.0-18.0","634282de38138fa9316eb482","665500ab8938657b03fbdba8","66579294c69c7faa76e73c7c","2108","stimuli/21010100.jpg"," ","","feedback_trial","2","","","","","","","","","","","","","","","","","","","","",""
"","","","","","image-keyboard-response","44","1187429","0.0-19.0","634282de38138fa9316eb482","665500ab8938657b03fbdba8","66579294c69c7faa76e73c7c","1098","stimuli/0111111.jpg","2","","prediction_trial","2","","true","","0","false","false","false","false","false","false","[2,1,0]","111","111","1","","","","","","",""
"","","","","","image-keyboard-response","45","1188188","0.0-20.0","634282de38138fa9316eb482","665500ab8938657b03fbdba8","66579294c69c7faa76e73c7c","757","stimuli/01111112.jpg"," ","","feedback_trial","2","","","","","","","","","","","","","","","","","","","","",""
"","","","","","image-keyboard-response","46","1189798","0.0-21.0","634282de38138fa9316eb482","665500ab8938657b03fbdba8","66579294c69c7faa76e73c7c","1609","stimuli/1011000.jpg","1","","prediction_trial","2","","false","","1","true","true","false","false","false","false","[2,1]","011","000","0","","","","","","",""
"","","","","","image-keyboard-response","47","1192319","0.0-22.0","634282de38138fa9316eb482","665500ab8938657b03fbdba8","66579294c69c7faa76e73c7c","2519","stimuli/10110002.jpg"," ","","feedback_trial","2","","","","","","","","","","","","","","","","","","","","",""
"","","","","","image-keyboard-response","48","1193970","0.0-23.0","634282de38138fa9316eb482","665500ab8938657b03fbdba8","66579294c69c7faa76e73c7c","1651","stimuli/0010101.jpg","0","","prediction_trial","0","","true","","0","false","false","true","true","false","false","[0]","010","101","1","","","","","","",""
"","","","","","image-keyboard-response","49","1194579","0.0-24.0","634282de38138fa9316eb482","665500ab8938657b03fbdba8","66579294c69c7faa76e73c7c","608","stimuli/00101010.jpg"," ","","feedback_trial","0","","","","","","","","","","","","","","","","","","","","",""
"","","","","","image-keyboard-response","50","1195750","0.0-25.0","634282de38138fa9316eb482","665500ab8938657b03fbdba8","66579294c69c7faa76e73c7c","1162","stimuli/2010010.jpg","2","","prediction_trial","2","","true","","2","true","true","true","true","true","true","[2]","010","010","1","","","","","","",""
"","","","","","image-keyboard-response","51","1196294","0.0-26.0","634282de38138fa9316eb482","665500ab8938657b03fbdba8","66579294c69c7faa76e73c7c","543","stimuli/20100102.jpg"," ","","feedback_trial","2","","","","","","","","","","","","","","","","","","","","",""
"","","","","","image-keyboard-response","52","1197429","0.0-27.0","634282de38138fa9316eb482","665500ab8938657b03fbdba8","66579294c69c7faa76e73c7c","1134","stimuli/0110001.jpg","0","","prediction_trial","1","","false","","0","true","true","false","false","false","false","[0,1]","110","001","0","","","","","","",""
"","","","","","image-keyboard-response","53","1197859","0.0-28.0","634282de38138fa9316eb482","665500ab8938657b03fbdba8","66579294c69c7faa76e73c7c","429","stimuli/01100011.jpg"," ","","feedback_trial","0","","","","","","","","","","","","","","","","","","","","",""
"","","","","","image-keyboard-response","54","1201022","0.0-29.0","634282de38138fa9316eb482","665500ab8938657b03fbdba8","66579294c69c7faa76e73c7c","3162","stimuli/0111100.jpg","0","","prediction_trial","0","","true","","0","false","true","false","false","false","false","[2,0,1]","111","100","1","","","","","","",""
"","","","","","image-keyboard-response","55","1201743","0.0-30.0","634282de38138fa9316eb482","665500ab8938657b03fbdba8","66579294c69c7faa76e73c7c","720","stimuli/01111000.jpg"," ","","feedback_trial","2","","","","","","","","","","","","","","","","","","","","",""
"","","","","","image-keyboard-response","56","1203044","0.0-31.0","634282de38138fa9316eb482","665500ab8938657b03fbdba8","66579294c69c7faa76e73c7c","1299","stimuli/2001110.jpg","2","","prediction_trial","2","","true","","2","true","true","false","true","false","true","[2]","001","110","1","","","","","","",""
"","","","","","image-keyboard-response","57","1203535","0.0-32.0","634282de38138fa9316eb482","665500ab8938657b03fbdba8","66579294c69c7faa76e73c7c","489","stimuli/20011102.jpg"," ","","feedback_trial","2","","","","","","","","","","","","","","","","","","","","",""
"","","","","","image-keyboard-response","58","1204904","0.0-33.0","634282de38138fa9316eb482","665500ab8938657b03fbdba8","66579294c69c7faa76e73c7c","1368","stimuli/2001001.jpg","2","","prediction_trial","2","","true","","2","false","true","false","true","false","true","[2]","001","001","1","","","","","","",""
"","","","","","image-keyboard-response","59","1205389","0.0-34.0","634282de38138fa9316eb482","665500ab8938657b03fbdba8","66579294c69c7faa76e73c7c","484","stimuli/20010012.jpg"," ","","feedback_trial","2","","","","","","","","","","","","","","","","","","","","",""
"","","","","","image-keyboard-response","60","1207073","0.0-35.0","634282de38138fa9316eb482","665500ab8938657b03fbdba8","66579294c69c7faa76e73c7c","1683","stimuli/1000100.jpg","1","","prediction_trial","1","","true","","1","true","true","true","true","true","true","[1]","000","100","1","","","","","","",""
"","","","","","image-keyboard-response","61","1207697","0.0-36.0","634282de38138fa9316eb482","665500ab8938657b03fbdba8","66579294c69c7faa76e73c7c","623","stimuli/10001001.jpg"," ","","feedback_trial","1","","","","","","","","","","","","","","","","","","","","",""
"","","","","","image-keyboard-response","62","1208563","0.0-37.0","634282de38138fa9316eb482","665500ab8938657b03fbdba8","66579294c69c7faa76e73c7c","865","stimuli/1111000.jpg","1","","prediction_trial","1","","true","","1","true","true","false","false","false","false","[2,0,1]","111","000","1","","","","","","",""
"","","","","","image-keyboard-response","63","1209020","0.0-38.0","634282de38138fa9316eb482","665500ab8938657b03fbdba8","66579294c69c7faa76e73c7c","456","stimuli/11110001.jpg"," ","","feedback_trial","2","","","","","","","","","","","","","","","","","","","","",""
"","","","","","image-keyboard-response","64","1210089","0.0-39.0","634282de38138fa9316eb482","665500ab8938657b03fbdba8","66579294c69c7faa76e73c7c","1068","stimuli/0011001.jpg","0","","prediction_trial","0","","true","","0","true","true","true","true","true","true","[0]","011","001","1","","","","","","",""
"","","","","","image-keyboard-response","65","1210672","0.0-40.0","634282de38138fa9316eb482","665500ab8938657b03fbdba8","66579294c69c7faa76e73c7c","582","stimuli/00110010.jpg"," ","","feedback_trial","0","","","","","","","","","","","","","","","","","","","","",""
"","","","","","image-keyboard-response","66","1211568","0.0-41.0","634282de38138fa9316eb482","665500ab8938657b03fbdba8","66579294c69c7faa76e73c7c","894","stimuli/2111000.jpg","2","","prediction_trial","0","","false","","2","true","true","false","false","false","false","[0,1,2]","111","000","0","","","","","","",""
"","","","","","image-keyboard-response","67","1212025","0.0-42.0","634282de38138fa9316eb482","665500ab8938657b03fbdba8","66579294c69c7faa76e73c7c","456","stimuli/21110000.jpg"," ","","feedback_trial","0","","","","","","","","","","","","","","","","","","","","",""
"","","","","","image-keyboard-response","68","1213633","0.0-43.0","634282de38138fa9316eb482","665500ab8938657b03fbdba8","66579294c69c7faa76e73c7c","1602","stimuli/1001011.jpg","2","","prediction_trial","1","","false","","1","false","false","true","true","false","false","[1]","001","011","0","","","","","","",""
"","","","","","image-keyboard-response","69","1214180","0.0-44.0","634282de38138fa9316eb482","665500ab8938657b03fbdba8","66579294c69c7faa76e73c7c","545","stimuli/10010111.jpg"," ","","feedback_trial","1","","","","","","","","","","","","","","","","","","","","",""
"","","","","","image-keyboard-response","70","1215237","0.0-45.0","634282de38138fa9316eb482","665500ab8938657b03fbdba8","66579294c69c7faa76e73c7c","1056","stimuli/2101100.jpg","2","","prediction_trial","2","","true","","2","true","true","false","false","false","false","[0,2]","101","100","1","","","","","","",""
"","","","","","image-keyboard-response","71","1215732","0.0-46.0","634282de38138fa9316eb482","665500ab8938657b03fbdba8","66579294c69c7faa76e73c7c","494","stimuli/21011002.jpg"," ","","feedback_trial","0","","","","","","","","","","","","","","","","","","","","",""
"","","","","","image-keyboard-response","72","1216801","0.0-47.0","634282de38138fa9316eb482","665500ab8938657b03fbdba8","66579294c69c7faa76e73c7c","1068","stimuli/0100010.jpg","0","","prediction_trial","0","","true","","0","true","true","false","true","false","true","[0]","100","010","1","","","","","","",""
"","","","","","image-keyboard-response","73","1217205","0.0-48.0","634282de38138fa9316eb482","665500ab8938657b03fbdba8","66579294c69c7faa76e73c7c","402","stimuli/01000100.jpg"," ","","feedback_trial","0","","","","","","","","","","","","","","","","","","","","",""
"","","","","","image-keyboard-response","74","1218413","0.0-49.0","634282de38138fa9316eb482","665500ab8938657b03fbdba8","66579294c69c7faa76e73c7c","1207","stimuli/2001111.jpg","1","","prediction_trial","2","","false","","2","false","false","false","true","false","false","[2]","001","111","0","","","","","","",""
"","","","","","image-keyboard-response","75","1218865","0.0-50.0","634282de38138fa9316eb482","665500ab8938657b03fbdba8","66579294c69c7faa76e73c7c","451","stimuli/20011112.jpg"," ","","feedback_trial","2","","","","","","","","","","","","","","","","","","","","",""
"","","","","","image-keyboard-response","76","1219765","0.0-51.0","634282de38138fa9316eb482","665500ab8938657b03fbdba8","66579294c69c7faa76e73c7c","901","stimuli/2010001.jpg","2","","prediction_trial","2","","true","","2","false","true","true","true","false","true","[2]","010","001","1","","","","","","",""
"","","","","","image-keyboard-response","77","1220235","0.0-52.0","634282de38138fa9316eb482","665500ab8938657b03fbdba8","66579294c69c7faa76e73c7c","461","stimuli/20100012.jpg"," ","","feedback_trial","2","","","","","","","","","","","","","","","","","","","","",""
"","","","","","image-keyboard-response","78","1221073","0.0-53.0","634282de38138fa9316eb482","665500ab8938657b03fbdba8","66579294c69c7faa76e73c7c","837","stimuli/0110111.jpg","2","","prediction_trial","1","","false","","0","false","false","false","false","false","false","[1,0]","110","111","0","","","","","","",""
"","","","","","image-keyboard-response","79","1221515","0.0-54.0","634282de38138fa9316eb482","665500ab8938657b03fbdba8","66579294c69c7faa76e73c7c","441","stimuli/01101111.jpg"," ","","feedback_trial","1","","","","","","","","","","","","","","","","","","","","",""
"","","","","","image-keyboard-response","80","1222310","0.0-55.0","634282de38138fa9316eb482","665500ab8938657b03fbdba8","66579294c69c7faa76e73c7c","793","stimuli/2110101.jpg","2","","prediction_trial","2","","true","","2","false","false","true","true","false","false","[2]","110","101","1","","","","","","",""
"","","","","","image-keyboard-response","81","1222774","0.0-56.0","634282de38138fa9316eb482","665500ab8938657b03fbdba8","66579294c69c7faa76e73c7c","463","stimuli/21101012.jpg"," ","","feedback_trial","2","","","","","","","","","","","","","","","","","","","","",""
"","","","","","image-keyboard-response","82","1224283","0.0-57.0","634282de38138fa9316eb482","665500ab8938657b03fbdba8","66579294c69c7faa76e73c7c","1508","stimuli/0010110.jpg","0","","prediction_trial","0","","true","","0","false","false","true","true","false","false","[0]","010","110","1","","","","","","",""
"","","","","","image-keyboard-response","83","1224751","0.0-58.0","634282de38138fa9316eb482","665500ab8938657b03fbdba8","66579294c69c7faa76e73c7c","466","stimuli/00101100.jpg"," ","","feedback_trial","0","","","","","","","","","","","","","","","","","","","","",""
"","","","","","image-keyboard-response","84","1225769","0.0-59.0","634282de38138fa9316eb482","665500ab8938657b03fbdba8","66579294c69c7faa76e73c7c","1017","stimuli/2011000.jpg","2","","prediction_trial","2","","true","","2","true","true","false","false","false","false","[2,1]","011","000","1","","","","","","",""
"","","","","","image-keyboard-response","85","1226199","0.0-60.0","634282de38138fa9316eb482","665500ab8938657b03fbdba8","66579294c69c7faa76e73c7c","428","stimuli/20110002.jpg"," ","","feedback_trial","2","","","","","","","","","","","","","","","","","","","","",""
"","","","","","image-keyboard-response","86","1227425","0.0-61.0","634282de38138fa9316eb482","665500ab8938657b03fbdba8","66579294c69c7faa76e73c7c","1218","stimuli/1111011.jpg","1","","prediction_trial","1","","true","","1","false","false","false","false","false","false","[2,0,1]","111","011","1","","","","","","",""
"","","","","","image-keyboard-response","87","1227941","0.0-62.0","634282de38138fa9316eb482","665500ab8938657b03fbdba8","66579294c69c7faa76e73c7c","515","stimuli/11110111.jpg"," ","","feedback_trial","2","","","","","","","","","","","","","","","","","","","","",""
"","","","","","image-keyboard-response","88","1228647","0.0-63.0","634282de38138fa9316eb482","665500ab8938657b03fbdba8","66579294c69c7faa76e73c7c","705","stimuli/1110001.jpg","1","","prediction_trial","1","","true","","1","true","true","false","false","false","false","[1,0]","110","001","1","","","","","","",""
"","","","","","image-keyboard-response","89","1229128","0.0-64.0","634282de38138fa9316eb482","665500ab8938657b03fbdba8","66579294c69c7faa76e73c7c","480","stimuli/11100011.jpg"," ","","feedback_trial","1","","","","","","","","","","","","","","","","","","","","",""
"","","","","","image-keyboard-response","90","1230008","0.0-65.0","634282de38138fa9316eb482","665500ab8938657b03fbdba8","66579294c69c7faa76e73c7c","880","stimuli/1010111.jpg","1","","prediction_trial","1","","true","","1","false","false","false","true","false","false","[1]","010","111","1","","","","","","",""
"","","","","","image-keyboard-response","91","1230464","0.0-66.0","634282de38138fa9316eb482","665500ab8938657b03fbdba8","66579294c69c7faa76e73c7c","455","stimuli/10101111.jpg"," ","","feedback_trial","1","","","","","","","","","","","","","","","","","","","","",""
"","","","","","image-keyboard-response","92","1231288","0.0-67.0","634282de38138fa9316eb482","665500ab8938657b03fbdba8","66579294c69c7faa76e73c7c","822","stimuli/0000111.jpg","1","","prediction_trial","0","","false","","0","false","false","true","true","false","false","[0]","000","111","0","","","","","","",""
"","","","","","image-keyboard-response","93","1231771","0.0-68.0","634282de38138fa9316eb482","665500ab8938657b03fbdba8","66579294c69c7faa76e73c7c","482","stimuli/00001110.jpg"," ","","feedback_trial","0","","","","","","","","","","","","","","","","","","","","",""
"","","","","","image-keyboard-response","94","1232712","0.0-69.0","634282de38138fa9316eb482","665500ab8938657b03fbdba8","66579294c69c7faa76e73c7c","939","stimuli/0111001.jpg","0","","prediction_trial","0","","true","","0","true","true","false","false","false","false","[0,1,2]","111","001","1","","","","","","",""
"","","","","","image-keyboard-response","95","1233076","0.0-70.0","634282de38138fa9316eb482","665500ab8938657b03fbdba8","66579294c69c7faa76e73c7c","356","stimuli/01110010.jpg"," ","","feedback_trial","0","","","","","","","","","","","","","","","","","","","","",""
"","","","","","image-keyboard-response","96","1233947","0.0-71.0","634282de38138fa9316eb482","665500ab8938657b03fbdba8","66579294c69c7faa76e73c7c","870","stimuli/2010110.jpg","2","","prediction_trial","2","","true","","2","true","true","true","true","true","true","[2]","010","110","1","","","","","","",""
"","","","","","image-keyboard-response","97","1234378","0.0-72.0","634282de38138fa9316eb482","665500ab8938657b03fbdba8","66579294c69c7faa76e73c7c","430","stimuli/20101102.jpg"," ","","feedback_trial","2","","","","","","","","","","","","","","","","","","","","",""
"","","","","","image-keyboard-response","98","1235261","0.0-73.0","634282de38138fa9316eb482","665500ab8938657b03fbdba8","66579294c69c7faa76e73c7c","882","stimuli/0110100.jpg","0","","prediction_trial","1","","false","","0","false","true","false","false","false","false","[0,1]","110","100","0","","","","","","",""
"","","","","","image-keyboard-response","99","1235670","0.0-74.0","634282de38138fa9316eb482","665500ab8938657b03fbdba8","66579294c69c7faa76e73c7c","407","stimuli/01101001.jpg"," ","","feedback_trial","0","","","","","","","","","","","","","","","","","","","","",""
"","","","","","image-keyboard-response","100","1236440","0.0-75.0","634282de38138fa9316eb482","665500ab8938657b03fbdba8","66579294c69c7faa76e73c7c","769","stimuli/2001100.jpg","2","","prediction_trial","2","","true","","2","true","true","false","true","false","true","[2]","001","100","1","","","","","","",""
"","","","","","image-keyboard-response","101","1236758","0.0-76.0","634282de38138fa9316eb482","665500ab8938657b03fbdba8","66579294c69c7faa76e73c7c","317","stimuli/20011002.jpg"," ","","feedback_trial","2","","","","","","","","","","","","","","","","","","","","",""
"","","","","","image-keyboard-response","102","1237679","0.0-77.0","634282de38138fa9316eb482","665500ab8938657b03fbdba8","66579294c69c7faa76e73c7c","919","stimuli/0111010.jpg","0","","prediction_trial","2","","false","","0","true","true","false","false","false","false","[0,1,2]","111","010","0","","","","","","",""
"","","","","","image-keyboard-response","103","1238132","0.0-78.0","634282de38138fa9316eb482","665500ab8938657b03fbdba8","66579294c69c7faa76e73c7c","453","stimuli/01110102.jpg"," ","","feedback_trial","0","","","","","","","","","","","","","","","","","","","","",""
"","","","","","image-keyboard-response","104","1239109","0.0-79.0","634282de38138fa9316eb482","665500ab8938657b03fbdba8","66579294c69c7faa76e73c7c","967","stimuli/0100001.jpg","0","","prediction_trial","0","","true","","0","true","true","false","true","false","true","[0]","100","001","1","","","","","","",""
"","","","","","image-keyboard-response","105","1239490","0.0-80.0","634282de38138fa9316eb482","665500ab8938657b03fbdba8","66579294c69c7faa76e73c7c","380","stimuli/01000010.jpg"," ","","feedback_trial","0","","","","","","","","","","","","","","","","","","","","",""
"","","","","","image-keyboard-response","106","1240284","0.0-81.0","634282de38138fa9316eb482","665500ab8938657b03fbdba8","66579294c69c7faa76e73c7c","793","stimuli/0000010.jpg","0","","prediction_trial","0","","true","","0","true","true","true","true","true","true","[0]","000","010","1","","","","","","",""
"","","","","","image-keyboard-response","107","1240744","0.0-82.0","634282de38138fa9316eb482","665500ab8938657b03fbdba8","66579294c69c7faa76e73c7c","458","stimuli/00000100.jpg"," ","","feedback_trial","0","","","","","","","","","","","","","","","","","","","","",""
"","","","","","image-keyboard-response","108","1242156","0.0-83.0","634282de38138fa9316eb482","665500ab8938657b03fbdba8","66579294c69c7faa76e73c7c","1411","stimuli/0000101.jpg","0","","prediction_trial","0","","true","","0","false","false","true","true","false","false","[0]","000","101","1","","","","","","",""
"","","","","","image-keyboard-response","109","1242564","0.0-84.0","634282de38138fa9316eb482","665500ab8938657b03fbdba8","66579294c69c7faa76e73c7c","406","stimuli/00001010.jpg"," ","","feedback_trial","0","","","","","","","","","","","","","","","","","","","","",""
"","","","","","image-keyboard-response","110","1243615","0.0-85.0","634282de38138fa9316eb482","665500ab8938657b03fbdba8","66579294c69c7faa76e73c7c","1049","stimuli/2100110.jpg","2","","prediction_trial","2","","true","","2","true","true","true","true","true","true","[2]","100","110","1","","","","","","",""
"","","","","","image-keyboard-response","111","1244032","0.0-86.0","634282de38138fa9316eb482","665500ab8938657b03fbdba8","66579294c69c7faa76e73c7c","416","stimuli/21001102.jpg"," ","","feedback_trial","2","","","","","","","","","","","","","","","","","","","","",""
"","","","","","image-keyboard-response","112","1244753","0.0-87.0","634282de38138fa9316eb482","665500ab8938657b03fbdba8","66579294c69c7faa76e73c7c","719","stimuli/1011011.jpg","2","","prediction_trial","2","","true","","1","false","false","false","false","false","false","[1,2]","011","011","1","","","","","","",""
"","","","","","image-keyboard-response","113","1245279","0.0-88.0","634282de38138fa9316eb482","665500ab8938657b03fbdba8","66579294c69c7faa76e73c7c","517","stimuli/10110112.jpg"," ","","feedback_trial","1","","","","","","","","","","","","","","","","","","","","",""
"","","","","","image-keyboard-response","114","1246360","0.0-89.0","634282de38138fa9316eb482","665500ab8938657b03fbdba8","66579294c69c7faa76e73c7c","1080","stimuli/0100000.jpg","0","","prediction_trial","0","","true","","0","true","true","false","true","false","true","[0]","100","000","1","","","","","","",""
"","","","","","image-keyboard-response","115","1246823","0.0-90.0","634282de38138fa9316eb482","665500ab8938657b03fbdba8","66579294c69c7faa76e73c7c","462","stimuli/01000000.jpg"," ","","feedback_trial","0","","","","","","","","","","","","","","","","","","","","",""
"","","","","","image-keyboard-response","116","1248098","0.0-91.0","634282de38138fa9316eb482","665500ab8938657b03fbdba8","66579294c69c7faa76e73c7c","1274","stimuli/0010001.jpg","0","","prediction_trial","0","","true","","0","true","true","true","true","true","true","[0]","010","001","1","","","","","","",""
"","","","","","image-keyboard-response","117","1248484","0.0-92.0","634282de38138fa9316eb482","665500ab8938657b03fbdba8","66579294c69c7faa76e73c7c","384","stimuli/00100010.jpg"," ","","feedback_trial","0","","","","","","","","","","","","","","","","","","","","",""
"","","","","","image-keyboard-response","118","1249259","0.0-93.0","634282de38138fa9316eb482","665500ab8938657b03fbdba8","66579294c69c7faa76e73c7c","775","stimuli/0100111.jpg","0","","prediction_trial","0","","true","","0","false","false","false","true","false","false","[0]","100","111","1","","","","","","",""
"","","","","","image-keyboard-response","119","1249806","0.0-94.0","634282de38138fa9316eb482","665500ab8938657b03fbdba8","66579294c69c7faa76e73c7c","546","stimuli/01001110.jpg"," ","","feedback_trial","0","","","","","","","","","","","","","","","","","","","","",""
"","","","","","image-keyboard-response","120","1251196","0.0-95.0","634282de38138fa9316eb482","665500ab8938657b03fbdba8","66579294c69c7faa76e73c7c","1389","stimuli/0101101.jpg","0","","prediction_trial","2","","false","","0","false","false","false","false","false","false","[2,0]","101","101","0","","","","","","",""
"","","","","","image-keyboard-response","121","1252317","0.0-96.0","634282de38138fa9316eb482","665500ab8938657b03fbdba8","66579294c69c7faa76e73c7c","1112","stimuli/01011012.jpg"," ","","feedback_trial","2","","","","","","","","","","","","","","","","","","","","",""
"","","","","","image-keyboard-response","122","1253261","0.0-97.0","634282de38138fa9316eb482","665500ab8938657b03fbdba8","66579294c69c7faa76e73c7c","943","stimuli/2000010.jpg","2","","prediction_trial","2","","true","","2","true","true","true","true","true","true","[2]","000","010","1","","","","","","",""
"","","","","","image-keyboard-response","123","1253823","0.0-98.0","634282de38138fa9316eb482","665500ab8938657b03fbdba8","66579294c69c7faa76e73c7c","561","stimuli/20000102.jpg"," ","","feedback_trial","2","","","","","","","","","","","","","","","","","","","","",""
"","","","","","image-keyboard-response","124","1254504","0.0-99.0","634282de38138fa9316eb482","665500ab8938657b03fbdba8","66579294c69c7faa76e73c7c","680","stimuli/2110100.jpg","2","","prediction_trial","2","","true","","2","true","true","true","true","true","true","[2]","110","100","1","","","","","","",""
"","","","","","image-keyboard-response","125","1254944","0.0-100.0","634282de38138fa9316eb482","665500ab8938657b03fbdba8","66579294c69c7faa76e73c7c","438","stimuli/21101002.jpg"," ","","feedback_trial","2","","","","","","","","","","","","","","","","","","","","",""
"","","","","","image-keyboard-response","126","1255618","0.0-101.0","634282de38138fa9316eb482","665500ab8938657b03fbdba8","66579294c69c7faa76e73c7c","673","stimuli/2100001.jpg","2","","prediction_trial","2","","true","","2","false","true","true","true","false","true","[2]","100","001","1","","","","","","",""
"","","","","","image-keyboard-response","127","1256092","0.0-102.0","634282de38138fa9316eb482","665500ab8938657b03fbdba8","66579294c69c7faa76e73c7c","473","stimuli/21000012.jpg"," ","","feedback_trial","2","","","","","","","","","","","","","","","","","","","","",""
"","","","","","image-keyboard-response","128","1257401","0.0-103.0","634282de38138fa9316eb482","665500ab8938657b03fbdba8","66579294c69c7faa76e73c7c","1308","stimuli/0111110.jpg","1","","prediction_trial","2","","false","","0","false","false","false","false","false","false","[1,2,0]","111","110","0","","","","","","",""
"","","","","","image-keyboard-response","129","1257906","0.0-104.0","634282de38138fa9316eb482","665500ab8938657b03fbdba8","66579294c69c7faa76e73c7c","503","stimuli/01111102.jpg"," ","","feedback_trial","1","","","","","","","","","","","","","","","","","","","","",""
"","","","","","image-keyboard-response","130","1258794","0.0-105.0","634282de38138fa9316eb482","665500ab8938657b03fbdba8","66579294c69c7faa76e73c7c","879","stimuli/1101001.jpg","1","","prediction_trial","1","","true","","1","true","true","true","true","true","true","[1]","101","001","1","","","","","","",""
"","","","","","image-keyboard-response","131","1259235","0.0-106.0","634282de38138fa9316eb482","665500ab8938657b03fbdba8","66579294c69c7faa76e73c7c","440","stimuli/11010011.jpg"," ","","feedback_trial","1","","","","","","","","","","","","","","","","","","","","",""
"","","","","","image-keyboard-response","132","1259979","0.0-107.0","634282de38138fa9316eb482","665500ab8938657b03fbdba8","66579294c69c7faa76e73c7c","742","stimuli/1111111.jpg","1","","prediction_trial","2","","false","","1","false","false","false","false","false","false","[1,2,0]","111","111","0","","","","","","",""
"","","","","","image-keyboard-response","133","1260539","0.0-108.0","634282de38138fa9316eb482","665500ab8938657b03fbdba8","66579294c69c7faa76e73c7c","559","stimuli/11111112.jpg"," ","","feedback_trial","1","","","","","","","","","","","","","","","","","","","","",""
"","","","","","image-keyboard-response","134","1261538","0.0-109.0","634282de38138fa9316eb482","665500ab8938657b03fbdba8","66579294c69c7faa76e73c7c","998","stimuli/0011011.jpg","0","","prediction_trial","0","","true","","0","true","true","true","true","true","true","[0]","011","011","1","","","","","","",""
"","","","","","image-keyboard-response","135","1262056","0.0-110.0","634282de38138fa9316eb482","665500ab8938657b03fbdba8","66579294c69c7faa76e73c7c","517","stimuli/00110110.jpg"," ","","feedback_trial","0","","","","","","","","","","","","","","","","","","","","",""
"","","","","","image-keyboard-response","136","1262884","0.0-111.0","634282de38138fa9316eb482","665500ab8938657b03fbdba8","66579294c69c7faa76e73c7c","827","stimuli/0011100.jpg","0","","prediction_trial","0","","true","","0","false","true","true","true","false","true","[0]","011","100","1","","","","","","",""
"","","","","","image-keyboard-response","137","1263373","0.0-112.0","634282de38138fa9316eb482","665500ab8938657b03fbdba8","66579294c69c7faa76e73c7c","488","stimuli/00111000.jpg"," ","","feedback_trial","0","","","","","","","","","","","","","","","","","","","","",""
"","","","","","image-keyboard-response","138","1264057","0.0-113.0","634282de38138fa9316eb482","665500ab8938657b03fbdba8","66579294c69c7faa76e73c7c","682","stimuli/0000100.jpg","0","","prediction_trial","0","","true","","0","false","true","true","true","false","true","[0]","000","100","1","","","","","","",""
"","","","","","image-keyboard-response","139","1264529","0.0-114.0","634282de38138fa9316eb482","665500ab8938657b03fbdba8","66579294c69c7faa76e73c7c","465","stimuli/00001000.jpg"," ","","feedback_trial","0","","","","","","","","","","","","","","","","","","","","",""
"","","","","","image-keyboard-response","140","1265786","0.0-115.0","634282de38138fa9316eb482","665500ab8938657b03fbdba8","66579294c69c7faa76e73c7c","1256","stimuli/2110111.jpg","0","","prediction_trial","2","","false","","2","false","false","true","true","false","false","[2]","110","111","0","","","","","","",""
"","","","","","image-keyboard-response","141","1266259","0.0-116.0","634282de38138fa9316eb482","665500ab8938657b03fbdba8","66579294c69c7faa76e73c7c","471","stimuli/21101112.jpg"," ","","feedback_trial","2","","","","","","","","","","","","","","","","","","","","",""
"","","","","","image-keyboard-response","142","1267418","0.0-117.0","634282de38138fa9316eb482","665500ab8938657b03fbdba8","66579294c69c7faa76e73c7c","1158","stimuli/0100100.jpg","0","","prediction_trial","0","","true","","0","false","true","false","true","false","true","[0]","100","100","1","","","","","","",""
"","","","","","image-keyboard-response","143","1267805","0.0-118.0","634282de38138fa9316eb482","665500ab8938657b03fbdba8","66579294c69c7faa76e73c7c","386","stimuli/01001000.jpg"," ","","feedback_trial","0","","","","","","","","","","","","","","","","","","","","",""
"","","","","","image-keyboard-response","144","1268426","0.0-119.0","634282de38138fa9316eb482","665500ab8938657b03fbdba8","66579294c69c7faa76e73c7c","620","stimuli/0010000.jpg","0","","prediction_trial","0","","true","","0","true","true","true","true","true","true","[0]","010","000","1","","","","","","",""
"","","","","","image-keyboard-response","145","1268841","0.0-120.0","634282de38138fa9316eb482","665500ab8938657b03fbdba8","66579294c69c7faa76e73c7c","414","stimuli/00100000.jpg"," ","","feedback_trial","0","","","","","","","","","","","","","","","","","","","","",""
"","","","","","image-keyboard-response","146","1269946","0.0-121.0","634282de38138fa9316eb482","665500ab8938657b03fbdba8","66579294c69c7faa76e73c7c","1103","stimuli/2100011.jpg","2","","prediction_trial","2","","true","","2","false","false","true","true","false","false","[2]","100","011","1","","","","","","",""
"","","","","","image-keyboard-response","147","1270563","0.0-122.0","634282de38138fa9316eb482","665500ab8938657b03fbdba8","66579294c69c7faa76e73c7c","616","stimuli/21000112.jpg"," ","","feedback_trial","2","","","","","","","","","","","","","","","","","","","","",""
"","","","","","image-keyboard-response","148","1271281","0.0-123.0","634282de38138fa9316eb482","665500ab8938657b03fbdba8","66579294c69c7faa76e73c7c","711","stimuli/2011111.jpg","2","","prediction_trial","1","","false","","2","false","false","false","false","false","false","[1,2]","011","111","0","","","","","","",""
"","","","","","image-keyboard-response","149","1271738","0.0-124.0","634282de38138fa9316eb482","665500ab8938657b03fbdba8","66579294c69c7faa76e73c7c","456","stimuli/20111111.jpg"," ","","feedback_trial","1","","","","","","","","","","","","","","","","","","","","",""
"","","","","","image-keyboard-response","150","1272396","0.0-125.0","634282de38138fa9316eb482","665500ab8938657b03fbdba8","66579294c69c7faa76e73c7c","656","stimuli/0001111.jpg","2","","prediction_trial","0","","false","","0","false","false","true","true","false","false","[0]","001","111","0","","","","","","",""
"","","","","","image-keyboard-response","151","1272819","0.0-126.0","634282de38138fa9316eb482","665500ab8938657b03fbdba8","66579294c69c7faa76e73c7c","422","stimuli/00011110.jpg"," ","","feedback_trial","0","","","","","","","","","","","","","","","","","","","","",""
"","","","","","image-keyboard-response","152","1273439","0.0-127.0","634282de38138fa9316eb482","665500ab8938657b03fbdba8","66579294c69c7faa76e73c7c","619","stimuli/2011001.jpg","2","","prediction_trial","1","","false","","2","false","true","false","false","false","false","[1,2]","011","001","0","","","","","","",""
"","","","","","image-keyboard-response","153","1273861","0.0-128.0","634282de38138fa9316eb482","665500ab8938657b03fbdba8","66579294c69c7faa76e73c7c","422","stimuli/20110011.jpg"," ","","feedback_trial","1","","","","","","","","","","","","","","","","","","","","",""
"","","","","","image-keyboard-response","154","1274338","0.0-129.0","634282de38138fa9316eb482","665500ab8938657b03fbdba8","66579294c69c7faa76e73c7c","476","stimuli/2100101.jpg","2","","prediction_trial","2","","true","","2","false","false","true","true","false","false","[2]","100","101","1","","","","","","",""
"","","","","","image-keyboard-response","155","1274991","0.0-130.0","634282de38138fa9316eb482","665500ab8938657b03fbdba8","66579294c69c7faa76e73c7c","651","stimuli/21001012.jpg"," ","","feedback_trial","2","","","","","","","","","","","","","","","","","","","","",""
"","","","","","image-keyboard-response","156","1275639","0.0-131.0","634282de38138fa9316eb482","665500ab8938657b03fbdba8","66579294c69c7faa76e73c7c","647","stimuli/2100010.jpg","2","","prediction_trial","2","","true","","2","true","true","true","true","true","true","[2]","100","010","1","","","","","","",""
"","","","","","image-keyboard-response","157","1276069","0.0-132.0","634282de38138fa9316eb482","665500ab8938657b03fbdba8","66579294c69c7faa76e73c7c","422","stimuli/21000102.jpg"," ","","feedback_trial","2","","","","","","","","","","","","","","","","","","","","",""
"","","","","","image-keyboard-response","158","1276666","0.0-133.0","634282de38138fa9316eb482","665500ab8938657b03fbdba8","66579294c69c7faa76e73c7c","595","stimuli/2001010.jpg","2","","prediction_trial","2","","true","","2","true","true","false","true","false","true","[2]","001","010","1","","","","","","",""
"","","","","","image-keyboard-response","159","1277062","0.0-134.0","634282de38138fa9316eb482","665500ab8938657b03fbdba8","66579294c69c7faa76e73c7c","395","stimuli/20010102.jpg"," ","","feedback_trial","2","","","","","","","","","","","","","","","","","","","","",""
"","","","","","image-keyboard-response","160","1277897","0.0-135.0","634282de38138fa9316eb482","665500ab8938657b03fbdba8","66579294c69c7faa76e73c7c","834","stimuli/2101101.jpg","2","","prediction_trial","2","","true","","2","false","false","false","false","false","false","[0,2]","101","101","1","","","","","","",""
"","","","","","image-keyboard-response","161","1278306","0.0-136.0","634282de38138fa9316eb482","665500ab8938657b03fbdba8","66579294c69c7faa76e73c7c","408","stimuli/21011012.jpg"," ","","feedback_trial","0","","","","","","","","","","","","","","","","","","","","",""
"","","","","","image-keyboard-response","162","1280049","0.0-137.0","634282de38138fa9316eb482","665500ab8938657b03fbdba8","66579294c69c7faa76e73c7c","1741","stimuli/1011100.jpg","1","","prediction_trial","2","","false","","1","true","true","false","false","false","false","[2,1]","011","100","0","","","","","","",""
"","","","","","image-keyboard-response","163","1281538","0.0-138.0","634282de38138fa9316eb482","665500ab8938657b03fbdba8","66579294c69c7faa76e73c7c","1488","stimuli/10111002.jpg"," ","","feedback_trial","2","","","","","","","","","","","","","","","","","","","","",""
"","","","","","image-keyboard-response","164","1282283","0.0-139.0","634282de38138fa9316eb482","665500ab8938657b03fbdba8","66579294c69c7faa76e73c7c","743","stimuli/1000010.jpg","1","","prediction_trial","1","","true","","1","false","true","true","true","false","true","[1]","000","010","1","","","","","","",""
"","","","","","image-keyboard-response","165","1282699","0.0-140.0","634282de38138fa9316eb482","665500ab8938657b03fbdba8","66579294c69c7faa76e73c7c","415","stimuli/10000101.jpg"," ","","feedback_trial","1","","","","","","","","","","","","","","","","","","","","",""
"","","","","","image-keyboard-response","166","1283484","0.0-141.0","634282de38138fa9316eb482","665500ab8938657b03fbdba8","66579294c69c7faa76e73c7c","776","stimuli/2111001.jpg","2","","prediction_trial","1","","false","","2","false","true","false","false","false","false","[2,1,0]","111","001","0","","","","","","",""
"","","","","","image-keyboard-response","167","1283937","0.0-142.0","634282de38138fa9316eb482","665500ab8938657b03fbdba8","66579294c69c7faa76e73c7c","452","stimuli/21110011.jpg"," ","","feedback_trial","2","","","","","","","","","","","","","","","","","","","","",""
"","","","","","image-keyboard-response","168","1284627","0.0-143.0","634282de38138fa9316eb482","665500ab8938657b03fbdba8","66579294c69c7faa76e73c7c","689","stimuli/0111101.jpg","2","","prediction_trial","2","","true","","0","false","false","false","false","false","false","[2,1,0]","111","101","1","","","","","","",""
"","","","","","image-keyboard-response","169","1285270","0.0-144.0","634282de38138fa9316eb482","665500ab8938657b03fbdba8","66579294c69c7faa76e73c7c","642","stimuli/01111012.jpg"," ","","feedback_trial","2","","","","","","","","","","","","","","","","","","","","",""
"","","","","","image-keyboard-response","170","1285827","0.0-145.0","634282de38138fa9316eb482","665500ab8938657b03fbdba8","66579294c69c7faa76e73c7c","555","stimuli/2101000.jpg","2","","prediction_trial","0","","false","","2","true","true","false","false","false","false","[2,0]","101","000","0","","","","","","",""
"","","","","","image-keyboard-response","171","1287157","0.0-146.0","634282de38138fa9316eb482","665500ab8938657b03fbdba8","66579294c69c7faa76e73c7c","1329","stimuli/21010000.jpg"," ","","feedback_trial","2","","","","","","","","","","","","","","","","","","","","",""
"","","","","","image-keyboard-response","172","1288429","0.0-147.0","634282de38138fa9316eb482","665500ab8938657b03fbdba8","66579294c69c7faa76e73c7c","1270","stimuli/1000001.jpg","1","","prediction_trial","1","","true","","1","true","true","true","true","true","true","[1]","000","001","1","","","","","","",""
"","","","","","image-keyboard-response","173","1288872","0.0-148.0","634282de38138fa9316eb482","665500ab8938657b03fbdba8","66579294c69c7faa76e73c7c","442","stimuli/10000011.jpg"," ","","feedback_trial","1","","","","","","","","","","","","","","","","","","","","",""
"","","","","","image-keyboard-response","174","1290247","0.0-149.0","634282de38138fa9316eb482","665500ab8938657b03fbdba8","66579294c69c7faa76e73c7c","1374","stimuli/1001110.jpg","1","","prediction_trial","1","","true","","1","false","false","true","true","false","false","[1]","001","110","1","","","","","","",""
"","","","","","image-keyboard-response","175","1290566","0.0-150.0","634282de38138fa9316eb482","665500ab8938657b03fbdba8","66579294c69c7faa76e73c7c","310","stimuli/10011101.jpg"," ","","feedback_trial","1","","","","","","","","","","","","","","","","","","","","",""
"","","","","","image-keyboard-response","176","1291215","0.0-151.0","634282de38138fa9316eb482","665500ab8938657b03fbdba8","66579294c69c7faa76e73c7c","648","stimuli/2111111.jpg","1","","prediction_trial","0","","false","","2","false","false","false","false","false","false","[1,0,2]","111","111","0","","","","","","",""
"","","","","","image-keyboard-response","177","1291977","0.0-152.0","634282de38138fa9316eb482","665500ab8938657b03fbdba8","66579294c69c7faa76e73c7c","760","stimuli/21111110.jpg"," ","","feedback_trial","1","","","","","","","","","","","","","","","","","","","","",""
"","","","","","image-keyboard-response","178","1293126","0.0-153.0","634282de38138fa9316eb482","665500ab8938657b03fbdba8","66579294c69c7faa76e73c7c","1148","stimuli/0100011.jpg","0","","prediction_trial","0","","true","","0","true","true","false","true","false","true","[0]","100","011","1","","","","","","",""
"","","","","","image-keyboard-response","179","1293470","0.0-154.0","634282de38138fa9316eb482","665500ab8938657b03fbdba8","66579294c69c7faa76e73c7c","343","stimuli/01000110.jpg"," ","","feedback_trial","0","","","","","","","","","","","","","","","","","","","","",""
"","","","","","image-keyboard-response","180","1294072","0.0-155.0","634282de38138fa9316eb482","665500ab8938657b03fbdba8","66579294c69c7faa76e73c7c","601","stimuli/0001000.jpg","0","","prediction_trial","0","","true","","0","true","true","true","true","true","true","[0]","001","000","1","","","","","","",""
"","","","","","image-keyboard-response","181","1294450","0.0-156.0","634282de38138fa9316eb482","665500ab8938657b03fbdba8","66579294c69c7faa76e73c7c","377","stimuli/00010000.jpg"," ","","feedback_trial","0","","","","","","","","","","","","","","","","","","","","",""
"","","","","","image-keyboard-response","182","1295162","0.0-157.0","634282de38138fa9316eb482","665500ab8938657b03fbdba8","66579294c69c7faa76e73c7c","711","stimuli/1110110.jpg","0","","prediction_trial","1","","false","","1","false","false","false","false","false","false","[1,0]","110","110","0","","","","","","",""
"","","","","","image-keyboard-response","183","1295528","0.0-158.0","634282de38138fa9316eb482","665500ab8938657b03fbdba8","66579294c69c7faa76e73c7c","364","stimuli/11101101.jpg"," ","","feedback_trial","1","","","","","","","","","","","","","","","","","","","","",""
"","","","","","image-keyboard-response","184","1296418","0.0-159.0","634282de38138fa9316eb482","665500ab8938657b03fbdba8","66579294c69c7faa76e73c7c","882","stimuli/1100000.jpg","1","","prediction_trial","1","","true","","1","true","true","true","true","true","true","[1]","100","000","1","","","","","","",""
"","","","","","image-keyboard-response","185","1296865","0.0-160.0","634282de38138fa9316eb482","665500ab8938657b03fbdba8","66579294c69c7faa76e73c7c","446","stimuli/11000001.jpg"," ","","feedback_trial","1","","","","","","","","","","","","","","","","","","","","",""
"","","","","","image-keyboard-response","186","1297766","0.0-161.0","634282de38138fa9316eb482","665500ab8938657b03fbdba8","66579294c69c7faa76e73c7c","899","stimuli/1101101.jpg","1","","prediction_trial","1","","true","","1","true","true","true","true","true","true","[1]","101","101","1","","","","","","",""
"","","","","","image-keyboard-response","187","1298180","0.0-162.0","634282de38138fa9316eb482","665500ab8938657b03fbdba8","66579294c69c7faa76e73c7c","413","stimuli/11011011.jpg"," ","","feedback_trial","1","","","","","","","","","","","","","","","","","","","","",""
"","","","","","image-keyboard-response","188","1299218","0.0-163.0","634282de38138fa9316eb482","665500ab8938657b03fbdba8","66579294c69c7faa76e73c7c","1037","stimuli/0101011.jpg","0","","prediction_trial","2","","false","","0","true","true","false","false","false","false","[2,0]","101","011","0","","","","","","",""
"","","","","","image-keyboard-response","189","1299666","0.0-164.0","634282de38138fa9316eb482","665500ab8938657b03fbdba8","66579294c69c7faa76e73c7c","446","stimuli/01010112.jpg"," ","","feedback_trial","2","","","","","","","","","","","","","","","","","","","","",""
"","","","","","image-keyboard-response","190","1300538","0.0-165.0","634282de38138fa9316eb482","665500ab8938657b03fbdba8","66579294c69c7faa76e73c7c","871","stimuli/1011101.jpg","1","","prediction_trial","1","","true","","1","true","true","false","false","false","false","[1,2]","011","101","1","","","","","","",""
"","","","","","image-keyboard-response","191","1300997","0.0-166.0","634282de38138fa9316eb482","665500ab8938657b03fbdba8","66579294c69c7faa76e73c7c","458","stimuli/10111011.jpg"," ","","feedback_trial","1","","","","","","","","","","","","","","","","","","","","",""
"","","","","","image-keyboard-response","192","1301729","0.0-167.0","634282de38138fa9316eb482","665500ab8938657b03fbdba8","66579294c69c7faa76e73c7c","731","stimuli/1000111.jpg","1","","prediction_trial","1","","true","","1","false","false","true","true","false","false","[1]","000","111","1","","","","","","",""
"","","","","","image-keyboard-response","193","1302233","0.0-168.0","634282de38138fa9316eb482","665500ab8938657b03fbdba8","66579294c69c7faa76e73c7c","494","stimuli/10001111.jpg"," ","","feedback_trial","1","","","","","","","","","","","","","","","","","","","","",""
"","","","","","image-keyboard-response","194","1303034","0.0-169.0","634282de38138fa9316eb482","665500ab8938657b03fbdba8","66579294c69c7faa76e73c7c","800","stimuli/2100100.jpg","2","","prediction_trial","2","","true","","2","true","true","true","true","true","true","[2]","100","100","1","","","","","","",""
"","","","","","image-keyboard-response","195","1303406","0.0-170.0","634282de38138fa9316eb482","665500ab8938657b03fbdba8","66579294c69c7faa76e73c7c","371","stimuli/21001002.jpg"," ","","feedback_trial","2","","","","","","","","","","","","","","","","","","","","",""
"","","","","","image-keyboard-response","196","1304457","0.0-171.0","634282de38138fa9316eb482","665500ab8938657b03fbdba8","66579294c69c7faa76e73c7c","1050","stimuli/1010010.jpg","1","","prediction_trial","1","","true","","1","false","true","false","true","false","true","[1]","010","010","1","","","","","","",""
"","","","","","image-keyboard-response","197","1304883","0.0-172.0","634282de38138fa9316eb482","665500ab8938657b03fbdba8","66579294c69c7faa76e73c7c","425","stimuli/10100101.jpg"," ","","feedback_trial","1","","","","","","","","","","","","","","","","","","","","",""
"","","","","","image-keyboard-response","198","1305596","0.0-173.0","634282de38138fa9316eb482","665500ab8938657b03fbdba8","66579294c69c7faa76e73c7c","711","stimuli/2000000.jpg","2","","prediction_trial","2","","true","","2","true","true","true","true","true","true","[2]","000","000","1","","","","","","",""
"","","","","","image-keyboard-response","199","1306072","0.0-174.0","634282de38138fa9316eb482","665500ab8938657b03fbdba8","66579294c69c7faa76e73c7c","475","stimuli/20000002.jpg"," ","","feedback_trial","2","","","","","","","","","","","","","","","","","","","","",""
"","","","","","image-keyboard-response","200","1307470","0.0-175.0","634282de38138fa9316eb482","665500ab8938657b03fbdba8","66579294c69c7faa76e73c7c","1396","stimuli/1111110.jpg","0","","prediction_trial","2","","false","","1","false","false","false","false","false","false","[2,0,1]","111","110","0","","","","","","",""
"","","","","","image-keyboard-response","201","1308581","0.0-176.0","634282de38138fa9316eb482","665500ab8938657b03fbdba8","66579294c69c7faa76e73c7c","1110","stimuli/11111102.jpg"," ","","feedback_trial","2","","","","","","","","","","","","","","","","","","","","",""
"","","","","","image-keyboard-response","202","1309347","0.0-177.0","634282de38138fa9316eb482","665500ab8938657b03fbdba8","66579294c69c7faa76e73c7c","758","stimuli/0011000.jpg","0","","prediction_trial","0","","true","","0","true","true","true","true","true","true","[0]","011","000","1","","","","","","",""
"","","","","","image-keyboard-response","203","1309705","0.0-178.0","634282de38138fa9316eb482","665500ab8938657b03fbdba8","66579294c69c7faa76e73c7c","356","stimuli/00110000.jpg"," ","","feedback_trial","0","","","","","","","","","","","","","","","","","","","","",""
"","","","","","image-keyboard-response","204","1310436","0.0-179.0","634282de38138fa9316eb482","665500ab8938657b03fbdba8","66579294c69c7faa76e73c7c","730","stimuli/2101111.jpg","0","","prediction_trial","0","","true","","2","false","false","false","false","false","false","[2,0]","101","111","1","","","","","","",""
"","","","","","image-keyboard-response","205","1310829","0.0-180.0","634282de38138fa9316eb482","665500ab8938657b03fbdba8","66579294c69c7faa76e73c7c","391","stimuli/21011110.jpg"," ","","feedback_trial","2","","","","","","","","","","","","","","","","","","","","",""
"","","","","","image-keyboard-response","206","1311426","0.0-181.0","634282de38138fa9316eb482","665500ab8938657b03fbdba8","66579294c69c7faa76e73c7c","596","stimuli/1011111.jpg","0","","prediction_trial","2","","false","","1","false","false","false","false","false","false","[1,2]","011","111","0","","","","","","",""
"","","","","","image-keyboard-response","207","1311921","0.0-182.0","634282de38138fa9316eb482","665500ab8938657b03fbdba8","66579294c69c7faa76e73c7c","494","stimuli/10111112.jpg"," ","","feedback_trial","1","","","","","","","","","","","","","","","","","","","","",""
"","","","","","image-keyboard-response","208","1312773","0.0-183.0","634282de38138fa9316eb482","665500ab8938657b03fbdba8","66579294c69c7faa76e73c7c","851","stimuli/1111001.jpg","1","","prediction_trial","0","","false","","1","true","true","false","false","false","false","[2,1,0]","111","001","0","","","","","","",""
"","","","","","image-keyboard-response","209","1313121","0.0-184.0","634282de38138fa9316eb482","665500ab8938657b03fbdba8","66579294c69c7faa76e73c7c","347","stimuli/11110010.jpg"," ","","feedback_trial","2","","","","","","","","","","","","","","","","","","","","",""
"","","","","","image-keyboard-response","210","1313958","0.0-185.0","634282de38138fa9316eb482","665500ab8938657b03fbdba8","66579294c69c7faa76e73c7c","835","stimuli/2011011.jpg","1","","prediction_trial","2","","false","","2","false","false","false","false","false","false","[2,1]","011","011","0","","","","","","",""
"","","","","","image-keyboard-response","211","1314377","0.0-186.0","634282de38138fa9316eb482","665500ab8938657b03fbdba8","66579294c69c7faa76e73c7c","411","stimuli/20110112.jpg"," ","","feedback_trial","2","","","","","","","","","","","","","","","","","","","","",""
"","","","","","image-keyboard-response","212","1315331","0.0-187.0","634282de38138fa9316eb482","665500ab8938657b03fbdba8","66579294c69c7faa76e73c7c","952","stimuli/2111110.jpg","2","","prediction_trial","1","","false","","2","true","true","false","false","false","false","[0,2,1]","111","110","0","","","","","","",""
"","","","","","image-keyboard-response","213","1316489","0.0-188.0","634282de38138fa9316eb482","665500ab8938657b03fbdba8","66579294c69c7faa76e73c7c","1158","stimuli/21111101.jpg"," ","","feedback_trial","0","","","","","","","","","","","","","","","","","","","","",""
"","","","","","image-keyboard-response","214","1317430","0.0-189.0","634282de38138fa9316eb482","665500ab8938657b03fbdba8","66579294c69c7faa76e73c7c","940","stimuli/1110000.jpg","1","","prediction_trial","0","","false","","1","true","true","false","false","false","false","[0,1]","110","000","0","","","","","","",""
"","","","","","image-keyboard-response","215","1317871","0.0-190.0","634282de38138fa9316eb482","665500ab8938657b03fbdba8","66579294c69c7faa76e73c7c","439","stimuli/11100000.jpg"," ","","feedback_trial","0","","","","","","","","","","","","","","","","","","","","",""
"","","","","","image-keyboard-response","216","1318876","0.0-191.0","634282de38138fa9316eb482","665500ab8938657b03fbdba8","66579294c69c7faa76e73c7c","1005","stimuli/2011100.jpg","2","","prediction_trial","1","","false","","2","true","true","false","false","false","false","[1,2]","011","100","0","","","","","","",""
"","","","","","image-keyboard-response","217","1319413","0.0-192.0","634282de38138fa9316eb482","665500ab8938657b03fbdba8","66579294c69c7faa76e73c7c","536","stimuli/20111001.jpg"," ","","feedback_trial","1","","","","","","","","","","","","","","","","","","","","",""
"","","","","","image-keyboard-response","218","1324122","0.0-193.0","634282de38138fa9316eb482","665500ab8938657b03fbdba8","66579294c69c7faa76e73c7c","4708","stimuli/1100110.jpg","0","","prediction_trial","1","","false","","1","false","false","true","true","false","false","[1]","100","110","0","","","","","","",""
"","","","","","image-keyboard-response","219","1324851","0.0-194.0","634282de38138fa9316eb482","665500ab8938657b03fbdba8","66579294c69c7faa76e73c7c","728","stimuli/11001101.jpg"," ","","feedback_trial","1","","","","","","","","","","","","","","","","","","","","",""
"","","","","","image-keyboard-response","220","1325938","0.0-195.0","634282de38138fa9316eb482","665500ab8938657b03fbdba8","66579294c69c7faa76e73c7c","1079","stimuli/2001101.jpg","2","","prediction_trial","2","","true","","2","false","false","false","true","false","false","[2]","001","101","1","","","","","","",""
"","","","","","image-keyboard-response","221","1326553","0.0-196.0","634282de38138fa9316eb482","665500ab8938657b03fbdba8","66579294c69c7faa76e73c7c","614","stimuli/20011012.jpg"," ","","feedback_trial","2","","","","","","","","","","","","","","","","","","","","",""
"","","","","","image-keyboard-response","222","1327703","0.0-197.0","634282de38138fa9316eb482","665500ab8938657b03fbdba8","66579294c69c7faa76e73c7c","1149","stimuli/0110110.jpg","0","","prediction_trial","0","","true","","0","false","false","false","false","false","false","[1,0]","110","110","1","","","","","","",""
"","","","","","image-keyboard-response","223","1328270","0.0-198.0","634282de38138fa9316eb482","665500ab8938657b03fbdba8","66579294c69c7faa76e73c7c","566","stimuli/01101100.jpg"," ","","feedback_trial","1","","","","","","","","","","","","","","","","","","","","",""
"","","","","","image-keyboard-response","224","1329392","0.0-199.0","634282de38138fa9316eb482","665500ab8938657b03fbdba8","66579294c69c7faa76e73c7c","1120","stimuli/2010101.jpg","2","","prediction_trial","2","","true","","2","false","false","true","true","false","false","[2]","010","101","1","","","","","","",""
"","","","","","image-keyboard-response","225","1329929","0.0-200.0","634282de38138fa9316eb482","665500ab8938657b03fbdba8","66579294c69c7faa76e73c7c","535","stimuli/20101012.jpg"," ","","feedback_trial","2","","","","","","","","","","","","","","","","","","","","",""
"","","","","","image-keyboard-response","226","1331006","0.0-201.0","634282de38138fa9316eb482","665500ab8938657b03fbdba8","66579294c69c7faa76e73c7c","1076","stimuli/0101111.jpg","2","","prediction_trial","0","","false","","0","false","false","false","false","false","false","[0,2]","101","111","0","","","","","","",""
"","","","","","image-keyboard-response","227","1331478","0.0-202.0","634282de38138fa9316eb482","665500ab8938657b03fbdba8","66579294c69c7faa76e73c7c","470","stimuli/01011110.jpg"," ","","feedback_trial","0","","","","","","","","","","","","","","","","","","","","",""
"","","","","","image-keyboard-response","228","1332498","0.0-203.0","634282de38138fa9316eb482","665500ab8938657b03fbdba8","66579294c69c7faa76e73c7c","1019","stimuli/0000011.jpg","0","","prediction_trial","0","","true","","0","true","true","true","true","true","true","[0]","000","011","1","","","","","","",""
"","","","","","image-keyboard-response","229","1332928","0.0-204.0","634282de38138fa9316eb482","665500ab8938657b03fbdba8","66579294c69c7faa76e73c7c","429","stimuli/00000110.jpg"," ","","feedback_trial","0","","","","","","","","","","","","","","","","","","","","",""
"","","","","","image-keyboard-response","230","1333984","0.0-205.0","634282de38138fa9316eb482","665500ab8938657b03fbdba8","66579294c69c7faa76e73c7c","1054","stimuli/1100001.jpg","1","","prediction_trial","1","","true","","1","true","true","true","true","true","true","[1]","100","001","1","","","","","","",""
"","","","","","image-keyboard-response","231","1334399","0.0-206.0","634282de38138fa9316eb482","665500ab8938657b03fbdba8","66579294c69c7faa76e73c7c","413","stimuli/11000011.jpg"," ","","feedback_trial","1","","","","","","","","","","","","","","","","","","","","",""
"","","","","","image-keyboard-response","232","1335075","0.0-207.0","634282de38138fa9316eb482","665500ab8938657b03fbdba8","66579294c69c7faa76e73c7c","675","stimuli/1111010.jpg","1","","prediction_trial","1","","true","","1","false","true","false","false","false","false","[0,1,2]","111","010","1","","","","","","",""
"","","","","","image-keyboard-response","233","1335531","0.0-208.0","634282de38138fa9316eb482","665500ab8938657b03fbdba8","66579294c69c7faa76e73c7c","455","stimuli/11110101.jpg"," ","","feedback_trial","0","","","","","","","","","","","","","","","","","","","","",""
"","","","","","image-keyboard-response","234","1336185","0.0-209.0","634282de38138fa9316eb482","665500ab8938657b03fbdba8","66579294c69c7faa76e73c7c","653","stimuli/1101010.jpg","1","","prediction_trial","1","","true","","1","false","true","true","true","false","true","[1]","101","010","1","","","","","","",""
"","","","","","image-keyboard-response","235","1336639","0.0-210.0","634282de38138fa9316eb482","665500ab8938657b03fbdba8","66579294c69c7faa76e73c7c","452","stimuli/11010101.jpg"," ","","feedback_trial","1","","","","","","","","","","","","","","","","","","","","",""
"","","","","","image-keyboard-response","236","1337637","0.0-211.0","634282de38138fa9316eb482","665500ab8938657b03fbdba8","66579294c69c7faa76e73c7c","997","stimuli/2110010.jpg","2","","prediction_trial","2","","true","","2","true","true","true","true","true","true","[2]","110","010","1","","","","","","",""
"","","","","","image-keyboard-response","237","1338003","0.0-212.0","634282de38138fa9316eb482","665500ab8938657b03fbdba8","66579294c69c7faa76e73c7c","364","stimuli/21100102.jpg"," ","","feedback_trial","2","","","","","","","","","","","","","","","","","","","","",""
"","","","","","image-keyboard-response","238","1339014","0.0-213.0","634282de38138fa9316eb482","665500ab8938657b03fbdba8","66579294c69c7faa76e73c7c","1009","stimuli/1000101.jpg","1","","prediction_trial","1","","true","","1","true","true","true","true","true","true","[1]","000","101","1","","","","","","",""
"","","","","","image-keyboard-response","239","1339476","0.0-214.0","634282de38138fa9316eb482","665500ab8938657b03fbdba8","66579294c69c7faa76e73c7c","461","stimuli/10001011.jpg"," ","","feedback_trial","1","","","","","","","","","","","","","","","","","","","","",""
"","","","","","image-keyboard-response","240","1340344","0.0-215.0","634282de38138fa9316eb482","665500ab8938657b03fbdba8","66579294c69c7faa76e73c7c","863","stimuli/0001001.jpg","0","","prediction_trial","0","","true","","0","true","true","true","true","true","true","[0]","001","001","1","","","","","","",""
"","","","","","image-keyboard-response","241","1340773","0.0-216.0","634282de38138fa9316eb482","665500ab8938657b03fbdba8","66579294c69c7faa76e73c7c","428","stimuli/00010010.jpg"," ","","feedback_trial","0","","","","","","","","","","","","","","","","","","","","",""
"","","","","","image-keyboard-response","242","1341507","0.0-217.0","634282de38138fa9316eb482","665500ab8938657b03fbdba8","66579294c69c7faa76e73c7c","733","stimuli/2000100.jpg","2","","prediction_trial","2","","true","","2","true","true","true","true","true","true","[2]","000","100","1","","","","","","",""
"","","","","","image-keyboard-response","243","1341907","0.0-218.0","634282de38138fa9316eb482","665500ab8938657b03fbdba8","66579294c69c7faa76e73c7c","399","stimuli/20001002.jpg"," ","","feedback_trial","2","","","","","","","","","","","","","","","","","","","","",""
"","","","","","image-keyboard-response","244","1342670","0.0-219.0","634282de38138fa9316eb482","665500ab8938657b03fbdba8","66579294c69c7faa76e73c7c","762","stimuli/0010010.jpg","0","","prediction_trial","0","","true","","0","true","true","true","true","true","true","[0]","010","010","1","","","","","","",""
"","","","","","image-keyboard-response","245","1343057","0.0-220.0","634282de38138fa9316eb482","665500ab8938657b03fbdba8","66579294c69c7faa76e73c7c","386","stimuli/00100100.jpg"," ","","feedback_trial","0","","","","","","","","","","","","","","","","","","","","",""
"","","","","","image-keyboard-response","246","1343926","0.0-221.0","634282de38138fa9316eb482","665500ab8938657b03fbdba8","66579294c69c7faa76e73c7c","867","stimuli/2111101.jpg","2","","prediction_trial","2","","true","","2","false","false","false","false","false","false","[1,2,0]","111","101","1","","","","","","",""
"","","","","","image-keyboard-response","247","1344303","0.0-222.0","634282de38138fa9316eb482","665500ab8938657b03fbdba8","66579294c69c7faa76e73c7c","368","stimuli/21111012.jpg"," ","","feedback_trial","1","","","","","","","","","","","","","","","","","","","","",""
"","","","","","image-keyboard-response","248","1344949","0.0-223.0","634282de38138fa9316eb482","665500ab8938657b03fbdba8","66579294c69c7faa76e73c7c","644","stimuli/2101001.jpg","2","","prediction_trial","0","","false","","2","false","true","false","false","false","false","[2,0]","101","001","0","","","","","","",""
"","","","","","image-keyboard-response","249","1345574","0.0-224.0","634282de38138fa9316eb482","665500ab8938657b03fbdba8","66579294c69c7faa76e73c7c","624","stimuli/21010010.jpg"," ","","feedback_trial","2","","","","","","","","","","","","","","","","","","","","",""
"","","","","","image-keyboard-response","250","1346133","0.0-225.0","634282de38138fa9316eb482","665500ab8938657b03fbdba8","66579294c69c7faa76e73c7c","558","stimuli/1101000.jpg","2","","prediction_trial","1","","false","","1","true","true","true","true","true","true","[1]","101","000","0","","","","","","",""
"","","","","","image-keyboard-response","251","1346693","0.0-226.0","634282de38138fa9316eb482","665500ab8938657b03fbdba8","66579294c69c7faa76e73c7c","559","stimuli/11010001.jpg"," ","","feedback_trial","1","","","","","","","","","","","","","","","","","","","","",""
"","","","","","image-keyboard-response","252","1348045","0.0-227.0","634282de38138fa9316eb482","665500ab8938657b03fbdba8","66579294c69c7faa76e73c7c","1350","stimuli/0010011.jpg","0","","prediction_trial","0","","true","","0","true","true","true","true","true","true","[0]","010","011","1","","","","","","",""
"","","","","","image-keyboard-response","253","1348414","0.0-228.0","634282de38138fa9316eb482","665500ab8938657b03fbdba8","66579294c69c7faa76e73c7c","368","stimuli/00100110.jpg"," ","","feedback_trial","0","","","","","","","","","","","","","","","","","","","","",""
"","","","","","image-keyboard-response","254","1349180","0.0-229.0","634282de38138fa9316eb482","665500ab8938657b03fbdba8","66579294c69c7faa76e73c7c","764","stimuli/1101100.jpg","1","","prediction_trial","1","","true","","1","true","true","true","true","true","true","[1]","101","100","1","","","","","","",""
"","","","","","image-keyboard-response","255","1349570","0.0-230.0","634282de38138fa9316eb482","665500ab8938657b03fbdba8","66579294c69c7faa76e73c7c","389","stimuli/11011001.jpg"," ","","feedback_trial","1","","","","","","","","","","","","","","","","","","","","",""
"","","","","","image-keyboard-response","256","1350752","0.0-231.0","634282de38138fa9316eb482","665500ab8938657b03fbdba8","66579294c69c7faa76e73c7c","1172","stimuli/1101110.jpg","1","","prediction_trial","1","","true","","1","false","false","true","true","false","false","[1]","101","110","1","","","","","","",""
"","","","","","image-keyboard-response","257","1351141","0.0-232.0","634282de38138fa9316eb482","665500ab8938657b03fbdba8","66579294c69c7faa76e73c7c","388","stimuli/11011101.jpg"," ","","feedback_trial","1","","","","","","","","","","","","","","","","","","","","",""
"","","","","","image-keyboard-response","258","1352294","0.0-233.0","634282de38138fa9316eb482","665500ab8938657b03fbdba8","66579294c69c7faa76e73c7c","1152","stimuli/1011001.jpg","1","","prediction_trial","2","","false","","1","true","true","false","false","false","false","[2,1]","011","001","0","","","","","","",""
"","","","","","image-keyboard-response","259","1352663","0.0-234.0","634282de38138fa9316eb482","665500ab8938657b03fbdba8","66579294c69c7faa76e73c7c","367","stimuli/10110012.jpg"," ","","feedback_trial","2","","","","","","","","","","","","","","","","","","","","",""
"","","","","","image-keyboard-response","260","1353219","0.0-235.0","634282de38138fa9316eb482","665500ab8938657b03fbdba8","66579294c69c7faa76e73c7c","555","stimuli/0100110.jpg","1","","prediction_trial","0","","false","","0","false","false","false","true","false","false","[0]","100","110","0","","","","","","",""
"","","","","","image-keyboard-response","261","1353695","0.0-236.0","634282de38138fa9316eb482","665500ab8938657b03fbdba8","66579294c69c7faa76e73c7c","474","stimuli/01001100.jpg"," ","","feedback_trial","0","","","","","","","","","","","","","","","","","","","","",""
"","","","","","image-keyboard-response","262","1354294","0.0-237.0","634282de38138fa9316eb482","665500ab8938657b03fbdba8","66579294c69c7faa76e73c7c","598","stimuli/2011010.jpg","1","","prediction_trial","2","","false","","2","true","true","false","false","false","false","[2,1]","011","010","0","","","","","","",""
"","","","","","image-keyboard-response","263","1354836","0.0-238.0","634282de38138fa9316eb482","665500ab8938657b03fbdba8","66579294c69c7faa76e73c7c","540","stimuli/20110102.jpg"," ","","feedback_trial","2","","","","","","","","","","","","","","","","","","","","",""
"","","","","","image-keyboard-response","264","1355965","0.0-239.0","634282de38138fa9316eb482","665500ab8938657b03fbdba8","66579294c69c7faa76e73c7c","1128","stimuli/2110011.jpg","2","","prediction_trial","2","","true","","2","false","false","true","true","false","false","[2]","110","011","1","","","","","","",""
"","","","","","image-keyboard-response","265","1356409","0.0-240.0","634282de38138fa9316eb482","665500ab8938657b03fbdba8","66579294c69c7faa76e73c7c","436","stimuli/21100112.jpg"," ","","feedback_trial","2","","","","","","","","","","","","","","","","","","","","",""
"","","","","","image-keyboard-response","266","1358803","0.0-241.0","634282de38138fa9316eb482","665500ab8938657b03fbdba8","66579294c69c7faa76e73c7c","2393","stimuli/0001110.jpg","1","","prediction_trial","0","","false","","0","false","false","true","true","false","false","[0]","001","110","0","","","","","","",""
"","","","","","image-keyboard-response","267","1359145","0.0-242.0","634282de38138fa9316eb482","665500ab8938657b03fbdba8","66579294c69c7faa76e73c7c","340","stimuli/00011100.jpg"," ","","feedback_trial","0","","","","","","","","","","","","","","","","","","","","",""
"","","","","","image-keyboard-response","268","1360212","0.0-243.0","634282de38138fa9316eb482","665500ab8938657b03fbdba8","66579294c69c7faa76e73c7c","1065","stimuli/1001001.jpg","1","","prediction_trial","1","","true","","1","true","true","true","true","true","true","[1]","001","001","1","","","","","","",""
"","","","","","image-keyboard-response","269","1360541","0.0-244.0","634282de38138fa9316eb482","665500ab8938657b03fbdba8","66579294c69c7faa76e73c7c","328","stimuli/10010011.jpg"," ","","feedback_trial","1","","","","","","","","","","","","","","","","","","","","",""
"","","","","","image-keyboard-response","270","1361239","0.0-245.0","634282de38138fa9316eb482","665500ab8938657b03fbdba8","66579294c69c7faa76e73c7c","696","stimuli/0011111.jpg","1","","prediction_trial","0","","false","","0","false","false","true","true","false","false","[0]","011","111","0","","","","","","",""
"","","","","","image-keyboard-response","271","1361604","0.0-246.0","634282de38138fa9316eb482","665500ab8938657b03fbdba8","66579294c69c7faa76e73c7c","364","stimuli/00111110.jpg"," ","","feedback_trial","0","","","","","","","","","","","","","","","","","","","","",""
"","","","","","image-keyboard-response","272","1362220","0.0-247.0","634282de38138fa9316eb482","665500ab8938657b03fbdba8","66579294c69c7faa76e73c7c","615","stimuli/2101011.jpg","1","","prediction_trial","2","","false","","2","false","false","false","false","false","false","[0,2]","101","011","0","","","","","","",""
"","","","","","image-keyboard-response","273","1362740","0.0-248.0","634282de38138fa9316eb482","665500ab8938657b03fbdba8","66579294c69c7faa76e73c7c","518","stimuli/21010112.jpg"," ","","feedback_trial","0","","","","","","","","","","","","","","","","","","","","",""
"","","","","","image-keyboard-response","274","1363627","0.0-249.0","634282de38138fa9316eb482","665500ab8938657b03fbdba8","66579294c69c7faa76e73c7c","878","stimuli/2000110.jpg","2","","prediction_trial","2","","true","","2","true","true","true","true","true","true","[2]","000","110","1","","","","","","",""
"","","","","","image-keyboard-response","275","1364004","0.0-250.0","634282de38138fa9316eb482","665500ab8938657b03fbdba8","66579294c69c7faa76e73c7c","376","stimuli/20001102.jpg"," ","","feedback_trial","2","","","","","","","","","","","","","","","","","","","","",""
"","","","","","image-keyboard-response","276","1364876","0.0-251.0","634282de38138fa9316eb482","665500ab8938657b03fbdba8","66579294c69c7faa76e73c7c","871","stimuli/1100100.jpg","1","","prediction_trial","1","","true","","1","true","true","true","true","true","true","[1]","100","100","1","","","","","","",""
"","","","","","image-keyboard-response","277","1365286","0.0-252.0","634282de38138fa9316eb482","665500ab8938657b03fbdba8","66579294c69c7faa76e73c7c","409","stimuli/11001001.jpg"," ","","feedback_trial","1","","","","","","","","","","","","","","","","","","","","",""
"","","","","","image-keyboard-response","278","1366239","0.0-253.0","634282de38138fa9316eb482","665500ab8938657b03fbdba8","66579294c69c7faa76e73c7c","951","stimuli/2000101.jpg","2","","prediction_trial","2","","true","","2","false","false","true","true","false","false","[2]","000","101","1","","","","","","",""
"","","","","","image-keyboard-response","279","1366761","0.0-254.0","634282de38138fa9316eb482","665500ab8938657b03fbdba8","66579294c69c7faa76e73c7c","521","stimuli/20001012.jpg"," ","","feedback_trial","2","","","","","","","","","","","","","","","","","","","","",""
"","","","","","image-keyboard-response","280","1367493","0.0-255.0","634282de38138fa9316eb482","665500ab8938657b03fbdba8","66579294c69c7faa76e73c7c","730","stimuli/1110101.jpg","2","","prediction_trial","1","","false","","1","true","true","false","false","false","false","[1,0]","110","101","0","","","","","","",""
"","","","","","image-keyboard-response","281","1367921","0.0-256.0","634282de38138fa9316eb482","665500ab8938657b03fbdba8","66579294c69c7faa76e73c7c","427","stimuli/11101011.jpg"," ","","feedback_trial","1","","","","","","","","","","","","","","","","","","","","",""
"","","","","","image-keyboard-response","282","1369037","0.0-257.0","634282de38138fa9316eb482","665500ab8938657b03fbdba8","66579294c69c7faa76e73c7c","1115","stimuli/1010011.jpg","2","","prediction_trial","1","","false","","1","false","false","false","true","false","false","[1]","010","011","0","","","","","","",""
"","","","","","image-keyboard-response","283","1369501","0.0-258.0","634282de38138fa9316eb482","665500ab8938657b03fbdba8","66579294c69c7faa76e73c7c","463","stimuli/10100111.jpg"," ","","feedback_trial","1","","","","","","","","","","","","","","","","","","","","",""
"","","","","","image-keyboard-response","284","1370105","0.0-259.0","634282de38138fa9316eb482","665500ab8938657b03fbdba8","66579294c69c7faa76e73c7c","602","stimuli/2100000.jpg","2","","prediction_trial","2","","true","","2","true","true","true","true","true","true","[2]","100","000","1","","","","","","",""
"","","","","","image-keyboard-response","285","1370490","0.0-260.0","634282de38138fa9316eb482","665500ab8938657b03fbdba8","66579294c69c7faa76e73c7c","384","stimuli/21000002.jpg"," ","","feedback_trial","2","","","","","","","","","","","","","","","","","","","","",""
"","","","","","image-keyboard-response","286","1371660","0.0-261.0","634282de38138fa9316eb482","665500ab8938657b03fbdba8","66579294c69c7faa76e73c7c","1168","stimuli/0001011.jpg","0","","prediction_trial","0","","true","","0","true","true","true","true","true","true","[0]","001","011","1","","","","","","",""
"","","","","","image-keyboard-response","287","1371997","0.0-262.0","634282de38138fa9316eb482","665500ab8938657b03fbdba8","66579294c69c7faa76e73c7c","336","stimuli/00010110.jpg"," ","","feedback_trial","0","","","","","","","","","","","","","","","","","","","","",""
"","","","","","image-keyboard-response","288","1373045","0.0-263.0","634282de38138fa9316eb482","665500ab8938657b03fbdba8","66579294c69c7faa76e73c7c","1046","stimuli/1110100.jpg","1","","prediction_trial","1","","true","","1","true","true","false","false","false","false","[1,0]","110","100","1","","","","","","",""
"","","","","","image-keyboard-response","289","1373358","0.0-264.0","634282de38138fa9316eb482","665500ab8938657b03fbdba8","66579294c69c7faa76e73c7c","312","stimuli/11101001.jpg"," ","","feedback_trial","1","","","","","","","","","","","","","","","","","","","","",""
"","","","","","image-keyboard-response","290","1373980","0.0-265.0","634282de38138fa9316eb482","665500ab8938657b03fbdba8","66579294c69c7faa76e73c7c","621","stimuli/1010100.jpg","1","","prediction_trial","1","","true","","1","true","true","false","true","false","true","[1]","010","100","1","","","","","","",""
"","","","","","image-keyboard-response","291","1374404","0.0-266.0","634282de38138fa9316eb482","665500ab8938657b03fbdba8","66579294c69c7faa76e73c7c","423","stimuli/10101001.jpg"," ","","feedback_trial","1","","","","","","","","","","","","","","","","","","","","",""
"","","","","","image-keyboard-response","292","1375180","0.0-267.0","634282de38138fa9316eb482","665500ab8938657b03fbdba8","66579294c69c7faa76e73c7c","769","stimuli/0110011.jpg","0","","prediction_trial","0","","true","","0","true","true","false","false","false","false","[1,0]","110","011","1","","","","","","",""
"","","","","","image-keyboard-response","293","1375539","0.0-268.0","634282de38138fa9316eb482","665500ab8938657b03fbdba8","66579294c69c7faa76e73c7c","358","stimuli/01100110.jpg"," ","","feedback_trial","1","","","","","","","","","","","","","","","","","","","","",""
"","","","","","image-keyboard-response","294","1376551","0.0-269.0","634282de38138fa9316eb482","665500ab8938657b03fbdba8","66579294c69c7faa76e73c7c","1011","stimuli/1110011.jpg","2","","prediction_trial","0","","false","","1","false","false","false","false","false","false","[0,1]","110","011","0","","","","","","",""
"","","","","","image-keyboard-response","295","1376950","0.0-270.0","634282de38138fa9316eb482","665500ab8938657b03fbdba8","66579294c69c7faa76e73c7c","398","stimuli/11100110.jpg"," ","","feedback_trial","0","","","","","","","","","","","","","","","","","","","","",""
"","","","","","image-keyboard-response","296","1378016","0.0-271.0","634282de38138fa9316eb482","665500ab8938657b03fbdba8","66579294c69c7faa76e73c7c","1065","stimuli/0000000.jpg","0","","prediction_trial","0","","true","","0","true","true","true","true","true","true","[0]","000","000","1","","","","","","",""
"","","","","","image-keyboard-response","297","1378342","0.0-272.0","634282de38138fa9316eb482","665500ab8938657b03fbdba8","66579294c69c7faa76e73c7c","325","stimuli/00000000.jpg"," ","","feedback_trial","0","","","","","","","","","","","","","","","","","","","","",""
"","","","","","image-keyboard-response","298","1379006","0.0-273.0","634282de38138fa9316eb482","665500ab8938657b03fbdba8","66579294c69c7faa76e73c7c","663","stimuli/1101111.jpg","0","","prediction_trial","1","","false","","1","false","false","true","true","false","false","[1]","101","111","0","","","","","","",""
"","","","","","image-keyboard-response","299","1379340","0.0-274.0","634282de38138fa9316eb482","665500ab8938657b03fbdba8","66579294c69c7faa76e73c7c","332","stimuli/11011111.jpg"," ","","feedback_trial","1","","","","","","","","","","","","","","","","","","","","",""
"","","","","","image-keyboard-response","300","1379909","0.0-275.0","634282de38138fa9316eb482","665500ab8938657b03fbdba8","66579294c69c7faa76e73c7c","569","stimuli/0000110.jpg","0","","prediction_trial","0","","true","","0","false","false","true","true","false","false","[0]","000","110","1","","","","","","",""
"","","","","","image-keyboard-response","301","1380283","0.0-276.0","634282de38138fa9316eb482","665500ab8938657b03fbdba8","66579294c69c7faa76e73c7c","366","stimuli/00001100.jpg"," ","","feedback_trial","0","","","","","","","","","","","","","","","","","","","","",""
"","","","","","image-keyboard-response","302","1391848","0.0-277.0","634282de38138fa9316eb482","665500ab8938657b03fbdba8","66579294c69c7faa76e73c7c","11563","stimuli/1001100.jpg","1","","prediction_trial","1","","true","","1","true","true","true","true","true","true","[1]","001","100","1","","","","","","",""
"","","","","","image-keyboard-response","303","1392262","0.0-278.0","634282de38138fa9316eb482","665500ab8938657b03fbdba8","66579294c69c7faa76e73c7c","412","stimuli/10011001.jpg"," ","","feedback_trial","1","","","","","","","","","","","","","","","","","","","","",""
"","","","","","image-keyboard-response","304","1393233","0.0-279.0","634282de38138fa9316eb482","665500ab8938657b03fbdba8","66579294c69c7faa76e73c7c","970","stimuli/0101001.jpg","0","","prediction_trial","2","","false","","0","true","true","false","false","false","false","[2,0]","101","001","0","","","","","","",""
"","","","","","image-keyboard-response","305","1393581","0.0-280.0","634282de38138fa9316eb482","665500ab8938657b03fbdba8","66579294c69c7faa76e73c7c","347","stimuli/01010012.jpg"," ","","feedback_trial","2","","","","","","","","","","","","","","","","","","","","",""
"","","","","","image-keyboard-response","306","1394387","0.0-281.0","634282de38138fa9316eb482","665500ab8938657b03fbdba8","66579294c69c7faa76e73c7c","805","stimuli/1001111.jpg","0","","prediction_trial","1","","false","","1","false","false","true","true","false","false","[1]","001","111","0","","","","","","",""
"","","","","","image-keyboard-response","307","1394708","0.0-282.0","634282de38138fa9316eb482","665500ab8938657b03fbdba8","66579294c69c7faa76e73c7c","320","stimuli/10011111.jpg"," ","","feedback_trial","1","","","","","","","","","","","","","","","","","","","","",""
"","","","","","image-keyboard-response","308","1395214","0.0-283.0","634282de38138fa9316eb482","665500ab8938657b03fbdba8","66579294c69c7faa76e73c7c","505","stimuli/1110111.jpg","0","","prediction_trial","1","","false","","1","false","false","false","false","false","false","[0,1]","110","111","0","","","","","","",""
"","","","","","image-keyboard-response","309","1395646","0.0-284.0","634282de38138fa9316eb482","665500ab8938657b03fbdba8","66579294c69c7faa76e73c7c","430","stimuli/11101111.jpg"," ","","feedback_trial","0","","","","","","","","","","","","","","","","","","","","",""
"","","","","","image-keyboard-response","310","1396064","0.0-285.0","634282de38138fa9316eb482","665500ab8938657b03fbdba8","66579294c69c7faa76e73c7c","417","stimuli/1010101.jpg","0","","prediction_trial","1","","false","","1","true","true","false","true","false","true","[1]","010","101","0","","","","","","",""
"","","","","","image-keyboard-response","311","1396523","0.0-286.0","634282de38138fa9316eb482","665500ab8938657b03fbdba8","66579294c69c7faa76e73c7c","458","stimuli/10101011.jpg"," ","","feedback_trial","1","","","","","","","","","","","","","","","","","","","","",""
"","","","","","image-keyboard-response","312","1397770","0.0-287.0","634282de38138fa9316eb482","665500ab8938657b03fbdba8","66579294c69c7faa76e73c7c","1246","stimuli/1111100.jpg","1","","prediction_trial","0","","false","","1","true","true","false","false","false","false","[1,0,2]","111","100","0","","","","","","",""
"","","","","","image-keyboard-response","313","1398090","0.0-288.0","634282de38138fa9316eb482","665500ab8938657b03fbdba8","66579294c69c7faa76e73c7c","319","stimuli/11111000.jpg"," ","","feedback_trial","1","","","","","","","","","","","","","","","","","","","","",""
"","","","","","image-keyboard-response","314","1398595","0.0-289.0","634282de38138fa9316eb482","665500ab8938657b03fbdba8","66579294c69c7faa76e73c7c","504","stimuli/1100010.jpg","1","","prediction_trial","1","","true","","1","false","true","true","true","false","true","[1]","100","010","1","","","","","","",""
"","","","","","image-keyboard-response","315","1398963","0.0-290.0","634282de38138fa9316eb482","665500ab8938657b03fbdba8","66579294c69c7faa76e73c7c","367","stimuli/11000101.jpg"," ","","feedback_trial","1","","","","","","","","","","","","","","","","","","","","",""
"","","","","","image-keyboard-response","316","1399585","0.0-291.0","634282de38138fa9316eb482","665500ab8938657b03fbdba8","66579294c69c7faa76e73c7c","620","stimuli/2111011.jpg","1","","prediction_trial","1","","true","","2","false","false","false","false","false","false","[0,1,2]","111","011","1","","","","","","",""
"","","","","","image-keyboard-response","317","1399995","0.0-292.0","634282de38138fa9316eb482","665500ab8938657b03fbdba8","66579294c69c7faa76e73c7c","409","stimuli/21110111.jpg"," ","","feedback_trial","0","","","","","","","","","","","","","","","","","","","","",""
"","","","","","survey-html-form","318","1410243","0.0-293.0","634282de38138fa9316eb482","665500ab8938657b03fbdba8","66579294c69c7faa76e73c7c","10247","","{""feedback"":"""",""age"":""31"",""gender"":""Male"",""other_gender"":"""",""race"":""Black/African American"",""other_race"":"""",""ethnicity"":""Non-Hispanic""}","","exit_survey","","","","","","","","","","","","","","","","","31","Non-Hispanic","Male","Black/African American","0.6319444444444444","0.6319444444444444"
