"success","timeout","failed_images","failed_audio","failed_video","trial_type","trial_index","time_elapsed","internal_node_id","prolific_id","prolific_study_id","prolific_session_id","rt","stimulus","response","view_history","trial","character_choice","stimulus_dict","accuracy","correct_response","ball_pos","ego_ball_visible","ego_can_infer","alter_ball_visible","alter_can_infer","collective_ball_visible","collective_can_infer","search_locations","alter_occluders","ego_occluders","accuracy_bool","feedback","age","ethnicity","gender","race","overall_accuracy","bonus"
"true","false","[]","[]","[]","preload","0","14763","0.0-0.0","63a49d5bb18f18863fe82dae","665500ab8938657b03fbdba8","6657934fec682fff2873a3d7","","","","","","","","","","","","","","","","","","","","","","","","","","",""
"true","","","","","fullscreen","1","20293","0.0-1.0","63a49d5bb18f18863fe82dae","665500ab8938657b03fbdba8","6657934fec682fff2873a3d7","","","","","","","","","","","","","","","","","","","","","","","","","","",""
"","","","","","html-button-response","2","34807","0.0-2.0","63a49d5bb18f18863fe82dae","665500ab8938657b03fbdba8","6657934fec682fff2873a3d7","14507","<p><b>Consent Form</b></p> <div style=""text-align:left;background-color:lightgrey; padding:20px; max-width:900px;""><p>Please consider this information carefully before deciding whether to participate in this research.</p> <p>The purpose of this research is to examine which factors influence social judgment and decision-making. You will be asked to make judgements about individuals and actions in social scenarios. We are simply interested in your judgement. The study will take less than 1 hour to complete, and you will receive less than $20 on Prolific. Your compensation and time commitment are specified in the study description. There are no anticipated risks associated with participating in this study. The effects of participating should be comparable to those you would ordinarily experience from viewing a computer monitor and using a mouse or keyboard for a similar amount of time. At the end of the study, we will provide an explanation of the questions that motivate this line of research and will describe the potential implications. </p><p> Your participation in this study is completely voluntary and you may refuse to participate or you may choose to withdraw at any time without penalty or loss of benefits to you which are otherwise entitled. Your participation in this study will remain confidential. No personally identifiable information will be associated with your data. Also, all analyses of the data will be averaged across all the participants, so your individual responses will never be specifically analyzed. </p><p> If you have questions or concerns about your participation or payment, or want to request a summary of research findings, please contact Dr. Jonathan Phillips at Jonathan.S.Phillips@dartmouth.edu. </p><p> Please save a copy of this form for your records. </p><p><b>Agreement: </b>The nature and purpose of this research have been sufficiently explained and I agree to participate in this study. I understand that I am free to withdraw at any time without incurring any penalty. Please consent by clicking the button below to continue. Otherwise, please exit the study at any time. </p>","0","","","","","","","","","","","","","","","","","","","","","","","",""
"","","","","","instructions","3","198821","0.0-3.0-0.0","63a49d5bb18f18863fe82dae","665500ab8938657b03fbdba8","6657934fec682fff2873a3d7","164011","","","[{""page_index"":0,""viewing_time"":7548},{""page_index"":1,""viewing_time"":5437},{""page_index"":2,""viewing_time"":6431},{""page_index"":3,""viewing_time"":12270},{""page_index"":4,""viewing_time"":8288},{""page_index"":5,""viewing_time"":21586},{""page_index"":6,""viewing_time"":8698},{""page_index"":7,""viewing_time"":25903},{""page_index"":8,""viewing_time"":9955},{""page_index"":9,""viewing_time"":7852},{""page_index"":10,""viewing_time"":26699},{""page_index"":11,""viewing_time"":12349},{""page_index"":12,""viewing_time"":8659},{""page_index"":13,""viewing_time"":2336}]","intro","","","","","","","","","","","","","","","","","","","","","",""
"","","","","","image-keyboard-response","4","204177","0.0-3.0-1.0","63a49d5bb18f18863fe82dae","665500ab8938657b03fbdba8","6657934fec682fff2873a3d7","5319","stimuli/0110001.jpg","0","","prediction_practice","1","{""filepath"":""stimuli/0110001.jpg"",""ball_pos"":0,""ego_ball_visible"":true,""ego_can_infer"":true,""alter_ball_visible"":false,""alter_can_infer"":false,""collective_ball_visible"":false,""collective_can_infer"":false,""search_locations"":[0,1],""alter_occluders"":""110"",""ego_occluders"":""001""}","false","","","","","","","","","","","","","","","","","","",""
"","","","","","image-keyboard-response","5","213149","0.0-3.0-2.0","63a49d5bb18f18863fe82dae","665500ab8938657b03fbdba8","6657934fec682fff2873a3d7","8968","stimuli/01100011.jpg"," ","","practrice_feedback","0","","","","","","","","","","","","","","","","","","","","",""
"","","","","","image-keyboard-response","6","216582","0.0-3.0-3.0","63a49d5bb18f18863fe82dae","665500ab8938657b03fbdba8","6657934fec682fff2873a3d7","3431","stimuli/1100010.jpg","0","","prediction_practice","1","{""filepath"":""stimuli/1100010.jpg"",""ball_pos"":1,""ego_ball_visible"":false,""ego_can_infer"":true,""alter_ball_visible"":true,""alter_can_infer"":true,""collective_ball_visible"":false,""collective_can_infer"":true,""search_locations"":[1],""alter_occluders"":""100"",""ego_occluders"":""010""}","false","","","","","","","","","","","","","","","","","","",""
"","","","","","image-keyboard-response","7","219703","0.0-3.0-4.0","63a49d5bb18f18863fe82dae","665500ab8938657b03fbdba8","6657934fec682fff2873a3d7","3120","stimuli/11000101.jpg"," ","","practrice_feedback","1","","","","","","","","","","","","","","","","","","","","",""
"","","","","","image-keyboard-response","8","222421","0.0-3.0-5.0","63a49d5bb18f18863fe82dae","665500ab8938657b03fbdba8","6657934fec682fff2873a3d7","2717","stimuli/0011100.jpg","2","","prediction_practice","0","{""filepath"":""stimuli/0011100.jpg"",""ball_pos"":0,""ego_ball_visible"":false,""ego_can_infer"":true,""alter_ball_visible"":true,""alter_can_infer"":true,""collective_ball_visible"":false,""collective_can_infer"":true,""search_locations"":[0],""alter_occluders"":""011"",""ego_occluders"":""100""}","false","","","","","","","","","","","","","","","","","","",""
"","","","","","image-keyboard-response","9","226833","0.0-3.0-6.0","63a49d5bb18f18863fe82dae","665500ab8938657b03fbdba8","6657934fec682fff2873a3d7","4410","stimuli/00111000.jpg"," ","","practrice_feedback","0","","","","","","","","","","","","","","","","","","","","",""
"","","","","","image-keyboard-response","10","231042","0.0-3.0-7.0","63a49d5bb18f18863fe82dae","665500ab8938657b03fbdba8","6657934fec682fff2873a3d7","4208","stimuli/0001111.jpg","2","","prediction_practice","0","{""filepath"":""stimuli/0001111.jpg"",""ball_pos"":0,""ego_ball_visible"":false,""ego_can_infer"":false,""alter_ball_visible"":true,""alter_can_infer"":true,""collective_ball_visible"":false,""collective_can_infer"":false,""search_locations"":[0],""alter_occluders"":""001"",""ego_occluders"":""111""}","false","","","","","","","","","","","","","","","","","","",""
"","","","","","image-keyboard-response","11","232318","0.0-3.0-8.0","63a49d5bb18f18863fe82dae","665500ab8938657b03fbdba8","6657934fec682fff2873a3d7","1275","stimuli/00011110.jpg"," ","","practrice_feedback","0","","","","","","","","","","","","","","","","","","","","",""
"","","","","","image-keyboard-response","12","236518","0.0-3.0-9.0","63a49d5bb18f18863fe82dae","665500ab8938657b03fbdba8","6657934fec682fff2873a3d7","4199","stimuli/2110010.jpg","0","","prediction_practice","2","{""filepath"":""stimuli/2110010.jpg"",""ball_pos"":2,""ego_ball_visible"":true,""ego_can_infer"":true,""alter_ball_visible"":true,""alter_can_infer"":true,""collective_ball_visible"":true,""collective_can_infer"":true,""search_locations"":[2],""alter_occluders"":""110"",""ego_occluders"":""010""}","false","","","","","","","","","","","","","","","","","","",""
"","","","","","image-keyboard-response","13","240614","0.0-3.0-10.0","63a49d5bb18f18863fe82dae","665500ab8938657b03fbdba8","6657934fec682fff2873a3d7","4095","stimuli/21100102.jpg"," ","","practrice_feedback","2","","","","","","","","","","","","","","","","","","","","",""
"","","","","","image-keyboard-response","14","243169","0.0-3.0-11.0","63a49d5bb18f18863fe82dae","665500ab8938657b03fbdba8","6657934fec682fff2873a3d7","2553","stimuli/0101100.jpg","2","","prediction_practice","0","{""filepath"":""stimuli/0101100.jpg"",""ball_pos"":0,""ego_ball_visible"":false,""ego_can_infer"":true,""alter_ball_visible"":false,""alter_can_infer"":false,""collective_ball_visible"":false,""collective_can_infer"":false,""search_locations"":[2,0],""alter_occluders"":""101"",""ego_occluders"":""100""}","false","","","","","","","","","","","","","","","","","","",""
"","","","","","image-keyboard-response","15","247842","0.0-3.0-12.0","63a49d5bb18f18863fe82dae","665500ab8938657b03fbdba8","6657934fec682fff2873a3d7","4672","stimuli/01011000.jpg"," ","","practrice_feedback","2","","","","","","","","","","","","","","","","","","","","",""
"","","","","","image-keyboard-response","16","253336","0.0-3.0-13.0","63a49d5bb18f18863fe82dae","665500ab8938657b03fbdba8","6657934fec682fff2873a3d7","5492","stimuli/2000101.jpg","1","","prediction_practice","2","{""filepath"":""stimuli/2000101.jpg"",""ball_pos"":2,""ego_ball_visible"":false,""ego_can_infer"":false,""alter_ball_visible"":true,""alter_can_infer"":true,""collective_ball_visible"":false,""collective_can_infer"":false,""search_locations"":[2],""alter_occluders"":""000"",""ego_occluders"":""101""}","false","","","","","","","","","","","","","","","","","","",""
"","","","","","image-keyboard-response","17","257273","0.0-3.0-14.0","63a49d5bb18f18863fe82dae","665500ab8938657b03fbdba8","6657934fec682fff2873a3d7","3937","stimuli/20001012.jpg"," ","","practrice_feedback","2","","","","","","","","","","","","","","","","","","","","",""
"","","","","","image-keyboard-response","18","262203","0.0-3.0-15.0","63a49d5bb18f18863fe82dae","665500ab8938657b03fbdba8","6657934fec682fff2873a3d7","4928","stimuli/2010010.jpg","0","","prediction_practice","2","{""filepath"":""stimuli/2010010.jpg"",""ball_pos"":2,""ego_ball_visible"":true,""ego_can_infer"":true,""alter_ball_visible"":true,""alter_can_infer"":true,""collective_ball_visible"":true,""collective_can_infer"":true,""search_locations"":[2],""alter_occluders"":""010"",""ego_occluders"":""010""}","false","","","","","","","","","","","","","","","","","","",""
"","","","","","image-keyboard-response","19","267035","0.0-3.0-16.0","63a49d5bb18f18863fe82dae","665500ab8938657b03fbdba8","6657934fec682fff2873a3d7","4832","stimuli/20100102.jpg"," ","","practrice_feedback","2","","","","","","","","","","","","","","","","","","","","",""
"","","","","","image-keyboard-response","20","269681","0.0-3.0-17.0","63a49d5bb18f18863fe82dae","665500ab8938657b03fbdba8","6657934fec682fff2873a3d7","2645","stimuli/2010000.jpg","2","","prediction_practice","2","{""filepath"":""stimuli/2010000.jpg"",""ball_pos"":2,""ego_ball_visible"":true,""ego_can_infer"":true,""alter_ball_visible"":true,""alter_can_infer"":true,""collective_ball_visible"":true,""collective_can_infer"":true,""search_locations"":[2],""alter_occluders"":""010"",""ego_occluders"":""000""}","true","","","","","","","","","","","","","","","","","","",""
"","","","","","image-keyboard-response","21","274533","0.0-3.0-18.0","63a49d5bb18f18863fe82dae","665500ab8938657b03fbdba8","6657934fec682fff2873a3d7","4850","stimuli/20100002.jpg"," ","","practrice_feedback","2","","","","","","","","","","","","","","","","","","","","",""
"","","","","","image-keyboard-response","22","278005","0.0-3.0-19.0","63a49d5bb18f18863fe82dae","665500ab8938657b03fbdba8","6657934fec682fff2873a3d7","3471","stimuli/1111010.jpg","1","","prediction_practice","1","{""filepath"":""stimuli/1111010.jpg"",""ball_pos"":1,""ego_ball_visible"":false,""ego_can_infer"":true,""alter_ball_visible"":false,""alter_can_infer"":false,""collective_ball_visible"":false,""collective_can_infer"":false,""search_locations"":[0,1,2],""alter_occluders"":""111"",""ego_occluders"":""010""}","true","","","","","","","","","","","","","","","","","","",""
"","","","","","image-keyboard-response","23","280284","0.0-3.0-20.0","63a49d5bb18f18863fe82dae","665500ab8938657b03fbdba8","6657934fec682fff2873a3d7","2278","stimuli/11110101.jpg"," ","","practrice_feedback","0","","","","","","","","","","","","","","","","","","","","",""
"","","","","","html-button-response","24","287937","0.0-3.0-21.0","63a49d5bb18f18863fe82dae","665500ab8938657b03fbdba8","6657934fec682fff2873a3d7","7650","Now that you've had some practice, you'll be tested with a couple of easy trials. If you correctly predict Sam's choice, you'll move on to complete the experiment!","0","","","","","","","","","","","","","","","","","","","","","","","",""
"","","","","","image-keyboard-response","25","289452","0.0-3.0-22.0-0.0","63a49d5bb18f18863fe82dae","665500ab8938657b03fbdba8","6657934fec682fff2873a3d7","1512","stimuli/0000011.jpg","arrowleft","","comprehension_quiz","","","true","arrowleft","","","","","","","","","","","","","","","","","",""
"","","","","","image-keyboard-response","26","291784","0.0-3.0-22.0-1.0","63a49d5bb18f18863fe82dae","665500ab8938657b03fbdba8","6657934fec682fff2873a3d7","2331","stimuli/00000110.jpg"," ","","comprehension_quiz","","","true"," ","","","","","","","","","","","","","","","","","",""
"","","","","","image-keyboard-response","27","294465","0.0-3.0-22.0-2.0","63a49d5bb18f18863fe82dae","665500ab8938657b03fbdba8","6657934fec682fff2873a3d7","2679","stimuli/1010010.jpg","arrowdown","","comprehension_quiz","","","true","arrowdown","","","","","","","","","","","","","","","","","",""
"","","","","","image-keyboard-response","28","295667","0.0-3.0-22.0-3.0","63a49d5bb18f18863fe82dae","665500ab8938657b03fbdba8","6657934fec682fff2873a3d7","1201","stimuli/10100101.jpg"," ","","comprehension_quiz","","","true"," ","","","","","","","","","","","","","","","","","",""
"","","","","","html-button-response","29","299091","0.0-4.0","63a49d5bb18f18863fe82dae","665500ab8938657b03fbdba8","6657934fec682fff2873a3d7","3421","The experiment will now begin.","0","","","","","","","","","","","","","","","","","","","","","","","",""
"","","","","","image-keyboard-response","30","300690","0.0-5.0","63a49d5bb18f18863fe82dae","665500ab8938657b03fbdba8","6657934fec682fff2873a3d7","1597","stimuli/0110100.jpg","0","","prediction_trial","0","","true","","0","false","true","false","false","false","false","[1,0]","110","100","1","","","","","","",""
"","","","","","image-keyboard-response","31","302946","0.0-6.0","63a49d5bb18f18863fe82dae","665500ab8938657b03fbdba8","6657934fec682fff2873a3d7","2254","stimuli/01101000.jpg"," ","","feedback_trial","1","","","","","","","","","","","","","","","","","","","","",""
"","","","","","image-keyboard-response","32","304694","0.0-7.0","63a49d5bb18f18863fe82dae","665500ab8938657b03fbdba8","6657934fec682fff2873a3d7","1747","stimuli/2001111.jpg","2","","prediction_trial","2","","true","","2","false","false","false","true","false","false","[2]","001","111","1","","","","","","",""
"","","","","","image-keyboard-response","33","306025","0.0-8.0","63a49d5bb18f18863fe82dae","665500ab8938657b03fbdba8","6657934fec682fff2873a3d7","1330","stimuli/20011112.jpg"," ","","feedback_trial","2","","","","","","","","","","","","","","","","","","","","",""
"","","","","","image-keyboard-response","34","307758","0.0-9.0","63a49d5bb18f18863fe82dae","665500ab8938657b03fbdba8","6657934fec682fff2873a3d7","1731","stimuli/1111010.jpg","1","","prediction_trial","0","","false","","1","false","true","false","false","false","false","[0,1,2]","111","010","0","","","","","","",""
"","","","","","image-keyboard-response","35","312242","0.0-10.0","63a49d5bb18f18863fe82dae","665500ab8938657b03fbdba8","6657934fec682fff2873a3d7","4483","stimuli/11110100.jpg"," ","","feedback_trial","0","","","","","","","","","","","","","","","","","","","","",""
"","","","","","image-keyboard-response","36","314071","0.0-11.0","63a49d5bb18f18863fe82dae","665500ab8938657b03fbdba8","6657934fec682fff2873a3d7","1827","stimuli/2001001.jpg","2","","prediction_trial","2","","true","","2","false","true","false","true","false","true","[2]","001","001","1","","","","","","",""
"","","","","","image-keyboard-response","37","316223","0.0-12.0","63a49d5bb18f18863fe82dae","665500ab8938657b03fbdba8","6657934fec682fff2873a3d7","2150","stimuli/20010012.jpg"," ","","feedback_trial","2","","","","","","","","","","","","","","","","","","","","",""
"","","","","","image-keyboard-response","38","318251","0.0-13.0","63a49d5bb18f18863fe82dae","665500ab8938657b03fbdba8","6657934fec682fff2873a3d7","2026","stimuli/0100011.jpg","0","","prediction_trial","0","","true","","0","true","true","false","true","false","true","[0]","100","011","1","","","","","","",""
"","","","","","image-keyboard-response","39","320361","0.0-14.0","63a49d5bb18f18863fe82dae","665500ab8938657b03fbdba8","6657934fec682fff2873a3d7","2109","stimuli/01000110.jpg"," ","","feedback_trial","0","","","","","","","","","","","","","","","","","","","","",""
"","","","","","image-keyboard-response","40","321597","0.0-15.0","63a49d5bb18f18863fe82dae","665500ab8938657b03fbdba8","6657934fec682fff2873a3d7","1236","stimuli/2110110.jpg","2","","prediction_trial","2","","true","","2","true","true","true","true","true","true","[2]","110","110","1","","","","","","",""
"","","","","","image-keyboard-response","41","325174","0.0-16.0","63a49d5bb18f18863fe82dae","665500ab8938657b03fbdba8","6657934fec682fff2873a3d7","3576","stimuli/21101102.jpg"," ","","feedback_trial","2","","","","","","","","","","","","","","","","","","","","",""
"","","","","","image-keyboard-response","42","326999","0.0-17.0","63a49d5bb18f18863fe82dae","665500ab8938657b03fbdba8","6657934fec682fff2873a3d7","1823","stimuli/0011100.jpg","0","","prediction_trial","0","","true","","0","false","true","true","true","false","true","[0]","011","100","1","","","","","","",""
"","","","","","image-keyboard-response","43","328056","0.0-18.0","63a49d5bb18f18863fe82dae","665500ab8938657b03fbdba8","6657934fec682fff2873a3d7","1055","stimuli/00111000.jpg"," ","","feedback_trial","0","","","","","","","","","","","","","","","","","","","","",""
"","","","","","image-keyboard-response","44","331005","0.0-19.0","63a49d5bb18f18863fe82dae","665500ab8938657b03fbdba8","6657934fec682fff2873a3d7","2948","stimuli/1101110.jpg","0","","prediction_trial","1","","false","","1","false","false","true","true","false","false","[1]","101","110","0","","","","","","",""
"","","","","","image-keyboard-response","45","336712","0.0-20.0","63a49d5bb18f18863fe82dae","665500ab8938657b03fbdba8","6657934fec682fff2873a3d7","5705","stimuli/11011101.jpg"," ","","feedback_trial","1","","","","","","","","","","","","","","","","","","","","",""
"","","","","","image-keyboard-response","46","338324","0.0-21.0","63a49d5bb18f18863fe82dae","665500ab8938657b03fbdba8","6657934fec682fff2873a3d7","1611","stimuli/0100000.jpg","0","","prediction_trial","0","","true","","0","true","true","false","true","false","true","[0]","100","000","1","","","","","","",""
"","","","","","image-keyboard-response","47","340250","0.0-22.0","63a49d5bb18f18863fe82dae","665500ab8938657b03fbdba8","6657934fec682fff2873a3d7","1923","stimuli/01000000.jpg"," ","","feedback_trial","0","","","","","","","","","","","","","","","","","","","","",""
"","","","","","image-keyboard-response","48","341698","0.0-23.0","63a49d5bb18f18863fe82dae","665500ab8938657b03fbdba8","6657934fec682fff2873a3d7","1448","stimuli/0111001.jpg","2","","prediction_trial","0","","false","","0","true","true","false","false","false","false","[0,1,2]","111","001","0","","","","","","",""
"","","","","","image-keyboard-response","49","346040","0.0-24.0","63a49d5bb18f18863fe82dae","665500ab8938657b03fbdba8","6657934fec682fff2873a3d7","4340","stimuli/01110010.jpg"," ","","feedback_trial","0","","","","","","","","","","","","","","","","","","","","",""
"","","","","","image-keyboard-response","50","349394","0.0-25.0","63a49d5bb18f18863fe82dae","665500ab8938657b03fbdba8","6657934fec682fff2873a3d7","3353","stimuli/1010100.jpg","1","","prediction_trial","1","","true","","1","true","true","false","true","false","true","[1]","010","100","1","","","","","","",""
"","","","","","image-keyboard-response","51","350750","0.0-26.0","63a49d5bb18f18863fe82dae","665500ab8938657b03fbdba8","6657934fec682fff2873a3d7","1355","stimuli/10101001.jpg"," ","","feedback_trial","1","","","","","","","","","","","","","","","","","","","","",""
"","","","","","image-keyboard-response","52","352559","0.0-27.0","63a49d5bb18f18863fe82dae","665500ab8938657b03fbdba8","6657934fec682fff2873a3d7","1808","stimuli/2010001.jpg","2","","prediction_trial","2","","true","","2","false","true","true","true","false","true","[2]","010","001","1","","","","","","",""
"","","","","","image-keyboard-response","53","354655","0.0-28.0","63a49d5bb18f18863fe82dae","665500ab8938657b03fbdba8","6657934fec682fff2873a3d7","2095","stimuli/20100012.jpg"," ","","feedback_trial","2","","","","","","","","","","","","","","","","","","","","",""
"","","","","","image-keyboard-response","54","358921","0.0-29.0","63a49d5bb18f18863fe82dae","665500ab8938657b03fbdba8","6657934fec682fff2873a3d7","4265","stimuli/2100111.jpg","0","","prediction_trial","2","","false","","2","false","false","true","true","false","false","[2]","100","111","0","","","","","","",""
"","","","","","image-keyboard-response","55","361373","0.0-30.0","63a49d5bb18f18863fe82dae","665500ab8938657b03fbdba8","6657934fec682fff2873a3d7","2450","stimuli/21001112.jpg"," ","","feedback_trial","2","","","","","","","","","","","","","","","","","","","","",""
"","","","","","image-keyboard-response","56","363898","0.0-31.0","63a49d5bb18f18863fe82dae","665500ab8938657b03fbdba8","6657934fec682fff2873a3d7","2525","stimuli/1110110.jpg","1","","prediction_trial","0","","false","","1","false","false","false","false","false","false","[1,0]","110","110","0","","","","","","",""
"","","","","","image-keyboard-response","57","366382","0.0-32.0","63a49d5bb18f18863fe82dae","665500ab8938657b03fbdba8","6657934fec682fff2873a3d7","2482","stimuli/11101100.jpg"," ","","feedback_trial","1","","","","","","","","","","","","","","","","","","","","",""
"","","","","","image-keyboard-response","58","367808","0.0-33.0","63a49d5bb18f18863fe82dae","665500ab8938657b03fbdba8","6657934fec682fff2873a3d7","1425","stimuli/2111010.jpg","1","","prediction_trial","0","","false","","2","true","true","false","false","false","false","[1,2,0]","111","010","0","","","","","","",""
"","","","","","image-keyboard-response","59","368894","0.0-34.0","63a49d5bb18f18863fe82dae","665500ab8938657b03fbdba8","6657934fec682fff2873a3d7","1085","stimuli/21110100.jpg"," ","","feedback_trial","1","","","","","","","","","","","","","","","","","","","","",""
"","","","","","image-keyboard-response","60","372306","0.0-35.0","63a49d5bb18f18863fe82dae","665500ab8938657b03fbdba8","6657934fec682fff2873a3d7","3411","stimuli/0001101.jpg","2","","prediction_trial","0","","false","","0","false","false","true","true","false","false","[0]","001","101","0","","","","","","",""
"","","","","","image-keyboard-response","61","373662","0.0-36.0","63a49d5bb18f18863fe82dae","665500ab8938657b03fbdba8","6657934fec682fff2873a3d7","1355","stimuli/00011010.jpg"," ","","feedback_trial","0","","","","","","","","","","","","","","","","","","","","",""
"","","","","","image-keyboard-response","62","375602","0.0-37.0","63a49d5bb18f18863fe82dae","665500ab8938657b03fbdba8","6657934fec682fff2873a3d7","1938","stimuli/0010110.jpg","0","","prediction_trial","0","","true","","0","false","false","true","true","false","false","[0]","010","110","1","","","","","","",""
"","","","","","image-keyboard-response","63","377774","0.0-38.0","63a49d5bb18f18863fe82dae","665500ab8938657b03fbdba8","6657934fec682fff2873a3d7","2171","stimuli/00101100.jpg"," ","","feedback_trial","0","","","","","","","","","","","","","","","","","","","","",""
"","","","","","image-keyboard-response","64","380233","0.0-39.0","63a49d5bb18f18863fe82dae","665500ab8938657b03fbdba8","6657934fec682fff2873a3d7","2457","stimuli/2111100.jpg","2","","prediction_trial","1","","false","","2","true","true","false","false","false","false","[2,0,1]","111","100","0","","","","","","",""
"","","","","","image-keyboard-response","65","383256","0.0-40.0","63a49d5bb18f18863fe82dae","665500ab8938657b03fbdba8","6657934fec682fff2873a3d7","3021","stimuli/21111001.jpg"," ","","feedback_trial","2","","","","","","","","","","","","","","","","","","","","",""
"","","","","","image-keyboard-response","66","386340","0.0-41.0","63a49d5bb18f18863fe82dae","665500ab8938657b03fbdba8","6657934fec682fff2873a3d7","3082","stimuli/2101000.jpg","2","","prediction_trial","0","","false","","2","true","true","false","false","false","false","[2,0]","101","000","0","","","","","","",""
"","","","","","image-keyboard-response","67","388420","0.0-42.0","63a49d5bb18f18863fe82dae","665500ab8938657b03fbdba8","6657934fec682fff2873a3d7","2079","stimuli/21010000.jpg"," ","","feedback_trial","2","","","","","","","","","","","","","","","","","","","","",""
"","","","","","image-keyboard-response","68","391067","0.0-43.0","63a49d5bb18f18863fe82dae","665500ab8938657b03fbdba8","6657934fec682fff2873a3d7","2646","stimuli/1011011.jpg","0","","prediction_trial","1","","false","","1","false","false","false","false","false","false","[2,1]","011","011","0","","","","","","",""
"","","","","","image-keyboard-response","69","393414","0.0-44.0","63a49d5bb18f18863fe82dae","665500ab8938657b03fbdba8","6657934fec682fff2873a3d7","2346","stimuli/10110111.jpg"," ","","feedback_trial","2","","","","","","","","","","","","","","","","","","","","",""
"","","","","","image-keyboard-response","70","395590","0.0-45.0","63a49d5bb18f18863fe82dae","665500ab8938657b03fbdba8","6657934fec682fff2873a3d7","2174","stimuli/2111000.jpg","0","","prediction_trial","2","","false","","2","true","true","false","false","false","false","[1,0,2]","111","000","0","","","","","","",""
"","","","","","image-keyboard-response","71","397753","0.0-46.0","63a49d5bb18f18863fe82dae","665500ab8938657b03fbdba8","6657934fec682fff2873a3d7","2162","stimuli/21110002.jpg"," ","","feedback_trial","1","","","","","","","","","","","","","","","","","","","","",""
"","","","","","image-keyboard-response","72","398886","0.0-47.0","63a49d5bb18f18863fe82dae","665500ab8938657b03fbdba8","6657934fec682fff2873a3d7","1132","stimuli/2000111.jpg","2","","prediction_trial","2","","true","","2","false","false","true","true","false","false","[2]","000","111","1","","","","","","",""
"","","","","","image-keyboard-response","73","400118","0.0-48.0","63a49d5bb18f18863fe82dae","665500ab8938657b03fbdba8","6657934fec682fff2873a3d7","1231","stimuli/20001112.jpg"," ","","feedback_trial","2","","","","","","","","","","","","","","","","","","","","",""
"","","","","","image-keyboard-response","74","401578","0.0-49.0","63a49d5bb18f18863fe82dae","665500ab8938657b03fbdba8","6657934fec682fff2873a3d7","1459","stimuli/2100110.jpg","2","","prediction_trial","2","","true","","2","true","true","true","true","true","true","[2]","100","110","1","","","","","","",""
"","","","","","image-keyboard-response","75","403337","0.0-50.0","63a49d5bb18f18863fe82dae","665500ab8938657b03fbdba8","6657934fec682fff2873a3d7","1757","stimuli/21001102.jpg"," ","","feedback_trial","2","","","","","","","","","","","","","","","","","","","","",""
"","","","","","image-keyboard-response","76","404971","0.0-51.0","63a49d5bb18f18863fe82dae","665500ab8938657b03fbdba8","6657934fec682fff2873a3d7","1633","stimuli/2010101.jpg","2","","prediction_trial","2","","true","","2","false","false","true","true","false","false","[2]","010","101","1","","","","","","",""
"","","","","","image-keyboard-response","77","407060","0.0-52.0","63a49d5bb18f18863fe82dae","665500ab8938657b03fbdba8","6657934fec682fff2873a3d7","2088","stimuli/20101012.jpg"," ","","feedback_trial","2","","","","","","","","","","","","","","","","","","","","",""
"","","","","","image-keyboard-response","78","408282","0.0-53.0","63a49d5bb18f18863fe82dae","665500ab8938657b03fbdba8","6657934fec682fff2873a3d7","1221","stimuli/2000110.jpg","2","","prediction_trial","2","","true","","2","true","true","true","true","true","true","[2]","000","110","1","","","","","","",""
"","","","","","image-keyboard-response","79","409871","0.0-54.0","63a49d5bb18f18863fe82dae","665500ab8938657b03fbdba8","6657934fec682fff2873a3d7","1588","stimuli/20001102.jpg"," ","","feedback_trial","2","","","","","","","","","","","","","","","","","","","","",""
"","","","","","image-keyboard-response","80","411892","0.0-55.0","63a49d5bb18f18863fe82dae","665500ab8938657b03fbdba8","6657934fec682fff2873a3d7","2019","stimuli/1001100.jpg","2","","prediction_trial","1","","false","","1","true","true","true","true","true","true","[1]","001","100","0","","","","","","",""
"","","","","","image-keyboard-response","81","413939","0.0-56.0","63a49d5bb18f18863fe82dae","665500ab8938657b03fbdba8","6657934fec682fff2873a3d7","2047","stimuli/10011001.jpg"," ","","feedback_trial","1","","","","","","","","","","","","","","","","","","","","",""
"","","","","","image-keyboard-response","82","415594","0.0-57.0","63a49d5bb18f18863fe82dae","665500ab8938657b03fbdba8","6657934fec682fff2873a3d7","1653","stimuli/0001011.jpg","0","","prediction_trial","0","","true","","0","true","true","true","true","true","true","[0]","001","011","1","","","","","","",""
"","","","","","image-keyboard-response","83","417888","0.0-58.0","63a49d5bb18f18863fe82dae","665500ab8938657b03fbdba8","6657934fec682fff2873a3d7","2293","stimuli/00010110.jpg"," ","","feedback_trial","0","","","","","","","","","","","","","","","","","","","","",""
"","","","","","image-keyboard-response","84","420593","0.0-59.0","63a49d5bb18f18863fe82dae","665500ab8938657b03fbdba8","6657934fec682fff2873a3d7","2704","stimuli/2110101.jpg","0","","prediction_trial","2","","false","","2","false","false","true","true","false","false","[2]","110","101","0","","","","","","",""
"","","","","","image-keyboard-response","85","422505","0.0-60.0","63a49d5bb18f18863fe82dae","665500ab8938657b03fbdba8","6657934fec682fff2873a3d7","1911","stimuli/21101012.jpg"," ","","feedback_trial","2","","","","","","","","","","","","","","","","","","","","",""
"","","","","","image-keyboard-response","86","423825","0.0-61.0","63a49d5bb18f18863fe82dae","665500ab8938657b03fbdba8","6657934fec682fff2873a3d7","1318","stimuli/2011101.jpg","2","","prediction_trial","2","","true","","2","false","false","false","false","false","false","[2,1]","011","101","1","","","","","","",""
"","","","","","image-keyboard-response","87","425736","0.0-62.0","63a49d5bb18f18863fe82dae","665500ab8938657b03fbdba8","6657934fec682fff2873a3d7","1910","stimuli/20111012.jpg"," ","","feedback_trial","2","","","","","","","","","","","","","","","","","","","","",""
"","","","","","image-keyboard-response","88","427741","0.0-63.0","63a49d5bb18f18863fe82dae","665500ab8938657b03fbdba8","6657934fec682fff2873a3d7","2004","stimuli/0011010.jpg","2","","prediction_trial","0","","false","","0","true","true","true","true","true","true","[0]","011","010","0","","","","","","",""
"","","","","","image-keyboard-response","89","429347","0.0-64.0","63a49d5bb18f18863fe82dae","665500ab8938657b03fbdba8","6657934fec682fff2873a3d7","1605","stimuli/00110100.jpg"," ","","feedback_trial","0","","","","","","","","","","","","","","","","","","","","",""
"","","","","","image-keyboard-response","90","434922","0.0-65.0","63a49d5bb18f18863fe82dae","665500ab8938657b03fbdba8","6657934fec682fff2873a3d7","5573","stimuli/1000110.jpg","2","","prediction_trial","1","","false","","1","false","false","true","true","false","false","[1]","000","110","0","","","","","","",""
"","","","","","image-keyboard-response","91","436422","0.0-66.0","63a49d5bb18f18863fe82dae","665500ab8938657b03fbdba8","6657934fec682fff2873a3d7","1499","stimuli/10001101.jpg"," ","","feedback_trial","1","","","","","","","","","","","","","","","","","","","","",""
"","","","","","image-keyboard-response","92","437879","0.0-67.0","63a49d5bb18f18863fe82dae","665500ab8938657b03fbdba8","6657934fec682fff2873a3d7","1455","stimuli/2110001.jpg","2","","prediction_trial","2","","true","","2","false","true","true","true","false","true","[2]","110","001","1","","","","","","",""
"","","","","","image-keyboard-response","93","439019","0.0-68.0","63a49d5bb18f18863fe82dae","665500ab8938657b03fbdba8","6657934fec682fff2873a3d7","1139","stimuli/21100012.jpg"," ","","feedback_trial","2","","","","","","","","","","","","","","","","","","","","",""
"","","","","","image-keyboard-response","94","440304","0.0-69.0","63a49d5bb18f18863fe82dae","665500ab8938657b03fbdba8","6657934fec682fff2873a3d7","1283","stimuli/1000011.jpg","2","","prediction_trial","1","","false","","1","false","false","true","true","false","false","[1]","000","011","0","","","","","","",""
"","","","","","image-keyboard-response","95","442146","0.0-70.0","63a49d5bb18f18863fe82dae","665500ab8938657b03fbdba8","6657934fec682fff2873a3d7","1841","stimuli/10000111.jpg"," ","","feedback_trial","1","","","","","","","","","","","","","","","","","","","","",""
"","","","","","image-keyboard-response","96","443354","0.0-71.0","63a49d5bb18f18863fe82dae","665500ab8938657b03fbdba8","6657934fec682fff2873a3d7","1207","stimuli/1101010.jpg","2","","prediction_trial","1","","false","","1","false","true","true","true","false","true","[1]","101","010","0","","","","","","",""
"","","","","","image-keyboard-response","97","445190","0.0-72.0","63a49d5bb18f18863fe82dae","665500ab8938657b03fbdba8","6657934fec682fff2873a3d7","1834","stimuli/11010101.jpg"," ","","feedback_trial","1","","","","","","","","","","","","","","","","","","","","",""
"","","","","","image-keyboard-response","98","447492","0.0-73.0","63a49d5bb18f18863fe82dae","665500ab8938657b03fbdba8","6657934fec682fff2873a3d7","2300","stimuli/1011010.jpg","0","","prediction_trial","1","","false","","1","false","true","false","false","false","false","[2,1]","011","010","0","","","","","","",""
"","","","","","image-keyboard-response","99","449265","0.0-74.0","63a49d5bb18f18863fe82dae","665500ab8938657b03fbdba8","6657934fec682fff2873a3d7","1773","stimuli/10110101.jpg"," ","","feedback_trial","2","","","","","","","","","","","","","","","","","","","","",""
"","","","","","image-keyboard-response","100","451331","0.0-75.0","63a49d5bb18f18863fe82dae","665500ab8938657b03fbdba8","6657934fec682fff2873a3d7","2065","stimuli/1011001.jpg","1","","prediction_trial","1","","true","","1","true","true","false","false","false","false","[1,2]","011","001","1","","","","","","",""
"","","","","","image-keyboard-response","101","454421","0.0-76.0","63a49d5bb18f18863fe82dae","665500ab8938657b03fbdba8","6657934fec682fff2873a3d7","3088","stimuli/10110011.jpg"," ","","feedback_trial","1","","","","","","","","","","","","","","","","","","","","",""
"","","","","","image-keyboard-response","102","455825","0.0-77.0","63a49d5bb18f18863fe82dae","665500ab8938657b03fbdba8","6657934fec682fff2873a3d7","1403","stimuli/2110011.jpg","1","","prediction_trial","2","","false","","2","false","false","true","true","false","false","[2]","110","011","0","","","","","","",""
"","","","","","image-keyboard-response","103","458288","0.0-78.0","63a49d5bb18f18863fe82dae","665500ab8938657b03fbdba8","6657934fec682fff2873a3d7","2462","stimuli/21100112.jpg"," ","","feedback_trial","2","","","","","","","","","","","","","","","","","","","","",""
"","","","","","image-keyboard-response","104","460453","0.0-79.0","63a49d5bb18f18863fe82dae","665500ab8938657b03fbdba8","6657934fec682fff2873a3d7","2164","stimuli/2010111.jpg","1","","prediction_trial","2","","false","","2","false","false","true","true","false","false","[2]","010","111","0","","","","","","",""
"","","","","","image-keyboard-response","105","462090","0.0-80.0","63a49d5bb18f18863fe82dae","665500ab8938657b03fbdba8","6657934fec682fff2873a3d7","1636","stimuli/20101112.jpg"," ","","feedback_trial","2","","","","","","","","","","","","","","","","","","","","",""
"","","","","","image-keyboard-response","106","462960","0.0-81.0","63a49d5bb18f18863fe82dae","665500ab8938657b03fbdba8","6657934fec682fff2873a3d7","868","stimuli/1110011.jpg","2","","prediction_trial","0","","false","","1","false","false","false","false","false","false","[0,1]","110","011","0","","","","","","",""
"","","","","","image-keyboard-response","107","465293","0.0-82.0","63a49d5bb18f18863fe82dae","665500ab8938657b03fbdba8","6657934fec682fff2873a3d7","2332","stimuli/11100110.jpg"," ","","feedback_trial","0","","","","","","","","","","","","","","","","","","","","",""
"","","","","","image-keyboard-response","108","468231","0.0-83.0","63a49d5bb18f18863fe82dae","665500ab8938657b03fbdba8","6657934fec682fff2873a3d7","2937","stimuli/1100010.jpg","2","","prediction_trial","1","","false","","1","false","true","true","true","false","true","[1]","100","010","0","","","","","","",""
"","","","","","image-keyboard-response","109","470763","0.0-84.0","63a49d5bb18f18863fe82dae","665500ab8938657b03fbdba8","6657934fec682fff2873a3d7","2530","stimuli/11000101.jpg"," ","","feedback_trial","1","","","","","","","","","","","","","","","","","","","","",""
"","","","","","image-keyboard-response","110","471970","0.0-85.0","63a49d5bb18f18863fe82dae","665500ab8938657b03fbdba8","6657934fec682fff2873a3d7","1206","stimuli/1010010.jpg","1","","prediction_trial","1","","true","","1","false","true","false","true","false","true","[1]","010","010","1","","","","","","",""
"","","","","","image-keyboard-response","111","473214","0.0-86.0","63a49d5bb18f18863fe82dae","665500ab8938657b03fbdba8","6657934fec682fff2873a3d7","1243","stimuli/10100101.jpg"," ","","feedback_trial","1","","","","","","","","","","","","","","","","","","","","",""
"","","","","","image-keyboard-response","112","474314","0.0-87.0","63a49d5bb18f18863fe82dae","665500ab8938657b03fbdba8","6657934fec682fff2873a3d7","1099","stimuli/1000000.jpg","1","","prediction_trial","1","","true","","1","true","true","true","true","true","true","[1]","000","000","1","","","","","","",""
"","","","","","image-keyboard-response","113","476719","0.0-88.0","63a49d5bb18f18863fe82dae","665500ab8938657b03fbdba8","6657934fec682fff2873a3d7","2403","stimuli/10000001.jpg"," ","","feedback_trial","1","","","","","","","","","","","","","","","","","","","","",""
"","","","","","image-keyboard-response","114","477970","0.0-89.0","63a49d5bb18f18863fe82dae","665500ab8938657b03fbdba8","6657934fec682fff2873a3d7","1250","stimuli/2001000.jpg","2","","prediction_trial","2","","true","","2","true","true","false","true","false","true","[2]","001","000","1","","","","","","",""
"","","","","","image-keyboard-response","115","480288","0.0-90.0","63a49d5bb18f18863fe82dae","665500ab8938657b03fbdba8","6657934fec682fff2873a3d7","2316","stimuli/20010002.jpg"," ","","feedback_trial","2","","","","","","","","","","","","","","","","","","","","",""
"","","","","","image-keyboard-response","116","482752","0.0-91.0","63a49d5bb18f18863fe82dae","665500ab8938657b03fbdba8","6657934fec682fff2873a3d7","2463","stimuli/1011000.jpg","1","","prediction_trial","2","","false","","1","true","true","false","false","false","false","[2,1]","011","000","0","","","","","","",""
"","","","","","image-keyboard-response","117","484729","0.0-92.0","63a49d5bb18f18863fe82dae","665500ab8938657b03fbdba8","6657934fec682fff2873a3d7","1976","stimuli/10110002.jpg"," ","","feedback_trial","2","","","","","","","","","","","","","","","","","","","","",""
"","","","","","image-keyboard-response","118","486173","0.0-93.0","63a49d5bb18f18863fe82dae","665500ab8938657b03fbdba8","6657934fec682fff2873a3d7","1442","stimuli/1000101.jpg","1","","prediction_trial","1","","true","","1","true","true","true","true","true","true","[1]","000","101","1","","","","","","",""
"","","","","","image-keyboard-response","119","489838","0.0-94.0","63a49d5bb18f18863fe82dae","665500ab8938657b03fbdba8","6657934fec682fff2873a3d7","3663","stimuli/10001011.jpg"," ","","feedback_trial","1","","","","","","","","","","","","","","","","","","","","",""
"","","","","","image-keyboard-response","120","492050","0.0-95.0","63a49d5bb18f18863fe82dae","665500ab8938657b03fbdba8","6657934fec682fff2873a3d7","2211","stimuli/0100010.jpg","0","","prediction_trial","0","","true","","0","true","true","false","true","false","true","[0]","100","010","1","","","","","","",""
"","","","","","image-keyboard-response","121","493319","0.0-96.0","63a49d5bb18f18863fe82dae","665500ab8938657b03fbdba8","6657934fec682fff2873a3d7","1267","stimuli/01000100.jpg"," ","","feedback_trial","0","","","","","","","","","","","","","","","","","","","","",""
"","","","","","image-keyboard-response","122","494587","0.0-97.0","63a49d5bb18f18863fe82dae","665500ab8938657b03fbdba8","6657934fec682fff2873a3d7","1267","stimuli/1111011.jpg","2","","prediction_trial","2","","true","","1","false","false","false","false","false","false","[2,1,0]","111","011","1","","","","","","",""
"","","","","","image-keyboard-response","123","496899","0.0-98.0","63a49d5bb18f18863fe82dae","665500ab8938657b03fbdba8","6657934fec682fff2873a3d7","2311","stimuli/11110112.jpg"," ","","feedback_trial","2","","","","","","","","","","","","","","","","","","","","",""
"","","","","","image-keyboard-response","124","498262","0.0-99.0","63a49d5bb18f18863fe82dae","665500ab8938657b03fbdba8","6657934fec682fff2873a3d7","1361","stimuli/0010000.jpg","0","","prediction_trial","0","","true","","0","true","true","true","true","true","true","[0]","010","000","1","","","","","","",""
"","","","","","image-keyboard-response","125","499646","0.0-100.0","63a49d5bb18f18863fe82dae","665500ab8938657b03fbdba8","6657934fec682fff2873a3d7","1382","stimuli/00100000.jpg"," ","","feedback_trial","0","","","","","","","","","","","","","","","","","","","","",""
"","","","","","image-keyboard-response","126","500917","0.0-101.0","63a49d5bb18f18863fe82dae","665500ab8938657b03fbdba8","6657934fec682fff2873a3d7","1269","stimuli/2001011.jpg","2","","prediction_trial","2","","true","","2","false","false","false","true","false","false","[2]","001","011","1","","","","","","",""
"","","","","","image-keyboard-response","127","503544","0.0-102.0","63a49d5bb18f18863fe82dae","665500ab8938657b03fbdba8","6657934fec682fff2873a3d7","2626","stimuli/20010112.jpg"," ","","feedback_trial","2","","","","","","","","","","","","","","","","","","","","",""
"","","","","","image-keyboard-response","128","505222","0.0-103.0","63a49d5bb18f18863fe82dae","665500ab8938657b03fbdba8","6657934fec682fff2873a3d7","1676","stimuli/0101110.jpg","0","","prediction_trial","2","","false","","0","false","false","false","false","false","false","[0,2]","101","110","0","","","","","","",""
"","","","","","image-keyboard-response","129","510907","0.0-104.0","63a49d5bb18f18863fe82dae","665500ab8938657b03fbdba8","6657934fec682fff2873a3d7","5684","stimuli/01011102.jpg"," ","","feedback_trial","0","","","","","","","","","","","","","","","","","","","","",""
"","","","","","image-keyboard-response","130","512565","0.0-105.0","63a49d5bb18f18863fe82dae","665500ab8938657b03fbdba8","6657934fec682fff2873a3d7","1656","stimuli/1111000.jpg","1","","prediction_trial","1","","true","","1","true","true","false","false","false","false","[1,2,0]","111","000","1","","","","","","",""
"","","","","","image-keyboard-response","131","513796","0.0-106.0","63a49d5bb18f18863fe82dae","665500ab8938657b03fbdba8","6657934fec682fff2873a3d7","1230","stimuli/11110001.jpg"," ","","feedback_trial","1","","","","","","","","","","","","","","","","","","","","",""
"","","","","","image-keyboard-response","132","515465","0.0-107.0","63a49d5bb18f18863fe82dae","665500ab8938657b03fbdba8","6657934fec682fff2873a3d7","1668","stimuli/0101111.jpg","2","","prediction_trial","0","","false","","0","false","false","false","false","false","false","[2,0]","101","111","0","","","","","","",""
"","","","","","image-keyboard-response","133","518177","0.0-108.0","63a49d5bb18f18863fe82dae","665500ab8938657b03fbdba8","6657934fec682fff2873a3d7","2712","stimuli/01011110.jpg"," ","","feedback_trial","2","","","","","","","","","","","","","","","","","","","","",""
"","","","","","image-keyboard-response","134","519893","0.0-109.0","63a49d5bb18f18863fe82dae","665500ab8938657b03fbdba8","6657934fec682fff2873a3d7","1715","stimuli/1010111.jpg","0","","prediction_trial","1","","false","","1","false","false","false","true","false","false","[1]","010","111","0","","","","","","",""
"","","","","","image-keyboard-response","135","521869","0.0-110.0","63a49d5bb18f18863fe82dae","665500ab8938657b03fbdba8","6657934fec682fff2873a3d7","1974","stimuli/10101111.jpg"," ","","feedback_trial","1","","","","","","","","","","","","","","","","","","","","",""
"","","","","","image-keyboard-response","136","523518","0.0-111.0","63a49d5bb18f18863fe82dae","665500ab8938657b03fbdba8","6657934fec682fff2873a3d7","1647","stimuli/2101100.jpg","2","","prediction_trial","0","","false","","2","true","true","false","false","false","false","[2,0]","101","100","0","","","","","","",""
"","","","","","image-keyboard-response","137","524760","0.0-112.0","63a49d5bb18f18863fe82dae","665500ab8938657b03fbdba8","6657934fec682fff2873a3d7","1241","stimuli/21011000.jpg"," ","","feedback_trial","2","","","","","","","","","","","","","","","","","","","","",""
"","","","","","image-keyboard-response","138","526094","0.0-113.0","63a49d5bb18f18863fe82dae","665500ab8938657b03fbdba8","6657934fec682fff2873a3d7","1333","stimuli/0111101.jpg","0","","prediction_trial","1","","false","","0","false","false","false","false","false","false","[1,0,2]","111","101","0","","","","","","",""
"","","","","","image-keyboard-response","139","528170","0.0-114.0","63a49d5bb18f18863fe82dae","665500ab8938657b03fbdba8","6657934fec682fff2873a3d7","2074","stimuli/01111011.jpg"," ","","feedback_trial","1","","","","","","","","","","","","","","","","","","","","",""
"","","","","","image-keyboard-response","140","529626","0.0-115.0","63a49d5bb18f18863fe82dae","665500ab8938657b03fbdba8","6657934fec682fff2873a3d7","1454","stimuli/0111010.jpg","0","","prediction_trial","0","","true","","0","true","true","false","false","false","false","[1,2,0]","111","010","1","","","","","","",""
"","","","","","image-keyboard-response","141","531013","0.0-116.0","63a49d5bb18f18863fe82dae","665500ab8938657b03fbdba8","6657934fec682fff2873a3d7","1386","stimuli/01110100.jpg"," ","","feedback_trial","1","","","","","","","","","","","","","","","","","","","","",""
"","","","","","image-keyboard-response","142","532013","0.0-117.0","63a49d5bb18f18863fe82dae","665500ab8938657b03fbdba8","6657934fec682fff2873a3d7","999","stimuli/2001010.jpg","2","","prediction_trial","2","","true","","2","true","true","false","true","false","true","[2]","001","010","1","","","","","","",""
"","","","","","image-keyboard-response","143","533138","0.0-118.0","63a49d5bb18f18863fe82dae","665500ab8938657b03fbdba8","6657934fec682fff2873a3d7","1124","stimuli/20010102.jpg"," ","","feedback_trial","2","","","","","","","","","","","","","","","","","","","","",""
"","","","","","image-keyboard-response","144","534594","0.0-119.0","63a49d5bb18f18863fe82dae","665500ab8938657b03fbdba8","6657934fec682fff2873a3d7","1455","stimuli/0100001.jpg","0","","prediction_trial","0","","true","","0","true","true","false","true","false","true","[0]","100","001","1","","","","","","",""
"","","","","","image-keyboard-response","145","535734","0.0-120.0","63a49d5bb18f18863fe82dae","665500ab8938657b03fbdba8","6657934fec682fff2873a3d7","1139","stimuli/01000010.jpg"," ","","feedback_trial","0","","","","","","","","","","","","","","","","","","","","",""
"","","","","","image-keyboard-response","146","537843","0.0-121.0","63a49d5bb18f18863fe82dae","665500ab8938657b03fbdba8","6657934fec682fff2873a3d7","2108","stimuli/1011101.jpg","1","","prediction_trial","2","","false","","1","true","true","false","false","false","false","[2,1]","011","101","0","","","","","","",""
"","","","","","image-keyboard-response","147","541720","0.0-122.0","63a49d5bb18f18863fe82dae","665500ab8938657b03fbdba8","6657934fec682fff2873a3d7","3875","stimuli/10111012.jpg"," ","","feedback_trial","2","","","","","","","","","","","","","","","","","","","","",""
"","","","","","image-keyboard-response","148","543437","0.0-123.0","63a49d5bb18f18863fe82dae","665500ab8938657b03fbdba8","6657934fec682fff2873a3d7","1716","stimuli/0100100.jpg","0","","prediction_trial","0","","true","","0","false","true","false","true","false","true","[0]","100","100","1","","","","","","",""
"","","","","","image-keyboard-response","149","545828","0.0-124.0","63a49d5bb18f18863fe82dae","665500ab8938657b03fbdba8","6657934fec682fff2873a3d7","2390","stimuli/01001000.jpg"," ","","feedback_trial","0","","","","","","","","","","","","","","","","","","","","",""
"","","","","","image-keyboard-response","150","547238","0.0-125.0","63a49d5bb18f18863fe82dae","665500ab8938657b03fbdba8","6657934fec682fff2873a3d7","1408","stimuli/2001101.jpg","2","","prediction_trial","2","","true","","2","false","false","false","true","false","false","[2]","001","101","1","","","","","","",""
"","","","","","image-keyboard-response","151","554881","0.0-126.0","63a49d5bb18f18863fe82dae","665500ab8938657b03fbdba8","6657934fec682fff2873a3d7","7642","stimuli/20011012.jpg"," ","","feedback_trial","2","","","","","","","","","","","","","","","","","","","","",""
"","","","","","image-keyboard-response","152","556500","0.0-127.0","63a49d5bb18f18863fe82dae","665500ab8938657b03fbdba8","6657934fec682fff2873a3d7","1618","stimuli/0000111.jpg","2","","prediction_trial","0","","false","","0","false","false","true","true","false","false","[0]","000","111","0","","","","","","",""
"","","","","","image-keyboard-response","153","562495","0.0-128.0","63a49d5bb18f18863fe82dae","665500ab8938657b03fbdba8","6657934fec682fff2873a3d7","5994","stimuli/00001110.jpg"," ","","feedback_trial","0","","","","","","","","","","","","","","","","","","","","",""
"","","","","","image-keyboard-response","154","563671","0.0-129.0","63a49d5bb18f18863fe82dae","665500ab8938657b03fbdba8","6657934fec682fff2873a3d7","1174","stimuli/0111111.jpg","2","","prediction_trial","1","","false","","0","false","false","false","false","false","false","[0,2,1]","111","111","0","","","","","","",""
"","","","","","image-keyboard-response","155","572278","0.0-130.0","63a49d5bb18f18863fe82dae","665500ab8938657b03fbdba8","6657934fec682fff2873a3d7","8606","stimuli/01111111.jpg"," ","","feedback_trial","0","","","","","","","","","","","","","","","","","","","","",""
"","","","","","image-keyboard-response","156","573641","0.0-131.0","63a49d5bb18f18863fe82dae","665500ab8938657b03fbdba8","6657934fec682fff2873a3d7","1362","stimuli/2111011.jpg","2","","prediction_trial","1","","false","","2","false","false","false","false","false","false","[2,0,1]","111","011","0","","","","","","",""
"","","","","","image-keyboard-response","157","575110","0.0-132.0","63a49d5bb18f18863fe82dae","665500ab8938657b03fbdba8","6657934fec682fff2873a3d7","1467","stimuli/21110111.jpg"," ","","feedback_trial","2","","","","","","","","","","","","","","","","","","","","",""
"","","","","","image-keyboard-response","158","577605","0.0-133.0","63a49d5bb18f18863fe82dae","665500ab8938657b03fbdba8","6657934fec682fff2873a3d7","2493","stimuli/2000000.jpg","2","","prediction_trial","2","","true","","2","true","true","true","true","true","true","[2]","000","000","1","","","","","","",""
"","","","","","image-keyboard-response","159","578783","0.0-134.0","63a49d5bb18f18863fe82dae","665500ab8938657b03fbdba8","6657934fec682fff2873a3d7","1177","stimuli/20000002.jpg"," ","","feedback_trial","2","","","","","","","","","","","","","","","","","","","","",""
"","","","","","image-keyboard-response","160","580180","0.0-135.0","63a49d5bb18f18863fe82dae","665500ab8938657b03fbdba8","6657934fec682fff2873a3d7","1395","stimuli/1110001.jpg","1","","prediction_trial","0","","false","","1","true","true","false","false","false","false","[1,0]","110","001","0","","","","","","",""
"","","","","","image-keyboard-response","161","581285","0.0-136.0","63a49d5bb18f18863fe82dae","665500ab8938657b03fbdba8","6657934fec682fff2873a3d7","1104","stimuli/11100010.jpg"," ","","feedback_trial","1","","","","","","","","","","","","","","","","","","","","",""
"","","","","","image-keyboard-response","162","582287","0.0-137.0","63a49d5bb18f18863fe82dae","665500ab8938657b03fbdba8","6657934fec682fff2873a3d7","1000","stimuli/1111111.jpg","1","","prediction_trial","0","","false","","1","false","false","false","false","false","false","[2,1,0]","111","111","0","","","","","","",""
"","","","","","image-keyboard-response","163","583088","0.0-138.0","63a49d5bb18f18863fe82dae","665500ab8938657b03fbdba8","6657934fec682fff2873a3d7","799","stimuli/11111110.jpg"," ","","feedback_trial","2","","","","","","","","","","","","","","","","","","","","",""
"","","","","","image-keyboard-response","164","583893","0.0-139.0","63a49d5bb18f18863fe82dae","665500ab8938657b03fbdba8","6657934fec682fff2873a3d7","803","stimuli/0010111.jpg","1","","prediction_trial","0","","false","","0","false","false","true","true","false","false","[0]","010","111","0","","","","","","",""
"","","","","","image-keyboard-response","165","584552","0.0-140.0","63a49d5bb18f18863fe82dae","665500ab8938657b03fbdba8","6657934fec682fff2873a3d7","658","stimuli/00101110.jpg"," ","","feedback_trial","0","","","","","","","","","","","","","","","","","","","","",""
"","","","","","image-keyboard-response","166","585714","0.0-141.0","63a49d5bb18f18863fe82dae","665500ab8938657b03fbdba8","6657934fec682fff2873a3d7","1161","stimuli/0111000.jpg","1","","prediction_trial","0","","false","","0","true","true","false","false","false","false","[1,2,0]","111","000","0","","","","","","",""
"","","","","","image-keyboard-response","167","587541","0.0-142.0","63a49d5bb18f18863fe82dae","665500ab8938657b03fbdba8","6657934fec682fff2873a3d7","1825","stimuli/01110000.jpg"," ","","feedback_trial","1","","","","","","","","","","","","","","","","","","","","",""
"","","","","","image-keyboard-response","168","588717","0.0-143.0","63a49d5bb18f18863fe82dae","665500ab8938657b03fbdba8","6657934fec682fff2873a3d7","1175","stimuli/0010100.jpg","1","","prediction_trial","0","","false","","0","false","true","true","true","false","true","[0]","010","100","0","","","","","","",""
"","","","","","image-keyboard-response","169","590322","0.0-144.0","63a49d5bb18f18863fe82dae","665500ab8938657b03fbdba8","6657934fec682fff2873a3d7","1603","stimuli/00101000.jpg"," ","","feedback_trial","0","","","","","","","","","","","","","","","","","","","","",""
"","","","","","image-keyboard-response","170","592230","0.0-145.0","63a49d5bb18f18863fe82dae","665500ab8938657b03fbdba8","6657934fec682fff2873a3d7","1907","stimuli/0010010.jpg","0","","prediction_trial","0","","true","","0","true","true","true","true","true","true","[0]","010","010","1","","","","","","",""
"","","","","","image-keyboard-response","171","593915","0.0-146.0","63a49d5bb18f18863fe82dae","665500ab8938657b03fbdba8","6657934fec682fff2873a3d7","1683","stimuli/00100100.jpg"," ","","feedback_trial","0","","","","","","","","","","","","","","","","","","","","",""
"","","","","","image-keyboard-response","172","595190","0.0-147.0","63a49d5bb18f18863fe82dae","665500ab8938657b03fbdba8","6657934fec682fff2873a3d7","1274","stimuli/1101011.jpg","2","","prediction_trial","1","","false","","1","false","false","true","true","false","false","[1]","101","011","0","","","","","","",""
"","","","","","image-keyboard-response","173","598674","0.0-148.0","63a49d5bb18f18863fe82dae","665500ab8938657b03fbdba8","6657934fec682fff2873a3d7","3482","stimuli/11010111.jpg"," ","","feedback_trial","1","","","","","","","","","","","","","","","","","","","","",""
"","","","","","image-keyboard-response","174","599909","0.0-149.0","63a49d5bb18f18863fe82dae","665500ab8938657b03fbdba8","6657934fec682fff2873a3d7","1233","stimuli/1011100.jpg","1","","prediction_trial","2","","false","","1","true","true","false","false","false","false","[2,1]","011","100","0","","","","","","",""
"","","","","","image-keyboard-response","175","604359","0.0-150.0","63a49d5bb18f18863fe82dae","665500ab8938657b03fbdba8","6657934fec682fff2873a3d7","4448","stimuli/10111002.jpg"," ","","feedback_trial","2","","","","","","","","","","","","","","","","","","","","",""
"","","","","","image-keyboard-response","176","605363","0.0-151.0","63a49d5bb18f18863fe82dae","665500ab8938657b03fbdba8","6657934fec682fff2873a3d7","1003","stimuli/2011000.jpg","2","","prediction_trial","1","","false","","2","true","true","false","false","false","false","[2,1]","011","000","0","","","","","","",""
"","","","","","image-keyboard-response","177","607083","0.0-152.0","63a49d5bb18f18863fe82dae","665500ab8938657b03fbdba8","6657934fec682fff2873a3d7","1719","stimuli/20110001.jpg"," ","","feedback_trial","2","","","","","","","","","","","","","","","","","","","","",""
"","","","","","image-keyboard-response","178","608403","0.0-153.0","63a49d5bb18f18863fe82dae","665500ab8938657b03fbdba8","6657934fec682fff2873a3d7","1319","stimuli/0110010.jpg","2","","prediction_trial","1","","false","","0","true","true","false","false","false","false","[1,0]","110","010","0","","","","","","",""
"","","","","","image-keyboard-response","179","609789","0.0-154.0","63a49d5bb18f18863fe82dae","665500ab8938657b03fbdba8","6657934fec682fff2873a3d7","1384","stimuli/01100101.jpg"," ","","feedback_trial","1","","","","","","","","","","","","","","","","","","","","",""
"","","","","","image-keyboard-response","180","612942","0.0-155.0","63a49d5bb18f18863fe82dae","665500ab8938657b03fbdba8","6657934fec682fff2873a3d7","3152","stimuli/1111101.jpg","1","","prediction_trial","1","","true","","1","true","true","false","false","false","false","[2,0,1]","111","101","1","","","","","","",""
"","","","","","image-keyboard-response","181","614360","0.0-156.0","63a49d5bb18f18863fe82dae","665500ab8938657b03fbdba8","6657934fec682fff2873a3d7","1416","stimuli/11111011.jpg"," ","","feedback_trial","2","","","","","","","","","","","","","","","","","","","","",""
"","","","","","image-keyboard-response","182","615808","0.0-157.0","63a49d5bb18f18863fe82dae","665500ab8938657b03fbdba8","6657934fec682fff2873a3d7","1447","stimuli/0101001.jpg","0","","prediction_trial","2","","false","","0","true","true","false","false","false","false","[2,0]","101","001","0","","","","","","",""
"","","","","","image-keyboard-response","183","620133","0.0-158.0","63a49d5bb18f18863fe82dae","665500ab8938657b03fbdba8","6657934fec682fff2873a3d7","4322","stimuli/01010012.jpg"," ","","feedback_trial","2","","","","","","","","","","","","","","","","","","","","",""
"","","","","","image-keyboard-response","184","621264","0.0-159.0","63a49d5bb18f18863fe82dae","665500ab8938657b03fbdba8","6657934fec682fff2873a3d7","1130","stimuli/2010110.jpg","2","","prediction_trial","2","","true","","2","true","true","true","true","true","true","[2]","010","110","1","","","","","","",""
"","","","","","image-keyboard-response","185","622733","0.0-160.0","63a49d5bb18f18863fe82dae","665500ab8938657b03fbdba8","6657934fec682fff2873a3d7","1468","stimuli/20101102.jpg"," ","","feedback_trial","2","","","","","","","","","","","","","","","","","","","","",""
"","","","","","image-keyboard-response","186","623823","0.0-161.0","63a49d5bb18f18863fe82dae","665500ab8938657b03fbdba8","6657934fec682fff2873a3d7","1088","stimuli/0101100.jpg","2","","prediction_trial","2","","true","","0","false","true","false","false","false","false","[2,0]","101","100","1","","","","","","",""
"","","","","","image-keyboard-response","187","627538","0.0-162.0","63a49d5bb18f18863fe82dae","665500ab8938657b03fbdba8","6657934fec682fff2873a3d7","3714","stimuli/01011002.jpg"," ","","feedback_trial","2","","","","","","","","","","","","","","","","","","","","",""
"","","","","","image-keyboard-response","188","629488","0.0-163.0","63a49d5bb18f18863fe82dae","665500ab8938657b03fbdba8","6657934fec682fff2873a3d7","1948","stimuli/1111100.jpg","1","","prediction_trial","2","","false","","1","true","true","false","false","false","false","[0,2,1]","111","100","0","","","","","","",""
"","","","","","image-keyboard-response","189","630932","0.0-164.0","63a49d5bb18f18863fe82dae","665500ab8938657b03fbdba8","6657934fec682fff2873a3d7","1443","stimuli/11111002.jpg"," ","","feedback_trial","0","","","","","","","","","","","","","","","","","","","","",""
"","","","","","image-keyboard-response","190","631769","0.0-165.0","63a49d5bb18f18863fe82dae","665500ab8938657b03fbdba8","6657934fec682fff2873a3d7","835","stimuli/2010010.jpg","2","","prediction_trial","2","","true","","2","true","true","true","true","true","true","[2]","010","010","1","","","","","","",""
"","","","","","image-keyboard-response","191","633301","0.0-166.0","63a49d5bb18f18863fe82dae","665500ab8938657b03fbdba8","6657934fec682fff2873a3d7","1531","stimuli/20100102.jpg"," ","","feedback_trial","2","","","","","","","","","","","","","","","","","","","","",""
"","","","","","image-keyboard-response","192","634901","0.0-167.0","63a49d5bb18f18863fe82dae","665500ab8938657b03fbdba8","6657934fec682fff2873a3d7","1598","stimuli/0001110.jpg","2","","prediction_trial","0","","false","","0","false","false","true","true","false","false","[0]","001","110","0","","","","","","",""
"","","","","","image-keyboard-response","193","636443","0.0-168.0","63a49d5bb18f18863fe82dae","665500ab8938657b03fbdba8","6657934fec682fff2873a3d7","1540","stimuli/00011100.jpg"," ","","feedback_trial","0","","","","","","","","","","","","","","","","","","","","",""
"","","","","","image-keyboard-response","194","637750","0.0-169.0","63a49d5bb18f18863fe82dae","665500ab8938657b03fbdba8","6657934fec682fff2873a3d7","1306","stimuli/2100001.jpg","2","","prediction_trial","2","","true","","2","false","true","true","true","false","true","[2]","100","001","1","","","","","","",""
"","","","","","image-keyboard-response","195","639322","0.0-170.0","63a49d5bb18f18863fe82dae","665500ab8938657b03fbdba8","6657934fec682fff2873a3d7","1570","stimuli/21000012.jpg"," ","","feedback_trial","2","","","","","","","","","","","","","","","","","","","","",""
"","","","","","image-keyboard-response","196","641942","0.0-171.0","63a49d5bb18f18863fe82dae","665500ab8938657b03fbdba8","6657934fec682fff2873a3d7","2618","stimuli/1100000.jpg","1","","prediction_trial","1","","true","","1","true","true","true","true","true","true","[1]","100","000","1","","","","","","",""
"","","","","","image-keyboard-response","197","643000","0.0-172.0","63a49d5bb18f18863fe82dae","665500ab8938657b03fbdba8","6657934fec682fff2873a3d7","1057","stimuli/11000001.jpg"," ","","feedback_trial","1","","","","","","","","","","","","","","","","","","","","",""
"","","","","","image-keyboard-response","198","644580","0.0-173.0","63a49d5bb18f18863fe82dae","665500ab8938657b03fbdba8","6657934fec682fff2873a3d7","1579","stimuli/0100101.jpg","2","","prediction_trial","0","","false","","0","false","false","false","true","false","false","[0]","100","101","0","","","","","","",""
"","","","","","image-keyboard-response","199","645598","0.0-174.0","63a49d5bb18f18863fe82dae","665500ab8938657b03fbdba8","6657934fec682fff2873a3d7","1016","stimuli/01001010.jpg"," ","","feedback_trial","0","","","","","","","","","","","","","","","","","","","","",""
"","","","","","image-keyboard-response","200","647269","0.0-175.0","63a49d5bb18f18863fe82dae","665500ab8938657b03fbdba8","6657934fec682fff2873a3d7","1670","stimuli/2101001.jpg","2","","prediction_trial","2","","true","","2","false","true","false","false","false","false","[2,0]","101","001","1","","","","","","",""
"","","","","","image-keyboard-response","201","648419","0.0-176.0","63a49d5bb18f18863fe82dae","665500ab8938657b03fbdba8","6657934fec682fff2873a3d7","1149","stimuli/21010012.jpg"," ","","feedback_trial","2","","","","","","","","","","","","","","","","","","","","",""
"","","","","","image-keyboard-response","202","649440","0.0-177.0","63a49d5bb18f18863fe82dae","665500ab8938657b03fbdba8","6657934fec682fff2873a3d7","1020","stimuli/1011111.jpg","2","","prediction_trial","1","","false","","1","false","false","false","false","false","false","[1,2]","011","111","0","","","","","","",""
"","","","","","image-keyboard-response","203","650941","0.0-178.0","63a49d5bb18f18863fe82dae","665500ab8938657b03fbdba8","6657934fec682fff2873a3d7","1500","stimuli/10111111.jpg"," ","","feedback_trial","1","","","","","","","","","","","","","","","","","","","","",""
"","","","","","image-keyboard-response","204","652615","0.0-179.0","63a49d5bb18f18863fe82dae","665500ab8938657b03fbdba8","6657934fec682fff2873a3d7","1672","stimuli/0011001.jpg","0","","prediction_trial","0","","true","","0","true","true","true","true","true","true","[0]","011","001","1","","","","","","",""
"","","","","","image-keyboard-response","205","656545","0.0-180.0","63a49d5bb18f18863fe82dae","665500ab8938657b03fbdba8","6657934fec682fff2873a3d7","3929","stimuli/00110010.jpg"," ","","feedback_trial","0","","","","","","","","","","","","","","","","","","","","",""
"","","","","","image-keyboard-response","206","658234","0.0-181.0","63a49d5bb18f18863fe82dae","665500ab8938657b03fbdba8","6657934fec682fff2873a3d7","1687","stimuli/2001110.jpg","2","","prediction_trial","2","","true","","2","true","true","false","true","false","true","[2]","001","110","1","","","","","","",""
"","","","","","image-keyboard-response","207","660329","0.0-182.0","63a49d5bb18f18863fe82dae","665500ab8938657b03fbdba8","6657934fec682fff2873a3d7","2094","stimuli/20011102.jpg"," ","","feedback_trial","2","","","","","","","","","","","","","","","","","","","","",""
"","","","","","image-keyboard-response","208","661820","0.0-183.0","63a49d5bb18f18863fe82dae","665500ab8938657b03fbdba8","6657934fec682fff2873a3d7","1489","stimuli/2100010.jpg","2","","prediction_trial","2","","true","","2","true","true","true","true","true","true","[2]","100","010","1","","","","","","",""
"","","","","","image-keyboard-response","209","663053","0.0-184.0","63a49d5bb18f18863fe82dae","665500ab8938657b03fbdba8","6657934fec682fff2873a3d7","1231","stimuli/21000102.jpg"," ","","feedback_trial","2","","","","","","","","","","","","","","","","","","","","",""
"","","","","","image-keyboard-response","210","668431","0.0-185.0","63a49d5bb18f18863fe82dae","665500ab8938657b03fbdba8","6657934fec682fff2873a3d7","5389","stimuli/0101010.jpg","2","","prediction_trial","2","","true","","0","true","true","false","false","false","false","[2,0]","101","010","1","","","","","","",""
"","","","","","image-keyboard-response","211","670505","0.0-186.0","63a49d5bb18f18863fe82dae","665500ab8938657b03fbdba8","6657934fec682fff2873a3d7","2072","stimuli/01010102.jpg"," ","","feedback_trial","2","","","","","","","","","","","","","","","","","","","","",""
"","","","","","image-keyboard-response","212","672106","0.0-187.0","63a49d5bb18f18863fe82dae","665500ab8938657b03fbdba8","6657934fec682fff2873a3d7","1600","stimuli/1101000.jpg","1","","prediction_trial","1","","true","","1","true","true","true","true","true","true","[1]","101","000","1","","","","","","",""
"","","","","","image-keyboard-response","213","672974","0.0-188.0","63a49d5bb18f18863fe82dae","665500ab8938657b03fbdba8","6657934fec682fff2873a3d7","866","stimuli/11010001.jpg"," ","","feedback_trial","1","","","","","","","","","","","","","","","","","","","","",""
"","","","","","image-keyboard-response","214","673959","0.0-189.0","63a49d5bb18f18863fe82dae","665500ab8938657b03fbdba8","6657934fec682fff2873a3d7","984","stimuli/2011011.jpg","2","","prediction_trial","2","","true","","2","false","false","false","false","false","false","[1,2]","011","011","1","","","","","","",""
"","","","","","image-keyboard-response","215","675373","0.0-190.0","63a49d5bb18f18863fe82dae","665500ab8938657b03fbdba8","6657934fec682fff2873a3d7","1413","stimuli/20110112.jpg"," ","","feedback_trial","1","","","","","","","","","","","","","","","","","","","","",""
"","","","","","image-keyboard-response","216","676357","0.0-191.0","63a49d5bb18f18863fe82dae","665500ab8938657b03fbdba8","6657934fec682fff2873a3d7","983","stimuli/2111001.jpg","2","","prediction_trial","1","","false","","2","false","true","false","false","false","false","[2,0,1]","111","001","0","","","","","","",""
"","","","","","image-keyboard-response","217","677945","0.0-192.0","63a49d5bb18f18863fe82dae","665500ab8938657b03fbdba8","6657934fec682fff2873a3d7","1586","stimuli/21110011.jpg"," ","","feedback_trial","2","","","","","","","","","","","","","","","","","","","","",""
"","","","","","image-keyboard-response","218","678790","0.0-193.0","63a49d5bb18f18863fe82dae","665500ab8938657b03fbdba8","6657934fec682fff2873a3d7","844","stimuli/2010011.jpg","1","","prediction_trial","2","","false","","2","false","false","true","true","false","false","[2]","010","011","0","","","","","","",""
"","","","","","image-keyboard-response","219","681326","0.0-194.0","63a49d5bb18f18863fe82dae","665500ab8938657b03fbdba8","6657934fec682fff2873a3d7","2534","stimuli/20100112.jpg"," ","","feedback_trial","2","","","","","","","","","","","","","","","","","","","","",""
"","","","","","image-keyboard-response","220","682941","0.0-195.0","63a49d5bb18f18863fe82dae","665500ab8938657b03fbdba8","6657934fec682fff2873a3d7","1614","stimuli/1110111.jpg","0","","prediction_trial","1","","false","","1","false","false","false","false","false","false","[0,1]","110","111","0","","","","","","",""
"","","","","","image-keyboard-response","221","683873","0.0-196.0","63a49d5bb18f18863fe82dae","665500ab8938657b03fbdba8","6657934fec682fff2873a3d7","931","stimuli/11101111.jpg"," ","","feedback_trial","0","","","","","","","","","","","","","","","","","","","","",""
"","","","","","image-keyboard-response","222","685083","0.0-197.0","63a49d5bb18f18863fe82dae","665500ab8938657b03fbdba8","6657934fec682fff2873a3d7","1208","stimuli/0000001.jpg","0","","prediction_trial","0","","true","","0","true","true","true","true","true","true","[0]","000","001","1","","","","","","",""
"","","","","","image-keyboard-response","223","686079","0.0-198.0","63a49d5bb18f18863fe82dae","665500ab8938657b03fbdba8","6657934fec682fff2873a3d7","995","stimuli/00000010.jpg"," ","","feedback_trial","0","","","","","","","","","","","","","","","","","","","","",""
"","","","","","image-keyboard-response","224","687239","0.0-199.0","63a49d5bb18f18863fe82dae","665500ab8938657b03fbdba8","6657934fec682fff2873a3d7","1158","stimuli/1010011.jpg","2","","prediction_trial","1","","false","","1","false","false","false","true","false","false","[1]","010","011","0","","","","","","",""
"","","","","","image-keyboard-response","225","689778","0.0-200.0","63a49d5bb18f18863fe82dae","665500ab8938657b03fbdba8","6657934fec682fff2873a3d7","2538","stimuli/10100111.jpg"," ","","feedback_trial","1","","","","","","","","","","","","","","","","","","","","",""
"","","","","","image-keyboard-response","226","691244","0.0-201.0","63a49d5bb18f18863fe82dae","665500ab8938657b03fbdba8","6657934fec682fff2873a3d7","1464","stimuli/0000110.jpg","1","","prediction_trial","0","","false","","0","false","false","true","true","false","false","[0]","000","110","0","","","","","","",""
"","","","","","image-keyboard-response","227","693292","0.0-202.0","63a49d5bb18f18863fe82dae","665500ab8938657b03fbdba8","6657934fec682fff2873a3d7","2046","stimuli/00001100.jpg"," ","","feedback_trial","0","","","","","","","","","","","","","","","","","","","","",""
"","","","","","image-keyboard-response","228","694354","0.0-203.0","63a49d5bb18f18863fe82dae","665500ab8938657b03fbdba8","6657934fec682fff2873a3d7","1061","stimuli/0010101.jpg","2","","prediction_trial","0","","false","","0","false","false","true","true","false","false","[0]","010","101","0","","","","","","",""
"","","","","","image-keyboard-response","229","695843","0.0-204.0","63a49d5bb18f18863fe82dae","665500ab8938657b03fbdba8","6657934fec682fff2873a3d7","1487","stimuli/00101010.jpg"," ","","feedback_trial","0","","","","","","","","","","","","","","","","","","","","",""
"","","","","","image-keyboard-response","230","697567","0.0-205.0","63a49d5bb18f18863fe82dae","665500ab8938657b03fbdba8","6657934fec682fff2873a3d7","1723","stimuli/2101011.jpg","0","","prediction_trial","2","","false","","2","false","false","false","false","false","false","[2,0]","101","011","0","","","","","","",""
"","","","","","image-keyboard-response","231","702792","0.0-206.0","63a49d5bb18f18863fe82dae","665500ab8938657b03fbdba8","6657934fec682fff2873a3d7","5224","stimuli/21010112.jpg"," ","","feedback_trial","2","","","","","","","","","","","","","","","","","","","","",""
"","","","","","image-keyboard-response","232","704409","0.0-207.0","63a49d5bb18f18863fe82dae","665500ab8938657b03fbdba8","6657934fec682fff2873a3d7","1615","stimuli/1100111.jpg","2","","prediction_trial","1","","false","","1","false","false","true","true","false","false","[1]","100","111","0","","","","","","",""
"","","","","","image-keyboard-response","233","713143","0.0-208.0","63a49d5bb18f18863fe82dae","665500ab8938657b03fbdba8","6657934fec682fff2873a3d7","8733","stimuli/11001111.jpg"," ","","feedback_trial","1","","","","","","","","","","","","","","","","","","","","",""
"","","","","","image-keyboard-response","234","714750","0.0-209.0","63a49d5bb18f18863fe82dae","665500ab8938657b03fbdba8","6657934fec682fff2873a3d7","1605","stimuli/2001100.jpg","2","","prediction_trial","2","","true","","2","true","true","false","true","false","true","[2]","001","100","1","","","","","","",""
"","","","","","image-keyboard-response","235","716042","0.0-210.0","63a49d5bb18f18863fe82dae","665500ab8938657b03fbdba8","6657934fec682fff2873a3d7","1290","stimuli/20011002.jpg"," ","","feedback_trial","2","","","","","","","","","","","","","","","","","","","","",""
"","","","","","image-keyboard-response","236","717597","0.0-211.0","63a49d5bb18f18863fe82dae","665500ab8938657b03fbdba8","6657934fec682fff2873a3d7","1554","stimuli/1101101.jpg","1","","prediction_trial","1","","true","","1","true","true","true","true","true","true","[1]","101","101","1","","","","","","",""
"","","","","","image-keyboard-response","237","718969","0.0-212.0","63a49d5bb18f18863fe82dae","665500ab8938657b03fbdba8","6657934fec682fff2873a3d7","1371","stimuli/11011011.jpg"," ","","feedback_trial","1","","","","","","","","","","","","","","","","","","","","",""
"","","","","","image-keyboard-response","238","722363","0.0-213.0","63a49d5bb18f18863fe82dae","665500ab8938657b03fbdba8","6657934fec682fff2873a3d7","3391","stimuli/0101000.jpg","0","","prediction_trial","2","","false","","0","true","true","false","false","false","false","[0,2]","101","000","0","","","","","","",""
"","","","","","image-keyboard-response","239","734134","0.0-214.0","63a49d5bb18f18863fe82dae","665500ab8938657b03fbdba8","6657934fec682fff2873a3d7","11757","stimuli/01010002.jpg"," ","","feedback_trial","0","","","","","","","","","","","","","","","","","","","","",""
"","","","","","image-keyboard-response","240","735541","0.0-215.0","63a49d5bb18f18863fe82dae","665500ab8938657b03fbdba8","6657934fec682fff2873a3d7","1405","stimuli/0110000.jpg","0","","prediction_trial","0","","true","","0","true","true","false","false","false","false","[0,1]","110","000","1","","","","","","",""
"","","","","","image-keyboard-response","241","737064","0.0-216.0","63a49d5bb18f18863fe82dae","665500ab8938657b03fbdba8","6657934fec682fff2873a3d7","1521","stimuli/01100000.jpg"," ","","feedback_trial","0","","","","","","","","","","","","","","","","","","","","",""
"","","","","","image-keyboard-response","242","738465","0.0-217.0","63a49d5bb18f18863fe82dae","665500ab8938657b03fbdba8","6657934fec682fff2873a3d7","1400","stimuli/1110100.jpg","1","","prediction_trial","1","","true","","1","true","true","false","false","false","false","[0,1]","110","100","1","","","","","","",""
"","","","","","image-keyboard-response","243","739272","0.0-218.0","63a49d5bb18f18863fe82dae","665500ab8938657b03fbdba8","6657934fec682fff2873a3d7","805","stimuli/11101001.jpg"," ","","feedback_trial","0","","","","","","","","","","","","","","","","","","","","",""
"","","","","","image-keyboard-response","244","741200","0.0-219.0","63a49d5bb18f18863fe82dae","665500ab8938657b03fbdba8","6657934fec682fff2873a3d7","1927","stimuli/0010001.jpg","0","","prediction_trial","0","","true","","0","true","true","true","true","true","true","[0]","010","001","1","","","","","","",""
"","","","","","image-keyboard-response","245","742677","0.0-220.0","63a49d5bb18f18863fe82dae","665500ab8938657b03fbdba8","6657934fec682fff2873a3d7","1476","stimuli/00100010.jpg"," ","","feedback_trial","0","","","","","","","","","","","","","","","","","","","","",""
"","","","","","image-keyboard-response","246","744027","0.0-221.0","63a49d5bb18f18863fe82dae","665500ab8938657b03fbdba8","6657934fec682fff2873a3d7","1348","stimuli/1100011.jpg","2","","prediction_trial","1","","false","","1","false","false","true","true","false","false","[1]","100","011","0","","","","","","",""
"","","","","","image-keyboard-response","247","746219","0.0-222.0","63a49d5bb18f18863fe82dae","665500ab8938657b03fbdba8","6657934fec682fff2873a3d7","2190","stimuli/11000111.jpg"," ","","feedback_trial","1","","","","","","","","","","","","","","","","","","","","",""
"","","","","","image-keyboard-response","248","747998","0.0-223.0","63a49d5bb18f18863fe82dae","665500ab8938657b03fbdba8","6657934fec682fff2873a3d7","1777","stimuli/0101101.jpg","0","","prediction_trial","2","","false","","0","false","false","false","false","false","false","[2,0]","101","101","0","","","","","","",""
"","","","","","image-keyboard-response","249","748793","0.0-224.0","63a49d5bb18f18863fe82dae","665500ab8938657b03fbdba8","6657934fec682fff2873a3d7","793","stimuli/01011012.jpg"," ","","feedback_trial","2","","","","","","","","","","","","","","","","","","","","",""
"","","","","","image-keyboard-response","250","753437","0.0-225.0","63a49d5bb18f18863fe82dae","665500ab8938657b03fbdba8","6657934fec682fff2873a3d7","4642","stimuli/1001110.jpg","1","","prediction_trial","1","","true","","1","false","false","true","true","false","false","[1]","001","110","1","","","","","","",""
"","","","","","image-keyboard-response","251","755247","0.0-226.0","63a49d5bb18f18863fe82dae","665500ab8938657b03fbdba8","6657934fec682fff2873a3d7","1808","stimuli/10011101.jpg"," ","","feedback_trial","1","","","","","","","","","","","","","","","","","","","","",""
"","","","","","image-keyboard-response","252","756812","0.0-227.0","63a49d5bb18f18863fe82dae","665500ab8938657b03fbdba8","6657934fec682fff2873a3d7","1564","stimuli/0000101.jpg","2","","prediction_trial","0","","false","","0","false","false","true","true","false","false","[0]","000","101","0","","","","","","",""
"","","","","","image-keyboard-response","253","758664","0.0-228.0","63a49d5bb18f18863fe82dae","665500ab8938657b03fbdba8","6657934fec682fff2873a3d7","1850","stimuli/00001010.jpg"," ","","feedback_trial","0","","","","","","","","","","","","","","","","","","","","",""
"","","","","","image-keyboard-response","254","760595","0.0-229.0","63a49d5bb18f18863fe82dae","665500ab8938657b03fbdba8","6657934fec682fff2873a3d7","1929","stimuli/1001000.jpg","2","","prediction_trial","1","","false","","1","true","true","true","true","true","true","[1]","001","000","0","","","","","","",""
"","","","","","image-keyboard-response","255","763666","0.0-230.0","63a49d5bb18f18863fe82dae","665500ab8938657b03fbdba8","6657934fec682fff2873a3d7","3068","stimuli/10010001.jpg"," ","","feedback_trial","1","","","","","","","","","","","","","","","","","","","","",""
"","","","","","image-keyboard-response","256","765149","0.0-231.0","63a49d5bb18f18863fe82dae","665500ab8938657b03fbdba8","6657934fec682fff2873a3d7","1482","stimuli/2110000.jpg","2","","prediction_trial","2","","true","","2","true","true","true","true","true","true","[2]","110","000","1","","","","","","",""
"","","","","","image-keyboard-response","257","767564","0.0-232.0","63a49d5bb18f18863fe82dae","665500ab8938657b03fbdba8","6657934fec682fff2873a3d7","2414","stimuli/21100002.jpg"," ","","feedback_trial","2","","","","","","","","","","","","","","","","","","","","",""
"","","","","","image-keyboard-response","258","769619","0.0-233.0","63a49d5bb18f18863fe82dae","665500ab8938657b03fbdba8","6657934fec682fff2873a3d7","2054","stimuli/0110011.jpg","2","","prediction_trial","1","","false","","0","true","true","false","false","false","false","[1,0]","110","011","0","","","","","","",""
"","","","","","image-keyboard-response","259","770995","0.0-234.0","63a49d5bb18f18863fe82dae","665500ab8938657b03fbdba8","6657934fec682fff2873a3d7","1374","stimuli/01100111.jpg"," ","","feedback_trial","1","","","","","","","","","","","","","","","","","","","","",""
"","","","","","image-keyboard-response","260","772390","0.0-235.0","63a49d5bb18f18863fe82dae","665500ab8938657b03fbdba8","6657934fec682fff2873a3d7","1393","stimuli/1110000.jpg","2","","prediction_trial","1","","false","","1","true","true","false","false","false","false","[0,1]","110","000","0","","","","","","",""
"","","","","","image-keyboard-response","261","773816","0.0-236.0","63a49d5bb18f18863fe82dae","665500ab8938657b03fbdba8","6657934fec682fff2873a3d7","1424","stimuli/11100001.jpg"," ","","feedback_trial","0","","","","","","","","","","","","","","","","","","","","",""
"","","","","","image-keyboard-response","262","774739","0.0-237.0","63a49d5bb18f18863fe82dae","665500ab8938657b03fbdba8","6657934fec682fff2873a3d7","921","stimuli/1001101.jpg","2","","prediction_trial","1","","false","","1","true","true","true","true","true","true","[1]","001","101","0","","","","","","",""
"","","","","","image-keyboard-response","263","776462","0.0-238.0","63a49d5bb18f18863fe82dae","665500ab8938657b03fbdba8","6657934fec682fff2873a3d7","1721","stimuli/10011011.jpg"," ","","feedback_trial","1","","","","","","","","","","","","","","","","","","","","",""
"","","","","","image-keyboard-response","264","777816","0.0-239.0","63a49d5bb18f18863fe82dae","665500ab8938657b03fbdba8","6657934fec682fff2873a3d7","1353","stimuli/2100011.jpg","2","","prediction_trial","2","","true","","2","false","false","true","true","false","false","[2]","100","011","1","","","","","","",""
"","","","","","image-keyboard-response","265","778747","0.0-240.0","63a49d5bb18f18863fe82dae","665500ab8938657b03fbdba8","6657934fec682fff2873a3d7","929","stimuli/21000112.jpg"," ","","feedback_trial","2","","","","","","","","","","","","","","","","","","","","",""
"","","","","","image-keyboard-response","266","779720","0.0-241.0","63a49d5bb18f18863fe82dae","665500ab8938657b03fbdba8","6657934fec682fff2873a3d7","971","stimuli/2111110.jpg","2","","prediction_trial","0","","false","","2","true","true","false","false","false","false","[2,0,1]","111","110","0","","","","","","",""
"","","","","","image-keyboard-response","267","780701","0.0-242.0","63a49d5bb18f18863fe82dae","665500ab8938657b03fbdba8","6657934fec682fff2873a3d7","979","stimuli/21111100.jpg"," ","","feedback_trial","2","","","","","","","","","","","","","","","","","","","","",""
"","","","","","image-keyboard-response","268","781858","0.0-243.0","63a49d5bb18f18863fe82dae","665500ab8938657b03fbdba8","6657934fec682fff2873a3d7","1156","stimuli/0001010.jpg","2","","prediction_trial","0","","false","","0","true","true","true","true","true","true","[0]","001","010","0","","","","","","",""
"","","","","","image-keyboard-response","269","783050","0.0-244.0","63a49d5bb18f18863fe82dae","665500ab8938657b03fbdba8","6657934fec682fff2873a3d7","1190","stimuli/00010100.jpg"," ","","feedback_trial","0","","","","","","","","","","","","","","","","","","","","",""
"","","","","","image-keyboard-response","270","784297","0.0-245.0","63a49d5bb18f18863fe82dae","665500ab8938657b03fbdba8","6657934fec682fff2873a3d7","1245","stimuli/1110101.jpg","2","","prediction_trial","1","","false","","1","true","true","false","false","false","false","[0,1]","110","101","0","","","","","","",""
"","","","","","image-keyboard-response","271","785351","0.0-246.0","63a49d5bb18f18863fe82dae","665500ab8938657b03fbdba8","6657934fec682fff2873a3d7","1053","stimuli/11101011.jpg"," ","","feedback_trial","0","","","","","","","","","","","","","","","","","","","","",""
"","","","","","image-keyboard-response","272","786502","0.0-247.0","63a49d5bb18f18863fe82dae","665500ab8938657b03fbdba8","6657934fec682fff2873a3d7","1149","stimuli/0111110.jpg","2","","prediction_trial","1","","false","","0","false","false","false","false","false","false","[1,0,2]","111","110","0","","","","","","",""
"","","","","","image-keyboard-response","273","787438","0.0-248.0","63a49d5bb18f18863fe82dae","665500ab8938657b03fbdba8","6657934fec682fff2873a3d7","934","stimuli/01111101.jpg"," ","","feedback_trial","1","","","","","","","","","","","","","","","","","","","","",""
"","","","","","image-keyboard-response","274","788522","0.0-249.0","63a49d5bb18f18863fe82dae","665500ab8938657b03fbdba8","6657934fec682fff2873a3d7","1082","stimuli/2110100.jpg","2","","prediction_trial","2","","true","","2","true","true","true","true","true","true","[2]","110","100","1","","","","","","",""
"","","","","","image-keyboard-response","275","789364","0.0-250.0","63a49d5bb18f18863fe82dae","665500ab8938657b03fbdba8","6657934fec682fff2873a3d7","840","stimuli/21101002.jpg"," ","","feedback_trial","2","","","","","","","","","","","","","","","","","","","","",""
"","","","","","image-keyboard-response","276","790714","0.0-251.0","63a49d5bb18f18863fe82dae","665500ab8938657b03fbdba8","6657934fec682fff2873a3d7","1361","stimuli/1100100.jpg","2","","prediction_trial","1","","false","","1","true","true","true","true","true","true","[1]","100","100","0","","","","","","",""
"","","","","","image-keyboard-response","277","791874","0.0-252.0","63a49d5bb18f18863fe82dae","665500ab8938657b03fbdba8","6657934fec682fff2873a3d7","1158","stimuli/11001001.jpg"," ","","feedback_trial","1","","","","","","","","","","","","","","","","","","","","",""
"","","","","","image-keyboard-response","278","793052","0.0-253.0","63a49d5bb18f18863fe82dae","665500ab8938657b03fbdba8","6657934fec682fff2873a3d7","1177","stimuli/1010101.jpg","2","","prediction_trial","1","","false","","1","true","true","false","true","false","true","[1]","010","101","0","","","","","","",""
"","","","","","image-keyboard-response","279","794099","0.0-254.0","63a49d5bb18f18863fe82dae","665500ab8938657b03fbdba8","6657934fec682fff2873a3d7","1045","stimuli/10101011.jpg"," ","","feedback_trial","1","","","","","","","","","","","","","","","","","","","","",""
"","","","","","image-keyboard-response","280","795265","0.0-255.0","63a49d5bb18f18863fe82dae","665500ab8938657b03fbdba8","6657934fec682fff2873a3d7","1164","stimuli/2000010.jpg","2","","prediction_trial","2","","true","","2","true","true","true","true","true","true","[2]","000","010","1","","","","","","",""
"","","","","","image-keyboard-response","281","796260","0.0-256.0","63a49d5bb18f18863fe82dae","665500ab8938657b03fbdba8","6657934fec682fff2873a3d7","994","stimuli/20000102.jpg"," ","","feedback_trial","2","","","","","","","","","","","","","","","","","","","","",""
"","","","","","image-keyboard-response","282","797772","0.0-257.0","63a49d5bb18f18863fe82dae","665500ab8938657b03fbdba8","6657934fec682fff2873a3d7","1510","stimuli/0110111.jpg","2","","prediction_trial","1","","false","","0","false","false","false","false","false","false","[0,1]","110","111","0","","","","","","",""
"","","","","","image-keyboard-response","283","798607","0.0-258.0","63a49d5bb18f18863fe82dae","665500ab8938657b03fbdba8","6657934fec682fff2873a3d7","833","stimuli/01101111.jpg"," ","","feedback_trial","0","","","","","","","","","","","","","","","","","","","","",""
"","","","","","image-keyboard-response","284","800105","0.0-259.0","63a49d5bb18f18863fe82dae","665500ab8938657b03fbdba8","6657934fec682fff2873a3d7","1496","stimuli/0100111.jpg","2","","prediction_trial","0","","false","","0","false","false","false","true","false","false","[0]","100","111","0","","","","","","",""
"","","","","","image-keyboard-response","285","800871","0.0-260.0","63a49d5bb18f18863fe82dae","665500ab8938657b03fbdba8","6657934fec682fff2873a3d7","764","stimuli/01001110.jpg"," ","","feedback_trial","0","","","","","","","","","","","","","","","","","","","","",""
"","","","","","image-keyboard-response","286","802237","0.0-261.0","63a49d5bb18f18863fe82dae","665500ab8938657b03fbdba8","6657934fec682fff2873a3d7","1363","stimuli/1001011.jpg","2","","prediction_trial","1","","false","","1","false","false","true","true","false","false","[1]","001","011","0","","","","","","",""
"","","","","","image-keyboard-response","287","803705","0.0-262.0","63a49d5bb18f18863fe82dae","665500ab8938657b03fbdba8","6657934fec682fff2873a3d7","1466","stimuli/10010111.jpg"," ","","feedback_trial","1","","","","","","","","","","","","","","","","","","","","",""
"","","","","","image-keyboard-response","288","804665","0.0-263.0","63a49d5bb18f18863fe82dae","665500ab8938657b03fbdba8","6657934fec682fff2873a3d7","958","stimuli/2100100.jpg","2","","prediction_trial","2","","true","","2","true","true","true","true","true","true","[2]","100","100","1","","","","","","",""
"","","","","","image-keyboard-response","289","806076","0.0-264.0","63a49d5bb18f18863fe82dae","665500ab8938657b03fbdba8","6657934fec682fff2873a3d7","1409","stimuli/21001002.jpg"," ","","feedback_trial","2","","","","","","","","","","","","","","","","","","","","",""
"","","","","","image-keyboard-response","290","807141","0.0-265.0","63a49d5bb18f18863fe82dae","665500ab8938657b03fbdba8","6657934fec682fff2873a3d7","1062","stimuli/1000100.jpg","2","","prediction_trial","1","","false","","1","true","true","true","true","true","true","[1]","000","100","0","","","","","","",""
"","","","","","image-keyboard-response","291","808117","0.0-266.0","63a49d5bb18f18863fe82dae","665500ab8938657b03fbdba8","6657934fec682fff2873a3d7","974","stimuli/10001001.jpg"," ","","feedback_trial","1","","","","","","","","","","","","","","","","","","","","",""
"","","","","","image-keyboard-response","292","808965","0.0-267.0","63a49d5bb18f18863fe82dae","665500ab8938657b03fbdba8","6657934fec682fff2873a3d7","846","stimuli/0100110.jpg","2","","prediction_trial","0","","false","","0","false","false","false","true","false","false","[0]","100","110","0","","","","","","",""
"","","","","","image-keyboard-response","293","809928","0.0-268.0","63a49d5bb18f18863fe82dae","665500ab8938657b03fbdba8","6657934fec682fff2873a3d7","961","stimuli/01001100.jpg"," ","","feedback_trial","0","","","","","","","","","","","","","","","","","","","","",""
"","","","","","image-keyboard-response","294","814630","0.0-269.0","63a49d5bb18f18863fe82dae","665500ab8938657b03fbdba8","6657934fec682fff2873a3d7","4700","stimuli/0001001.jpg","0","","prediction_trial","0","","true","","0","true","true","true","true","true","true","[0]","001","001","1","","","","","","",""
"","","","","","image-keyboard-response","295","816293","0.0-270.0","63a49d5bb18f18863fe82dae","665500ab8938657b03fbdba8","6657934fec682fff2873a3d7","1660","stimuli/00010010.jpg"," ","","feedback_trial","0","","","","","","","","","","","","","","","","","","","","",""
"","","","","","image-keyboard-response","296","817417","0.0-271.0","63a49d5bb18f18863fe82dae","665500ab8938657b03fbdba8","6657934fec682fff2873a3d7","1122","stimuli/2000011.jpg","2","","prediction_trial","2","","true","","2","false","false","true","true","false","false","[2]","000","011","1","","","","","","",""
"","","","","","image-keyboard-response","297","819126","0.0-272.0","63a49d5bb18f18863fe82dae","665500ab8938657b03fbdba8","6657934fec682fff2873a3d7","1707","stimuli/20000112.jpg"," ","","feedback_trial","2","","","","","","","","","","","","","","","","","","","","",""
"","","","","","image-keyboard-response","298","820090","0.0-273.0","63a49d5bb18f18863fe82dae","665500ab8938657b03fbdba8","6657934fec682fff2873a3d7","962","stimuli/2100000.jpg","2","","prediction_trial","2","","true","","2","true","true","true","true","true","true","[2]","100","000","1","","","","","","",""
"","","","","","image-keyboard-response","299","821358","0.0-274.0","63a49d5bb18f18863fe82dae","665500ab8938657b03fbdba8","6657934fec682fff2873a3d7","1266","stimuli/21000002.jpg"," ","","feedback_trial","2","","","","","","","","","","","","","","","","","","","","",""
"","","","","","image-keyboard-response","300","823278","0.0-275.0","63a49d5bb18f18863fe82dae","665500ab8938657b03fbdba8","6657934fec682fff2873a3d7","1919","stimuli/2000101.jpg","2","","prediction_trial","2","","true","","2","false","false","true","true","false","false","[2]","000","101","1","","","","","","",""
"","","","","","image-keyboard-response","301","824275","0.0-276.0","63a49d5bb18f18863fe82dae","665500ab8938657b03fbdba8","6657934fec682fff2873a3d7","994","stimuli/20001012.jpg"," ","","feedback_trial","2","","","","","","","","","","","","","","","","","","","","",""
"","","","","","image-keyboard-response","302","826009","0.0-277.0","63a49d5bb18f18863fe82dae","665500ab8938657b03fbdba8","6657934fec682fff2873a3d7","1733","stimuli/0011101.jpg","2","","prediction_trial","0","","false","","0","false","false","true","true","false","false","[0]","011","101","0","","","","","","",""
"","","","","","image-keyboard-response","303","827164","0.0-278.0","63a49d5bb18f18863fe82dae","665500ab8938657b03fbdba8","6657934fec682fff2873a3d7","1153","stimuli/00111010.jpg"," ","","feedback_trial","0","","","","","","","","","","","","","","","","","","","","",""
"","","","","","image-keyboard-response","304","828846","0.0-279.0","63a49d5bb18f18863fe82dae","665500ab8938657b03fbdba8","6657934fec682fff2873a3d7","1679","stimuli/1101001.jpg","1","","prediction_trial","1","","true","","1","true","true","true","true","true","true","[1]","101","001","1","","","","","","",""
"","","","","","image-keyboard-response","305","830423","0.0-280.0","63a49d5bb18f18863fe82dae","665500ab8938657b03fbdba8","6657934fec682fff2873a3d7","1574","stimuli/11010011.jpg"," ","","feedback_trial","1","","","","","","","","","","","","","","","","","","","","",""
"","","","","","image-keyboard-response","306","831882","0.0-281.0","63a49d5bb18f18863fe82dae","665500ab8938657b03fbdba8","6657934fec682fff2873a3d7","1457","stimuli/1000010.jpg","1","","prediction_trial","1","","true","","1","false","true","true","true","false","true","[1]","000","010","1","","","","","","",""
"","","","","","image-keyboard-response","307","832901","0.0-282.0","63a49d5bb18f18863fe82dae","665500ab8938657b03fbdba8","6657934fec682fff2873a3d7","1016","stimuli/10000101.jpg"," ","","feedback_trial","1","","","","","","","","","","","","","","","","","","","","",""
"","","","","","image-keyboard-response","308","834189","0.0-283.0","63a49d5bb18f18863fe82dae","665500ab8938657b03fbdba8","6657934fec682fff2873a3d7","1285","stimuli/1000001.jpg","1","","prediction_trial","1","","true","","1","true","true","true","true","true","true","[1]","000","001","1","","","","","","",""
"","","","","","image-keyboard-response","309","835168","0.0-284.0","63a49d5bb18f18863fe82dae","665500ab8938657b03fbdba8","6657934fec682fff2873a3d7","977","stimuli/10000011.jpg"," ","","feedback_trial","1","","","","","","","","","","","","","","","","","","","","",""
"","","","","","image-keyboard-response","310","838402","0.0-285.0","63a49d5bb18f18863fe82dae","665500ab8938657b03fbdba8","6657934fec682fff2873a3d7","3231","stimuli/0001100.jpg","0","","prediction_trial","0","","true","","0","false","true","true","true","false","true","[0]","001","100","1","","","","","","",""
"","","","","","image-keyboard-response","311","839591","0.0-286.0","63a49d5bb18f18863fe82dae","665500ab8938657b03fbdba8","6657934fec682fff2873a3d7","1187","stimuli/00011000.jpg"," ","","feedback_trial","0","","","","","","","","","","","","","","","","","","","","",""
"","","","","","image-keyboard-response","312","842646","0.0-287.0","63a49d5bb18f18863fe82dae","665500ab8938657b03fbdba8","6657934fec682fff2873a3d7","3054","stimuli/2111111.jpg","1","","prediction_trial","1","","true","","2","false","false","false","false","false","false","[0,2,1]","111","111","1","","","","","","",""
"","","","","","image-keyboard-response","313","843435","0.0-288.0","63a49d5bb18f18863fe82dae","665500ab8938657b03fbdba8","6657934fec682fff2873a3d7","787","stimuli/21111111.jpg"," ","","feedback_trial","0","","","","","","","","","","","","","","","","","","","","",""
"","","","","","image-keyboard-response","314","845030","0.0-289.0","63a49d5bb18f18863fe82dae","665500ab8938657b03fbdba8","6657934fec682fff2873a3d7","1592","stimuli/2110111.jpg","1","","prediction_trial","2","","false","","2","false","false","true","true","false","false","[2]","110","111","0","","","","","","",""
"","","","","","image-keyboard-response","315","846144","0.0-290.0","63a49d5bb18f18863fe82dae","665500ab8938657b03fbdba8","6657934fec682fff2873a3d7","1112","stimuli/21101112.jpg"," ","","feedback_trial","2","","","","","","","","","","","","","","","","","","","","",""
"","","","","","image-keyboard-response","316","848297","0.0-291.0","63a49d5bb18f18863fe82dae","665500ab8938657b03fbdba8","6657934fec682fff2873a3d7","2150","stimuli/0011011.jpg","0","","prediction_trial","0","","true","","0","true","true","true","true","true","true","[0]","011","011","1","","","","","","",""
"","","","","","image-keyboard-response","317","859645","0.0-292.0","63a49d5bb18f18863fe82dae","665500ab8938657b03fbdba8","6657934fec682fff2873a3d7","11335","stimuli/00110110.jpg"," ","","feedback_trial","0","","","","","","","","","","","","","","","","","","","","",""
"","","","","","survey-html-form","318","909997","0.0-293.0","63a49d5bb18f18863fe82dae","665500ab8938657b03fbdba8","6657934fec682fff2873a3d7","50348","","{""feedback"":""Things didn't line up correctly. I would pick the one with the ball, and then it would tell me that it was the wrong one when the. ball was clearly there and square was clearly around the ball. It would still say it was the wrong one on quite a few."",""age"":""54"",""gender"":""Female"",""other_gender"":"""",""race"":""White"",""other_race"":"""",""ethnicity"":""Non-Hispanic""}","","exit_survey","","","","","","","","","","","","","","","","Things didn't line up correctly. I would pick the one with the ball, and then it would tell me that it was the wrong one when the. ball was clearly there and square was clearly around the ball. It would still say it was the wrong one on quite a few.","54","Non-Hispanic","Female","White","0.4791666666666667","0.4791666666666667"
