"success","timeout","failed_images","failed_audio","failed_video","trial_type","trial_index","time_elapsed","internal_node_id","prolific_id","prolific_study_id","prolific_session_id","rt","stimulus","response","view_history","trial","character_choice","stimulus_dict","accuracy","correct_response","ball_pos","ego_ball_visible","ego_can_infer","alter_ball_visible","alter_can_infer","collective_ball_visible","collective_can_infer","search_locations","alter_occluders","ego_occluders","accuracy_bool","feedback","age","ethnicity","gender","race","overall_accuracy","bonus"
"true","false","[]","[]","[]","preload","0","1393","0.0-0.0","63d3f95bba922834f0e8ac39","665500ab8938657b03fbdba8","6657926fec682fff2873a3b0","","","","","","","","","","","","","","","","","","","","","","","","","","",""
"true","","","","","fullscreen","1","4108","0.0-1.0","63d3f95bba922834f0e8ac39","665500ab8938657b03fbdba8","6657926fec682fff2873a3b0","","","","","","","","","","","","","","","","","","","","","","","","","","",""
"","","","","","html-button-response","2","6778","0.0-2.0","63d3f95bba922834f0e8ac39","665500ab8938657b03fbdba8","6657926fec682fff2873a3b0","2670","<p><b>Consent Form</b></p> <div style=""text-align:left;background-color:lightgrey; padding:20px; max-width:900px;""><p>Please consider this information carefully before deciding whether to participate in this research.</p> <p>The purpose of this research is to examine which factors influence social judgment and decision-making. You will be asked to make judgements about individuals and actions in social scenarios. We are simply interested in your judgement. The study will take less than 1 hour to complete, and you will receive less than $20 on Prolific. Your compensation and time commitment are specified in the study description. There are no anticipated risks associated with participating in this study. The effects of participating should be comparable to those you would ordinarily experience from viewing a computer monitor and using a mouse or keyboard for a similar amount of time. At the end of the study, we will provide an explanation of the questions that motivate this line of research and will describe the potential implications. </p><p> Your participation in this study is completely voluntary and you may refuse to participate or you may choose to withdraw at any time without penalty or loss of benefits to you which are otherwise entitled. Your participation in this study will remain confidential. No personally identifiable information will be associated with your data. Also, all analyses of the data will be averaged across all the participants, so your individual responses will never be specifically analyzed. </p><p> If you have questions or concerns about your participation or payment, or want to request a summary of research findings, please contact Dr. Jonathan Phillips at Jonathan.S.Phillips@dartmouth.edu. </p><p> Please save a copy of this form for your records. </p><p><b>Agreement: </b>The nature and purpose of this research have been sufficiently explained and I agree to participate in this study. I understand that I am free to withdraw at any time without incurring any penalty. Please consent by clicking the button below to continue. Otherwise, please exit the study at any time. </p>","0","","","","","","","","","","","","","","","","","","","","","","","",""
"","","","","","instructions","3","63266","0.0-3.0-0.0","63d3f95bba922834f0e8ac39","665500ab8938657b03fbdba8","6657926fec682fff2873a3b0","56487","","","[{""page_index"":0,""viewing_time"":2281},{""page_index"":1,""viewing_time"":3312},{""page_index"":2,""viewing_time"":4112},{""page_index"":3,""viewing_time"":5082},{""page_index"":4,""viewing_time"":4732},{""page_index"":5,""viewing_time"":2922},{""page_index"":6,""viewing_time"":3942},{""page_index"":7,""viewing_time"":3772},{""page_index"":8,""viewing_time"":3402},{""page_index"":9,""viewing_time"":2792},{""page_index"":10,""viewing_time"":8362},{""page_index"":11,""viewing_time"":6732},{""page_index"":12,""viewing_time"":3822},{""page_index"":13,""viewing_time"":1222}]","intro","","","","","","","","","","","","","","","","","","","","","",""
"","","","","","image-keyboard-response","4","66813","0.0-3.0-1.0","63d3f95bba922834f0e8ac39","665500ab8938657b03fbdba8","6657926fec682fff2873a3b0","3543","stimuli/1101001.jpg","1","","prediction_practice","1","{""filepath"":""stimuli/1101001.jpg"",""ball_pos"":1,""ego_ball_visible"":true,""ego_can_infer"":true,""alter_ball_visible"":true,""alter_can_infer"":true,""collective_ball_visible"":true,""collective_can_infer"":true,""search_locations"":[1],""alter_occluders"":""101"",""ego_occluders"":""001""}","true","","","","","","","","","","","","","","","","","","",""
"","","","","","image-keyboard-response","5","69524","0.0-3.0-2.0","63d3f95bba922834f0e8ac39","665500ab8938657b03fbdba8","6657926fec682fff2873a3b0","2708","stimuli/11010011.jpg"," ","","practrice_feedback","1","","","","","","","","","","","","","","","","","","","","",""
"","","","","","image-keyboard-response","6","71316","0.0-3.0-3.0","63d3f95bba922834f0e8ac39","665500ab8938657b03fbdba8","6657926fec682fff2873a3b0","1789","stimuli/1001010.jpg","0","","prediction_practice","1","{""filepath"":""stimuli/1001010.jpg"",""ball_pos"":1,""ego_ball_visible"":false,""ego_can_infer"":true,""alter_ball_visible"":true,""alter_can_infer"":true,""collective_ball_visible"":false,""collective_can_infer"":true,""search_locations"":[1],""alter_occluders"":""001"",""ego_occluders"":""010""}","false","","","","","","","","","","","","","","","","","","",""
"","","","","","image-keyboard-response","7","75540","0.0-3.0-4.0","63d3f95bba922834f0e8ac39","665500ab8938657b03fbdba8","6657926fec682fff2873a3b0","4221","stimuli/10010101.jpg"," ","","practrice_feedback","1","","","","","","","","","","","","","","","","","","","","",""
"","","","","","image-keyboard-response","8","77508","0.0-3.0-5.0","63d3f95bba922834f0e8ac39","665500ab8938657b03fbdba8","6657926fec682fff2873a3b0","1965","stimuli/1110111.jpg","2","","prediction_practice","0","{""filepath"":""stimuli/1110111.jpg"",""ball_pos"":1,""ego_ball_visible"":false,""ego_can_infer"":false,""alter_ball_visible"":false,""alter_can_infer"":false,""collective_ball_visible"":false,""collective_can_infer"":false,""search_locations"":[0,1],""alter_occluders"":""110"",""ego_occluders"":""111""}","false","","","","","","","","","","","","","","","","","","",""
"","","","","","image-keyboard-response","9","80028","0.0-3.0-6.0","63d3f95bba922834f0e8ac39","665500ab8938657b03fbdba8","6657926fec682fff2873a3b0","2518","stimuli/11101110.jpg"," ","","practrice_feedback","0","","","","","","","","","","","","","","","","","","","","",""
"","","","","","image-keyboard-response","10","82012","0.0-3.0-7.0","63d3f95bba922834f0e8ac39","665500ab8938657b03fbdba8","6657926fec682fff2873a3b0","1981","stimuli/2101011.jpg","1","","prediction_practice","2","{""filepath"":""stimuli/2101011.jpg"",""ball_pos"":2,""ego_ball_visible"":false,""ego_can_infer"":false,""alter_ball_visible"":false,""alter_can_infer"":false,""collective_ball_visible"":false,""collective_can_infer"":false,""search_locations"":[0,2],""alter_occluders"":""101"",""ego_occluders"":""011""}","false","","","","","","","","","","","","","","","","","","",""
"","","","","","image-keyboard-response","11","83948","0.0-3.0-8.0","63d3f95bba922834f0e8ac39","665500ab8938657b03fbdba8","6657926fec682fff2873a3b0","1933","stimuli/21010112.jpg"," ","","practrice_feedback","0","","","","","","","","","","","","","","","","","","","","",""
"","","","","","image-keyboard-response","12","85364","0.0-3.0-9.0","63d3f95bba922834f0e8ac39","665500ab8938657b03fbdba8","6657926fec682fff2873a3b0","1414","stimuli/2000111.jpg","0","","prediction_practice","2","{""filepath"":""stimuli/2000111.jpg"",""ball_pos"":2,""ego_ball_visible"":false,""ego_can_infer"":false,""alter_ball_visible"":true,""alter_can_infer"":true,""collective_ball_visible"":false,""collective_can_infer"":false,""search_locations"":[2],""alter_occluders"":""000"",""ego_occluders"":""111""}","false","","","","","","","","","","","","","","","","","","",""
"","","","","","image-keyboard-response","13","86268","0.0-3.0-10.0","63d3f95bba922834f0e8ac39","665500ab8938657b03fbdba8","6657926fec682fff2873a3b0","895","stimuli/20001112.jpg"," ","","practrice_feedback","2","","","","","","","","","","","","","","","","","","","","",""
"","","","","","image-keyboard-response","14","87484","0.0-3.0-11.0","63d3f95bba922834f0e8ac39","665500ab8938657b03fbdba8","6657926fec682fff2873a3b0","1213","stimuli/2111000.jpg","2","","prediction_practice","1","{""filepath"":""stimuli/2111000.jpg"",""ball_pos"":2,""ego_ball_visible"":true,""ego_can_infer"":true,""alter_ball_visible"":false,""alter_can_infer"":false,""collective_ball_visible"":false,""collective_can_infer"":false,""search_locations"":[1,0,2],""alter_occluders"":""111"",""ego_occluders"":""000""}","false","","","","","","","","","","","","","","","","","","",""
"","","","","","image-keyboard-response","15","88420","0.0-3.0-12.0","63d3f95bba922834f0e8ac39","665500ab8938657b03fbdba8","6657926fec682fff2873a3b0","933","stimuli/21110001.jpg"," ","","practrice_feedback","1","","","","","","","","","","","","","","","","","","","","",""
"","","","","","image-keyboard-response","16","89244","0.0-3.0-13.0","63d3f95bba922834f0e8ac39","665500ab8938657b03fbdba8","6657926fec682fff2873a3b0","822","stimuli/1000001.jpg","1","","prediction_practice","1","{""filepath"":""stimuli/1000001.jpg"",""ball_pos"":1,""ego_ball_visible"":true,""ego_can_infer"":true,""alter_ball_visible"":true,""alter_can_infer"":true,""collective_ball_visible"":true,""collective_can_infer"":true,""search_locations"":[1],""alter_occluders"":""000"",""ego_occluders"":""001""}","true","","","","","","","","","","","","","","","","","","",""
"","","","","","image-keyboard-response","17","90020","0.0-3.0-14.0","63d3f95bba922834f0e8ac39","665500ab8938657b03fbdba8","6657926fec682fff2873a3b0","773","stimuli/10000011.jpg"," ","","practrice_feedback","1","","","","","","","","","","","","","","","","","","","","",""
"","","","","","image-keyboard-response","18","91132","0.0-3.0-15.0","63d3f95bba922834f0e8ac39","665500ab8938657b03fbdba8","6657926fec682fff2873a3b0","1109","stimuli/0110011.jpg","0","","prediction_practice","1","{""filepath"":""stimuli/0110011.jpg"",""ball_pos"":0,""ego_ball_visible"":true,""ego_can_infer"":true,""alter_ball_visible"":false,""alter_can_infer"":false,""collective_ball_visible"":false,""collective_can_infer"":false,""search_locations"":[0,1],""alter_occluders"":""110"",""ego_occluders"":""011""}","false","","","","","","","","","","","","","","","","","","",""
"","","","","","image-keyboard-response","19","91796","0.0-3.0-16.0","63d3f95bba922834f0e8ac39","665500ab8938657b03fbdba8","6657926fec682fff2873a3b0","661","stimuli/01100111.jpg"," ","","practrice_feedback","0","","","","","","","","","","","","","","","","","","","","",""
"","","","","","image-keyboard-response","20","93484","0.0-3.0-17.0","63d3f95bba922834f0e8ac39","665500ab8938657b03fbdba8","6657926fec682fff2873a3b0","1685","stimuli/2101100.jpg","2","","prediction_practice","2","{""filepath"":""stimuli/2101100.jpg"",""ball_pos"":2,""ego_ball_visible"":true,""ego_can_infer"":true,""alter_ball_visible"":false,""alter_can_infer"":false,""collective_ball_visible"":false,""collective_can_infer"":false,""search_locations"":[0,2],""alter_occluders"":""101"",""ego_occluders"":""100""}","true","","","","","","","","","","","","","","","","","","",""
"","","","","","image-keyboard-response","21","94324","0.0-3.0-18.0","63d3f95bba922834f0e8ac39","665500ab8938657b03fbdba8","6657926fec682fff2873a3b0","837","stimuli/21011002.jpg"," ","","practrice_feedback","0","","","","","","","","","","","","","","","","","","","","",""
"","","","","","image-keyboard-response","22","95884","0.0-3.0-19.0","63d3f95bba922834f0e8ac39","665500ab8938657b03fbdba8","6657926fec682fff2873a3b0","1557","stimuli/0011111.jpg","2","","prediction_practice","0","{""filepath"":""stimuli/0011111.jpg"",""ball_pos"":0,""ego_ball_visible"":false,""ego_can_infer"":false,""alter_ball_visible"":true,""alter_can_infer"":true,""collective_ball_visible"":false,""collective_can_infer"":false,""search_locations"":[0],""alter_occluders"":""011"",""ego_occluders"":""111""}","false","","","","","","","","","","","","","","","","","","",""
"","","","","","image-keyboard-response","23","96540","0.0-3.0-20.0","63d3f95bba922834f0e8ac39","665500ab8938657b03fbdba8","6657926fec682fff2873a3b0","648","stimuli/00111110.jpg"," ","","practrice_feedback","0","","","","","","","","","","","","","","","","","","","","",""
"","","","","","html-button-response","24","100107","0.0-3.0-21.0","63d3f95bba922834f0e8ac39","665500ab8938657b03fbdba8","6657926fec682fff2873a3b0","3566","Now that you've had some practice, you'll be tested with a couple of easy trials. If you correctly predict Sam's choice, you'll move on to complete the experiment!","0","","","","","","","","","","","","","","","","","","","","","","","",""
"","","","","","image-keyboard-response","25","101812","0.0-3.0-22.0-0.0","63d3f95bba922834f0e8ac39","665500ab8938657b03fbdba8","6657926fec682fff2873a3b0","1702","stimuli/0000011.jpg","arrowleft","","comprehension_quiz","","","true","arrowleft","","","","","","","","","","","","","","","","","",""
"","","","","","image-keyboard-response","26","103100","0.0-3.0-22.0-1.0","63d3f95bba922834f0e8ac39","665500ab8938657b03fbdba8","6657926fec682fff2873a3b0","1285","stimuli/00000110.jpg"," ","","comprehension_quiz","","","true"," ","","","","","","","","","","","","","","","","","",""
"","","","","","image-keyboard-response","27","104980","0.0-3.0-22.0-2.0","63d3f95bba922834f0e8ac39","665500ab8938657b03fbdba8","6657926fec682fff2873a3b0","1877","stimuli/1010010.jpg","arrowdown","","comprehension_quiz","","","true","arrowdown","","","","","","","","","","","","","","","","","",""
"","","","","","image-keyboard-response","28","105660","0.0-3.0-22.0-3.0","63d3f95bba922834f0e8ac39","665500ab8938657b03fbdba8","6657926fec682fff2873a3b0","677","stimuli/10100101.jpg"," ","","comprehension_quiz","","","true"," ","","","","","","","","","","","","","","","","","",""
"","","","","","html-button-response","29","107299","0.0-4.0","63d3f95bba922834f0e8ac39","665500ab8938657b03fbdba8","6657926fec682fff2873a3b0","1638","The experiment will now begin.","0","","","","","","","","","","","","","","","","","","","","","","","",""
"","","","","","image-keyboard-response","30","109764","0.0-5.0","63d3f95bba922834f0e8ac39","665500ab8938657b03fbdba8","6657926fec682fff2873a3b0","2462","stimuli/0101100.jpg","0","","prediction_trial","2","","false","","0","false","true","false","false","false","false","[2,0]","101","100","0","","","","","","",""
"","","","","","image-keyboard-response","31","110628","0.0-6.0","63d3f95bba922834f0e8ac39","665500ab8938657b03fbdba8","6657926fec682fff2873a3b0","861","stimuli/01011002.jpg"," ","","feedback_trial","2","","","","","","","","","","","","","","","","","","","","",""
"","","","","","image-keyboard-response","32","111436","0.0-7.0","63d3f95bba922834f0e8ac39","665500ab8938657b03fbdba8","6657926fec682fff2873a3b0","805","stimuli/2100010.jpg","2","","prediction_trial","2","","true","","2","true","true","true","true","true","true","[2]","100","010","1","","","","","","",""
"","","","","","image-keyboard-response","33","112220","0.0-8.0","63d3f95bba922834f0e8ac39","665500ab8938657b03fbdba8","6657926fec682fff2873a3b0","781","stimuli/21000102.jpg"," ","","feedback_trial","2","","","","","","","","","","","","","","","","","","","","",""
"","","","","","image-keyboard-response","34","112884","0.0-9.0","63d3f95bba922834f0e8ac39","665500ab8938657b03fbdba8","6657926fec682fff2873a3b0","661","stimuli/1000000.jpg","1","","prediction_trial","1","","true","","1","true","true","true","true","true","true","[1]","000","000","1","","","","","","",""
"","","","","","image-keyboard-response","35","113532","0.0-10.0","63d3f95bba922834f0e8ac39","665500ab8938657b03fbdba8","6657926fec682fff2873a3b0","645","stimuli/10000001.jpg"," ","","feedback_trial","1","","","","","","","","","","","","","","","","","","","","",""
"","","","","","image-keyboard-response","36","114164","0.0-11.0","63d3f95bba922834f0e8ac39","665500ab8938657b03fbdba8","6657926fec682fff2873a3b0","629","stimuli/2000000.jpg","2","","prediction_trial","2","","true","","2","true","true","true","true","true","true","[2]","000","000","1","","","","","","",""
"","","","","","image-keyboard-response","37","114652","0.0-12.0","63d3f95bba922834f0e8ac39","665500ab8938657b03fbdba8","6657926fec682fff2873a3b0","485","stimuli/20000002.jpg"," ","","feedback_trial","2","","","","","","","","","","","","","","","","","","","","",""
"","","","","","image-keyboard-response","38","116004","0.0-13.0","63d3f95bba922834f0e8ac39","665500ab8938657b03fbdba8","6657926fec682fff2873a3b0","1350","stimuli/2001001.jpg","2","","prediction_trial","2","","true","","2","false","true","false","true","false","true","[2]","001","001","1","","","","","","",""
"","","","","","image-keyboard-response","39","116532","0.0-14.0","63d3f95bba922834f0e8ac39","665500ab8938657b03fbdba8","6657926fec682fff2873a3b0","525","stimuli/20010012.jpg"," ","","feedback_trial","2","","","","","","","","","","","","","","","","","","","","",""
"","","","","","image-keyboard-response","40","117284","0.0-15.0","63d3f95bba922834f0e8ac39","665500ab8938657b03fbdba8","6657926fec682fff2873a3b0","750","stimuli/0010010.jpg","0","","prediction_trial","0","","true","","0","true","true","true","true","true","true","[0]","010","010","1","","","","","","",""
"","","","","","image-keyboard-response","41","117772","0.0-16.0","63d3f95bba922834f0e8ac39","665500ab8938657b03fbdba8","6657926fec682fff2873a3b0","485","stimuli/00100100.jpg"," ","","feedback_trial","0","","","","","","","","","","","","","","","","","","","","",""
"","","","","","image-keyboard-response","42","118820","0.0-17.0","63d3f95bba922834f0e8ac39","665500ab8938657b03fbdba8","6657926fec682fff2873a3b0","1045","stimuli/1111011.jpg","1","","prediction_trial","2","","false","","1","false","false","false","false","false","false","[2,0,1]","111","011","0","","","","","","",""
"","","","","","image-keyboard-response","43","119388","0.0-18.0","63d3f95bba922834f0e8ac39","665500ab8938657b03fbdba8","6657926fec682fff2873a3b0","565","stimuli/11110112.jpg"," ","","feedback_trial","2","","","","","","","","","","","","","","","","","","","","",""
"","","","","","image-keyboard-response","44","120532","0.0-19.0","63d3f95bba922834f0e8ac39","665500ab8938657b03fbdba8","6657926fec682fff2873a3b0","1141","stimuli/1011101.jpg","1","","prediction_trial","2","","false","","1","true","true","false","false","false","false","[2,1]","011","101","0","","","","","","",""
"","","","","","image-keyboard-response","45","121116","0.0-20.0","63d3f95bba922834f0e8ac39","665500ab8938657b03fbdba8","6657926fec682fff2873a3b0","581","stimuli/10111012.jpg"," ","","feedback_trial","2","","","","","","","","","","","","","","","","","","","","",""
"","","","","","image-keyboard-response","46","121740","0.0-21.0","63d3f95bba922834f0e8ac39","665500ab8938657b03fbdba8","6657926fec682fff2873a3b0","621","stimuli/2000110.jpg","2","","prediction_trial","2","","true","","2","true","true","true","true","true","true","[2]","000","110","1","","","","","","",""
"","","","","","image-keyboard-response","47","122356","0.0-22.0","63d3f95bba922834f0e8ac39","665500ab8938657b03fbdba8","6657926fec682fff2873a3b0","613","stimuli/20001102.jpg"," ","","feedback_trial","2","","","","","","","","","","","","","","","","","","","","",""
"","","","","","image-keyboard-response","48","123844","0.0-23.0","63d3f95bba922834f0e8ac39","665500ab8938657b03fbdba8","6657926fec682fff2873a3b0","1485","stimuli/1011001.jpg","1","","prediction_trial","1","","true","","1","true","true","false","false","false","false","[1,2]","011","001","1","","","","","","",""
"","","","","","image-keyboard-response","49","124548","0.0-24.0","63d3f95bba922834f0e8ac39","665500ab8938657b03fbdba8","6657926fec682fff2873a3b0","701","stimuli/10110011.jpg"," ","","feedback_trial","1","","","","","","","","","","","","","","","","","","","","",""
"","","","","","image-keyboard-response","50","126052","0.0-25.0","63d3f95bba922834f0e8ac39","665500ab8938657b03fbdba8","6657926fec682fff2873a3b0","1501","stimuli/0001101.jpg","0","","prediction_trial","0","","true","","0","false","false","true","true","false","false","[0]","001","101","1","","","","","","",""
"","","","","","image-keyboard-response","51","126836","0.0-26.0","63d3f95bba922834f0e8ac39","665500ab8938657b03fbdba8","6657926fec682fff2873a3b0","781","stimuli/00011010.jpg"," ","","feedback_trial","0","","","","","","","","","","","","","","","","","","","","",""
"","","","","","image-keyboard-response","52","127836","0.0-27.0","63d3f95bba922834f0e8ac39","665500ab8938657b03fbdba8","6657926fec682fff2873a3b0","997","stimuli/2100101.jpg","2","","prediction_trial","2","","true","","2","false","false","true","true","false","false","[2]","100","101","1","","","","","","",""
"","","","","","image-keyboard-response","53","128500","0.0-28.0","63d3f95bba922834f0e8ac39","665500ab8938657b03fbdba8","6657926fec682fff2873a3b0","661","stimuli/21001012.jpg"," ","","feedback_trial","2","","","","","","","","","","","","","","","","","","","","",""
"","","","","","image-keyboard-response","54","130324","0.0-29.0","63d3f95bba922834f0e8ac39","665500ab8938657b03fbdba8","6657926fec682fff2873a3b0","1821","stimuli/2100011.jpg","2","","prediction_trial","2","","true","","2","false","false","true","true","false","false","[2]","100","011","1","","","","","","",""
"","","","","","image-keyboard-response","55","131036","0.0-30.0","63d3f95bba922834f0e8ac39","665500ab8938657b03fbdba8","6657926fec682fff2873a3b0","696","stimuli/21000112.jpg"," ","","feedback_trial","2","","","","","","","","","","","","","","","","","","","","",""
"","","","","","image-keyboard-response","56","132484","0.0-31.0","63d3f95bba922834f0e8ac39","665500ab8938657b03fbdba8","6657926fec682fff2873a3b0","1446","stimuli/0001100.jpg","0","","prediction_trial","0","","true","","0","false","true","true","true","false","true","[0]","001","100","1","","","","","","",""
"","","","","","image-keyboard-response","57","133100","0.0-32.0","63d3f95bba922834f0e8ac39","665500ab8938657b03fbdba8","6657926fec682fff2873a3b0","613","stimuli/00011000.jpg"," ","","feedback_trial","0","","","","","","","","","","","","","","","","","","","","",""
"","","","","","image-keyboard-response","58","135404","0.0-33.0","63d3f95bba922834f0e8ac39","665500ab8938657b03fbdba8","6657926fec682fff2873a3b0","2301","stimuli/2001110.jpg","1","","prediction_trial","2","","false","","2","true","true","false","true","false","true","[2]","001","110","0","","","","","","",""
"","","","","","image-keyboard-response","59","136020","0.0-34.0","63d3f95bba922834f0e8ac39","665500ab8938657b03fbdba8","6657926fec682fff2873a3b0","613","stimuli/20011102.jpg"," ","","feedback_trial","2","","","","","","","","","","","","","","","","","","","","",""
"","","","","","image-keyboard-response","60","138052","0.0-35.0","63d3f95bba922834f0e8ac39","665500ab8938657b03fbdba8","6657926fec682fff2873a3b0","2029","stimuli/0100101.jpg","2","","prediction_trial","0","","false","","0","false","false","false","true","false","false","[0]","100","101","0","","","","","","",""
"","","","","","image-keyboard-response","61","138652","0.0-36.0","63d3f95bba922834f0e8ac39","665500ab8938657b03fbdba8","6657926fec682fff2873a3b0","597","stimuli/01001010.jpg"," ","","feedback_trial","0","","","","","","","","","","","","","","","","","","","","",""
"","","","","","image-keyboard-response","62","140003","0.0-37.0","63d3f95bba922834f0e8ac39","665500ab8938657b03fbdba8","6657926fec682fff2873a3b0","1349","stimuli/1010110.jpg","0","","prediction_trial","1","","false","","1","false","false","false","true","false","false","[1]","010","110","0","","","","","","",""
"","","","","","image-keyboard-response","63","140555","0.0-38.0","63d3f95bba922834f0e8ac39","665500ab8938657b03fbdba8","6657926fec682fff2873a3b0","550","stimuli/10101101.jpg"," ","","feedback_trial","1","","","","","","","","","","","","","","","","","","","","",""
"","","","","","image-keyboard-response","64","141300","0.0-39.0","63d3f95bba922834f0e8ac39","665500ab8938657b03fbdba8","6657926fec682fff2873a3b0","741","stimuli/2101110.jpg","0","","prediction_trial","0","","true","","2","true","true","false","false","false","false","[2,0]","101","110","1","","","","","","",""
"","","","","","image-keyboard-response","65","141891","0.0-40.0","63d3f95bba922834f0e8ac39","665500ab8938657b03fbdba8","6657926fec682fff2873a3b0","584","stimuli/21011100.jpg"," ","","feedback_trial","2","","","","","","","","","","","","","","","","","","","","",""
"","","","","","image-keyboard-response","66","142555","0.0-41.0","63d3f95bba922834f0e8ac39","665500ab8938657b03fbdba8","6657926fec682fff2873a3b0","661","stimuli/0010000.jpg","0","","prediction_trial","0","","true","","0","true","true","true","true","true","true","[0]","010","000","1","","","","","","",""
"","","","","","image-keyboard-response","67","142955","0.0-42.0","63d3f95bba922834f0e8ac39","665500ab8938657b03fbdba8","6657926fec682fff2873a3b0","397","stimuli/00100000.jpg"," ","","feedback_trial","0","","","","","","","","","","","","","","","","","","","","",""
"","","","","","image-keyboard-response","68","143499","0.0-43.0","63d3f95bba922834f0e8ac39","665500ab8938657b03fbdba8","6657926fec682fff2873a3b0","541","stimuli/1001000.jpg","1","","prediction_trial","1","","true","","1","true","true","true","true","true","true","[1]","001","000","1","","","","","","",""
"","","","","","image-keyboard-response","69","143875","0.0-44.0","63d3f95bba922834f0e8ac39","665500ab8938657b03fbdba8","6657926fec682fff2873a3b0","373","stimuli/10010001.jpg"," ","","feedback_trial","1","","","","","","","","","","","","","","","","","","","","",""
"","","","","","image-keyboard-response","70","144347","0.0-45.0","63d3f95bba922834f0e8ac39","665500ab8938657b03fbdba8","6657926fec682fff2873a3b0","469","stimuli/1100101.jpg","1","","prediction_trial","1","","true","","1","true","true","true","true","true","true","[1]","100","101","1","","","","","","",""
"","","","","","image-keyboard-response","71","144699","0.0-46.0","63d3f95bba922834f0e8ac39","665500ab8938657b03fbdba8","6657926fec682fff2873a3b0","349","stimuli/11001011.jpg"," ","","feedback_trial","1","","","","","","","","","","","","","","","","","","","","",""
"","","","","","image-keyboard-response","72","145587","0.0-47.0","63d3f95bba922834f0e8ac39","665500ab8938657b03fbdba8","6657926fec682fff2873a3b0","885","stimuli/2010001.jpg","2","","prediction_trial","2","","true","","2","false","true","true","true","false","true","[2]","010","001","1","","","","","","",""
"","","","","","image-keyboard-response","73","145891","0.0-48.0","63d3f95bba922834f0e8ac39","665500ab8938657b03fbdba8","6657926fec682fff2873a3b0","301","stimuli/20100012.jpg"," ","","feedback_trial","2","","","","","","","","","","","","","","","","","","","","",""
"","","","","","image-keyboard-response","74","146931","0.0-49.0","63d3f95bba922834f0e8ac39","665500ab8938657b03fbdba8","6657926fec682fff2873a3b0","1038","stimuli/1000010.jpg","1","","prediction_trial","1","","true","","1","false","true","true","true","false","true","[1]","000","010","1","","","","","","",""
"","","","","","image-keyboard-response","75","147235","0.0-50.0","63d3f95bba922834f0e8ac39","665500ab8938657b03fbdba8","6657926fec682fff2873a3b0","295","stimuli/10000101.jpg"," ","","feedback_trial","1","","","","","","","","","","","","","","","","","","","","",""
"","","","","","image-keyboard-response","76","149028","0.0-51.0","63d3f95bba922834f0e8ac39","665500ab8938657b03fbdba8","6657926fec682fff2873a3b0","1789","stimuli/1110010.jpg","1","","prediction_trial","0","","false","","1","false","true","false","false","false","false","[0,1]","110","010","0","","","","","","",""
"","","","","","image-keyboard-response","77","149771","0.0-52.0","63d3f95bba922834f0e8ac39","665500ab8938657b03fbdba8","6657926fec682fff2873a3b0","741","stimuli/11100100.jpg"," ","","feedback_trial","0","","","","","","","","","","","","","","","","","","","","",""
"","","","","","image-keyboard-response","78","150787","0.0-53.0","63d3f95bba922834f0e8ac39","665500ab8938657b03fbdba8","6657926fec682fff2873a3b0","1013","stimuli/0000110.jpg","1","","prediction_trial","0","","false","","0","false","false","true","true","false","false","[0]","000","110","0","","","","","","",""
"","","","","","image-keyboard-response","79","151268","0.0-54.0","63d3f95bba922834f0e8ac39","665500ab8938657b03fbdba8","6657926fec682fff2873a3b0","478","stimuli/00001100.jpg"," ","","feedback_trial","0","","","","","","","","","","","","","","","","","","","","",""
"","","","","","image-keyboard-response","80","152131","0.0-55.0","63d3f95bba922834f0e8ac39","665500ab8938657b03fbdba8","6657926fec682fff2873a3b0","861","stimuli/0010111.jpg","2","","prediction_trial","0","","false","","0","false","false","true","true","false","false","[0]","010","111","0","","","","","","",""
"","","","","","image-keyboard-response","81","152739","0.0-56.0","63d3f95bba922834f0e8ac39","665500ab8938657b03fbdba8","6657926fec682fff2873a3b0","605","stimuli/00101110.jpg"," ","","feedback_trial","0","","","","","","","","","","","","","","","","","","","","",""
"","","","","","image-keyboard-response","82","153691","0.0-57.0","63d3f95bba922834f0e8ac39","665500ab8938657b03fbdba8","6657926fec682fff2873a3b0","949","stimuli/0111011.jpg","0","","prediction_trial","1","","false","","0","true","true","false","false","false","false","[1,0,2]","111","011","0","","","","","","",""
"","","","","","image-keyboard-response","83","154147","0.0-58.0","63d3f95bba922834f0e8ac39","665500ab8938657b03fbdba8","6657926fec682fff2873a3b0","453","stimuli/01110111.jpg"," ","","feedback_trial","1","","","","","","","","","","","","","","","","","","","","",""
"","","","","","image-keyboard-response","84","154995","0.0-59.0","63d3f95bba922834f0e8ac39","665500ab8938657b03fbdba8","6657926fec682fff2873a3b0","845","stimuli/2101010.jpg","2","","prediction_trial","2","","true","","2","true","true","false","false","false","false","[2,0]","101","010","1","","","","","","",""
"","","","","","image-keyboard-response","85","155483","0.0-60.0","63d3f95bba922834f0e8ac39","665500ab8938657b03fbdba8","6657926fec682fff2873a3b0","480","stimuli/21010102.jpg"," ","","feedback_trial","2","","","","","","","","","","","","","","","","","","","","",""
"","","","","","image-keyboard-response","86","156875","0.0-61.0","63d3f95bba922834f0e8ac39","665500ab8938657b03fbdba8","6657926fec682fff2873a3b0","1389","stimuli/1010011.jpg","2","","prediction_trial","1","","false","","1","false","false","false","true","false","false","[1]","010","011","0","","","","","","",""
"","","","","","image-keyboard-response","87","157715","0.0-62.0","63d3f95bba922834f0e8ac39","665500ab8938657b03fbdba8","6657926fec682fff2873a3b0","838","stimuli/10100111.jpg"," ","","feedback_trial","1","","","","","","","","","","","","","","","","","","","","",""
"","","","","","image-keyboard-response","88","159227","0.0-63.0","63d3f95bba922834f0e8ac39","665500ab8938657b03fbdba8","6657926fec682fff2873a3b0","1510","stimuli/2001111.jpg","1","","prediction_trial","2","","false","","2","false","false","false","true","false","false","[2]","001","111","0","","","","","","",""
"","","","","","image-keyboard-response","89","159703","0.0-64.0","63d3f95bba922834f0e8ac39","665500ab8938657b03fbdba8","6657926fec682fff2873a3b0","473","stimuli/20011112.jpg"," ","","feedback_trial","2","","","","","","","","","","","","","","","","","","","","",""
"","","","","","image-keyboard-response","90","160355","0.0-65.0","63d3f95bba922834f0e8ac39","665500ab8938657b03fbdba8","6657926fec682fff2873a3b0","649","stimuli/2110100.jpg","2","","prediction_trial","2","","true","","2","true","true","true","true","true","true","[2]","110","100","1","","","","","","",""
"","","","","","image-keyboard-response","91","160707","0.0-66.0","63d3f95bba922834f0e8ac39","665500ab8938657b03fbdba8","6657926fec682fff2873a3b0","349","stimuli/21101002.jpg"," ","","feedback_trial","2","","","","","","","","","","","","","","","","","","","","",""
"","","","","","image-keyboard-response","92","161867","0.0-67.0","63d3f95bba922834f0e8ac39","665500ab8938657b03fbdba8","6657926fec682fff2873a3b0","1157","stimuli/2111010.jpg","2","","prediction_trial","2","","true","","2","true","true","false","false","false","false","[0,1,2]","111","010","1","","","","","","",""
"","","","","","image-keyboard-response","93","162323","0.0-68.0","63d3f95bba922834f0e8ac39","665500ab8938657b03fbdba8","6657926fec682fff2873a3b0","453","stimuli/21110102.jpg"," ","","feedback_trial","0","","","","","","","","","","","","","","","","","","","","",""
"","","","","","image-keyboard-response","94","163611","0.0-69.0","63d3f95bba922834f0e8ac39","665500ab8938657b03fbdba8","6657926fec682fff2873a3b0","1285","stimuli/1011110.jpg","0","","prediction_trial","1","","false","","1","false","false","false","false","false","false","[2,1]","011","110","0","","","","","","",""
"","","","","","image-keyboard-response","95","164115","0.0-70.0","63d3f95bba922834f0e8ac39","665500ab8938657b03fbdba8","6657926fec682fff2873a3b0","501","stimuli/10111101.jpg"," ","","feedback_trial","2","","","","","","","","","","","","","","","","","","","","",""
"","","","","","image-keyboard-response","96","164675","0.0-71.0","63d3f95bba922834f0e8ac39","665500ab8938657b03fbdba8","6657926fec682fff2873a3b0","557","stimuli/0001001.jpg","0","","prediction_trial","0","","true","","0","true","true","true","true","true","true","[0]","001","001","1","","","","","","",""
"","","","","","image-keyboard-response","97","164971","0.0-72.0","63d3f95bba922834f0e8ac39","665500ab8938657b03fbdba8","6657926fec682fff2873a3b0","294","stimuli/00010010.jpg"," ","","feedback_trial","0","","","","","","","","","","","","","","","","","","","","",""
"","","","","","image-keyboard-response","98","165547","0.0-73.0","63d3f95bba922834f0e8ac39","665500ab8938657b03fbdba8","6657926fec682fff2873a3b0","573","stimuli/2110000.jpg","2","","prediction_trial","2","","true","","2","true","true","true","true","true","true","[2]","110","000","1","","","","","","",""
"","","","","","image-keyboard-response","99","165907","0.0-74.0","63d3f95bba922834f0e8ac39","665500ab8938657b03fbdba8","6657926fec682fff2873a3b0","357","stimuli/21100002.jpg"," ","","feedback_trial","2","","","","","","","","","","","","","","","","","","","","",""
"","","","","","image-keyboard-response","100","166755","0.0-75.0","63d3f95bba922834f0e8ac39","665500ab8938657b03fbdba8","6657926fec682fff2873a3b0","845","stimuli/2011010.jpg","2","","prediction_trial","1","","false","","2","true","true","false","false","false","false","[1,2]","011","010","0","","","","","","",""
"","","","","","image-keyboard-response","101","167188","0.0-76.0","63d3f95bba922834f0e8ac39","665500ab8938657b03fbdba8","6657926fec682fff2873a3b0","430","stimuli/20110101.jpg"," ","","feedback_trial","1","","","","","","","","","","","","","","","","","","","","",""
"","","","","","image-keyboard-response","102","167763","0.0-77.0","63d3f95bba922834f0e8ac39","665500ab8938657b03fbdba8","6657926fec682fff2873a3b0","573","stimuli/2110010.jpg","2","","prediction_trial","2","","true","","2","true","true","true","true","true","true","[2]","110","010","1","","","","","","",""
"","","","","","image-keyboard-response","103","168083","0.0-78.0","63d3f95bba922834f0e8ac39","665500ab8938657b03fbdba8","6657926fec682fff2873a3b0","317","stimuli/21100102.jpg"," ","","feedback_trial","2","","","","","","","","","","","","","","","","","","","","",""
"","","","","","image-keyboard-response","104","168627","0.0-79.0","63d3f95bba922834f0e8ac39","665500ab8938657b03fbdba8","6657926fec682fff2873a3b0","541","stimuli/1100001.jpg","1","","prediction_trial","1","","true","","1","true","true","true","true","true","true","[1]","100","001","1","","","","","","",""
"","","","","","image-keyboard-response","105","168939","0.0-80.0","63d3f95bba922834f0e8ac39","665500ab8938657b03fbdba8","6657926fec682fff2873a3b0","301","stimuli/11000011.jpg"," ","","feedback_trial","1","","","","","","","","","","","","","","","","","","","","",""
"","","","","","image-keyboard-response","106","170019","0.0-81.0","63d3f95bba922834f0e8ac39","665500ab8938657b03fbdba8","6657926fec682fff2873a3b0","1077","stimuli/0111001.jpg","0","","prediction_trial","2","","false","","0","true","true","false","false","false","false","[1,0,2]","111","001","0","","","","","","",""
"","","","","","image-keyboard-response","107","170563","0.0-82.0","63d3f95bba922834f0e8ac39","665500ab8938657b03fbdba8","6657926fec682fff2873a3b0","541","stimuli/01110012.jpg"," ","","feedback_trial","1","","","","","","","","","","","","","","","","","","","","",""
"","","","","","image-keyboard-response","108","171891","0.0-83.0","63d3f95bba922834f0e8ac39","665500ab8938657b03fbdba8","6657926fec682fff2873a3b0","1325","stimuli/0111110.jpg","1","","prediction_trial","0","","false","","0","false","false","false","false","false","false","[0,1,2]","111","110","0","","","","","","",""
"","","","","","image-keyboard-response","109","172299","0.0-84.0","63d3f95bba922834f0e8ac39","665500ab8938657b03fbdba8","6657926fec682fff2873a3b0","406","stimuli/01111100.jpg"," ","","feedback_trial","0","","","","","","","","","","","","","","","","","","","","",""
"","","","","","image-keyboard-response","110","173283","0.0-85.0","63d3f95bba922834f0e8ac39","665500ab8938657b03fbdba8","6657926fec682fff2873a3b0","981","stimuli/1101011.jpg","1","","prediction_trial","1","","true","","1","false","false","true","true","false","false","[1]","101","011","1","","","","","","",""
"","","","","","image-keyboard-response","111","173835","0.0-86.0","63d3f95bba922834f0e8ac39","665500ab8938657b03fbdba8","6657926fec682fff2873a3b0","549","stimuli/11010111.jpg"," ","","feedback_trial","1","","","","","","","","","","","","","","","","","","","","",""
"","","","","","image-keyboard-response","112","174315","0.0-87.0","63d3f95bba922834f0e8ac39","665500ab8938657b03fbdba8","6657926fec682fff2873a3b0","477","stimuli/1101000.jpg","1","","prediction_trial","1","","true","","1","true","true","true","true","true","true","[1]","101","000","1","","","","","","",""
"","","","","","image-keyboard-response","113","174619","0.0-88.0","63d3f95bba922834f0e8ac39","665500ab8938657b03fbdba8","6657926fec682fff2873a3b0","301","stimuli/11010001.jpg"," ","","feedback_trial","1","","","","","","","","","","","","","","","","","","","","",""
"","","","","","image-keyboard-response","114","175491","0.0-89.0","63d3f95bba922834f0e8ac39","665500ab8938657b03fbdba8","6657926fec682fff2873a3b0","870","stimuli/2101111.jpg","1","","prediction_trial","2","","false","","2","false","false","false","false","false","false","[2,0]","101","111","0","","","","","","",""
"","","","","","image-keyboard-response","115","175931","0.0-90.0","63d3f95bba922834f0e8ac39","665500ab8938657b03fbdba8","6657926fec682fff2873a3b0","431","stimuli/21011112.jpg"," ","","feedback_trial","2","","","","","","","","","","","","","","","","","","","","",""
"","","","","","image-keyboard-response","116","176811","0.0-91.0","63d3f95bba922834f0e8ac39","665500ab8938657b03fbdba8","6657926fec682fff2873a3b0","877","stimuli/0100111.jpg","2","","prediction_trial","0","","false","","0","false","false","false","true","false","false","[0]","100","111","0","","","","","","",""
"","","","","","image-keyboard-response","117","177227","0.0-92.0","63d3f95bba922834f0e8ac39","665500ab8938657b03fbdba8","6657926fec682fff2873a3b0","413","stimuli/01001110.jpg"," ","","feedback_trial","0","","","","","","","","","","","","","","","","","","","","",""
"","","","","","image-keyboard-response","118","178187","0.0-93.0","63d3f95bba922834f0e8ac39","665500ab8938657b03fbdba8","6657926fec682fff2873a3b0","958","stimuli/0110110.jpg","1","","prediction_trial","0","","false","","0","false","false","false","false","false","false","[1,0]","110","110","0","","","","","","",""
"","","","","","image-keyboard-response","119","178555","0.0-94.0","63d3f95bba922834f0e8ac39","665500ab8938657b03fbdba8","6657926fec682fff2873a3b0","365","stimuli/01101100.jpg"," ","","feedback_trial","1","","","","","","","","","","","","","","","","","","","","",""
"","","","","","image-keyboard-response","120","179067","0.0-95.0","63d3f95bba922834f0e8ac39","665500ab8938657b03fbdba8","6657926fec682fff2873a3b0","509","stimuli/1110111.jpg","1","","prediction_trial","0","","false","","1","false","false","false","false","false","false","[0,1]","110","111","0","","","","","","",""
"","","","","","image-keyboard-response","121","179540","0.0-96.0","63d3f95bba922834f0e8ac39","665500ab8938657b03fbdba8","6657926fec682fff2873a3b0","469","stimuli/11101110.jpg"," ","","feedback_trial","0","","","","","","","","","","","","","","","","","","","","",""
"","","","","","image-keyboard-response","122","180316","0.0-97.0","63d3f95bba922834f0e8ac39","665500ab8938657b03fbdba8","6657926fec682fff2873a3b0","773","stimuli/1011010.jpg","1","","prediction_trial","2","","false","","1","false","true","false","false","false","false","[2,1]","011","010","0","","","","","","",""
"","","","","","image-keyboard-response","123","180707","0.0-98.0","63d3f95bba922834f0e8ac39","665500ab8938657b03fbdba8","6657926fec682fff2873a3b0","389","stimuli/10110102.jpg"," ","","feedback_trial","2","","","","","","","","","","","","","","","","","","","","",""
"","","","","","image-keyboard-response","124","181372","0.0-99.0","63d3f95bba922834f0e8ac39","665500ab8938657b03fbdba8","6657926fec682fff2873a3b0","662","stimuli/0010011.jpg","0","","prediction_trial","0","","true","","0","true","true","true","true","true","true","[0]","010","011","1","","","","","","",""
"","","","","","image-keyboard-response","125","181643","0.0-100.0","63d3f95bba922834f0e8ac39","665500ab8938657b03fbdba8","6657926fec682fff2873a3b0","263","stimuli/00100110.jpg"," ","","feedback_trial","0","","","","","","","","","","","","","","","","","","","","",""
"","","","","","image-keyboard-response","126","182644","0.0-101.0","63d3f95bba922834f0e8ac39","665500ab8938657b03fbdba8","6657926fec682fff2873a3b0","998","stimuli/2000101.jpg","0","","prediction_trial","2","","false","","2","false","false","true","true","false","false","[2]","000","101","0","","","","","","",""
"","","","","","image-keyboard-response","127","183035","0.0-102.0","63d3f95bba922834f0e8ac39","665500ab8938657b03fbdba8","6657926fec682fff2873a3b0","389","stimuli/20001012.jpg"," ","","feedback_trial","2","","","","","","","","","","","","","","","","","","","","",""
"","","","","","image-keyboard-response","128","183556","0.0-103.0","63d3f95bba922834f0e8ac39","665500ab8938657b03fbdba8","6657926fec682fff2873a3b0","517","stimuli/0011001.jpg","0","","prediction_trial","0","","true","","0","true","true","true","true","true","true","[0]","011","001","1","","","","","","",""
"","","","","","image-keyboard-response","129","183835","0.0-104.0","63d3f95bba922834f0e8ac39","665500ab8938657b03fbdba8","6657926fec682fff2873a3b0","277","stimuli/00110010.jpg"," ","","feedback_trial","0","","","","","","","","","","","","","","","","","","","","",""
"","","","","","image-keyboard-response","130","184524","0.0-105.0","63d3f95bba922834f0e8ac39","665500ab8938657b03fbdba8","6657926fec682fff2873a3b0","686","stimuli/1000001.jpg","1","","prediction_trial","1","","true","","1","true","true","true","true","true","true","[1]","000","001","1","","","","","","",""
"","","","","","image-keyboard-response","131","184787","0.0-106.0","63d3f95bba922834f0e8ac39","665500ab8938657b03fbdba8","6657926fec682fff2873a3b0","261","stimuli/10000011.jpg"," ","","feedback_trial","1","","","","","","","","","","","","","","","","","","","","",""
"","","","","","image-keyboard-response","132","185692","0.0-107.0","63d3f95bba922834f0e8ac39","665500ab8938657b03fbdba8","6657926fec682fff2873a3b0","901","stimuli/1100110.jpg","0","","prediction_trial","1","","false","","1","false","false","true","true","false","false","[1]","100","110","0","","","","","","",""
"","","","","","image-keyboard-response","133","186075","0.0-108.0","63d3f95bba922834f0e8ac39","665500ab8938657b03fbdba8","6657926fec682fff2873a3b0","381","stimuli/11001101.jpg"," ","","feedback_trial","1","","","","","","","","","","","","","","","","","","","","",""
"","","","","","image-keyboard-response","134","186595","0.0-109.0","63d3f95bba922834f0e8ac39","665500ab8938657b03fbdba8","6657926fec682fff2873a3b0","517","stimuli/0001010.jpg","0","","prediction_trial","0","","true","","0","true","true","true","true","true","true","[0]","001","010","1","","","","","","",""
"","","","","","image-keyboard-response","135","186835","0.0-110.0","63d3f95bba922834f0e8ac39","665500ab8938657b03fbdba8","6657926fec682fff2873a3b0","237","stimuli/00010100.jpg"," ","","feedback_trial","0","","","","","","","","","","","","","","","","","","","","",""
"","","","","","image-keyboard-response","136","187476","0.0-111.0","63d3f95bba922834f0e8ac39","665500ab8938657b03fbdba8","6657926fec682fff2873a3b0","637","stimuli/0001110.jpg","1","","prediction_trial","0","","false","","0","false","false","true","true","false","false","[0]","001","110","0","","","","","","",""
"","","","","","image-keyboard-response","137","187860","0.0-112.0","63d3f95bba922834f0e8ac39","665500ab8938657b03fbdba8","6657926fec682fff2873a3b0","381","stimuli/00011100.jpg"," ","","feedback_trial","0","","","","","","","","","","","","","","","","","","","","",""
"","","","","","image-keyboard-response","138","188460","0.0-113.0","63d3f95bba922834f0e8ac39","665500ab8938657b03fbdba8","6657926fec682fff2873a3b0","597","stimuli/2010110.jpg","2","","prediction_trial","2","","true","","2","true","true","true","true","true","true","[2]","010","110","1","","","","","","",""
"","","","","","image-keyboard-response","139","188731","0.0-114.0","63d3f95bba922834f0e8ac39","665500ab8938657b03fbdba8","6657926fec682fff2873a3b0","269","stimuli/20101102.jpg"," ","","feedback_trial","2","","","","","","","","","","","","","","","","","","","","",""
"","","","","","image-keyboard-response","140","189748","0.0-115.0","63d3f95bba922834f0e8ac39","665500ab8938657b03fbdba8","6657926fec682fff2873a3b0","1014","stimuli/2001101.jpg","0","","prediction_trial","2","","false","","2","false","false","false","true","false","false","[2]","001","101","0","","","","","","",""
"","","","","","image-keyboard-response","141","190139","0.0-116.0","63d3f95bba922834f0e8ac39","665500ab8938657b03fbdba8","6657926fec682fff2873a3b0","389","stimuli/20011012.jpg"," ","","feedback_trial","2","","","","","","","","","","","","","","","","","","","","",""
"","","","","","image-keyboard-response","142","191012","0.0-117.0","63d3f95bba922834f0e8ac39","665500ab8938657b03fbdba8","6657926fec682fff2873a3b0","869","stimuli/1001011.jpg","1","","prediction_trial","1","","true","","1","false","false","true","true","false","false","[1]","001","011","1","","","","","","",""
"","","","","","image-keyboard-response","143","191340","0.0-118.0","63d3f95bba922834f0e8ac39","665500ab8938657b03fbdba8","6657926fec682fff2873a3b0","326","stimuli/10010111.jpg"," ","","feedback_trial","1","","","","","","","","","","","","","","","","","","","","",""
"","","","","","image-keyboard-response","144","192196","0.0-119.0","63d3f95bba922834f0e8ac39","665500ab8938657b03fbdba8","6657926fec682fff2873a3b0","853","stimuli/0110001.jpg","0","","prediction_trial","1","","false","","0","true","true","false","false","false","false","[0,1]","110","001","0","","","","","","",""
"","","","","","image-keyboard-response","145","192548","0.0-120.0","63d3f95bba922834f0e8ac39","665500ab8938657b03fbdba8","6657926fec682fff2873a3b0","341","stimuli/01100011.jpg"," ","","feedback_trial","0","","","","","","","","","","","","","","","","","","","","",""
"","","","","","image-keyboard-response","146","193156","0.0-121.0","63d3f95bba922834f0e8ac39","665500ab8938657b03fbdba8","6657926fec682fff2873a3b0","606","stimuli/0000011.jpg","0","","prediction_trial","0","","true","","0","true","true","true","true","true","true","[0]","000","011","1","","","","","","",""
"","","","","","image-keyboard-response","147","193355","0.0-122.0","63d3f95bba922834f0e8ac39","665500ab8938657b03fbdba8","6657926fec682fff2873a3b0","197","stimuli/00000110.jpg"," ","","feedback_trial","0","","","","","","","","","","","","","","","","","","","","",""
"","","","","","image-keyboard-response","148","194420","0.0-123.0","63d3f95bba922834f0e8ac39","665500ab8938657b03fbdba8","6657926fec682fff2873a3b0","1062","stimuli/0111111.jpg","2","","prediction_trial","2","","true","","0","false","false","false","false","false","false","[1,2,0]","111","111","1","","","","","","",""
"","","","","","image-keyboard-response","149","194860","0.0-124.0","63d3f95bba922834f0e8ac39","665500ab8938657b03fbdba8","6657926fec682fff2873a3b0","438","stimuli/01111112.jpg"," ","","feedback_trial","1","","","","","","","","","","","","","","","","","","","","",""
"","","","","","image-keyboard-response","150","195411","0.0-125.0","63d3f95bba922834f0e8ac39","665500ab8938657b03fbdba8","6657926fec682fff2873a3b0","549","stimuli/0000010.jpg","0","","prediction_trial","0","","true","","0","true","true","true","true","true","true","[0]","000","010","1","","","","","","",""
"","","","","","image-keyboard-response","151","195715","0.0-126.0","63d3f95bba922834f0e8ac39","665500ab8938657b03fbdba8","6657926fec682fff2873a3b0","301","stimuli/00000100.jpg"," ","","feedback_trial","0","","","","","","","","","","","","","","","","","","","","",""
"","","","","","image-keyboard-response","152","196516","0.0-127.0","63d3f95bba922834f0e8ac39","665500ab8938657b03fbdba8","6657926fec682fff2873a3b0","798","stimuli/0101001.jpg","0","","prediction_trial","2","","false","","0","true","true","false","false","false","false","[0,2]","101","001","0","","","","","","",""
"","","","","","image-keyboard-response","153","196867","0.0-128.0","63d3f95bba922834f0e8ac39","665500ab8938657b03fbdba8","6657926fec682fff2873a3b0","349","stimuli/01010012.jpg"," ","","feedback_trial","0","","","","","","","","","","","","","","","","","","","","",""
"","","","","","image-keyboard-response","154","197787","0.0-129.0","63d3f95bba922834f0e8ac39","665500ab8938657b03fbdba8","6657926fec682fff2873a3b0","917","stimuli/2011011.jpg","2","","prediction_trial","2","","true","","2","false","false","false","false","false","false","[1,2]","011","011","1","","","","","","",""
"","","","","","image-keyboard-response","155","198251","0.0-130.0","63d3f95bba922834f0e8ac39","665500ab8938657b03fbdba8","6657926fec682fff2873a3b0","455","stimuli/20110112.jpg"," ","","feedback_trial","1","","","","","","","","","","","","","","","","","","","","",""
"","","","","","image-keyboard-response","156","198891","0.0-131.0","63d3f95bba922834f0e8ac39","665500ab8938657b03fbdba8","6657926fec682fff2873a3b0","637","stimuli/2011101.jpg","0","","prediction_trial","2","","false","","2","false","false","false","false","false","false","[2,1]","011","101","0","","","","","","",""
"","","","","","image-keyboard-response","157","199291","0.0-132.0","63d3f95bba922834f0e8ac39","665500ab8938657b03fbdba8","6657926fec682fff2873a3b0","397","stimuli/20111012.jpg"," ","","feedback_trial","2","","","","","","","","","","","","","","","","","","","","",""
"","","","","","image-keyboard-response","158","199779","0.0-133.0","63d3f95bba922834f0e8ac39","665500ab8938657b03fbdba8","6657926fec682fff2873a3b0","485","stimuli/0100000.jpg","0","","prediction_trial","0","","true","","0","true","true","false","true","false","true","[0]","100","000","1","","","","","","",""
"","","","","","image-keyboard-response","159","200092","0.0-134.0","63d3f95bba922834f0e8ac39","665500ab8938657b03fbdba8","6657926fec682fff2873a3b0","310","stimuli/01000000.jpg"," ","","feedback_trial","0","","","","","","","","","","","","","","","","","","","","",""
"","","","","","image-keyboard-response","160","201179","0.0-135.0","63d3f95bba922834f0e8ac39","665500ab8938657b03fbdba8","6657926fec682fff2873a3b0","1085","stimuli/2111001.jpg","2","","prediction_trial","0","","false","","2","false","true","false","false","false","false","[0,1,2]","111","001","0","","","","","","",""
"","","","","","image-keyboard-response","161","201635","0.0-136.0","63d3f95bba922834f0e8ac39","665500ab8938657b03fbdba8","6657926fec682fff2873a3b0","453","stimuli/21110010.jpg"," ","","feedback_trial","0","","","","","","","","","","","","","","","","","","","","",""
"","","","","","image-keyboard-response","162","202211","0.0-137.0","63d3f95bba922834f0e8ac39","665500ab8938657b03fbdba8","6657926fec682fff2873a3b0","573","stimuli/1101001.jpg","1","","prediction_trial","1","","true","","1","true","true","true","true","true","true","[1]","101","001","1","","","","","","",""
"","","","","","image-keyboard-response","163","202579","0.0-138.0","63d3f95bba922834f0e8ac39","665500ab8938657b03fbdba8","6657926fec682fff2873a3b0","365","stimuli/11010011.jpg"," ","","feedback_trial","1","","","","","","","","","","","","","","","","","","","","",""
"","","","","","image-keyboard-response","164","203299","0.0-139.0","63d3f95bba922834f0e8ac39","665500ab8938657b03fbdba8","6657926fec682fff2873a3b0","718","stimuli/1001110.jpg","1","","prediction_trial","1","","true","","1","false","false","true","true","false","false","[1]","001","110","1","","","","","","",""
"","","","","","image-keyboard-response","165","203651","0.0-140.0","63d3f95bba922834f0e8ac39","665500ab8938657b03fbdba8","6657926fec682fff2873a3b0","344","stimuli/10011101.jpg"," ","","feedback_trial","1","","","","","","","","","","","","","","","","","","","","",""
"","","","","","image-keyboard-response","166","204619","0.0-141.0","63d3f95bba922834f0e8ac39","665500ab8938657b03fbdba8","6657926fec682fff2873a3b0","966","stimuli/1111010.jpg","1","","prediction_trial","0","","false","","1","false","true","false","false","false","false","[0,1,2]","111","010","0","","","","","","",""
"","","","","","image-keyboard-response","167","205027","0.0-142.0","63d3f95bba922834f0e8ac39","665500ab8938657b03fbdba8","6657926fec682fff2873a3b0","405","stimuli/11110100.jpg"," ","","feedback_trial","0","","","","","","","","","","","","","","","","","","","","",""
"","","","","","image-keyboard-response","168","205931","0.0-143.0","63d3f95bba922834f0e8ac39","665500ab8938657b03fbdba8","6657926fec682fff2873a3b0","901","stimuli/0111101.jpg","0","","prediction_trial","0","","true","","0","false","false","false","false","false","false","[0,1,2]","111","101","1","","","","","","",""
"","","","","","image-keyboard-response","169","206260","0.0-144.0","63d3f95bba922834f0e8ac39","665500ab8938657b03fbdba8","6657926fec682fff2873a3b0","326","stimuli/01111010.jpg"," ","","feedback_trial","0","","","","","","","","","","","","","","","","","","","","",""
"","","","","","image-keyboard-response","170","206931","0.0-145.0","63d3f95bba922834f0e8ac39","665500ab8938657b03fbdba8","6657926fec682fff2873a3b0","669","stimuli/1111101.jpg","1","","prediction_trial","1","","true","","1","true","true","false","false","false","false","[1,0,2]","111","101","1","","","","","","",""
"","","","","","image-keyboard-response","171","207356","0.0-146.0","63d3f95bba922834f0e8ac39","665500ab8938657b03fbdba8","6657926fec682fff2873a3b0","421","stimuli/11111011.jpg"," ","","feedback_trial","1","","","","","","","","","","","","","","","","","","","","",""
"","","","","","image-keyboard-response","172","207907","0.0-147.0","63d3f95bba922834f0e8ac39","665500ab8938657b03fbdba8","6657926fec682fff2873a3b0","549","stimuli/0010001.jpg","0","","prediction_trial","0","","true","","0","true","true","true","true","true","true","[0]","010","001","1","","","","","","",""
"","","","","","image-keyboard-response","173","208203","0.0-148.0","63d3f95bba922834f0e8ac39","665500ab8938657b03fbdba8","6657926fec682fff2873a3b0","293","stimuli/00100010.jpg"," ","","feedback_trial","0","","","","","","","","","","","","","","","","","","","","",""
"","","","","","image-keyboard-response","174","209523","0.0-149.0","63d3f95bba922834f0e8ac39","665500ab8938657b03fbdba8","6657926fec682fff2873a3b0","1317","stimuli/2110011.jpg","2","","prediction_trial","2","","true","","2","false","false","true","true","false","false","[2]","110","011","1","","","","","","",""
"","","","","","image-keyboard-response","175","209835","0.0-150.0","63d3f95bba922834f0e8ac39","665500ab8938657b03fbdba8","6657926fec682fff2873a3b0","304","stimuli/21100112.jpg"," ","","feedback_trial","2","","","","","","","","","","","","","","","","","","","","",""
"","","","","","image-keyboard-response","176","210483","0.0-151.0","63d3f95bba922834f0e8ac39","665500ab8938657b03fbdba8","6657926fec682fff2873a3b0","645","stimuli/0110111.jpg","2","","prediction_trial","1","","false","","0","false","false","false","false","false","false","[0,1]","110","111","0","","","","","","",""
"","","","","","image-keyboard-response","177","210843","0.0-152.0","63d3f95bba922834f0e8ac39","665500ab8938657b03fbdba8","6657926fec682fff2873a3b0","357","stimuli/01101111.jpg"," ","","feedback_trial","0","","","","","","","","","","","","","","","","","","","","",""
"","","","","","image-keyboard-response","178","211404","0.0-153.0","63d3f95bba922834f0e8ac39","665500ab8938657b03fbdba8","6657926fec682fff2873a3b0","558","stimuli/1100000.jpg","1","","prediction_trial","1","","true","","1","true","true","true","true","true","true","[1]","100","000","1","","","","","","",""
"","","","","","image-keyboard-response","179","211691","0.0-154.0","63d3f95bba922834f0e8ac39","665500ab8938657b03fbdba8","6657926fec682fff2873a3b0","284","stimuli/11000001.jpg"," ","","feedback_trial","1","","","","","","","","","","","","","","","","","","","","",""
"","","","","","image-keyboard-response","180","212748","0.0-155.0","63d3f95bba922834f0e8ac39","665500ab8938657b03fbdba8","6657926fec682fff2873a3b0","1054","stimuli/2010101.jpg","0","","prediction_trial","2","","false","","2","false","false","true","true","false","false","[2]","010","101","0","","","","","","",""
"","","","","","image-keyboard-response","181","213099","0.0-156.0","63d3f95bba922834f0e8ac39","665500ab8938657b03fbdba8","6657926fec682fff2873a3b0","349","stimuli/20101012.jpg"," ","","feedback_trial","2","","","","","","","","","","","","","","","","","","","","",""
"","","","","","image-keyboard-response","182","214059","0.0-157.0","63d3f95bba922834f0e8ac39","665500ab8938657b03fbdba8","6657926fec682fff2873a3b0","957","stimuli/0100110.jpg","1","","prediction_trial","0","","false","","0","false","false","false","true","false","false","[0]","100","110","0","","","","","","",""
"","","","","","image-keyboard-response","183","214411","0.0-158.0","63d3f95bba922834f0e8ac39","665500ab8938657b03fbdba8","6657926fec682fff2873a3b0","349","stimuli/01001100.jpg"," ","","feedback_trial","0","","","","","","","","","","","","","","","","","","","","",""
"","","","","","image-keyboard-response","184","215403","0.0-159.0","63d3f95bba922834f0e8ac39","665500ab8938657b03fbdba8","6657926fec682fff2873a3b0","989","stimuli/1111110.jpg","0","","prediction_trial","0","","true","","1","false","false","false","false","false","false","[2,1,0]","111","110","1","","","","","","",""
"","","","","","image-keyboard-response","185","215779","0.0-160.0","63d3f95bba922834f0e8ac39","665500ab8938657b03fbdba8","6657926fec682fff2873a3b0","368","stimuli/11111100.jpg"," ","","feedback_trial","2","","","","","","","","","","","","","","","","","","","","",""
"","","","","","image-keyboard-response","186","216699","0.0-161.0","63d3f95bba922834f0e8ac39","665500ab8938657b03fbdba8","6657926fec682fff2873a3b0","918","stimuli/0101011.jpg","0","","prediction_trial","2","","false","","0","true","true","false","false","false","false","[2,0]","101","011","0","","","","","","",""
"","","","","","image-keyboard-response","187","217043","0.0-162.0","63d3f95bba922834f0e8ac39","665500ab8938657b03fbdba8","6657926fec682fff2873a3b0","341","stimuli/01010112.jpg"," ","","feedback_trial","2","","","","","","","","","","","","","","","","","","","","",""
"","","","","","image-keyboard-response","188","217604","0.0-163.0","63d3f95bba922834f0e8ac39","665500ab8938657b03fbdba8","6657926fec682fff2873a3b0","558","stimuli/0110100.jpg","0","","prediction_trial","1","","false","","0","false","true","false","false","false","false","[1,0]","110","100","0","","","","","","",""
"","","","","","image-keyboard-response","189","218011","0.0-164.0","63d3f95bba922834f0e8ac39","665500ab8938657b03fbdba8","6657926fec682fff2873a3b0","404","stimuli/01101001.jpg"," ","","feedback_trial","1","","","","","","","","","","","","","","","","","","","","",""
"","","","","","image-keyboard-response","190","218763","0.0-165.0","63d3f95bba922834f0e8ac39","665500ab8938657b03fbdba8","6657926fec682fff2873a3b0","749","stimuli/2111100.jpg","2","","prediction_trial","1","","false","","2","true","true","false","false","false","false","[0,1,2]","111","100","0","","","","","","",""
"","","","","","image-keyboard-response","191","219123","0.0-166.0","63d3f95bba922834f0e8ac39","665500ab8938657b03fbdba8","6657926fec682fff2873a3b0","357","stimuli/21111001.jpg"," ","","feedback_trial","0","","","","","","","","","","","","","","","","","","","","",""
"","","","","","image-keyboard-response","192","219731","0.0-167.0","63d3f95bba922834f0e8ac39","665500ab8938657b03fbdba8","6657926fec682fff2873a3b0","605","stimuli/1100010.jpg","0","","prediction_trial","1","","false","","1","false","true","true","true","false","true","[1]","100","010","0","","","","","","",""
"","","","","","image-keyboard-response","193","220115","0.0-168.0","63d3f95bba922834f0e8ac39","665500ab8938657b03fbdba8","6657926fec682fff2873a3b0","381","stimuli/11000101.jpg"," ","","feedback_trial","1","","","","","","","","","","","","","","","","","","","","",""
"","","","","","image-keyboard-response","194","220835","0.0-169.0","63d3f95bba922834f0e8ac39","665500ab8938657b03fbdba8","6657926fec682fff2873a3b0","717","stimuli/0100001.jpg","0","","prediction_trial","0","","true","","0","true","true","false","true","false","true","[0]","100","001","1","","","","","","",""
"","","","","","image-keyboard-response","195","221139","0.0-170.0","63d3f95bba922834f0e8ac39","665500ab8938657b03fbdba8","6657926fec682fff2873a3b0","296","stimuli/01000010.jpg"," ","","feedback_trial","0","","","","","","","","","","","","","","","","","","","","",""
"","","","","","image-keyboard-response","196","221676","0.0-171.0","63d3f95bba922834f0e8ac39","665500ab8938657b03fbdba8","6657926fec682fff2873a3b0","534","stimuli/1110101.jpg","1","","prediction_trial","1","","true","","1","true","true","false","false","false","false","[1,0]","110","101","1","","","","","","",""
"","","","","","image-keyboard-response","197","221987","0.0-172.0","63d3f95bba922834f0e8ac39","665500ab8938657b03fbdba8","6657926fec682fff2873a3b0","309","stimuli/11101011.jpg"," ","","feedback_trial","1","","","","","","","","","","","","","","","","","","","","",""
"","","","","","image-keyboard-response","198","222955","0.0-173.0","63d3f95bba922834f0e8ac39","665500ab8938657b03fbdba8","6657926fec682fff2873a3b0","965","stimuli/2011001.jpg","2","","prediction_trial","1","","false","","2","false","true","false","false","false","false","[1,2]","011","001","0","","","","","","",""
"","","","","","image-keyboard-response","199","223372","0.0-174.0","63d3f95bba922834f0e8ac39","665500ab8938657b03fbdba8","6657926fec682fff2873a3b0","414","stimuli/20110011.jpg"," ","","feedback_trial","1","","","","","","","","","","","","","","","","","","","","",""
"","","","","","image-keyboard-response","200","224019","0.0-175.0","63d3f95bba922834f0e8ac39","665500ab8938657b03fbdba8","6657926fec682fff2873a3b0","645","stimuli/1101101.jpg","1","","prediction_trial","1","","true","","1","true","true","true","true","true","true","[1]","101","101","1","","","","","","",""
"","","","","","image-keyboard-response","201","224275","0.0-176.0","63d3f95bba922834f0e8ac39","665500ab8938657b03fbdba8","6657926fec682fff2873a3b0","253","stimuli/11011011.jpg"," ","","feedback_trial","1","","","","","","","","","","","","","","","","","","","","",""
"","","","","","image-keyboard-response","202","224915","0.0-177.0","63d3f95bba922834f0e8ac39","665500ab8938657b03fbdba8","6657926fec682fff2873a3b0","637","stimuli/0001000.jpg","0","","prediction_trial","0","","true","","0","true","true","true","true","true","true","[0]","001","000","1","","","","","","",""
"","","","","","image-keyboard-response","203","225163","0.0-178.0","63d3f95bba922834f0e8ac39","665500ab8938657b03fbdba8","6657926fec682fff2873a3b0","245","stimuli/00010000.jpg"," ","","feedback_trial","0","","","","","","","","","","","","","","","","","","","","",""
"","","","","","image-keyboard-response","204","227731","0.0-179.0","63d3f95bba922834f0e8ac39","665500ab8938657b03fbdba8","6657926fec682fff2873a3b0","2565","stimuli/1010101.jpg","1","","prediction_trial","1","","true","","1","true","true","false","true","false","true","[1]","010","101","1","","","","","","",""
"","","","","","image-keyboard-response","205","228028","0.0-180.0","63d3f95bba922834f0e8ac39","665500ab8938657b03fbdba8","6657926fec682fff2873a3b0","294","stimuli/10101011.jpg"," ","","feedback_trial","1","","","","","","","","","","","","","","","","","","","","",""
"","","","","","image-keyboard-response","206","228651","0.0-181.0","63d3f95bba922834f0e8ac39","665500ab8938657b03fbdba8","6657926fec682fff2873a3b0","621","stimuli/0000001.jpg","0","","prediction_trial","0","","true","","0","true","true","true","true","true","true","[0]","000","001","1","","","","","","",""
"","","","","","image-keyboard-response","207","228891","0.0-182.0","63d3f95bba922834f0e8ac39","665500ab8938657b03fbdba8","6657926fec682fff2873a3b0","237","stimuli/00000010.jpg"," ","","feedback_trial","0","","","","","","","","","","","","","","","","","","","","",""
"","","","","","image-keyboard-response","208","231035","0.0-183.0","63d3f95bba922834f0e8ac39","665500ab8938657b03fbdba8","6657926fec682fff2873a3b0","2141","stimuli/1100111.jpg","0","","prediction_trial","1","","false","","1","false","false","true","true","false","false","[1]","100","111","0","","","","","","",""
"","","","","","image-keyboard-response","209","231539","0.0-184.0","63d3f95bba922834f0e8ac39","665500ab8938657b03fbdba8","6657926fec682fff2873a3b0","501","stimuli/11001111.jpg"," ","","feedback_trial","1","","","","","","","","","","","","","","","","","","","","",""
"","","","","","image-keyboard-response","210","232147","0.0-185.0","63d3f95bba922834f0e8ac39","665500ab8938657b03fbdba8","6657926fec682fff2873a3b0","605","stimuli/2010100.jpg","2","","prediction_trial","2","","true","","2","true","true","true","true","true","true","[2]","010","100","1","","","","","","",""
"","","","","","image-keyboard-response","211","232427","0.0-186.0","63d3f95bba922834f0e8ac39","665500ab8938657b03fbdba8","6657926fec682fff2873a3b0","277","stimuli/20101002.jpg"," ","","feedback_trial","2","","","","","","","","","","","","","","","","","","","","",""
"","","","","","image-keyboard-response","212","233387","0.0-187.0","63d3f95bba922834f0e8ac39","665500ab8938657b03fbdba8","6657926fec682fff2873a3b0","957","stimuli/2011100.jpg","2","","prediction_trial","1","","false","","2","true","true","false","false","false","false","[2,1]","011","100","0","","","","","","",""
"","","","","","image-keyboard-response","213","233723","0.0-188.0","63d3f95bba922834f0e8ac39","665500ab8938657b03fbdba8","6657926fec682fff2873a3b0","333","stimuli/20111001.jpg"," ","","feedback_trial","2","","","","","","","","","","","","","","","","","","","","",""
"","","","","","image-keyboard-response","214","234339","0.0-189.0","63d3f95bba922834f0e8ac39","665500ab8938657b03fbdba8","6657926fec682fff2873a3b0","613","stimuli/2011110.jpg","2","","prediction_trial","1","","false","","2","true","true","false","false","false","false","[1,2]","011","110","0","","","","","","",""
"","","","","","image-keyboard-response","215","234747","0.0-190.0","63d3f95bba922834f0e8ac39","665500ab8938657b03fbdba8","6657926fec682fff2873a3b0","396","stimuli/20111101.jpg"," ","","feedback_trial","1","","","","","","","","","","","","","","","","","","","","",""
"","","","","","image-keyboard-response","216","235339","0.0-191.0","63d3f95bba922834f0e8ac39","665500ab8938657b03fbdba8","6657926fec682fff2873a3b0","589","stimuli/1000100.jpg","1","","prediction_trial","1","","true","","1","true","true","true","true","true","true","[1]","000","100","1","","","","","","",""
"","","","","","image-keyboard-response","217","235731","0.0-192.0","63d3f95bba922834f0e8ac39","665500ab8938657b03fbdba8","6657926fec682fff2873a3b0","389","stimuli/10001001.jpg"," ","","feedback_trial","1","","","","","","","","","","","","","","","","","","","","",""
"","","","","","image-keyboard-response","218","236459","0.0-193.0","63d3f95bba922834f0e8ac39","665500ab8938657b03fbdba8","6657926fec682fff2873a3b0","725","stimuli/2000010.jpg","2","","prediction_trial","2","","true","","2","true","true","true","true","true","true","[2]","000","010","1","","","","","","",""
"","","","","","image-keyboard-response","219","236683","0.0-194.0","63d3f95bba922834f0e8ac39","665500ab8938657b03fbdba8","6657926fec682fff2873a3b0","221","stimuli/20000102.jpg"," ","","feedback_trial","2","","","","","","","","","","","","","","","","","","","","",""
"","","","","","image-keyboard-response","220","237603","0.0-195.0","63d3f95bba922834f0e8ac39","665500ab8938657b03fbdba8","6657926fec682fff2873a3b0","917","stimuli/1101110.jpg","1","","prediction_trial","1","","true","","1","false","false","true","true","false","false","[1]","101","110","1","","","","","","",""
"","","","","","image-keyboard-response","221","237915","0.0-196.0","63d3f95bba922834f0e8ac39","665500ab8938657b03fbdba8","6657926fec682fff2873a3b0","309","stimuli/11011101.jpg"," ","","feedback_trial","1","","","","","","","","","","","","","","","","","","","","",""
"","","","","","image-keyboard-response","222","238787","0.0-197.0","63d3f95bba922834f0e8ac39","665500ab8938657b03fbdba8","6657926fec682fff2873a3b0","869","stimuli/0101101.jpg","0","","prediction_trial","2","","false","","0","false","false","false","false","false","false","[2,0]","101","101","0","","","","","","",""
"","","","","","image-keyboard-response","223","239139","0.0-198.0","63d3f95bba922834f0e8ac39","665500ab8938657b03fbdba8","6657926fec682fff2873a3b0","349","stimuli/01011012.jpg"," ","","feedback_trial","2","","","","","","","","","","","","","","","","","","","","",""
"","","","","","image-keyboard-response","224","239651","0.0-199.0","63d3f95bba922834f0e8ac39","665500ab8938657b03fbdba8","6657926fec682fff2873a3b0","509","stimuli/0011000.jpg","0","","prediction_trial","0","","true","","0","true","true","true","true","true","true","[0]","011","000","1","","","","","","",""
"","","","","","image-keyboard-response","225","239883","0.0-200.0","63d3f95bba922834f0e8ac39","665500ab8938657b03fbdba8","6657926fec682fff2873a3b0","224","stimuli/00110000.jpg"," ","","feedback_trial","0","","","","","","","","","","","","","","","","","","","","",""
"","","","","","image-keyboard-response","226","241107","0.0-201.0","63d3f95bba922834f0e8ac39","665500ab8938657b03fbdba8","6657926fec682fff2873a3b0","1222","stimuli/2000111.jpg","0","","prediction_trial","2","","false","","2","false","false","true","true","false","false","[2]","000","111","0","","","","","","",""
"","","","","","image-keyboard-response","227","241483","0.0-202.0","63d3f95bba922834f0e8ac39","665500ab8938657b03fbdba8","6657926fec682fff2873a3b0","373","stimuli/20001112.jpg"," ","","feedback_trial","2","","","","","","","","","","","","","","","","","","","","",""
"","","","","","image-keyboard-response","228","242291","0.0-203.0","63d3f95bba922834f0e8ac39","665500ab8938657b03fbdba8","6657926fec682fff2873a3b0","805","stimuli/1110000.jpg","1","","prediction_trial","1","","true","","1","true","true","false","false","false","false","[0,1]","110","000","1","","","","","","",""
"","","","","","image-keyboard-response","229","242595","0.0-204.0","63d3f95bba922834f0e8ac39","665500ab8938657b03fbdba8","6657926fec682fff2873a3b0","301","stimuli/11100001.jpg"," ","","feedback_trial","0","","","","","","","","","","","","","","","","","","","","",""
"","","","","","image-keyboard-response","230","243547","0.0-205.0","63d3f95bba922834f0e8ac39","665500ab8938657b03fbdba8","6657926fec682fff2873a3b0","950","stimuli/0000111.jpg","2","","prediction_trial","0","","false","","0","false","false","true","true","false","false","[0]","000","111","0","","","","","","",""
"","","","","","image-keyboard-response","231","243995","0.0-206.0","63d3f95bba922834f0e8ac39","665500ab8938657b03fbdba8","6657926fec682fff2873a3b0","445","stimuli/00001110.jpg"," ","","feedback_trial","0","","","","","","","","","","","","","","","","","","","","",""
"","","","","","image-keyboard-response","232","245059","0.0-207.0","63d3f95bba922834f0e8ac39","665500ab8938657b03fbdba8","6657926fec682fff2873a3b0","1061","stimuli/0011111.jpg","0","","prediction_trial","0","","true","","0","false","false","true","true","false","false","[0]","011","111","1","","","","","","",""
"","","","","","image-keyboard-response","233","245347","0.0-208.0","63d3f95bba922834f0e8ac39","665500ab8938657b03fbdba8","6657926fec682fff2873a3b0","285","stimuli/00111110.jpg"," ","","feedback_trial","0","","","","","","","","","","","","","","","","","","","","",""
"","","","","","image-keyboard-response","234","246235","0.0-209.0","63d3f95bba922834f0e8ac39","665500ab8938657b03fbdba8","6657926fec682fff2873a3b0","885","stimuli/1010100.jpg","1","","prediction_trial","1","","true","","1","true","true","false","true","false","true","[1]","010","100","1","","","","","","",""
"","","","","","image-keyboard-response","235","246555","0.0-210.0","63d3f95bba922834f0e8ac39","665500ab8938657b03fbdba8","6657926fec682fff2873a3b0","317","stimuli/10101001.jpg"," ","","feedback_trial","1","","","","","","","","","","","","","","","","","","","","",""
"","","","","","image-keyboard-response","236","247259","0.0-211.0","63d3f95bba922834f0e8ac39","665500ab8938657b03fbdba8","6657926fec682fff2873a3b0","701","stimuli/1011000.jpg","1","","prediction_trial","1","","true","","1","true","true","false","false","false","false","[1,2]","011","000","1","","","","","","",""
"","","","","","image-keyboard-response","237","247563","0.0-212.0","63d3f95bba922834f0e8ac39","665500ab8938657b03fbdba8","6657926fec682fff2873a3b0","301","stimuli/10110001.jpg"," ","","feedback_trial","1","","","","","","","","","","","","","","","","","","","","",""
"","","","","","image-keyboard-response","238","248451","0.0-213.0","63d3f95bba922834f0e8ac39","665500ab8938657b03fbdba8","6657926fec682fff2873a3b0","885","stimuli/2100111.jpg","1","","prediction_trial","2","","false","","2","false","false","true","true","false","false","[2]","100","111","0","","","","","","",""
"","","","","","image-keyboard-response","239","248867","0.0-214.0","63d3f95bba922834f0e8ac39","665500ab8938657b03fbdba8","6657926fec682fff2873a3b0","413","stimuli/21001112.jpg"," ","","feedback_trial","2","","","","","","","","","","","","","","","","","","","","",""
"","","","","","image-keyboard-response","240","249659","0.0-215.0","63d3f95bba922834f0e8ac39","665500ab8938657b03fbdba8","6657926fec682fff2873a3b0","789","stimuli/0011110.jpg","1","","prediction_trial","0","","false","","0","false","false","true","true","false","false","[0]","011","110","0","","","","","","",""
"","","","","","image-keyboard-response","241","250035","0.0-216.0","63d3f95bba922834f0e8ac39","665500ab8938657b03fbdba8","6657926fec682fff2873a3b0","373","stimuli/00111100.jpg"," ","","feedback_trial","0","","","","","","","","","","","","","","","","","","","","",""
"","","","","","image-keyboard-response","242","250851","0.0-217.0","63d3f95bba922834f0e8ac39","665500ab8938657b03fbdba8","6657926fec682fff2873a3b0","813","stimuli/0110101.jpg","2","","prediction_trial","1","","false","","0","false","false","false","false","false","false","[1,0]","110","101","0","","","","","","",""
"","","","","","image-keyboard-response","243","251243","0.0-218.0","63d3f95bba922834f0e8ac39","665500ab8938657b03fbdba8","6657926fec682fff2873a3b0","389","stimuli/01101011.jpg"," ","","feedback_trial","1","","","","","","","","","","","","","","","","","","","","",""
"","","","","","image-keyboard-response","244","251987","0.0-219.0","63d3f95bba922834f0e8ac39","665500ab8938657b03fbdba8","6657926fec682fff2873a3b0","742","stimuli/2111101.jpg","1","","prediction_trial","2","","false","","2","false","false","false","false","false","false","[0,2,1]","111","101","0","","","","","","",""
"","","","","","image-keyboard-response","245","252531","0.0-220.0","63d3f95bba922834f0e8ac39","665500ab8938657b03fbdba8","6657926fec682fff2873a3b0","531","stimuli/21111012.jpg"," ","","feedback_trial","0","","","","","","","","","","","","","","","","","","","","",""
"","","","","","image-keyboard-response","246","253091","0.0-221.0","63d3f95bba922834f0e8ac39","665500ab8938657b03fbdba8","6657926fec682fff2873a3b0","557","stimuli/0011010.jpg","0","","prediction_trial","0","","true","","0","true","true","true","true","true","true","[0]","011","010","1","","","","","","",""
"","","","","","image-keyboard-response","247","253323","0.0-222.0","63d3f95bba922834f0e8ac39","665500ab8938657b03fbdba8","6657926fec682fff2873a3b0","229","stimuli/00110100.jpg"," ","","feedback_trial","0","","","","","","","","","","","","","","","","","","","","",""
"","","","","","image-keyboard-response","248","254179","0.0-223.0","63d3f95bba922834f0e8ac39","665500ab8938657b03fbdba8","6657926fec682fff2873a3b0","853","stimuli/1101010.jpg","1","","prediction_trial","1","","true","","1","false","true","true","true","false","true","[1]","101","010","1","","","","","","",""
"","","","","","image-keyboard-response","249","254515","0.0-224.0","63d3f95bba922834f0e8ac39","665500ab8938657b03fbdba8","6657926fec682fff2873a3b0","333","stimuli/11010101.jpg"," ","","feedback_trial","1","","","","","","","","","","","","","","","","","","","","",""
"","","","","","image-keyboard-response","250","255043","0.0-225.0","63d3f95bba922834f0e8ac39","665500ab8938657b03fbdba8","6657926fec682fff2873a3b0","525","stimuli/1001001.jpg","1","","prediction_trial","1","","true","","1","true","true","true","true","true","true","[1]","001","001","1","","","","","","",""
"","","","","","image-keyboard-response","251","255331","0.0-226.0","63d3f95bba922834f0e8ac39","665500ab8938657b03fbdba8","6657926fec682fff2873a3b0","285","stimuli/10010011.jpg"," ","","feedback_trial","1","","","","","","","","","","","","","","","","","","","","",""
"","","","","","image-keyboard-response","252","256443","0.0-227.0","63d3f95bba922834f0e8ac39","665500ab8938657b03fbdba8","6657926fec682fff2873a3b0","1109","stimuli/2011000.jpg","2","","prediction_trial","2","","true","","2","true","true","false","false","false","false","[1,2]","011","000","1","","","","","","",""
"","","","","","image-keyboard-response","253","256779","0.0-228.0","63d3f95bba922834f0e8ac39","665500ab8938657b03fbdba8","6657926fec682fff2873a3b0","333","stimuli/20110002.jpg"," ","","feedback_trial","1","","","","","","","","","","","","","","","","","","","","",""
"","","","","","image-keyboard-response","254","257507","0.0-229.0","63d3f95bba922834f0e8ac39","665500ab8938657b03fbdba8","6657926fec682fff2873a3b0","725","stimuli/2010010.jpg","2","","prediction_trial","2","","true","","2","true","true","true","true","true","true","[2]","010","010","1","","","","","","",""
"","","","","","image-keyboard-response","255","257779","0.0-230.0","63d3f95bba922834f0e8ac39","665500ab8938657b03fbdba8","6657926fec682fff2873a3b0","264","stimuli/20100102.jpg"," ","","feedback_trial","2","","","","","","","","","","","","","","","","","","","","",""
"","","","","","image-keyboard-response","256","258643","0.0-231.0","63d3f95bba922834f0e8ac39","665500ab8938657b03fbdba8","6657926fec682fff2873a3b0","861","stimuli/2001100.jpg","2","","prediction_trial","2","","true","","2","true","true","false","true","false","true","[2]","001","100","1","","","","","","",""
"","","","","","image-keyboard-response","257","259003","0.0-232.0","63d3f95bba922834f0e8ac39","665500ab8938657b03fbdba8","6657926fec682fff2873a3b0","357","stimuli/20011002.jpg"," ","","feedback_trial","2","","","","","","","","","","","","","","","","","","","","",""
"","","","","","image-keyboard-response","258","260035","0.0-233.0","63d3f95bba922834f0e8ac39","665500ab8938657b03fbdba8","6657926fec682fff2873a3b0","1029","stimuli/1011011.jpg","1","","prediction_trial","2","","false","","1","false","false","false","false","false","false","[1,2]","011","011","0","","","","","","",""
"","","","","","image-keyboard-response","259","260395","0.0-234.0","63d3f95bba922834f0e8ac39","665500ab8938657b03fbdba8","6657926fec682fff2873a3b0","357","stimuli/10110112.jpg"," ","","feedback_trial","1","","","","","","","","","","","","","","","","","","","","",""
"","","","","","image-keyboard-response","260","261083","0.0-235.0","63d3f95bba922834f0e8ac39","665500ab8938657b03fbdba8","6657926fec682fff2873a3b0","685","stimuli/0000100.jpg","0","","prediction_trial","0","","true","","0","false","true","true","true","false","true","[0]","000","100","1","","","","","","",""
"","","","","","image-keyboard-response","261","261395","0.0-236.0","63d3f95bba922834f0e8ac39","665500ab8938657b03fbdba8","6657926fec682fff2873a3b0","309","stimuli/00001000.jpg"," ","","feedback_trial","0","","","","","","","","","","","","","","","","","","","","",""
"","","","","","image-keyboard-response","262","262467","0.0-237.0","63d3f95bba922834f0e8ac39","665500ab8938657b03fbdba8","6657926fec682fff2873a3b0","1070","stimuli/0100010.jpg","0","","prediction_trial","0","","true","","0","true","true","false","true","false","true","[0]","100","010","1","","","","","","",""
"","","","","","image-keyboard-response","263","262771","0.0-238.0","63d3f95bba922834f0e8ac39","665500ab8938657b03fbdba8","6657926fec682fff2873a3b0","301","stimuli/01000100.jpg"," ","","feedback_trial","0","","","","","","","","","","","","","","","","","","","","",""
"","","","","","image-keyboard-response","264","263419","0.0-239.0","63d3f95bba922834f0e8ac39","665500ab8938657b03fbdba8","6657926fec682fff2873a3b0","646","stimuli/1001101.jpg","1","","prediction_trial","1","","true","","1","true","true","true","true","true","true","[1]","001","101","1","","","","","","",""
"","","","","","image-keyboard-response","265","263731","0.0-240.0","63d3f95bba922834f0e8ac39","665500ab8938657b03fbdba8","6657926fec682fff2873a3b0","303","stimuli/10011011.jpg"," ","","feedback_trial","1","","","","","","","","","","","","","","","","","","","","",""
"","","","","","image-keyboard-response","266","264475","0.0-241.0","63d3f95bba922834f0e8ac39","665500ab8938657b03fbdba8","6657926fec682fff2873a3b0","741","stimuli/2000001.jpg","2","","prediction_trial","2","","true","","2","false","true","true","true","false","true","[2]","000","001","1","","","","","","",""
"","","","","","image-keyboard-response","267","264771","0.0-242.0","63d3f95bba922834f0e8ac39","665500ab8938657b03fbdba8","6657926fec682fff2873a3b0","293","stimuli/20000012.jpg"," ","","feedback_trial","2","","","","","","","","","","","","","","","","","","","","",""
"","","","","","image-keyboard-response","268","266643","0.0-243.0","63d3f95bba922834f0e8ac39","665500ab8938657b03fbdba8","6657926fec682fff2873a3b0","1869","stimuli/2111000.jpg","2","","prediction_trial","0","","false","","2","true","true","false","false","false","false","[1,0,2]","111","000","0","","","","","","",""
"","","","","","image-keyboard-response","269","267611","0.0-244.0","63d3f95bba922834f0e8ac39","665500ab8938657b03fbdba8","6657926fec682fff2873a3b0","965","stimuli/21110000.jpg"," ","","feedback_trial","1","","","","","","","","","","","","","","","","","","","","",""
"","","","","","image-keyboard-response","270","268307","0.0-245.0","63d3f95bba922834f0e8ac39","665500ab8938657b03fbdba8","6657926fec682fff2873a3b0","693","stimuli/2001010.jpg","2","","prediction_trial","2","","true","","2","true","true","false","true","false","true","[2]","001","010","1","","","","","","",""
"","","","","","image-keyboard-response","271","268691","0.0-246.0","63d3f95bba922834f0e8ac39","665500ab8938657b03fbdba8","6657926fec682fff2873a3b0","381","stimuli/20010102.jpg"," ","","feedback_trial","2","","","","","","","","","","","","","","","","","","","","",""
"","","","","","image-keyboard-response","272","269339","0.0-247.0","63d3f95bba922834f0e8ac39","665500ab8938657b03fbdba8","6657926fec682fff2873a3b0","646","stimuli/1111000.jpg","1","","prediction_trial","1","","true","","1","true","true","false","false","false","false","[0,1,2]","111","000","1","","","","","","",""
"","","","","","image-keyboard-response","273","269659","0.0-248.0","63d3f95bba922834f0e8ac39","665500ab8938657b03fbdba8","6657926fec682fff2873a3b0","317","stimuli/11110001.jpg"," ","","feedback_trial","0","","","","","","","","","","","","","","","","","","","","",""
"","","","","","image-keyboard-response","274","271075","0.0-249.0","63d3f95bba922834f0e8ac39","665500ab8938657b03fbdba8","6657926fec682fff2873a3b0","1414","stimuli/1000111.jpg","1","","prediction_trial","1","","true","","1","false","false","true","true","false","false","[1]","000","111","1","","","","","","",""
"","","","","","image-keyboard-response","275","271475","0.0-250.0","63d3f95bba922834f0e8ac39","665500ab8938657b03fbdba8","6657926fec682fff2873a3b0","391","stimuli/10001111.jpg"," ","","feedback_trial","1","","","","","","","","","","","","","","","","","","","","",""
"","","","","","image-keyboard-response","276","272163","0.0-251.0","63d3f95bba922834f0e8ac39","665500ab8938657b03fbdba8","6657926fec682fff2873a3b0","685","stimuli/0011101.jpg","0","","prediction_trial","0","","true","","0","false","false","true","true","false","false","[0]","011","101","1","","","","","","",""
"","","","","","image-keyboard-response","277","272459","0.0-252.0","63d3f95bba922834f0e8ac39","665500ab8938657b03fbdba8","6657926fec682fff2873a3b0","293","stimuli/00111010.jpg"," ","","feedback_trial","0","","","","","","","","","","","","","","","","","","","","",""
"","","","","","image-keyboard-response","278","273331","0.0-253.0","63d3f95bba922834f0e8ac39","665500ab8938657b03fbdba8","6657926fec682fff2873a3b0","869","stimuli/1111111.jpg","2","","prediction_trial","2","","true","","1","false","false","false","false","false","false","[0,2,1]","111","111","1","","","","","","",""
"","","","","","image-keyboard-response","279","273739","0.0-254.0","63d3f95bba922834f0e8ac39","665500ab8938657b03fbdba8","6657926fec682fff2873a3b0","405","stimuli/11111112.jpg"," ","","feedback_trial","0","","","","","","","","","","","","","","","","","","","","",""
"","","","","","image-keyboard-response","280","274227","0.0-255.0","63d3f95bba922834f0e8ac39","665500ab8938657b03fbdba8","6657926fec682fff2873a3b0","485","stimuli/0001111.jpg","1","","prediction_trial","0","","false","","0","false","false","true","true","false","false","[0]","001","111","0","","","","","","",""
"","","","","","image-keyboard-response","281","274643","0.0-256.0","63d3f95bba922834f0e8ac39","665500ab8938657b03fbdba8","6657926fec682fff2873a3b0","413","stimuli/00011110.jpg"," ","","feedback_trial","0","","","","","","","","","","","","","","","","","","","","",""
"","","","","","image-keyboard-response","282","275515","0.0-257.0","63d3f95bba922834f0e8ac39","665500ab8938657b03fbdba8","6657926fec682fff2873a3b0","870","stimuli/2011111.jpg","0","","prediction_trial","1","","false","","2","false","false","false","false","false","false","[2,1]","011","111","0","","","","","","",""
"","","","","","image-keyboard-response","283","275979","0.0-258.0","63d3f95bba922834f0e8ac39","665500ab8938657b03fbdba8","6657926fec682fff2873a3b0","461","stimuli/20111111.jpg"," ","","feedback_trial","2","","","","","","","","","","","","","","","","","","","","",""
"","","","","","image-keyboard-response","284","276603","0.0-259.0","63d3f95bba922834f0e8ac39","665500ab8938657b03fbdba8","6657926fec682fff2873a3b0","621","stimuli/0011100.jpg","0","","prediction_trial","0","","true","","0","false","true","true","true","false","true","[0]","011","100","1","","","","","","",""
"","","","","","image-keyboard-response","285","276931","0.0-260.0","63d3f95bba922834f0e8ac39","665500ab8938657b03fbdba8","6657926fec682fff2873a3b0","319","stimuli/00111000.jpg"," ","","feedback_trial","0","","","","","","","","","","","","","","","","","","","","",""
"","","","","","image-keyboard-response","286","277883","0.0-261.0","63d3f95bba922834f0e8ac39","665500ab8938657b03fbdba8","6657926fec682fff2873a3b0","949","stimuli/2010111.jpg","0","","prediction_trial","2","","false","","2","false","false","true","true","false","false","[2]","010","111","0","","","","","","",""
"","","","","","image-keyboard-response","287","278339","0.0-262.0","63d3f95bba922834f0e8ac39","665500ab8938657b03fbdba8","6657926fec682fff2873a3b0","453","stimuli/20101112.jpg"," ","","feedback_trial","2","","","","","","","","","","","","","","","","","","","","",""
"","","","","","image-keyboard-response","288","279515","0.0-263.0","63d3f95bba922834f0e8ac39","665500ab8938657b03fbdba8","6657926fec682fff2873a3b0","1173","stimuli/0101110.jpg","1","","prediction_trial","0","","false","","0","false","false","false","false","false","false","[0,2]","101","110","0","","","","","","",""
"","","","","","image-keyboard-response","289","280086","0.0-264.0","63d3f95bba922834f0e8ac39","665500ab8938657b03fbdba8","6657926fec682fff2873a3b0","569","stimuli/01011100.jpg"," ","","feedback_trial","0","","","","","","","","","","","","","","","","","","","","",""
"","","","","","image-keyboard-response","290","280539","0.0-265.0","63d3f95bba922834f0e8ac39","665500ab8938657b03fbdba8","6657926fec682fff2873a3b0","450","stimuli/2101101.jpg","1","","prediction_trial","2","","false","","2","false","false","false","false","false","false","[2,0]","101","101","0","","","","","","",""
"","","","","","image-keyboard-response","291","281043","0.0-266.0","63d3f95bba922834f0e8ac39","665500ab8938657b03fbdba8","6657926fec682fff2873a3b0","502","stimuli/21011012.jpg"," ","","feedback_trial","2","","","","","","","","","","","","","","","","","","","","",""
"","","","","","image-keyboard-response","292","281715","0.0-267.0","63d3f95bba922834f0e8ac39","665500ab8938657b03fbdba8","6657926fec682fff2873a3b0","669","stimuli/0111010.jpg","0","","prediction_trial","0","","true","","0","true","true","false","false","false","false","[1,2,0]","111","010","1","","","","","","",""
"","","","","","image-keyboard-response","293","282067","0.0-268.0","63d3f95bba922834f0e8ac39","665500ab8938657b03fbdba8","6657926fec682fff2873a3b0","349","stimuli/01110100.jpg"," ","","feedback_trial","1","","","","","","","","","","","","","","","","","","","","",""
"","","","","","image-keyboard-response","294","282923","0.0-269.0","63d3f95bba922834f0e8ac39","665500ab8938657b03fbdba8","6657926fec682fff2873a3b0","853","stimuli/1010000.jpg","1","","prediction_trial","1","","true","","1","true","true","false","true","false","true","[1]","010","000","1","","","","","","",""
"","","","","","image-keyboard-response","295","283275","0.0-270.0","63d3f95bba922834f0e8ac39","665500ab8938657b03fbdba8","6657926fec682fff2873a3b0","344","stimuli/10100001.jpg"," ","","feedback_trial","1","","","","","","","","","","","","","","","","","","","","",""
"","","","","","image-keyboard-response","296","283979","0.0-271.0","63d3f95bba922834f0e8ac39","665500ab8938657b03fbdba8","6657926fec682fff2873a3b0","701","stimuli/2100110.jpg","2","","prediction_trial","2","","true","","2","true","true","true","true","true","true","[2]","100","110","1","","","","","","",""
"","","","","","image-keyboard-response","297","284283","0.0-272.0","63d3f95bba922834f0e8ac39","665500ab8938657b03fbdba8","6657926fec682fff2873a3b0","301","stimuli/21001102.jpg"," ","","feedback_trial","2","","","","","","","","","","","","","","","","","","","","",""
"","","","","","image-keyboard-response","298","285019","0.0-273.0","63d3f95bba922834f0e8ac39","665500ab8938657b03fbdba8","6657926fec682fff2873a3b0","733","stimuli/2101011.jpg","1","","prediction_trial","2","","false","","2","false","false","false","false","false","false","[0,2]","101","011","0","","","","","","",""
"","","","","","image-keyboard-response","299","285507","0.0-274.0","63d3f95bba922834f0e8ac39","665500ab8938657b03fbdba8","6657926fec682fff2873a3b0","486","stimuli/21010112.jpg"," ","","feedback_trial","0","","","","","","","","","","","","","","","","","","","","",""
"","","","","","image-keyboard-response","300","286331","0.0-275.0","63d3f95bba922834f0e8ac39","665500ab8938657b03fbdba8","6657926fec682fff2873a3b0","821","stimuli/0111000.jpg","0","","prediction_trial","0","","true","","0","true","true","false","false","false","false","[2,1,0]","111","000","1","","","","","","",""
"","","","","","image-keyboard-response","301","286675","0.0-276.0","63d3f95bba922834f0e8ac39","665500ab8938657b03fbdba8","6657926fec682fff2873a3b0","341","stimuli/01110000.jpg"," ","","feedback_trial","2","","","","","","","","","","","","","","","","","","","","",""
"","","","","","image-keyboard-response","302","287259","0.0-277.0","63d3f95bba922834f0e8ac39","665500ab8938657b03fbdba8","6657926fec682fff2873a3b0","581","stimuli/0000000.jpg","0","","prediction_trial","0","","true","","0","true","true","true","true","true","true","[0]","000","000","1","","","","","","",""
"","","","","","image-keyboard-response","303","287555","0.0-278.0","63d3f95bba922834f0e8ac39","665500ab8938657b03fbdba8","6657926fec682fff2873a3b0","293","stimuli/00000000.jpg"," ","","feedback_trial","0","","","","","","","","","","","","","","","","","","","","",""
"","","","","","image-keyboard-response","304","288363","0.0-279.0","63d3f95bba922834f0e8ac39","665500ab8938657b03fbdba8","6657926fec682fff2873a3b0","806","stimuli/1110100.jpg","1","","prediction_trial","1","","true","","1","true","true","false","false","false","false","[1,0]","110","100","1","","","","","","",""
"","","","","","image-keyboard-response","305","288715","0.0-280.0","63d3f95bba922834f0e8ac39","665500ab8938657b03fbdba8","6657926fec682fff2873a3b0","344","stimuli/11101001.jpg"," ","","feedback_trial","1","","","","","","","","","","","","","","","","","","","","",""
"","","","","","image-keyboard-response","306","289395","0.0-281.0","63d3f95bba922834f0e8ac39","665500ab8938657b03fbdba8","6657926fec682fff2873a3b0","677","stimuli/1011111.jpg","0","","prediction_trial","1","","false","","1","false","false","false","false","false","false","[2,1]","011","111","0","","","","","","",""
"","","","","","image-keyboard-response","307","289795","0.0-282.0","63d3f95bba922834f0e8ac39","665500ab8938657b03fbdba8","6657926fec682fff2873a3b0","397","stimuli/10111111.jpg"," ","","feedback_trial","2","","","","","","","","","","","","","","","","","","","","",""
"","","","","","image-keyboard-response","308","290459","0.0-283.0","63d3f95bba922834f0e8ac39","665500ab8938657b03fbdba8","6657926fec682fff2873a3b0","661","stimuli/2110110.jpg","2","","prediction_trial","2","","true","","2","true","true","true","true","true","true","[2]","110","110","1","","","","","","",""
"","","","","","image-keyboard-response","309","290731","0.0-284.0","63d3f95bba922834f0e8ac39","665500ab8938657b03fbdba8","6657926fec682fff2873a3b0","269","stimuli/21101102.jpg"," ","","feedback_trial","2","","","","","","","","","","","","","","","","","","","","",""
"","","","","","image-keyboard-response","310","291643","0.0-285.0","63d3f95bba922834f0e8ac39","665500ab8938657b03fbdba8","6657926fec682fff2873a3b0","910","stimuli/2110001.jpg","2","","prediction_trial","2","","true","","2","false","true","true","true","false","true","[2]","110","001","1","","","","","","",""
"","","","","","image-keyboard-response","311","291923","0.0-286.0","63d3f95bba922834f0e8ac39","665500ab8938657b03fbdba8","6657926fec682fff2873a3b0","277","stimuli/21100012.jpg"," ","","feedback_trial","2","","","","","","","","","","","","","","","","","","","","",""
"","","","","","image-keyboard-response","312","292659","0.0-287.0","63d3f95bba922834f0e8ac39","665500ab8938657b03fbdba8","6657926fec682fff2873a3b0","733","stimuli/0110010.jpg","0","","prediction_trial","1","","false","","0","true","true","false","false","false","false","[0,1]","110","010","0","","","","","","",""
"","","","","","image-keyboard-response","313","293011","0.0-288.0","63d3f95bba922834f0e8ac39","665500ab8938657b03fbdba8","6657926fec682fff2873a3b0","349","stimuli/01100101.jpg"," ","","feedback_trial","0","","","","","","","","","","","","","","","","","","","","",""
"","","","","","image-keyboard-response","314","293547","0.0-289.0","63d3f95bba922834f0e8ac39","665500ab8938657b03fbdba8","6657926fec682fff2873a3b0","533","stimuli/2100100.jpg","2","","prediction_trial","2","","true","","2","true","true","true","true","true","true","[2]","100","100","1","","","","","","",""
"","","","","","image-keyboard-response","315","293850","0.0-290.0","63d3f95bba922834f0e8ac39","665500ab8938657b03fbdba8","6657926fec682fff2873a3b0","296","stimuli/21001002.jpg"," ","","feedback_trial","2","","","","","","","","","","","","","","","","","","","","",""
"","","","","","image-keyboard-response","316","294411","0.0-291.0","63d3f95bba922834f0e8ac39","665500ab8938657b03fbdba8","6657926fec682fff2873a3b0","558","stimuli/2100000.jpg","2","","prediction_trial","2","","true","","2","true","true","true","true","true","true","[2]","100","000","1","","","","","","",""
"","","","","","image-keyboard-response","317","294683","0.0-292.0","63d3f95bba922834f0e8ac39","665500ab8938657b03fbdba8","6657926fec682fff2873a3b0","269","stimuli/21000002.jpg"," ","","feedback_trial","2","","","","","","","","","","","","","","","","","","","","",""
"","","","","","survey-html-form","318","324558","0.0-293.0","63d3f95bba922834f0e8ac39","665500ab8938657b03fbdba8","6657926fec682fff2873a3b0","29874","","{""feedback"":""I based it off what i could see and what he couldnt"",""age"":""31"",""gender"":""Male"",""other_gender"":"""",""race"":""White"",""other_race"":"""",""ethnicity"":""Non-Hispanic""}","","exit_survey","","","","","","","","","","","","","","","","I based it off what i could see and what he couldnt","31","Non-Hispanic","Male","White","0.5972222222222222","0.5972222222222222"
