"success","timeout","failed_images","failed_audio","failed_video","trial_type","trial_index","time_elapsed","internal_node_id","prolific_id","prolific_study_id","prolific_session_id","rt","stimulus","response","view_history","trial","character_choice","stimulus_dict","accuracy","correct_response","ball_pos","ego_ball_visible","ego_can_infer","alter_ball_visible","alter_can_infer","collective_ball_visible","collective_can_infer","search_locations","alter_occluders","ego_occluders","accuracy_bool","feedback","age","ethnicity","gender","race","overall_accuracy","bonus"
"true","false","[]","[]","[]","preload","0","11376","0.0-0.0","5ea340a26c3ed82b0dbd4d9f","665500ab8938657b03fbdba8","665792c93c30657b3954f005","","","","","","","","","","","","","","","","","","","","","","","","","","",""
"true","","","","","fullscreen","1","19980","0.0-1.0","5ea340a26c3ed82b0dbd4d9f","665500ab8938657b03fbdba8","665792c93c30657b3954f005","","","","","","","","","","","","","","","","","","","","","","","","","","",""
"","","","","","html-button-response","2","25492","0.0-2.0","5ea340a26c3ed82b0dbd4d9f","665500ab8938657b03fbdba8","665792c93c30657b3954f005","5510","<p><b>Consent Form</b></p> <div style=""text-align:left;background-color:lightgrey; padding:20px; max-width:900px;""><p>Please consider this information carefully before deciding whether to participate in this research.</p> <p>The purpose of this research is to examine which factors influence social judgment and decision-making. You will be asked to make judgements about individuals and actions in social scenarios. We are simply interested in your judgement. The study will take less than 1 hour to complete, and you will receive less than $20 on Prolific. Your compensation and time commitment are specified in the study description. There are no anticipated risks associated with participating in this study. The effects of participating should be comparable to those you would ordinarily experience from viewing a computer monitor and using a mouse or keyboard for a similar amount of time. At the end of the study, we will provide an explanation of the questions that motivate this line of research and will describe the potential implications. </p><p> Your participation in this study is completely voluntary and you may refuse to participate or you may choose to withdraw at any time without penalty or loss of benefits to you which are otherwise entitled. Your participation in this study will remain confidential. No personally identifiable information will be associated with your data. Also, all analyses of the data will be averaged across all the participants, so your individual responses will never be specifically analyzed. </p><p> If you have questions or concerns about your participation or payment, or want to request a summary of research findings, please contact Dr. Jonathan Phillips at Jonathan.S.Phillips@dartmouth.edu. </p><p> Please save a copy of this form for your records. </p><p><b>Agreement: </b>The nature and purpose of this research have been sufficiently explained and I agree to participate in this study. I understand that I am free to withdraw at any time without incurring any penalty. Please consent by clicking the button below to continue. Otherwise, please exit the study at any time. </p>","0","","","","","","","","","","","","","","","","","","","","","","","",""
"","","","","","instructions","3","67139","0.0-3.0-0.0","5ea340a26c3ed82b0dbd4d9f","665500ab8938657b03fbdba8","665792c93c30657b3954f005","41647","","","[{""page_index"":0,""viewing_time"":1479},{""page_index"":1,""viewing_time"":1292},{""page_index"":2,""viewing_time"":1332},{""page_index"":3,""viewing_time"":3816},{""page_index"":4,""viewing_time"":1856},{""page_index"":5,""viewing_time"":2728},{""page_index"":6,""viewing_time"":2648},{""page_index"":7,""viewing_time"":2554},{""page_index"":8,""viewing_time"":1758},{""page_index"":9,""viewing_time"":1252},{""page_index"":10,""viewing_time"":11148},{""page_index"":11,""viewing_time"":3990},{""page_index"":12,""viewing_time"":4158},{""page_index"":13,""viewing_time"":1635}]","intro","","","","","","","","","","","","","","","","","","","","","",""
"","","","","","image-keyboard-response","4","69779","0.0-3.0-1.0","5ea340a26c3ed82b0dbd4d9f","665500ab8938657b03fbdba8","665792c93c30657b3954f005","2610","stimuli/0011100.jpg","0","","prediction_practice","0","{""filepath"":""stimuli/0011100.jpg"",""ball_pos"":0,""ego_ball_visible"":false,""ego_can_infer"":true,""alter_ball_visible"":true,""alter_can_infer"":true,""collective_ball_visible"":false,""collective_can_infer"":true,""search_locations"":[0],""alter_occluders"":""011"",""ego_occluders"":""100""}","true","","","","","","","","","","","","","","","","","","",""
"","","","","","image-keyboard-response","5","70841","0.0-3.0-2.0","5ea340a26c3ed82b0dbd4d9f","665500ab8938657b03fbdba8","665792c93c30657b3954f005","1056","stimuli/00111000.jpg"," ","","practrice_feedback","0","","","","","","","","","","","","","","","","","","","","",""
"","","","","","image-keyboard-response","6","71672","0.0-3.0-3.0","5ea340a26c3ed82b0dbd4d9f","665500ab8938657b03fbdba8","665792c93c30657b3954f005","823","stimuli/2000100.jpg","2","","prediction_practice","2","{""filepath"":""stimuli/2000100.jpg"",""ball_pos"":2,""ego_ball_visible"":true,""ego_can_infer"":true,""alter_ball_visible"":true,""alter_can_infer"":true,""collective_ball_visible"":true,""collective_can_infer"":true,""search_locations"":[2],""alter_occluders"":""000"",""ego_occluders"":""100""}","true","","","","","","","","","","","","","","","","","","",""
"","","","","","image-keyboard-response","7","72169","0.0-3.0-4.0","5ea340a26c3ed82b0dbd4d9f","665500ab8938657b03fbdba8","665792c93c30657b3954f005","489","stimuli/20001002.jpg"," ","","practrice_feedback","2","","","","","","","","","","","","","","","","","","","","",""
"","","","","","image-keyboard-response","8","72960","0.0-3.0-5.0","5ea340a26c3ed82b0dbd4d9f","665500ab8938657b03fbdba8","665792c93c30657b3954f005","785","stimuli/2000010.jpg","2","","prediction_practice","2","{""filepath"":""stimuli/2000010.jpg"",""ball_pos"":2,""ego_ball_visible"":true,""ego_can_infer"":true,""alter_ball_visible"":true,""alter_can_infer"":true,""collective_ball_visible"":true,""collective_can_infer"":true,""search_locations"":[2],""alter_occluders"":""000"",""ego_occluders"":""010""}","true","","","","","","","","","","","","","","","","","","",""
"","","","","","image-keyboard-response","9","73408","0.0-3.0-6.0","5ea340a26c3ed82b0dbd4d9f","665500ab8938657b03fbdba8","665792c93c30657b3954f005","441","stimuli/20000102.jpg"," ","","practrice_feedback","2","","","","","","","","","","","","","","","","","","","","",""
"","","","","","image-keyboard-response","10","74040","0.0-3.0-7.0","5ea340a26c3ed82b0dbd4d9f","665500ab8938657b03fbdba8","665792c93c30657b3954f005","626","stimuli/2110110.jpg","2","","prediction_practice","2","{""filepath"":""stimuli/2110110.jpg"",""ball_pos"":2,""ego_ball_visible"":true,""ego_can_infer"":true,""alter_ball_visible"":true,""alter_can_infer"":true,""collective_ball_visible"":true,""collective_can_infer"":true,""search_locations"":[2],""alter_occluders"":""110"",""ego_occluders"":""110""}","true","","","","","","","","","","","","","","","","","","",""
"","","","","","image-keyboard-response","11","74448","0.0-3.0-8.0","5ea340a26c3ed82b0dbd4d9f","665500ab8938657b03fbdba8","665792c93c30657b3954f005","402","stimuli/21101102.jpg"," ","","practrice_feedback","2","","","","","","","","","","","","","","","","","","","","",""
"","","","","","image-keyboard-response","12","76200","0.0-3.0-9.0","5ea340a26c3ed82b0dbd4d9f","665500ab8938657b03fbdba8","665792c93c30657b3954f005","1745","stimuli/2111111.jpg","1","","prediction_practice","1","{""filepath"":""stimuli/2111111.jpg"",""ball_pos"":2,""ego_ball_visible"":false,""ego_can_infer"":false,""alter_ball_visible"":false,""alter_can_infer"":false,""collective_ball_visible"":false,""collective_can_infer"":false,""search_locations"":[1,2,0],""alter_occluders"":""111"",""ego_occluders"":""111""}","true","","","","","","","","","","","","","","","","","","",""
"","","","","","image-keyboard-response","13","77344","0.0-3.0-10.0","5ea340a26c3ed82b0dbd4d9f","665500ab8938657b03fbdba8","665792c93c30657b3954f005","1137","stimuli/21111111.jpg"," ","","practrice_feedback","1","","","","","","","","","","","","","","","","","","","","",""
"","","","","","image-keyboard-response","14","78023","0.0-3.0-11.0","5ea340a26c3ed82b0dbd4d9f","665500ab8938657b03fbdba8","665792c93c30657b3954f005","671","stimuli/0000001.jpg","0","","prediction_practice","0","{""filepath"":""stimuli/0000001.jpg"",""ball_pos"":0,""ego_ball_visible"":true,""ego_can_infer"":true,""alter_ball_visible"":true,""alter_can_infer"":true,""collective_ball_visible"":true,""collective_can_infer"":true,""search_locations"":[0],""alter_occluders"":""000"",""ego_occluders"":""001""}","true","","","","","","","","","","","","","","","","","","",""
"","","","","","image-keyboard-response","15","78336","0.0-3.0-12.0","5ea340a26c3ed82b0dbd4d9f","665500ab8938657b03fbdba8","665792c93c30657b3954f005","305","stimuli/00000010.jpg"," ","","practrice_feedback","0","","","","","","","","","","","","","","","","","","","","",""
"","","","","","image-keyboard-response","16","79224","0.0-3.0-13.0","5ea340a26c3ed82b0dbd4d9f","665500ab8938657b03fbdba8","665792c93c30657b3954f005","882","stimuli/1000010.jpg","1","","prediction_practice","1","{""filepath"":""stimuli/1000010.jpg"",""ball_pos"":1,""ego_ball_visible"":false,""ego_can_infer"":true,""alter_ball_visible"":true,""alter_can_infer"":true,""collective_ball_visible"":false,""collective_can_infer"":true,""search_locations"":[1],""alter_occluders"":""000"",""ego_occluders"":""010""}","true","","","","","","","","","","","","","","","","","","",""
"","","","","","image-keyboard-response","17","79504","0.0-3.0-14.0","5ea340a26c3ed82b0dbd4d9f","665500ab8938657b03fbdba8","665792c93c30657b3954f005","272","stimuli/10000101.jpg"," ","","practrice_feedback","1","","","","","","","","","","","","","","","","","","","","",""
"","","","","","image-keyboard-response","18","80320","0.0-3.0-15.0","5ea340a26c3ed82b0dbd4d9f","665500ab8938657b03fbdba8","665792c93c30657b3954f005","809","stimuli/1010010.jpg","1","","prediction_practice","1","{""filepath"":""stimuli/1010010.jpg"",""ball_pos"":1,""ego_ball_visible"":false,""ego_can_infer"":true,""alter_ball_visible"":false,""alter_can_infer"":true,""collective_ball_visible"":false,""collective_can_infer"":true,""search_locations"":[1],""alter_occluders"":""010"",""ego_occluders"":""010""}","true","","","","","","","","","","","","","","","","","","",""
"","","","","","image-keyboard-response","19","80616","0.0-3.0-16.0","5ea340a26c3ed82b0dbd4d9f","665500ab8938657b03fbdba8","665792c93c30657b3954f005","289","stimuli/10100101.jpg"," ","","practrice_feedback","1","","","","","","","","","","","","","","","","","","","","",""
"","","","","","image-keyboard-response","20","81272","0.0-3.0-17.0","5ea340a26c3ed82b0dbd4d9f","665500ab8938657b03fbdba8","665792c93c30657b3954f005","651","stimuli/1100001.jpg","1","","prediction_practice","1","{""filepath"":""stimuli/1100001.jpg"",""ball_pos"":1,""ego_ball_visible"":true,""ego_can_infer"":true,""alter_ball_visible"":true,""alter_can_infer"":true,""collective_ball_visible"":true,""collective_can_infer"":true,""search_locations"":[1],""alter_occluders"":""100"",""ego_occluders"":""001""}","true","","","","","","","","","","","","","","","","","","",""
"","","","","","image-keyboard-response","21","81592","0.0-3.0-18.0","5ea340a26c3ed82b0dbd4d9f","665500ab8938657b03fbdba8","665792c93c30657b3954f005","314","stimuli/11000011.jpg"," ","","practrice_feedback","1","","","","","","","","","","","","","","","","","","","","",""
"","","","","","image-keyboard-response","22","82048","0.0-3.0-19.0","5ea340a26c3ed82b0dbd4d9f","665500ab8938657b03fbdba8","665792c93c30657b3954f005","449","stimuli/1000001.jpg","1","","prediction_practice","1","{""filepath"":""stimuli/1000001.jpg"",""ball_pos"":1,""ego_ball_visible"":true,""ego_can_infer"":true,""alter_ball_visible"":true,""alter_can_infer"":true,""collective_ball_visible"":true,""collective_can_infer"":true,""search_locations"":[1],""alter_occluders"":""000"",""ego_occluders"":""001""}","true","","","","","","","","","","","","","","","","","","",""
"","","","","","image-keyboard-response","23","82312","0.0-3.0-20.0","5ea340a26c3ed82b0dbd4d9f","665500ab8938657b03fbdba8","665792c93c30657b3954f005","256","stimuli/10000011.jpg"," ","","practrice_feedback","1","","","","","","","","","","","","","","","","","","","","",""
"","","","","","html-button-response","24","84386","0.0-3.0-21.0","5ea340a26c3ed82b0dbd4d9f","665500ab8938657b03fbdba8","665792c93c30657b3954f005","2073","Now that you've had some practice, you'll be tested with a couple of easy trials. If you correctly predict Sam's choice, you'll move on to complete the experiment!","0","","","","","","","","","","","","","","","","","","","","","","","",""
"","","","","","image-keyboard-response","25","85513","0.0-3.0-22.0-0.0","5ea340a26c3ed82b0dbd4d9f","665500ab8938657b03fbdba8","665792c93c30657b3954f005","1122","stimuli/0000011.jpg","arrowleft","","comprehension_quiz","","","true","arrowleft","","","","","","","","","","","","","","","","","",""
"","","","","","image-keyboard-response","26","86007","0.0-3.0-22.0-1.0","5ea340a26c3ed82b0dbd4d9f","665500ab8938657b03fbdba8","665792c93c30657b3954f005","487","stimuli/00000110.jpg"," ","","comprehension_quiz","","","true"," ","","","","","","","","","","","","","","","","","",""
"","","","","","image-keyboard-response","27","86686","0.0-3.0-22.0-2.0","5ea340a26c3ed82b0dbd4d9f","665500ab8938657b03fbdba8","665792c93c30657b3954f005","678","stimuli/1010010.jpg","arrowdown","","comprehension_quiz","","","true","arrowdown","","","","","","","","","","","","","","","","","",""
"","","","","","image-keyboard-response","28","86959","0.0-3.0-22.0-3.0","5ea340a26c3ed82b0dbd4d9f","665500ab8938657b03fbdba8","665792c93c30657b3954f005","272","stimuli/10100101.jpg"," ","","comprehension_quiz","","","true"," ","","","","","","","","","","","","","","","","","",""
"","","","","","html-button-response","29","88769","0.0-4.0","5ea340a26c3ed82b0dbd4d9f","665500ab8938657b03fbdba8","665792c93c30657b3954f005","1809","The experiment will now begin.","0","","","","","","","","","","","","","","","","","","","","","","","",""
"","","","","","image-keyboard-response","30","89696","0.0-5.0","5ea340a26c3ed82b0dbd4d9f","665500ab8938657b03fbdba8","665792c93c30657b3954f005","925","stimuli/0011100.jpg","0","","prediction_trial","0","","true","","0","false","true","true","true","false","true","[0]","011","100","1","","","","","","",""
"","","","","","image-keyboard-response","31","90232","0.0-6.0","5ea340a26c3ed82b0dbd4d9f","665500ab8938657b03fbdba8","665792c93c30657b3954f005","534","stimuli/00111000.jpg"," ","","feedback_trial","0","","","","","","","","","","","","","","","","","","","","",""
"","","","","","image-keyboard-response","32","91222","0.0-7.0","5ea340a26c3ed82b0dbd4d9f","665500ab8938657b03fbdba8","665792c93c30657b3954f005","988","stimuli/1111000.jpg","1","","prediction_trial","2","","false","","1","true","true","false","false","false","false","[2,0,1]","111","000","0","","","","","","",""
"","","","","","image-keyboard-response","33","92719","0.0-8.0","5ea340a26c3ed82b0dbd4d9f","665500ab8938657b03fbdba8","665792c93c30657b3954f005","1491","stimuli/11110002.jpg"," ","","feedback_trial","2","","","","","","","","","","","","","","","","","","","","",""
"","","","","","image-keyboard-response","34","95368","0.0-9.0","5ea340a26c3ed82b0dbd4d9f","665500ab8938657b03fbdba8","665792c93c30657b3954f005","2642","stimuli/1111011.jpg","1","","prediction_trial","0","","false","","1","false","false","false","false","false","false","[0,2,1]","111","011","0","","","","","","",""
"","","","","","image-keyboard-response","35","95838","0.0-10.0","5ea340a26c3ed82b0dbd4d9f","665500ab8938657b03fbdba8","665792c93c30657b3954f005","463","stimuli/11110110.jpg"," ","","feedback_trial","0","","","","","","","","","","","","","","","","","","","","",""
"","","","","","image-keyboard-response","36","96448","0.0-11.0","5ea340a26c3ed82b0dbd4d9f","665500ab8938657b03fbdba8","665792c93c30657b3954f005","604","stimuli/1111101.jpg","1","","prediction_trial","1","","true","","1","true","true","false","false","false","false","[1,2,0]","111","101","1","","","","","","",""
"","","","","","image-keyboard-response","37","96998","0.0-12.0","5ea340a26c3ed82b0dbd4d9f","665500ab8938657b03fbdba8","665792c93c30657b3954f005","544","stimuli/11111011.jpg"," ","","feedback_trial","1","","","","","","","","","","","","","","","","","","","","",""
"","","","","","image-keyboard-response","38","98480","0.0-13.0","5ea340a26c3ed82b0dbd4d9f","665500ab8938657b03fbdba8","665792c93c30657b3954f005","1476","stimuli/1010100.jpg","1","","prediction_trial","1","","true","","1","true","true","false","true","false","true","[1]","010","100","1","","","","","","",""
"","","","","","image-keyboard-response","39","99423","0.0-14.0","5ea340a26c3ed82b0dbd4d9f","665500ab8938657b03fbdba8","665792c93c30657b3954f005","937","stimuli/10101001.jpg"," ","","feedback_trial","1","","","","","","","","","","","","","","","","","","","","",""
"","","","","","image-keyboard-response","40","101038","0.0-15.0","5ea340a26c3ed82b0dbd4d9f","665500ab8938657b03fbdba8","665792c93c30657b3954f005","1609","stimuli/0110100.jpg","1","","prediction_trial","1","","true","","0","false","true","false","false","false","false","[0,1]","110","100","1","","","","","","",""
"","","","","","image-keyboard-response","41","101575","0.0-16.0","5ea340a26c3ed82b0dbd4d9f","665500ab8938657b03fbdba8","665792c93c30657b3954f005","532","stimuli/01101001.jpg"," ","","feedback_trial","0","","","","","","","","","","","","","","","","","","","","",""
"","","","","","image-keyboard-response","42","102927","0.0-17.0","5ea340a26c3ed82b0dbd4d9f","665500ab8938657b03fbdba8","665792c93c30657b3954f005","1345","stimuli/0111101.jpg","0","","prediction_trial","1","","false","","0","false","false","false","false","false","false","[1,0,2]","111","101","0","","","","","","",""
"","","","","","image-keyboard-response","43","103743","0.0-18.0","5ea340a26c3ed82b0dbd4d9f","665500ab8938657b03fbdba8","665792c93c30657b3954f005","809","stimuli/01111011.jpg"," ","","feedback_trial","1","","","","","","","","","","","","","","","","","","","","",""
"","","","","","image-keyboard-response","44","104640","0.0-19.0","5ea340a26c3ed82b0dbd4d9f","665500ab8938657b03fbdba8","665792c93c30657b3954f005","890","stimuli/0110110.jpg","0","","prediction_trial","1","","false","","0","false","false","false","false","false","false","[1,0]","110","110","0","","","","","","",""
"","","","","","image-keyboard-response","45","105262","0.0-20.0","5ea340a26c3ed82b0dbd4d9f","665500ab8938657b03fbdba8","665792c93c30657b3954f005","616","stimuli/01101101.jpg"," ","","feedback_trial","1","","","","","","","","","","","","","","","","","","","","",""
"","","","","","image-keyboard-response","46","106126","0.0-21.0","5ea340a26c3ed82b0dbd4d9f","665500ab8938657b03fbdba8","665792c93c30657b3954f005","858","stimuli/0011001.jpg","0","","prediction_trial","0","","true","","0","true","true","true","true","true","true","[0]","011","001","1","","","","","","",""
"","","","","","image-keyboard-response","47","106583","0.0-22.0","5ea340a26c3ed82b0dbd4d9f","665500ab8938657b03fbdba8","665792c93c30657b3954f005","453","stimuli/00110010.jpg"," ","","feedback_trial","0","","","","","","","","","","","","","","","","","","","","",""
"","","","","","image-keyboard-response","48","107935","0.0-23.0","5ea340a26c3ed82b0dbd4d9f","665500ab8938657b03fbdba8","665792c93c30657b3954f005","1345","stimuli/0101001.jpg","2","","prediction_trial","0","","false","","0","true","true","false","false","false","false","[2,0]","101","001","0","","","","","","",""
"","","","","","image-keyboard-response","49","108447","0.0-24.0","5ea340a26c3ed82b0dbd4d9f","665500ab8938657b03fbdba8","665792c93c30657b3954f005","506","stimuli/01010010.jpg"," ","","feedback_trial","2","","","","","","","","","","","","","","","","","","","","",""
"","","","","","image-keyboard-response","50","109935","0.0-25.0","5ea340a26c3ed82b0dbd4d9f","665500ab8938657b03fbdba8","665792c93c30657b3954f005","1482","stimuli/2000011.jpg","1","","prediction_trial","2","","false","","2","false","false","true","true","false","false","[2]","000","011","0","","","","","","",""
"","","","","","image-keyboard-response","51","110614","0.0-26.0","5ea340a26c3ed82b0dbd4d9f","665500ab8938657b03fbdba8","665792c93c30657b3954f005","672","stimuli/20000112.jpg"," ","","feedback_trial","2","","","","","","","","","","","","","","","","","","","","",""
"","","","","","image-keyboard-response","52","111686","0.0-27.0","5ea340a26c3ed82b0dbd4d9f","665500ab8938657b03fbdba8","665792c93c30657b3954f005","1068","stimuli/0000110.jpg","1","","prediction_trial","0","","false","","0","false","false","true","true","false","false","[0]","000","110","0","","","","","","",""
"","","","","","image-keyboard-response","53","112094","0.0-28.0","5ea340a26c3ed82b0dbd4d9f","665500ab8938657b03fbdba8","665792c93c30657b3954f005","402","stimuli/00001100.jpg"," ","","feedback_trial","0","","","","","","","","","","","","","","","","","","","","",""
"","","","","","image-keyboard-response","54","113615","0.0-29.0","5ea340a26c3ed82b0dbd4d9f","665500ab8938657b03fbdba8","665792c93c30657b3954f005","1513","stimuli/0010100.jpg","0","","prediction_trial","0","","true","","0","false","true","true","true","false","true","[0]","010","100","1","","","","","","",""
"","","","","","image-keyboard-response","55","114037","0.0-30.0","5ea340a26c3ed82b0dbd4d9f","665500ab8938657b03fbdba8","665792c93c30657b3954f005","416","stimuli/00101000.jpg"," ","","feedback_trial","0","","","","","","","","","","","","","","","","","","","","",""
"","","","","","image-keyboard-response","56","114902","0.0-31.0","5ea340a26c3ed82b0dbd4d9f","665500ab8938657b03fbdba8","665792c93c30657b3954f005","860","stimuli/2010001.jpg","2","","prediction_trial","2","","true","","2","false","true","true","true","false","true","[2]","010","001","1","","","","","","",""
"","","","","","image-keyboard-response","57","115318","0.0-32.0","5ea340a26c3ed82b0dbd4d9f","665500ab8938657b03fbdba8","665792c93c30657b3954f005","410","stimuli/20100012.jpg"," ","","feedback_trial","2","","","","","","","","","","","","","","","","","","","","",""
"","","","","","image-keyboard-response","58","116366","0.0-33.0","5ea340a26c3ed82b0dbd4d9f","665500ab8938657b03fbdba8","665792c93c30657b3954f005","1041","stimuli/1101010.jpg","1","","prediction_trial","1","","true","","1","false","true","true","true","false","true","[1]","101","010","1","","","","","","",""
"","","","","","image-keyboard-response","59","116614","0.0-34.0","5ea340a26c3ed82b0dbd4d9f","665500ab8938657b03fbdba8","665792c93c30657b3954f005","241","stimuli/11010101.jpg"," ","","feedback_trial","1","","","","","","","","","","","","","","","","","","","","",""
"","","","","","image-keyboard-response","60","117270","0.0-35.0","5ea340a26c3ed82b0dbd4d9f","665500ab8938657b03fbdba8","665792c93c30657b3954f005","651","stimuli/1100101.jpg","1","","prediction_trial","1","","true","","1","true","true","true","true","true","true","[1]","100","101","1","","","","","","",""
"","","","","","image-keyboard-response","61","117607","0.0-36.0","5ea340a26c3ed82b0dbd4d9f","665500ab8938657b03fbdba8","665792c93c30657b3954f005","331","stimuli/11001011.jpg"," ","","feedback_trial","1","","","","","","","","","","","","","","","","","","","","",""
"","","","","","image-keyboard-response","62","118264","0.0-37.0","5ea340a26c3ed82b0dbd4d9f","665500ab8938657b03fbdba8","665792c93c30657b3954f005","649","stimuli/0011111.jpg","0","","prediction_trial","0","","true","","0","false","false","true","true","false","false","[0]","011","111","1","","","","","","",""
"","","","","","image-keyboard-response","63","118383","0.0-38.0","5ea340a26c3ed82b0dbd4d9f","665500ab8938657b03fbdba8","665792c93c30657b3954f005","111","stimuli/00111110.jpg"," ","","feedback_trial","0","","","","","","","","","","","","","","","","","","","","",""
"","","","","","image-keyboard-response","64","120070","0.0-39.0","5ea340a26c3ed82b0dbd4d9f","665500ab8938657b03fbdba8","665792c93c30657b3954f005","1681","stimuli/1110001.jpg","1","","prediction_trial","1","","true","","1","true","true","false","false","false","false","[1,0]","110","001","1","","","","","","",""
"","","","","","image-keyboard-response","65","120407","0.0-40.0","5ea340a26c3ed82b0dbd4d9f","665500ab8938657b03fbdba8","665792c93c30657b3954f005","330","stimuli/11100011.jpg"," ","","feedback_trial","1","","","","","","","","","","","","","","","","","","","","",""
"","","","","","image-keyboard-response","66","121198","0.0-41.0","5ea340a26c3ed82b0dbd4d9f","665500ab8938657b03fbdba8","665792c93c30657b3954f005","785","stimuli/2011111.jpg","0","","prediction_trial","2","","false","","2","false","false","false","false","false","false","[1,2]","011","111","0","","","","","","",""
"","","","","","image-keyboard-response","67","121622","0.0-42.0","5ea340a26c3ed82b0dbd4d9f","665500ab8938657b03fbdba8","665792c93c30657b3954f005","417","stimuli/20111112.jpg"," ","","feedback_trial","1","","","","","","","","","","","","","","","","","","","","",""
"","","","","","image-keyboard-response","68","122695","0.0-43.0","5ea340a26c3ed82b0dbd4d9f","665500ab8938657b03fbdba8","665792c93c30657b3954f005","1067","stimuli/2010000.jpg","2","","prediction_trial","2","","true","","2","true","true","true","true","true","true","[2]","010","000","1","","","","","","",""
"","","","","","image-keyboard-response","69","123031","0.0-44.0","5ea340a26c3ed82b0dbd4d9f","665500ab8938657b03fbdba8","665792c93c30657b3954f005","327","stimuli/20100002.jpg"," ","","feedback_trial","2","","","","","","","","","","","","","","","","","","","","",""
"","","","","","image-keyboard-response","70","124606","0.0-45.0","5ea340a26c3ed82b0dbd4d9f","665500ab8938657b03fbdba8","665792c93c30657b3954f005","1569","stimuli/1010001.jpg","1","","prediction_trial","1","","true","","1","true","true","false","true","false","true","[1]","010","001","1","","","","","","",""
"","","","","","image-keyboard-response","71","124878","0.0-46.0","5ea340a26c3ed82b0dbd4d9f","665500ab8938657b03fbdba8","665792c93c30657b3954f005","264","stimuli/10100011.jpg"," ","","feedback_trial","1","","","","","","","","","","","","","","","","","","","","",""
"","","","","","image-keyboard-response","72","126008","0.0-47.0","5ea340a26c3ed82b0dbd4d9f","665500ab8938657b03fbdba8","665792c93c30657b3954f005","1124","stimuli/1111010.jpg","2","","prediction_trial","1","","false","","1","false","true","false","false","false","false","[0,1,2]","111","010","0","","","","","","",""
"","","","","","image-keyboard-response","73","126350","0.0-48.0","5ea340a26c3ed82b0dbd4d9f","665500ab8938657b03fbdba8","665792c93c30657b3954f005","337","stimuli/11110101.jpg"," ","","feedback_trial","0","","","","","","","","","","","","","","","","","","","","",""
"","","","","","image-keyboard-response","74","126990","0.0-49.0","5ea340a26c3ed82b0dbd4d9f","665500ab8938657b03fbdba8","665792c93c30657b3954f005","634","stimuli/1101100.jpg","1","","prediction_trial","1","","true","","1","true","true","true","true","true","true","[1]","101","100","1","","","","","","",""
"","","","","","image-keyboard-response","75","127294","0.0-50.0","5ea340a26c3ed82b0dbd4d9f","665500ab8938657b03fbdba8","665792c93c30657b3954f005","297","stimuli/11011001.jpg"," ","","feedback_trial","1","","","","","","","","","","","","","","","","","","","","",""
"","","","","","image-keyboard-response","76","128911","0.0-51.0","5ea340a26c3ed82b0dbd4d9f","665500ab8938657b03fbdba8","665792c93c30657b3954f005","1610","stimuli/1100110.jpg","1","","prediction_trial","1","","true","","1","false","false","true","true","false","false","[1]","100","110","1","","","","","","",""
"","","","","","image-keyboard-response","77","129293","0.0-52.0","5ea340a26c3ed82b0dbd4d9f","665500ab8938657b03fbdba8","665792c93c30657b3954f005","377","stimuli/11001101.jpg"," ","","feedback_trial","1","","","","","","","","","","","","","","","","","","","","",""
"","","","","","image-keyboard-response","78","130653","0.0-53.0","5ea340a26c3ed82b0dbd4d9f","665500ab8938657b03fbdba8","665792c93c30657b3954f005","1353","stimuli/2010110.jpg","2","","prediction_trial","2","","true","","2","true","true","true","true","true","true","[2]","010","110","1","","","","","","",""
"","","","","","image-keyboard-response","79","130998","0.0-54.0","5ea340a26c3ed82b0dbd4d9f","665500ab8938657b03fbdba8","665792c93c30657b3954f005","339","stimuli/20101102.jpg"," ","","feedback_trial","2","","","","","","","","","","","","","","","","","","","","",""
"","","","","","image-keyboard-response","80","131533","0.0-55.0","5ea340a26c3ed82b0dbd4d9f","665500ab8938657b03fbdba8","665792c93c30657b3954f005","528","stimuli/0011011.jpg","0","","prediction_trial","0","","true","","0","true","true","true","true","true","true","[0]","011","011","1","","","","","","",""
"","","","","","image-keyboard-response","81","131742","0.0-56.0","5ea340a26c3ed82b0dbd4d9f","665500ab8938657b03fbdba8","665792c93c30657b3954f005","205","stimuli/00110110.jpg"," ","","feedback_trial","0","","","","","","","","","","","","","","","","","","","","",""
"","","","","","image-keyboard-response","82","133414","0.0-57.0","5ea340a26c3ed82b0dbd4d9f","665500ab8938657b03fbdba8","665792c93c30657b3954f005","1666","stimuli/0101010.jpg","0","","prediction_trial","2","","false","","0","true","true","false","false","false","false","[0,2]","101","010","0","","","","","","",""
"","","","","","image-keyboard-response","83","133917","0.0-58.0","5ea340a26c3ed82b0dbd4d9f","665500ab8938657b03fbdba8","665792c93c30657b3954f005","497","stimuli/01010102.jpg"," ","","feedback_trial","0","","","","","","","","","","","","","","","","","","","","",""
"","","","","","image-keyboard-response","84","134669","0.0-59.0","5ea340a26c3ed82b0dbd4d9f","665500ab8938657b03fbdba8","665792c93c30657b3954f005","746","stimuli/2111100.jpg","2","","prediction_trial","1","","false","","2","true","true","false","false","false","false","[1,0,2]","111","100","0","","","","","","",""
"","","","","","image-keyboard-response","85","135022","0.0-60.0","5ea340a26c3ed82b0dbd4d9f","665500ab8938657b03fbdba8","665792c93c30657b3954f005","347","stimuli/21111001.jpg"," ","","feedback_trial","1","","","","","","","","","","","","","","","","","","","","",""
"","","","","","image-keyboard-response","86","135821","0.0-61.0","5ea340a26c3ed82b0dbd4d9f","665500ab8938657b03fbdba8","665792c93c30657b3954f005","793","stimuli/1011111.jpg","0","","prediction_trial","1","","false","","1","false","false","false","false","false","false","[2,1]","011","111","0","","","","","","",""
"","","","","","image-keyboard-response","87","136149","0.0-62.0","5ea340a26c3ed82b0dbd4d9f","665500ab8938657b03fbdba8","665792c93c30657b3954f005","324","stimuli/10111111.jpg"," ","","feedback_trial","2","","","","","","","","","","","","","","","","","","","","",""
"","","","","","image-keyboard-response","88","137310","0.0-63.0","5ea340a26c3ed82b0dbd4d9f","665500ab8938657b03fbdba8","665792c93c30657b3954f005","1154","stimuli/0111000.jpg","1","","prediction_trial","2","","false","","0","true","true","false","false","false","false","[0,1,2]","111","000","0","","","","","","",""
"","","","","","image-keyboard-response","89","137662","0.0-64.0","5ea340a26c3ed82b0dbd4d9f","665500ab8938657b03fbdba8","665792c93c30657b3954f005","346","stimuli/01110002.jpg"," ","","feedback_trial","0","","","","","","","","","","","","","","","","","","","","",""
"","","","","","image-keyboard-response","90","138367","0.0-65.0","5ea340a26c3ed82b0dbd4d9f","665500ab8938657b03fbdba8","665792c93c30657b3954f005","698","stimuli/0111001.jpg","1","","prediction_trial","2","","false","","0","true","true","false","false","false","false","[1,0,2]","111","001","0","","","","","","",""
"","","","","","image-keyboard-response","91","138614","0.0-66.0","5ea340a26c3ed82b0dbd4d9f","665500ab8938657b03fbdba8","665792c93c30657b3954f005","239","stimuli/01110012.jpg"," ","","feedback_trial","1","","","","","","","","","","","","","","","","","","","","",""
"","","","","","image-keyboard-response","92","140343","0.0-67.0","5ea340a26c3ed82b0dbd4d9f","665500ab8938657b03fbdba8","665792c93c30657b3954f005","1721","stimuli/2101000.jpg","2","","prediction_trial","2","","true","","2","true","true","false","false","false","false","[0,2]","101","000","1","","","","","","",""
"","","","","","image-keyboard-response","93","140685","0.0-68.0","5ea340a26c3ed82b0dbd4d9f","665500ab8938657b03fbdba8","665792c93c30657b3954f005","336","stimuli/21010002.jpg"," ","","feedback_trial","0","","","","","","","","","","","","","","","","","","","","",""
"","","","","","image-keyboard-response","94","141919","0.0-69.0","5ea340a26c3ed82b0dbd4d9f","665500ab8938657b03fbdba8","665792c93c30657b3954f005","1226","stimuli/1100111.jpg","0","","prediction_trial","1","","false","","1","false","false","true","true","false","false","[1]","100","111","0","","","","","","",""
"","","","","","image-keyboard-response","95","142358","0.0-70.0","5ea340a26c3ed82b0dbd4d9f","665500ab8938657b03fbdba8","665792c93c30657b3954f005","431","stimuli/11001111.jpg"," ","","feedback_trial","1","","","","","","","","","","","","","","","","","","","","",""
"","","","","","image-keyboard-response","96","143550","0.0-71.0","5ea340a26c3ed82b0dbd4d9f","665500ab8938657b03fbdba8","665792c93c30657b3954f005","1184","stimuli/2101101.jpg","2","","prediction_trial","2","","true","","2","false","false","false","false","false","false","[0,2]","101","101","1","","","","","","",""
"","","","","","image-keyboard-response","97","143869","0.0-72.0","5ea340a26c3ed82b0dbd4d9f","665500ab8938657b03fbdba8","665792c93c30657b3954f005","313","stimuli/21011012.jpg"," ","","feedback_trial","0","","","","","","","","","","","","","","","","","","","","",""
"","","","","","image-keyboard-response","98","144533","0.0-73.0","5ea340a26c3ed82b0dbd4d9f","665500ab8938657b03fbdba8","665792c93c30657b3954f005","658","stimuli/0001011.jpg","0","","prediction_trial","0","","true","","0","true","true","true","true","true","true","[0]","001","011","1","","","","","","",""
"","","","","","image-keyboard-response","99","144862","0.0-74.0","5ea340a26c3ed82b0dbd4d9f","665500ab8938657b03fbdba8","665792c93c30657b3954f005","321","stimuli/00010110.jpg"," ","","feedback_trial","0","","","","","","","","","","","","","","","","","","","","",""
"","","","","","image-keyboard-response","100","146238","0.0-75.0","5ea340a26c3ed82b0dbd4d9f","665500ab8938657b03fbdba8","665792c93c30657b3954f005","1370","stimuli/1111110.jpg","1","","prediction_trial","0","","false","","1","false","false","false","false","false","false","[2,1,0]","111","110","0","","","","","","",""
"","","","","","image-keyboard-response","101","146573","0.0-76.0","5ea340a26c3ed82b0dbd4d9f","665500ab8938657b03fbdba8","665792c93c30657b3954f005","329","stimuli/11111100.jpg"," ","","feedback_trial","2","","","","","","","","","","","","","","","","","","","","",""
"","","","","","image-keyboard-response","102","147829","0.0-77.0","5ea340a26c3ed82b0dbd4d9f","665500ab8938657b03fbdba8","665792c93c30657b3954f005","1248","stimuli/1101011.jpg","1","","prediction_trial","1","","true","","1","false","false","true","true","false","false","[1]","101","011","1","","","","","","",""
"","","","","","image-keyboard-response","103","148165","0.0-78.0","5ea340a26c3ed82b0dbd4d9f","665500ab8938657b03fbdba8","665792c93c30657b3954f005","329","stimuli/11010111.jpg"," ","","feedback_trial","1","","","","","","","","","","","","","","","","","","","","",""
"","","","","","image-keyboard-response","104","149477","0.0-79.0","5ea340a26c3ed82b0dbd4d9f","665500ab8938657b03fbdba8","665792c93c30657b3954f005","1306","stimuli/1001010.jpg","1","","prediction_trial","1","","true","","1","false","true","true","true","false","true","[1]","001","010","1","","","","","","",""
"","","","","","image-keyboard-response","105","149814","0.0-80.0","5ea340a26c3ed82b0dbd4d9f","665500ab8938657b03fbdba8","665792c93c30657b3954f005","330","stimuli/10010101.jpg"," ","","feedback_trial","1","","","","","","","","","","","","","","","","","","","","",""
"","","","","","image-keyboard-response","106","151558","0.0-81.0","5ea340a26c3ed82b0dbd4d9f","665500ab8938657b03fbdba8","665792c93c30657b3954f005","1738","stimuli/2011011.jpg","1","","prediction_trial","1","","true","","2","false","false","false","false","false","false","[2,1]","011","011","1","","","","","","",""
"","","","","","image-keyboard-response","107","151845","0.0-82.0","5ea340a26c3ed82b0dbd4d9f","665500ab8938657b03fbdba8","665792c93c30657b3954f005","282","stimuli/20110111.jpg"," ","","feedback_trial","2","","","","","","","","","","","","","","","","","","","","",""
"","","","","","image-keyboard-response","108","152678","0.0-83.0","5ea340a26c3ed82b0dbd4d9f","665500ab8938657b03fbdba8","665792c93c30657b3954f005","826","stimuli/1001110.jpg","1","","prediction_trial","1","","true","","1","false","false","true","true","false","false","[1]","001","110","1","","","","","","",""
"","","","","","image-keyboard-response","109","152999","0.0-84.0","5ea340a26c3ed82b0dbd4d9f","665500ab8938657b03fbdba8","665792c93c30657b3954f005","314","stimuli/10011101.jpg"," ","","feedback_trial","1","","","","","","","","","","","","","","","","","","","","",""
"","","","","","image-keyboard-response","110","154885","0.0-85.0","5ea340a26c3ed82b0dbd4d9f","665500ab8938657b03fbdba8","665792c93c30657b3954f005","1878","stimuli/2101100.jpg","0","","prediction_trial","2","","false","","2","true","true","false","false","false","false","[2,0]","101","100","0","","","","","","",""
"","","","","","image-keyboard-response","111","155294","0.0-86.0","5ea340a26c3ed82b0dbd4d9f","665500ab8938657b03fbdba8","665792c93c30657b3954f005","403","stimuli/21011002.jpg"," ","","feedback_trial","2","","","","","","","","","","","","","","","","","","","","",""
"","","","","","image-keyboard-response","112","156150","0.0-87.0","5ea340a26c3ed82b0dbd4d9f","665500ab8938657b03fbdba8","665792c93c30657b3954f005","849","stimuli/1000100.jpg","1","","prediction_trial","1","","true","","1","true","true","true","true","true","true","[1]","000","100","1","","","","","","",""
"","","","","","image-keyboard-response","113","156437","0.0-88.0","5ea340a26c3ed82b0dbd4d9f","665500ab8938657b03fbdba8","665792c93c30657b3954f005","280","stimuli/10001001.jpg"," ","","feedback_trial","1","","","","","","","","","","","","","","","","","","","","",""
"","","","","","image-keyboard-response","114","157134","0.0-89.0","5ea340a26c3ed82b0dbd4d9f","665500ab8938657b03fbdba8","665792c93c30657b3954f005","691","stimuli/1110011.jpg","2","","prediction_trial","0","","false","","1","false","false","false","false","false","false","[0,1]","110","011","0","","","","","","",""
"","","","","","image-keyboard-response","115","157486","0.0-90.0","5ea340a26c3ed82b0dbd4d9f","665500ab8938657b03fbdba8","665792c93c30657b3954f005","343","stimuli/11100110.jpg"," ","","feedback_trial","0","","","","","","","","","","","","","","","","","","","","",""
"","","","","","image-keyboard-response","116","158437","0.0-91.0","5ea340a26c3ed82b0dbd4d9f","665500ab8938657b03fbdba8","665792c93c30657b3954f005","944","stimuli/1110010.jpg","1","","prediction_trial","1","","true","","1","false","true","false","false","false","false","[0,1]","110","010","1","","","","","","",""
"","","","","","image-keyboard-response","117","158766","0.0-92.0","5ea340a26c3ed82b0dbd4d9f","665500ab8938657b03fbdba8","665792c93c30657b3954f005","321","stimuli/11100101.jpg"," ","","feedback_trial","0","","","","","","","","","","","","","","","","","","","","",""
"","","","","","image-keyboard-response","118","159589","0.0-93.0","5ea340a26c3ed82b0dbd4d9f","665500ab8938657b03fbdba8","665792c93c30657b3954f005","818","stimuli/2001100.jpg","1","","prediction_trial","2","","false","","2","true","true","false","true","false","true","[2]","001","100","0","","","","","","",""
"","","","","","image-keyboard-response","119","160269","0.0-94.0","5ea340a26c3ed82b0dbd4d9f","665500ab8938657b03fbdba8","665792c93c30657b3954f005","674","stimuli/20011002.jpg"," ","","feedback_trial","2","","","","","","","","","","","","","","","","","","","","",""
"","","","","","image-keyboard-response","120","161165","0.0-95.0","5ea340a26c3ed82b0dbd4d9f","665500ab8938657b03fbdba8","665792c93c30657b3954f005","889","stimuli/2000101.jpg","2","","prediction_trial","2","","true","","2","false","false","true","true","false","false","[2]","000","101","1","","","","","","",""
"","","","","","image-keyboard-response","121","161461","0.0-96.0","5ea340a26c3ed82b0dbd4d9f","665500ab8938657b03fbdba8","665792c93c30657b3954f005","289","stimuli/20001012.jpg"," ","","feedback_trial","2","","","","","","","","","","","","","","","","","","","","",""
"","","","","","image-keyboard-response","122","162500","0.0-97.0","5ea340a26c3ed82b0dbd4d9f","665500ab8938657b03fbdba8","665792c93c30657b3954f005","1033","stimuli/1010011.jpg","2","","prediction_trial","1","","false","","1","false","false","false","true","false","false","[1]","010","011","0","","","","","","",""
"","","","","","image-keyboard-response","123","162964","0.0-98.0","5ea340a26c3ed82b0dbd4d9f","665500ab8938657b03fbdba8","665792c93c30657b3954f005","458","stimuli/10100111.jpg"," ","","feedback_trial","1","","","","","","","","","","","","","","","","","","","","",""
"","","","","","image-keyboard-response","124","164019","0.0-99.0","5ea340a26c3ed82b0dbd4d9f","665500ab8938657b03fbdba8","665792c93c30657b3954f005","1050","stimuli/1110111.jpg","0","","prediction_trial","1","","false","","1","false","false","false","false","false","false","[0,1]","110","111","0","","","","","","",""
"","","","","","image-keyboard-response","125","164412","0.0-100.0","5ea340a26c3ed82b0dbd4d9f","665500ab8938657b03fbdba8","665792c93c30657b3954f005","389","stimuli/11101111.jpg"," ","","feedback_trial","0","","","","","","","","","","","","","","","","","","","","",""
"","","","","","image-keyboard-response","126","165405","0.0-101.0","5ea340a26c3ed82b0dbd4d9f","665500ab8938657b03fbdba8","665792c93c30657b3954f005","986","stimuli/2000000.jpg","2","","prediction_trial","2","","true","","2","true","true","true","true","true","true","[2]","000","000","1","","","","","","",""
"","","","","","image-keyboard-response","127","165828","0.0-102.0","5ea340a26c3ed82b0dbd4d9f","665500ab8938657b03fbdba8","665792c93c30657b3954f005","418","stimuli/20000002.jpg"," ","","feedback_trial","2","","","","","","","","","","","","","","","","","","","","",""
"","","","","","image-keyboard-response","128","166797","0.0-103.0","5ea340a26c3ed82b0dbd4d9f","665500ab8938657b03fbdba8","665792c93c30657b3954f005","962","stimuli/0000100.jpg","0","","prediction_trial","0","","true","","0","false","true","true","true","false","true","[0]","000","100","1","","","","","","",""
"","","","","","image-keyboard-response","129","167204","0.0-104.0","5ea340a26c3ed82b0dbd4d9f","665500ab8938657b03fbdba8","665792c93c30657b3954f005","401","stimuli/00001000.jpg"," ","","feedback_trial","0","","","","","","","","","","","","","","","","","","","","",""
"","","","","","image-keyboard-response","130","168028","0.0-105.0","5ea340a26c3ed82b0dbd4d9f","665500ab8938657b03fbdba8","665792c93c30657b3954f005","818","stimuli/2101011.jpg","1","","prediction_trial","2","","false","","2","false","false","false","false","false","false","[0,2]","101","011","0","","","","","","",""
"","","","","","image-keyboard-response","131","168436","0.0-106.0","5ea340a26c3ed82b0dbd4d9f","665500ab8938657b03fbdba8","665792c93c30657b3954f005","401","stimuli/21010112.jpg"," ","","feedback_trial","0","","","","","","","","","","","","","","","","","","","","",""
"","","","","","image-keyboard-response","132","170195","0.0-107.0","5ea340a26c3ed82b0dbd4d9f","665500ab8938657b03fbdba8","665792c93c30657b3954f005","1752","stimuli/2101001.jpg","0","","prediction_trial","0","","true","","2","false","true","false","false","false","false","[0,2]","101","001","1","","","","","","",""
"","","","","","image-keyboard-response","133","170499","0.0-108.0","5ea340a26c3ed82b0dbd4d9f","665500ab8938657b03fbdba8","665792c93c30657b3954f005","297","stimuli/21010010.jpg"," ","","feedback_trial","0","","","","","","","","","","","","","","","","","","","","",""
"","","","","","image-keyboard-response","134","172028","0.0-109.0","5ea340a26c3ed82b0dbd4d9f","665500ab8938657b03fbdba8","665792c93c30657b3954f005","1521","stimuli/2011001.jpg","2","","prediction_trial","2","","true","","2","false","true","false","false","false","false","[1,2]","011","001","1","","","","","","",""
"","","","","","image-keyboard-response","135","172243","0.0-110.0","5ea340a26c3ed82b0dbd4d9f","665500ab8938657b03fbdba8","665792c93c30657b3954f005","209","stimuli/20110012.jpg"," ","","feedback_trial","1","","","","","","","","","","","","","","","","","","","","",""
"","","","","","image-keyboard-response","136","173139","0.0-111.0","5ea340a26c3ed82b0dbd4d9f","665500ab8938657b03fbdba8","665792c93c30657b3954f005","890","stimuli/0111011.jpg","0","","prediction_trial","1","","false","","0","true","true","false","false","false","false","[1,2,0]","111","011","0","","","","","","",""
"","","","","","image-keyboard-response","137","173373","0.0-112.0","5ea340a26c3ed82b0dbd4d9f","665500ab8938657b03fbdba8","665792c93c30657b3954f005","227","stimuli/01110111.jpg"," ","","feedback_trial","1","","","","","","","","","","","","","","","","","","","","",""
"","","","","","image-keyboard-response","138","175172","0.0-113.0","5ea340a26c3ed82b0dbd4d9f","665500ab8938657b03fbdba8","665792c93c30657b3954f005","1790","stimuli/2011110.jpg","1","","prediction_trial","2","","false","","2","true","true","false","false","false","false","[2,1]","011","110","0","","","","","","",""
"","","","","","image-keyboard-response","139","175508","0.0-114.0","5ea340a26c3ed82b0dbd4d9f","665500ab8938657b03fbdba8","665792c93c30657b3954f005","328","stimuli/20111102.jpg"," ","","feedback_trial","2","","","","","","","","","","","","","","","","","","","","",""
"","","","","","image-keyboard-response","140","176995","0.0-115.0","5ea340a26c3ed82b0dbd4d9f","665500ab8938657b03fbdba8","665792c93c30657b3954f005","1481","stimuli/2101110.jpg","2","","prediction_trial","2","","true","","2","true","true","false","false","false","false","[2,0]","101","110","1","","","","","","",""
"","","","","","image-keyboard-response","141","177322","0.0-116.0","5ea340a26c3ed82b0dbd4d9f","665500ab8938657b03fbdba8","665792c93c30657b3954f005","320","stimuli/21011102.jpg"," ","","feedback_trial","2","","","","","","","","","","","","","","","","","","","","",""
"","","","","","image-keyboard-response","142","178811","0.0-117.0","5ea340a26c3ed82b0dbd4d9f","665500ab8938657b03fbdba8","665792c93c30657b3954f005","1483","stimuli/0100000.jpg","0","","prediction_trial","0","","true","","0","true","true","false","true","false","true","[0]","100","000","1","","","","","","",""
"","","","","","image-keyboard-response","143","178971","0.0-118.0","5ea340a26c3ed82b0dbd4d9f","665500ab8938657b03fbdba8","665792c93c30657b3954f005","155","stimuli/01000000.jpg"," ","","feedback_trial","0","","","","","","","","","","","","","","","","","","","","",""
"","","","","","image-keyboard-response","144","180507","0.0-119.0","5ea340a26c3ed82b0dbd4d9f","665500ab8938657b03fbdba8","665792c93c30657b3954f005","1530","stimuli/0001111.jpg","2","","prediction_trial","0","","false","","0","false","false","true","true","false","false","[0]","001","111","0","","","","","","",""
"","","","","","image-keyboard-response","145","180730","0.0-120.0","5ea340a26c3ed82b0dbd4d9f","665500ab8938657b03fbdba8","665792c93c30657b3954f005","217","stimuli/00011110.jpg"," ","","feedback_trial","0","","","","","","","","","","","","","","","","","","","","",""
"","","","","","image-keyboard-response","146","181555","0.0-121.0","5ea340a26c3ed82b0dbd4d9f","665500ab8938657b03fbdba8","665792c93c30657b3954f005","821","stimuli/0010101.jpg","2","","prediction_trial","0","","false","","0","false","false","true","true","false","false","[0]","010","101","0","","","","","","",""
"","","","","","image-keyboard-response","147","181796","0.0-122.0","5ea340a26c3ed82b0dbd4d9f","665500ab8938657b03fbdba8","665792c93c30657b3954f005","233","stimuli/00101010.jpg"," ","","feedback_trial","0","","","","","","","","","","","","","","","","","","","","",""
"","","","","","image-keyboard-response","148","182563","0.0-123.0","5ea340a26c3ed82b0dbd4d9f","665500ab8938657b03fbdba8","665792c93c30657b3954f005","762","stimuli/1000001.jpg","1","","prediction_trial","1","","true","","1","true","true","true","true","true","true","[1]","000","001","1","","","","","","",""
"","","","","","image-keyboard-response","149","182891","0.0-124.0","5ea340a26c3ed82b0dbd4d9f","665500ab8938657b03fbdba8","665792c93c30657b3954f005","322","stimuli/10000011.jpg"," ","","feedback_trial","1","","","","","","","","","","","","","","","","","","","","",""
"","","","","","image-keyboard-response","150","183778","0.0-125.0","5ea340a26c3ed82b0dbd4d9f","665500ab8938657b03fbdba8","665792c93c30657b3954f005","882","stimuli/2101111.jpg","1","","prediction_trial","2","","false","","2","false","false","false","false","false","false","[2,0]","101","111","0","","","","","","",""
"","","","","","image-keyboard-response","151","183995","0.0-126.0","5ea340a26c3ed82b0dbd4d9f","665500ab8938657b03fbdba8","665792c93c30657b3954f005","210","stimuli/21011112.jpg"," ","","feedback_trial","2","","","","","","","","","","","","","","","","","","","","",""
"","","","","","image-keyboard-response","152","184739","0.0-127.0","5ea340a26c3ed82b0dbd4d9f","665500ab8938657b03fbdba8","665792c93c30657b3954f005","737","stimuli/0111110.jpg","2","","prediction_trial","1","","false","","0","false","false","false","false","false","false","[2,0,1]","111","110","0","","","","","","",""
"","","","","","image-keyboard-response","153","184890","0.0-128.0","5ea340a26c3ed82b0dbd4d9f","665500ab8938657b03fbdba8","665792c93c30657b3954f005","145","stimuli/01111101.jpg"," ","","feedback_trial","2","","","","","","","","","","","","","","","","","","","","",""
"","","","","","image-keyboard-response","154","185587","0.0-129.0","5ea340a26c3ed82b0dbd4d9f","665500ab8938657b03fbdba8","665792c93c30657b3954f005","689","stimuli/2001111.jpg","1","","prediction_trial","2","","false","","2","false","false","false","true","false","false","[2]","001","111","0","","","","","","",""
"","","","","","image-keyboard-response","155","185675","0.0-130.0","5ea340a26c3ed82b0dbd4d9f","665500ab8938657b03fbdba8","665792c93c30657b3954f005","81","stimuli/20011112.jpg"," ","","feedback_trial","2","","","","","","","","","","","","","","","","","","","","",""
"","","","","","image-keyboard-response","156","187091","0.0-131.0","5ea340a26c3ed82b0dbd4d9f","665500ab8938657b03fbdba8","665792c93c30657b3954f005","1411","stimuli/1010101.jpg","0","","prediction_trial","1","","false","","1","true","true","false","true","false","true","[1]","010","101","0","","","","","","",""
"","","","","","image-keyboard-response","157","187378","0.0-132.0","5ea340a26c3ed82b0dbd4d9f","665500ab8938657b03fbdba8","665792c93c30657b3954f005","282","stimuli/10101011.jpg"," ","","feedback_trial","1","","","","","","","","","","","","","","","","","","","","",""
"","","","","","image-keyboard-response","158","188051","0.0-133.0","5ea340a26c3ed82b0dbd4d9f","665500ab8938657b03fbdba8","665792c93c30657b3954f005","667","stimuli/2001101.jpg","1","","prediction_trial","2","","false","","2","false","false","false","true","false","false","[2]","001","101","0","","","","","","",""
"","","","","","image-keyboard-response","159","188322","0.0-134.0","5ea340a26c3ed82b0dbd4d9f","665500ab8938657b03fbdba8","665792c93c30657b3954f005","265","stimuli/20011012.jpg"," ","","feedback_trial","2","","","","","","","","","","","","","","","","","","","","",""
"","","","","","image-keyboard-response","160","189042","0.0-135.0","5ea340a26c3ed82b0dbd4d9f","665500ab8938657b03fbdba8","665792c93c30657b3954f005","715","stimuli/2000110.jpg","2","","prediction_trial","2","","true","","2","true","true","true","true","true","true","[2]","000","110","1","","","","","","",""
"","","","","","image-keyboard-response","161","189402","0.0-136.0","5ea340a26c3ed82b0dbd4d9f","665500ab8938657b03fbdba8","665792c93c30657b3954f005","354","stimuli/20001102.jpg"," ","","feedback_trial","2","","","","","","","","","","","","","","","","","","","","",""
"","","","","","image-keyboard-response","162","190002","0.0-137.0","5ea340a26c3ed82b0dbd4d9f","665500ab8938657b03fbdba8","665792c93c30657b3954f005","593","stimuli/0000011.jpg","0","","prediction_trial","0","","true","","0","true","true","true","true","true","true","[0]","000","011","1","","","","","","",""
"","","","","","image-keyboard-response","163","190091","0.0-138.0","5ea340a26c3ed82b0dbd4d9f","665500ab8938657b03fbdba8","665792c93c30657b3954f005","82","stimuli/00000110.jpg"," ","","feedback_trial","0","","","","","","","","","","","","","","","","","","","","",""
"","","","","","image-keyboard-response","164","191569","0.0-139.0","5ea340a26c3ed82b0dbd4d9f","665500ab8938657b03fbdba8","665792c93c30657b3954f005","1473","stimuli/1000010.jpg","1","","prediction_trial","1","","true","","1","false","true","true","true","false","true","[1]","000","010","1","","","","","","",""
"","","","","","image-keyboard-response","165","191770","0.0-140.0","5ea340a26c3ed82b0dbd4d9f","665500ab8938657b03fbdba8","665792c93c30657b3954f005","195","stimuli/10000101.jpg"," ","","feedback_trial","1","","","","","","","","","","","","","","","","","","","","",""
"","","","","","image-keyboard-response","166","192675","0.0-141.0","5ea340a26c3ed82b0dbd4d9f","665500ab8938657b03fbdba8","665792c93c30657b3954f005","898","stimuli/1111001.jpg","1","","prediction_trial","2","","false","","1","true","true","false","false","false","false","[0,1,2]","111","001","0","","","","","","",""
"","","","","","image-keyboard-response","167","192923","0.0-142.0","5ea340a26c3ed82b0dbd4d9f","665500ab8938657b03fbdba8","665792c93c30657b3954f005","241","stimuli/11110012.jpg"," ","","feedback_trial","0","","","","","","","","","","","","","","","","","","","","",""
"","","","","","image-keyboard-response","168","193699","0.0-143.0","5ea340a26c3ed82b0dbd4d9f","665500ab8938657b03fbdba8","665792c93c30657b3954f005","769","stimuli/0100111.jpg","2","","prediction_trial","0","","false","","0","false","false","false","true","false","false","[0]","100","111","0","","","","","","",""
"","","","","","image-keyboard-response","169","193898","0.0-144.0","5ea340a26c3ed82b0dbd4d9f","665500ab8938657b03fbdba8","665792c93c30657b3954f005","193","stimuli/01001110.jpg"," ","","feedback_trial","0","","","","","","","","","","","","","","","","","","","","",""
"","","","","","image-keyboard-response","170","194738","0.0-145.0","5ea340a26c3ed82b0dbd4d9f","665500ab8938657b03fbdba8","665792c93c30657b3954f005","833","stimuli/2100010.jpg","2","","prediction_trial","2","","true","","2","true","true","true","true","true","true","[2]","100","010","1","","","","","","",""
"","","","","","image-keyboard-response","171","195091","0.0-146.0","5ea340a26c3ed82b0dbd4d9f","665500ab8938657b03fbdba8","665792c93c30657b3954f005","344","stimuli/21000102.jpg"," ","","feedback_trial","2","","","","","","","","","","","","","","","","","","","","",""
"","","","","","image-keyboard-response","172","195810","0.0-147.0","5ea340a26c3ed82b0dbd4d9f","665500ab8938657b03fbdba8","665792c93c30657b3954f005","713","stimuli/1000000.jpg","1","","prediction_trial","1","","true","","1","true","true","true","true","true","true","[1]","000","000","1","","","","","","",""
"","","","","","image-keyboard-response","173","196066","0.0-148.0","5ea340a26c3ed82b0dbd4d9f","665500ab8938657b03fbdba8","665792c93c30657b3954f005","249","stimuli/10000001.jpg"," ","","feedback_trial","1","","","","","","","","","","","","","","","","","","","","",""
"","","","","","image-keyboard-response","174","196779","0.0-149.0","5ea340a26c3ed82b0dbd4d9f","665500ab8938657b03fbdba8","665792c93c30657b3954f005","708","stimuli/2111000.jpg","2","","prediction_trial","1","","false","","2","true","true","false","false","false","false","[0,2,1]","111","000","0","","","","","","",""
"","","","","","image-keyboard-response","175","197051","0.0-150.0","5ea340a26c3ed82b0dbd4d9f","665500ab8938657b03fbdba8","665792c93c30657b3954f005","265","stimuli/21110001.jpg"," ","","feedback_trial","0","","","","","","","","","","","","","","","","","","","","",""
"","","","","","image-keyboard-response","176","197722","0.0-151.0","5ea340a26c3ed82b0dbd4d9f","665500ab8938657b03fbdba8","665792c93c30657b3954f005","664","stimuli/1101110.jpg","1","","prediction_trial","1","","true","","1","false","false","true","true","false","false","[1]","101","110","1","","","","","","",""
"","","","","","image-keyboard-response","177","198010","0.0-152.0","5ea340a26c3ed82b0dbd4d9f","665500ab8938657b03fbdba8","665792c93c30657b3954f005","282","stimuli/11011101.jpg"," ","","feedback_trial","1","","","","","","","","","","","","","","","","","","","","",""
"","","","","","image-keyboard-response","178","198514","0.0-153.0","5ea340a26c3ed82b0dbd4d9f","665500ab8938657b03fbdba8","665792c93c30657b3954f005","498","stimuli/1101000.jpg","2","","prediction_trial","1","","false","","1","true","true","true","true","true","true","[1]","101","000","0","","","","","","",""
"","","","","","image-keyboard-response","179","199570","0.0-154.0","5ea340a26c3ed82b0dbd4d9f","665500ab8938657b03fbdba8","665792c93c30657b3954f005","1049","stimuli/11010001.jpg"," ","","feedback_trial","1","","","","","","","","","","","","","","","","","","","","",""
"","","","","","image-keyboard-response","180","200169","0.0-155.0","5ea340a26c3ed82b0dbd4d9f","665500ab8938657b03fbdba8","665792c93c30657b3954f005","592","stimuli/1101111.jpg","1","","prediction_trial","1","","true","","1","false","false","true","true","false","false","[1]","101","111","1","","","","","","",""
"","","","","","image-keyboard-response","181","200401","0.0-156.0","5ea340a26c3ed82b0dbd4d9f","665500ab8938657b03fbdba8","665792c93c30657b3954f005","227","stimuli/11011111.jpg"," ","","feedback_trial","1","","","","","","","","","","","","","","","","","","","","",""
"","","","","","image-keyboard-response","182","201891","0.0-157.0","5ea340a26c3ed82b0dbd4d9f","665500ab8938657b03fbdba8","665792c93c30657b3954f005","1484","stimuli/1011011.jpg","1","","prediction_trial","1","","true","","1","false","false","false","false","false","false","[1,2]","011","011","1","","","","","","",""
"","","","","","image-keyboard-response","183","202050","0.0-158.0","5ea340a26c3ed82b0dbd4d9f","665500ab8938657b03fbdba8","665792c93c30657b3954f005","152","stimuli/10110111.jpg"," ","","feedback_trial","1","","","","","","","","","","","","","","","","","","","","",""
"","","","","","image-keyboard-response","184","202762","0.0-159.0","5ea340a26c3ed82b0dbd4d9f","665500ab8938657b03fbdba8","665792c93c30657b3954f005","707","stimuli/2110000.jpg","2","","prediction_trial","2","","true","","2","true","true","true","true","true","true","[2]","110","000","1","","","","","","",""
"","","","","","image-keyboard-response","185","203033","0.0-160.0","5ea340a26c3ed82b0dbd4d9f","665500ab8938657b03fbdba8","665792c93c30657b3954f005","265","stimuli/21100002.jpg"," ","","feedback_trial","2","","","","","","","","","","","","","","","","","","","","",""
"","","","","","image-keyboard-response","186","203794","0.0-161.0","5ea340a26c3ed82b0dbd4d9f","665500ab8938657b03fbdba8","665792c93c30657b3954f005","755","stimuli/1100011.jpg","1","","prediction_trial","1","","true","","1","false","false","true","true","false","false","[1]","100","011","1","","","","","","",""
"","","","","","image-keyboard-response","187","204009","0.0-162.0","5ea340a26c3ed82b0dbd4d9f","665500ab8938657b03fbdba8","665792c93c30657b3954f005","209","stimuli/11000111.jpg"," ","","feedback_trial","1","","","","","","","","","","","","","","","","","","","","",""
"","","","","","image-keyboard-response","188","205113","0.0-163.0","5ea340a26c3ed82b0dbd4d9f","665500ab8938657b03fbdba8","665792c93c30657b3954f005","1097","stimuli/2010011.jpg","2","","prediction_trial","2","","true","","2","false","false","true","true","false","false","[2]","010","011","1","","","","","","",""
"","","","","","image-keyboard-response","189","205370","0.0-164.0","5ea340a26c3ed82b0dbd4d9f","665500ab8938657b03fbdba8","665792c93c30657b3954f005","252","stimuli/20100112.jpg"," ","","feedback_trial","2","","","","","","","","","","","","","","","","","","","","",""
"","","","","","image-keyboard-response","190","206346","0.0-165.0","5ea340a26c3ed82b0dbd4d9f","665500ab8938657b03fbdba8","665792c93c30657b3954f005","971","stimuli/0010111.jpg","2","","prediction_trial","0","","false","","0","false","false","true","true","false","false","[0]","010","111","0","","","","","","",""
"","","","","","image-keyboard-response","191","206705","0.0-166.0","5ea340a26c3ed82b0dbd4d9f","665500ab8938657b03fbdba8","665792c93c30657b3954f005","353","stimuli/00101110.jpg"," ","","feedback_trial","0","","","","","","","","","","","","","","","","","","","","",""
"","","","","","image-keyboard-response","192","207538","0.0-167.0","5ea340a26c3ed82b0dbd4d9f","665500ab8938657b03fbdba8","665792c93c30657b3954f005","826","stimuli/1001000.jpg","1","","prediction_trial","1","","true","","1","true","true","true","true","true","true","[1]","001","000","1","","","","","","",""
"","","","","","image-keyboard-response","193","207779","0.0-168.0","5ea340a26c3ed82b0dbd4d9f","665500ab8938657b03fbdba8","665792c93c30657b3954f005","234","stimuli/10010001.jpg"," ","","feedback_trial","1","","","","","","","","","","","","","","","","","","","","",""
"","","","","","image-keyboard-response","194","208362","0.0-169.0","5ea340a26c3ed82b0dbd4d9f","665500ab8938657b03fbdba8","665792c93c30657b3954f005","575","stimuli/2100000.jpg","2","","prediction_trial","2","","true","","2","true","true","true","true","true","true","[2]","100","000","1","","","","","","",""
"","","","","","image-keyboard-response","195","208618","0.0-170.0","5ea340a26c3ed82b0dbd4d9f","665500ab8938657b03fbdba8","665792c93c30657b3954f005","249","stimuli/21000002.jpg"," ","","feedback_trial","2","","","","","","","","","","","","","","","","","","","","",""
"","","","","","image-keyboard-response","196","209354","0.0-171.0","5ea340a26c3ed82b0dbd4d9f","665500ab8938657b03fbdba8","665792c93c30657b3954f005","730","stimuli/1000111.jpg","1","","prediction_trial","1","","true","","1","false","false","true","true","false","false","[1]","000","111","1","","","","","","",""
"","","","","","image-keyboard-response","197","209609","0.0-172.0","5ea340a26c3ed82b0dbd4d9f","665500ab8938657b03fbdba8","665792c93c30657b3954f005","249","stimuli/10001111.jpg"," ","","feedback_trial","1","","","","","","","","","","","","","","","","","","","","",""
"","","","","","image-keyboard-response","198","210850","0.0-173.0","5ea340a26c3ed82b0dbd4d9f","665500ab8938657b03fbdba8","665792c93c30657b3954f005","1235","stimuli/1010010.jpg","1","","prediction_trial","1","","true","","1","false","true","false","true","false","true","[1]","010","010","1","","","","","","",""
"","","","","","image-keyboard-response","199","211058","0.0-174.0","5ea340a26c3ed82b0dbd4d9f","665500ab8938657b03fbdba8","665792c93c30657b3954f005","202","stimuli/10100101.jpg"," ","","feedback_trial","1","","","","","","","","","","","","","","","","","","","","",""
"","","","","","image-keyboard-response","200","211794","0.0-175.0","5ea340a26c3ed82b0dbd4d9f","665500ab8938657b03fbdba8","665792c93c30657b3954f005","729","stimuli/1111111.jpg","1","","prediction_trial","0","","false","","1","false","false","false","false","false","false","[2,1,0]","111","111","0","","","","","","",""
"","","","","","image-keyboard-response","201","211938","0.0-176.0","5ea340a26c3ed82b0dbd4d9f","665500ab8938657b03fbdba8","665792c93c30657b3954f005","138","stimuli/11111110.jpg"," ","","feedback_trial","2","","","","","","","","","","","","","","","","","","","","",""
"","","","","","image-keyboard-response","202","213019","0.0-177.0","5ea340a26c3ed82b0dbd4d9f","665500ab8938657b03fbdba8","665792c93c30657b3954f005","1074","stimuli/2111111.jpg","2","","prediction_trial","0","","false","","2","false","false","false","false","false","false","[1,2,0]","111","111","0","","","","","","",""
"","","","","","image-keyboard-response","203","213138","0.0-178.0","5ea340a26c3ed82b0dbd4d9f","665500ab8938657b03fbdba8","665792c93c30657b3954f005","110","stimuli/21111110.jpg"," ","","feedback_trial","1","","","","","","","","","","","","","","","","","","","","",""
"","","","","","image-keyboard-response","204","214145","0.0-179.0","5ea340a26c3ed82b0dbd4d9f","665500ab8938657b03fbdba8","665792c93c30657b3954f005","1002","stimuli/2100011.jpg","1","","prediction_trial","2","","false","","2","false","false","true","true","false","false","[2]","100","011","0","","","","","","",""
"","","","","","image-keyboard-response","205","214330","0.0-180.0","5ea340a26c3ed82b0dbd4d9f","665500ab8938657b03fbdba8","665792c93c30657b3954f005","178","stimuli/21000112.jpg"," ","","feedback_trial","2","","","","","","","","","","","","","","","","","","","","",""
"","","","","","image-keyboard-response","206","216562","0.0-181.0","5ea340a26c3ed82b0dbd4d9f","665500ab8938657b03fbdba8","665792c93c30657b3954f005","2226","stimuli/0100001.jpg","0","","prediction_trial","0","","true","","0","true","true","false","true","false","true","[0]","100","001","1","","","","","","",""
"","","","","","image-keyboard-response","207","216689","0.0-182.0","5ea340a26c3ed82b0dbd4d9f","665500ab8938657b03fbdba8","665792c93c30657b3954f005","121","stimuli/01000010.jpg"," ","","feedback_trial","0","","","","","","","","","","","","","","","","","","","","",""
"","","","","","image-keyboard-response","208","217547","0.0-183.0","5ea340a26c3ed82b0dbd4d9f","665500ab8938657b03fbdba8","665792c93c30657b3954f005","850","stimuli/0010011.jpg","0","","prediction_trial","0","","true","","0","true","true","true","true","true","true","[0]","010","011","1","","","","","","",""
"","","","","","image-keyboard-response","209","217689","0.0-184.0","5ea340a26c3ed82b0dbd4d9f","665500ab8938657b03fbdba8","665792c93c30657b3954f005","135","stimuli/00100110.jpg"," ","","feedback_trial","0","","","","","","","","","","","","","","","","","","","","",""
"","","","","","image-keyboard-response","210","218210","0.0-185.0","5ea340a26c3ed82b0dbd4d9f","665500ab8938657b03fbdba8","665792c93c30657b3954f005","513","stimuli/0010000.jpg","0","","prediction_trial","0","","true","","0","true","true","true","true","true","true","[0]","010","000","1","","","","","","",""
"","","","","","image-keyboard-response","211","218266","0.0-186.0","5ea340a26c3ed82b0dbd4d9f","665500ab8938657b03fbdba8","665792c93c30657b3954f005","50","stimuli/00100000.jpg"," ","","feedback_trial","0","","","","","","","","","","","","","","","","","","","","",""
"","","","","","image-keyboard-response","212","218906","0.0-187.0","5ea340a26c3ed82b0dbd4d9f","665500ab8938657b03fbdba8","665792c93c30657b3954f005","634","stimuli/1100100.jpg","1","","prediction_trial","1","","true","","1","true","true","true","true","true","true","[1]","100","100","1","","","","","","",""
"","","","","","image-keyboard-response","213","219162","0.0-188.0","5ea340a26c3ed82b0dbd4d9f","665500ab8938657b03fbdba8","665792c93c30657b3954f005","250","stimuli/11001001.jpg"," ","","feedback_trial","1","","","","","","","","","","","","","","","","","","","","",""
"","","","","","image-keyboard-response","214","220034","0.0-189.0","5ea340a26c3ed82b0dbd4d9f","665500ab8938657b03fbdba8","665792c93c30657b3954f005","866","stimuli/2100101.jpg","2","","prediction_trial","2","","true","","2","false","false","true","true","false","false","[2]","100","101","1","","","","","","",""
"","","","","","image-keyboard-response","215","220289","0.0-190.0","5ea340a26c3ed82b0dbd4d9f","665500ab8938657b03fbdba8","665792c93c30657b3954f005","249","stimuli/21001012.jpg"," ","","feedback_trial","2","","","","","","","","","","","","","","","","","","","","",""
"","","","","","image-keyboard-response","216","221089","0.0-191.0","5ea340a26c3ed82b0dbd4d9f","665500ab8938657b03fbdba8","665792c93c30657b3954f005","795","stimuli/2110110.jpg","2","","prediction_trial","2","","true","","2","true","true","true","true","true","true","[2]","110","110","1","","","","","","",""
"","","","","","image-keyboard-response","217","221265","0.0-192.0","5ea340a26c3ed82b0dbd4d9f","665500ab8938657b03fbdba8","665792c93c30657b3954f005","169","stimuli/21101102.jpg"," ","","feedback_trial","2","","","","","","","","","","","","","","","","","","","","",""
"","","","","","image-keyboard-response","218","221824","0.0-193.0","5ea340a26c3ed82b0dbd4d9f","665500ab8938657b03fbdba8","665792c93c30657b3954f005","553","stimuli/2100110.jpg","2","","prediction_trial","2","","true","","2","true","true","true","true","true","true","[2]","100","110","1","","","","","","",""
"","","","","","image-keyboard-response","219","221970","0.0-194.0","5ea340a26c3ed82b0dbd4d9f","665500ab8938657b03fbdba8","665792c93c30657b3954f005","140","stimuli/21001102.jpg"," ","","feedback_trial","2","","","","","","","","","","","","","","","","","","","","",""
"","","","","","image-keyboard-response","220","222738","0.0-195.0","5ea340a26c3ed82b0dbd4d9f","665500ab8938657b03fbdba8","665792c93c30657b3954f005","762","stimuli/0110101.jpg","2","","prediction_trial","0","","false","","0","false","false","false","false","false","false","[1,0]","110","101","0","","","","","","",""
"","","","","","image-keyboard-response","221","222905","0.0-196.0","5ea340a26c3ed82b0dbd4d9f","665500ab8938657b03fbdba8","665792c93c30657b3954f005","162","stimuli/01101010.jpg"," ","","feedback_trial","1","","","","","","","","","","","","","","","","","","","","",""
"","","","","","image-keyboard-response","222","223993","0.0-197.0","5ea340a26c3ed82b0dbd4d9f","665500ab8938657b03fbdba8","665792c93c30657b3954f005","1082","stimuli/1010000.jpg","1","","prediction_trial","1","","true","","1","true","true","false","true","false","true","[1]","010","000","1","","","","","","",""
"","","","","","image-keyboard-response","223","224169","0.0-198.0","5ea340a26c3ed82b0dbd4d9f","665500ab8938657b03fbdba8","665792c93c30657b3954f005","170","stimuli/10100001.jpg"," ","","feedback_trial","1","","","","","","","","","","","","","","","","","","","","",""
"","","","","","image-keyboard-response","224","224881","0.0-199.0","5ea340a26c3ed82b0dbd4d9f","665500ab8938657b03fbdba8","665792c93c30657b3954f005","704","stimuli/0001001.jpg","0","","prediction_trial","0","","true","","0","true","true","true","true","true","true","[0]","001","001","1","","","","","","",""
"","","","","","image-keyboard-response","225","224913","0.0-200.0","5ea340a26c3ed82b0dbd4d9f","665500ab8938657b03fbdba8","665792c93c30657b3954f005","26","stimuli/00010010.jpg"," ","","feedback_trial","0","","","","","","","","","","","","","","","","","","","","",""
"","","","","","image-keyboard-response","226","225945","0.0-201.0","5ea340a26c3ed82b0dbd4d9f","665500ab8938657b03fbdba8","665792c93c30657b3954f005","1026","stimuli/2111110.jpg","1","","prediction_trial","0","","false","","2","true","true","false","false","false","false","[0,2,1]","111","110","0","","","","","","",""
"","","","","","image-keyboard-response","227","226185","0.0-202.0","5ea340a26c3ed82b0dbd4d9f","665500ab8938657b03fbdba8","665792c93c30657b3954f005","233","stimuli/21111100.jpg"," ","","feedback_trial","0","","","","","","","","","","","","","","","","","","","","",""
"","","","","","image-keyboard-response","228","226786","0.0-203.0","5ea340a26c3ed82b0dbd4d9f","665500ab8938657b03fbdba8","665792c93c30657b3954f005","595","stimuli/2110010.jpg","2","","prediction_trial","2","","true","","2","true","true","true","true","true","true","[2]","110","010","1","","","","","","",""
"","","","","","image-keyboard-response","229","227018","0.0-204.0","5ea340a26c3ed82b0dbd4d9f","665500ab8938657b03fbdba8","665792c93c30657b3954f005","226","stimuli/21100102.jpg"," ","","feedback_trial","2","","","","","","","","","","","","","","","","","","","","",""
"","","","","","image-keyboard-response","230","228370","0.0-205.0","5ea340a26c3ed82b0dbd4d9f","665500ab8938657b03fbdba8","665792c93c30657b3954f005","1345","stimuli/2111011.jpg","2","","prediction_trial","2","","true","","2","false","false","false","false","false","false","[2,0,1]","111","011","1","","","","","","",""
"","","","","","image-keyboard-response","231","228537","0.0-206.0","5ea340a26c3ed82b0dbd4d9f","665500ab8938657b03fbdba8","665792c93c30657b3954f005","161","stimuli/21110112.jpg"," ","","feedback_trial","2","","","","","","","","","","","","","","","","","","","","",""
"","","","","","image-keyboard-response","232","230033","0.0-207.0","5ea340a26c3ed82b0dbd4d9f","665500ab8938657b03fbdba8","665792c93c30657b3954f005","1491","stimuli/1000011.jpg","1","","prediction_trial","1","","true","","1","false","false","true","true","false","false","[1]","000","011","1","","","","","","",""
"","","","","","image-keyboard-response","233","230193","0.0-208.0","5ea340a26c3ed82b0dbd4d9f","665500ab8938657b03fbdba8","665792c93c30657b3954f005","153","stimuli/10000111.jpg"," ","","feedback_trial","1","","","","","","","","","","","","","","","","","","","","",""
"","","","","","image-keyboard-response","234","230826","0.0-209.0","5ea340a26c3ed82b0dbd4d9f","665500ab8938657b03fbdba8","665792c93c30657b3954f005","626","stimuli/1001001.jpg","1","","prediction_trial","1","","true","","1","true","true","true","true","true","true","[1]","001","001","1","","","","","","",""
"","","","","","image-keyboard-response","235","231152","0.0-210.0","5ea340a26c3ed82b0dbd4d9f","665500ab8938657b03fbdba8","665792c93c30657b3954f005","320","stimuli/10010011.jpg"," ","","feedback_trial","1","","","","","","","","","","","","","","","","","","","","",""
"","","","","","image-keyboard-response","236","231905","0.0-211.0","5ea340a26c3ed82b0dbd4d9f","665500ab8938657b03fbdba8","665792c93c30657b3954f005","747","stimuli/0000010.jpg","0","","prediction_trial","0","","true","","0","true","true","true","true","true","true","[0]","000","010","1","","","","","","",""
"","","","","","image-keyboard-response","237","232080","0.0-212.0","5ea340a26c3ed82b0dbd4d9f","665500ab8938657b03fbdba8","665792c93c30657b3954f005","169","stimuli/00000100.jpg"," ","","feedback_trial","0","","","","","","","","","","","","","","","","","","","","",""
"","","","","","image-keyboard-response","238","232760","0.0-213.0","5ea340a26c3ed82b0dbd4d9f","665500ab8938657b03fbdba8","665792c93c30657b3954f005","675","stimuli/2011101.jpg","0","","prediction_trial","1","","false","","2","false","false","false","false","false","false","[2,1]","011","101","0","","","","","","",""
"","","","","","image-keyboard-response","239","232920","0.0-214.0","5ea340a26c3ed82b0dbd4d9f","665500ab8938657b03fbdba8","665792c93c30657b3954f005","154","stimuli/20111011.jpg"," ","","feedback_trial","2","","","","","","","","","","","","","","","","","","","","",""
"","","","","","image-keyboard-response","240","234344","0.0-215.0","5ea340a26c3ed82b0dbd4d9f","665500ab8938657b03fbdba8","665792c93c30657b3954f005","1419","stimuli/0111100.jpg","0","","prediction_trial","0","","true","","0","false","true","false","false","false","false","[0,2,1]","111","100","1","","","","","","",""
"","","","","","image-keyboard-response","241","234448","0.0-216.0","5ea340a26c3ed82b0dbd4d9f","665500ab8938657b03fbdba8","665792c93c30657b3954f005","99","stimuli/01111000.jpg"," ","","feedback_trial","0","","","","","","","","","","","","","","","","","","","","",""
"","","","","","image-keyboard-response","242","236937","0.0-217.0","5ea340a26c3ed82b0dbd4d9f","665500ab8938657b03fbdba8","665792c93c30657b3954f005","2485","stimuli/1010110.jpg","0","","prediction_trial","1","","false","","1","false","false","false","true","false","false","[1]","010","110","0","","","","","","",""
"","","","","","image-keyboard-response","243","237016","0.0-218.0","5ea340a26c3ed82b0dbd4d9f","665500ab8938657b03fbdba8","665792c93c30657b3954f005","73","stimuli/10101101.jpg"," ","","feedback_trial","1","","","","","","","","","","","","","","","","","","","","",""
"","","","","","image-keyboard-response","244","237633","0.0-219.0","5ea340a26c3ed82b0dbd4d9f","665500ab8938657b03fbdba8","665792c93c30657b3954f005","608","stimuli/0011000.jpg","0","","prediction_trial","0","","true","","0","true","true","true","true","true","true","[0]","011","000","1","","","","","","",""
"","","","","","image-keyboard-response","245","237777","0.0-220.0","5ea340a26c3ed82b0dbd4d9f","665500ab8938657b03fbdba8","665792c93c30657b3954f005","138","stimuli/00110000.jpg"," ","","feedback_trial","0","","","","","","","","","","","","","","","","","","","","",""
"","","","","","image-keyboard-response","246","239168","0.0-221.0","5ea340a26c3ed82b0dbd4d9f","665500ab8938657b03fbdba8","665792c93c30657b3954f005","1384","stimuli/2011100.jpg","1","","prediction_trial","2","","false","","2","true","true","false","false","false","false","[1,2]","011","100","0","","","","","","",""
"","","","","","image-keyboard-response","247","239376","0.0-222.0","5ea340a26c3ed82b0dbd4d9f","665500ab8938657b03fbdba8","665792c93c30657b3954f005","204","stimuli/20111002.jpg"," ","","feedback_trial","1","","","","","","","","","","","","","","","","","","","","",""
"","","","","","image-keyboard-response","248","240272","0.0-223.0","5ea340a26c3ed82b0dbd4d9f","665500ab8938657b03fbdba8","665792c93c30657b3954f005","892","stimuli/0111010.jpg","0","","prediction_trial","0","","true","","0","true","true","false","false","false","false","[0,2,1]","111","010","1","","","","","","",""
"","","","","","image-keyboard-response","249","240391","0.0-224.0","5ea340a26c3ed82b0dbd4d9f","665500ab8938657b03fbdba8","665792c93c30657b3954f005","115","stimuli/01110100.jpg"," ","","feedback_trial","0","","","","","","","","","","","","","","","","","","","","",""
"","","","","","image-keyboard-response","250","241151","0.0-225.0","5ea340a26c3ed82b0dbd4d9f","665500ab8938657b03fbdba8","665792c93c30657b3954f005","754","stimuli/0001110.jpg","1","","prediction_trial","0","","false","","0","false","false","true","true","false","false","[0]","001","110","0","","","","","","",""
"","","","","","image-keyboard-response","251","241383","0.0-226.0","5ea340a26c3ed82b0dbd4d9f","665500ab8938657b03fbdba8","665792c93c30657b3954f005","227","stimuli/00011100.jpg"," ","","feedback_trial","0","","","","","","","","","","","","","","","","","","","","",""
"","","","","","image-keyboard-response","252","242848","0.0-227.0","5ea340a26c3ed82b0dbd4d9f","665500ab8938657b03fbdba8","665792c93c30657b3954f005","1460","stimuli/2100001.jpg","2","","prediction_trial","2","","true","","2","false","true","true","true","false","true","[2]","100","001","1","","","","","","",""
"","","","","","image-keyboard-response","253","243143","0.0-228.0","5ea340a26c3ed82b0dbd4d9f","665500ab8938657b03fbdba8","665792c93c30657b3954f005","291","stimuli/21000012.jpg"," ","","feedback_trial","2","","","","","","","","","","","","","","","","","","","","",""
"","","","","","image-keyboard-response","254","244465","0.0-229.0","5ea340a26c3ed82b0dbd4d9f","665500ab8938657b03fbdba8","665792c93c30657b3954f005","1316","stimuli/2110011.jpg","1","","prediction_trial","2","","false","","2","false","false","true","true","false","false","[2]","110","011","0","","","","","","",""
"","","","","","image-keyboard-response","255","245049","0.0-230.0","5ea340a26c3ed82b0dbd4d9f","665500ab8938657b03fbdba8","665792c93c30657b3954f005","578","stimuli/21100112.jpg"," ","","feedback_trial","2","","","","","","","","","","","","","","","","","","","","",""
"","","","","","image-keyboard-response","256","246319","0.0-231.0","5ea340a26c3ed82b0dbd4d9f","665500ab8938657b03fbdba8","665792c93c30657b3954f005","1265","stimuli/2001001.jpg","2","","prediction_trial","2","","true","","2","false","true","false","true","false","true","[2]","001","001","1","","","","","","",""
"","","","","","image-keyboard-response","257","246656","0.0-232.0","5ea340a26c3ed82b0dbd4d9f","665500ab8938657b03fbdba8","665792c93c30657b3954f005","332","stimuli/20010012.jpg"," ","","feedback_trial","2","","","","","","","","","","","","","","","","","","","","",""
"","","","","","image-keyboard-response","258","247777","0.0-233.0","5ea340a26c3ed82b0dbd4d9f","665500ab8938657b03fbdba8","665792c93c30657b3954f005","1113","stimuli/1111100.jpg","1","","prediction_trial","2","","false","","1","true","true","false","false","false","false","[2,0,1]","111","100","0","","","","","","",""
"","","","","","image-keyboard-response","259","247953","0.0-234.0","5ea340a26c3ed82b0dbd4d9f","665500ab8938657b03fbdba8","665792c93c30657b3954f005","170","stimuli/11111002.jpg"," ","","feedback_trial","2","","","","","","","","","","","","","","","","","","","","",""
"","","","","","image-keyboard-response","260","248705","0.0-235.0","5ea340a26c3ed82b0dbd4d9f","665500ab8938657b03fbdba8","665792c93c30657b3954f005","745","stimuli/2000010.jpg","2","","prediction_trial","2","","true","","2","true","true","true","true","true","true","[2]","000","010","1","","","","","","",""
"","","","","","image-keyboard-response","261","248856","0.0-236.0","5ea340a26c3ed82b0dbd4d9f","665500ab8938657b03fbdba8","665792c93c30657b3954f005","144","stimuli/20000102.jpg"," ","","feedback_trial","2","","","","","","","","","","","","","","","","","","","","",""
"","","","","","image-keyboard-response","262","249577","0.0-237.0","5ea340a26c3ed82b0dbd4d9f","665500ab8938657b03fbdba8","665792c93c30657b3954f005","714","stimuli/0111111.jpg","2","","prediction_trial","0","","false","","0","false","false","false","false","false","false","[0,2,1]","111","111","0","","","","","","",""
"","","","","","image-keyboard-response","263","249728","0.0-238.0","5ea340a26c3ed82b0dbd4d9f","665500ab8938657b03fbdba8","665792c93c30657b3954f005","146","stimuli/01111110.jpg"," ","","feedback_trial","0","","","","","","","","","","","","","","","","","","","","",""
"","","","","","image-keyboard-response","264","250856","0.0-239.0","5ea340a26c3ed82b0dbd4d9f","665500ab8938657b03fbdba8","665792c93c30657b3954f005","1121","stimuli/2001010.jpg","1","","prediction_trial","2","","false","","2","true","true","false","true","false","true","[2]","001","010","0","","","","","","",""
"","","","","","image-keyboard-response","265","251055","0.0-240.0","5ea340a26c3ed82b0dbd4d9f","665500ab8938657b03fbdba8","665792c93c30657b3954f005","191","stimuli/20010102.jpg"," ","","feedback_trial","2","","","","","","","","","","","","","","","","","","","","",""
"","","","","","image-keyboard-response","266","252185","0.0-241.0","5ea340a26c3ed82b0dbd4d9f","665500ab8938657b03fbdba8","665792c93c30657b3954f005","1124","stimuli/1011000.jpg","1","","prediction_trial","2","","false","","1","true","true","false","false","false","false","[1,2]","011","000","0","","","","","","",""
"","","","","","image-keyboard-response","267","252409","0.0-242.0","5ea340a26c3ed82b0dbd4d9f","665500ab8938657b03fbdba8","665792c93c30657b3954f005","218","stimuli/10110002.jpg"," ","","feedback_trial","1","","","","","","","","","","","","","","","","","","","","",""
"","","","","","image-keyboard-response","268","254257","0.0-243.0","5ea340a26c3ed82b0dbd4d9f","665500ab8938657b03fbdba8","665792c93c30657b3954f005","1841","stimuli/1001111.jpg","0","","prediction_trial","1","","false","","1","false","false","true","true","false","false","[1]","001","111","0","","","","","","",""
"","","","","","image-keyboard-response","269","254384","0.0-244.0","5ea340a26c3ed82b0dbd4d9f","665500ab8938657b03fbdba8","665792c93c30657b3954f005","121","stimuli/10011111.jpg"," ","","feedback_trial","1","","","","","","","","","","","","","","","","","","","","",""
"","","","","","image-keyboard-response","270","255871","0.0-245.0","5ea340a26c3ed82b0dbd4d9f","665500ab8938657b03fbdba8","665792c93c30657b3954f005","1479","stimuli/1110000.jpg","1","","prediction_trial","1","","true","","1","true","true","false","false","false","false","[1,0]","110","000","1","","","","","","",""
"","","","","","image-keyboard-response","271","256064","0.0-246.0","5ea340a26c3ed82b0dbd4d9f","665500ab8938657b03fbdba8","665792c93c30657b3954f005","187","stimuli/11100001.jpg"," ","","feedback_trial","1","","","","","","","","","","","","","","","","","","","","",""
"","","","","","image-keyboard-response","272","257024","0.0-247.0","5ea340a26c3ed82b0dbd4d9f","665500ab8938657b03fbdba8","665792c93c30657b3954f005","954","stimuli/2111010.jpg","1","","prediction_trial","0","","false","","2","true","true","false","false","false","false","[0,1,2]","111","010","0","","","","","","",""
"","","","","","image-keyboard-response","273","257296","0.0-248.0","5ea340a26c3ed82b0dbd4d9f","665500ab8938657b03fbdba8","665792c93c30657b3954f005","264","stimuli/21110100.jpg"," ","","feedback_trial","0","","","","","","","","","","","","","","","","","","","","",""
"","","","","","image-keyboard-response","274","258248","0.0-249.0","5ea340a26c3ed82b0dbd4d9f","665500ab8938657b03fbdba8","665792c93c30657b3954f005","946","stimuli/2000001.jpg","2","","prediction_trial","2","","true","","2","false","true","true","true","false","true","[2]","000","001","1","","","","","","",""
"","","","","","image-keyboard-response","275","258457","0.0-250.0","5ea340a26c3ed82b0dbd4d9f","665500ab8938657b03fbdba8","665792c93c30657b3954f005","203","stimuli/20000012.jpg"," ","","feedback_trial","2","","","","","","","","","","","","","","","","","","","","",""
"","","","","","image-keyboard-response","276","259560","0.0-251.0","5ea340a26c3ed82b0dbd4d9f","665500ab8938657b03fbdba8","665792c93c30657b3954f005","1096","stimuli/2010010.jpg","2","","prediction_trial","2","","true","","2","true","true","true","true","true","true","[2]","010","010","1","","","","","","",""
"","","","","","image-keyboard-response","277","259775","0.0-252.0","5ea340a26c3ed82b0dbd4d9f","665500ab8938657b03fbdba8","665792c93c30657b3954f005","208","stimuli/20100102.jpg"," ","","feedback_trial","2","","","","","","","","","","","","","","","","","","","","",""
"","","","","","image-keyboard-response","278","260959","0.0-253.0","5ea340a26c3ed82b0dbd4d9f","665500ab8938657b03fbdba8","665792c93c30657b3954f005","1179","stimuli/1100010.jpg","1","","prediction_trial","1","","true","","1","false","true","true","true","false","true","[1]","100","010","1","","","","","","",""
"","","","","","image-keyboard-response","279","261144","0.0-254.0","5ea340a26c3ed82b0dbd4d9f","665500ab8938657b03fbdba8","665792c93c30657b3954f005","177","stimuli/11000101.jpg"," ","","feedback_trial","1","","","","","","","","","","","","","","","","","","","","",""
"","","","","","image-keyboard-response","280","261728","0.0-255.0","5ea340a26c3ed82b0dbd4d9f","665500ab8938657b03fbdba8","665792c93c30657b3954f005","579","stimuli/1101101.jpg","1","","prediction_trial","1","","true","","1","true","true","true","true","true","true","[1]","101","101","1","","","","","","",""
"","","","","","image-keyboard-response","281","261863","0.0-256.0","5ea340a26c3ed82b0dbd4d9f","665500ab8938657b03fbdba8","665792c93c30657b3954f005","130","stimuli/11011011.jpg"," ","","feedback_trial","1","","","","","","","","","","","","","","","","","","","","",""
"","","","","","image-keyboard-response","282","262912","0.0-257.0","5ea340a26c3ed82b0dbd4d9f","665500ab8938657b03fbdba8","665792c93c30657b3954f005","1042","stimuli/2010111.jpg","2","","prediction_trial","2","","true","","2","false","false","true","true","false","false","[2]","010","111","1","","","","","","",""
"","","","","","image-keyboard-response","283","263135","0.0-258.0","5ea340a26c3ed82b0dbd4d9f","665500ab8938657b03fbdba8","665792c93c30657b3954f005","217","stimuli/20101112.jpg"," ","","feedback_trial","2","","","","","","","","","","","","","","","","","","","","",""
"","","","","","image-keyboard-response","284","264215","0.0-259.0","5ea340a26c3ed82b0dbd4d9f","665500ab8938657b03fbdba8","665792c93c30657b3954f005","1076","stimuli/0001101.jpg","0","","prediction_trial","0","","true","","0","false","false","true","true","false","false","[0]","001","101","1","","","","","","",""
"","","","","","image-keyboard-response","285","264431","0.0-260.0","5ea340a26c3ed82b0dbd4d9f","665500ab8938657b03fbdba8","665792c93c30657b3954f005","212","stimuli/00011010.jpg"," ","","feedback_trial","0","","","","","","","","","","","","","","","","","","","","",""
"","","","","","image-keyboard-response","286","265897","0.0-261.0","5ea340a26c3ed82b0dbd4d9f","665500ab8938657b03fbdba8","665792c93c30657b3954f005","1461","stimuli/2001011.jpg","1","","prediction_trial","2","","false","","2","false","false","false","true","false","false","[2]","001","011","0","","","","","","",""
"","","","","","image-keyboard-response","287","266176","0.0-262.0","5ea340a26c3ed82b0dbd4d9f","665500ab8938657b03fbdba8","665792c93c30657b3954f005","271","stimuli/20010112.jpg"," ","","feedback_trial","2","","","","","","","","","","","","","","","","","","","","",""
"","","","","","image-keyboard-response","288","267167","0.0-263.0","5ea340a26c3ed82b0dbd4d9f","665500ab8938657b03fbdba8","665792c93c30657b3954f005","984","stimuli/0100100.jpg","0","","prediction_trial","0","","true","","0","false","true","false","true","false","true","[0]","100","100","1","","","","","","",""
"","","","","","image-keyboard-response","289","267400","0.0-264.0","5ea340a26c3ed82b0dbd4d9f","665500ab8938657b03fbdba8","665792c93c30657b3954f005","226","stimuli/01001000.jpg"," ","","feedback_trial","0","","","","","","","","","","","","","","","","","","","","",""
"","","","","","image-keyboard-response","290","268063","0.0-265.0","5ea340a26c3ed82b0dbd4d9f","665500ab8938657b03fbdba8","665792c93c30657b3954f005","657","stimuli/0000001.jpg","0","","prediction_trial","0","","true","","0","true","true","true","true","true","true","[0]","000","001","1","","","","","","",""
"","","","","","image-keyboard-response","291","268327","0.0-266.0","5ea340a26c3ed82b0dbd4d9f","665500ab8938657b03fbdba8","665792c93c30657b3954f005","257","stimuli/00000010.jpg"," ","","feedback_trial","0","","","","","","","","","","","","","","","","","","","","",""
"","","","","","image-keyboard-response","292","268784","0.0-267.0","5ea340a26c3ed82b0dbd4d9f","665500ab8938657b03fbdba8","665792c93c30657b3954f005","449","stimuli/0000000.jpg","0","","prediction_trial","0","","true","","0","true","true","true","true","true","true","[0]","000","000","1","","","","","","",""
"","","","","","image-keyboard-response","293","268960","0.0-268.0","5ea340a26c3ed82b0dbd4d9f","665500ab8938657b03fbdba8","665792c93c30657b3954f005","170","stimuli/00000000.jpg"," ","","feedback_trial","0","","","","","","","","","","","","","","","","","","","","",""
"","","","","","image-keyboard-response","294","270055","0.0-269.0","5ea340a26c3ed82b0dbd4d9f","665500ab8938657b03fbdba8","665792c93c30657b3954f005","1090","stimuli/2001110.jpg","1","","prediction_trial","2","","false","","2","true","true","false","true","false","true","[2]","001","110","0","","","","","","",""
"","","","","","image-keyboard-response","295","270752","0.0-270.0","5ea340a26c3ed82b0dbd4d9f","665500ab8938657b03fbdba8","665792c93c30657b3954f005","689","stimuli/20011102.jpg"," ","","feedback_trial","2","","","","","","","","","","","","","","","","","","","","",""
"","","","","","image-keyboard-response","296","273960","0.0-271.0","5ea340a26c3ed82b0dbd4d9f","665500ab8938657b03fbdba8","665792c93c30657b3954f005","3202","stimuli/2101010.jpg","0","","prediction_trial","0","","true","","2","true","true","false","false","false","false","[2,0]","101","010","1","","","","","","",""
"","","","","","image-keyboard-response","297","274215","0.0-272.0","5ea340a26c3ed82b0dbd4d9f","665500ab8938657b03fbdba8","665792c93c30657b3954f005","249","stimuli/21010100.jpg"," ","","feedback_trial","2","","","","","","","","","","","","","","","","","","","","",""
"","","","","","image-keyboard-response","298","275551","0.0-273.0","5ea340a26c3ed82b0dbd4d9f","665500ab8938657b03fbdba8","665792c93c30657b3954f005","1330","stimuli/1001011.jpg","1","","prediction_trial","1","","true","","1","false","false","true","true","false","false","[1]","001","011","1","","","","","","",""
"","","","","","image-keyboard-response","299","275815","0.0-274.0","5ea340a26c3ed82b0dbd4d9f","665500ab8938657b03fbdba8","665792c93c30657b3954f005","258","stimuli/10010111.jpg"," ","","feedback_trial","1","","","","","","","","","","","","","","","","","","","","",""
"","","","","","image-keyboard-response","300","277991","0.0-275.0","5ea340a26c3ed82b0dbd4d9f","665500ab8938657b03fbdba8","665792c93c30657b3954f005","2170","stimuli/2011010.jpg","1","","prediction_trial","2","","false","","2","true","true","false","false","false","false","[2,1]","011","010","0","","","","","","",""
"","","","","","image-keyboard-response","301","278223","0.0-276.0","5ea340a26c3ed82b0dbd4d9f","665500ab8938657b03fbdba8","665792c93c30657b3954f005","225","stimuli/20110102.jpg"," ","","feedback_trial","2","","","","","","","","","","","","","","","","","","","","",""
"","","","","","image-keyboard-response","302","278839","0.0-277.0","5ea340a26c3ed82b0dbd4d9f","665500ab8938657b03fbdba8","665792c93c30657b3954f005","610","stimuli/1101001.jpg","1","","prediction_trial","1","","true","","1","true","true","true","true","true","true","[1]","101","001","1","","","","","","",""
"","","","","","image-keyboard-response","303","278959","0.0-278.0","5ea340a26c3ed82b0dbd4d9f","665500ab8938657b03fbdba8","665792c93c30657b3954f005","114","stimuli/11010011.jpg"," ","","feedback_trial","1","","","","","","","","","","","","","","","","","","","","",""
"","","","","","image-keyboard-response","304","281599","0.0-279.0","5ea340a26c3ed82b0dbd4d9f","665500ab8938657b03fbdba8","665792c93c30657b3954f005","2634","stimuli/0010110.jpg","1","","prediction_trial","0","","false","","0","false","false","true","true","false","false","[0]","010","110","0","","","","","","",""
"","","","","","image-keyboard-response","305","281847","0.0-280.0","5ea340a26c3ed82b0dbd4d9f","665500ab8938657b03fbdba8","665792c93c30657b3954f005","244","stimuli/00101100.jpg"," ","","feedback_trial","0","","","","","","","","","","","","","","","","","","","","",""
"","","","","","image-keyboard-response","306","282423","0.0-281.0","5ea340a26c3ed82b0dbd4d9f","665500ab8938657b03fbdba8","665792c93c30657b3954f005","568","stimuli/0010010.jpg","0","","prediction_trial","0","","true","","0","true","true","true","true","true","true","[0]","010","010","1","","","","","","",""
"","","","","","image-keyboard-response","307","282647","0.0-282.0","5ea340a26c3ed82b0dbd4d9f","665500ab8938657b03fbdba8","665792c93c30657b3954f005","218","stimuli/00100100.jpg"," ","","feedback_trial","0","","","","","","","","","","","","","","","","","","","","",""
"","","","","","image-keyboard-response","308","283335","0.0-283.0","5ea340a26c3ed82b0dbd4d9f","665500ab8938657b03fbdba8","665792c93c30657b3954f005","682","stimuli/2100111.jpg","1","","prediction_trial","2","","false","","2","false","false","true","true","false","false","[2]","100","111","0","","","","","","",""
"","","","","","image-keyboard-response","309","283599","0.0-284.0","5ea340a26c3ed82b0dbd4d9f","665500ab8938657b03fbdba8","665792c93c30657b3954f005","259","stimuli/21001112.jpg"," ","","feedback_trial","2","","","","","","","","","","","","","","","","","","","","",""
"","","","","","image-keyboard-response","310","285342","0.0-285.0","5ea340a26c3ed82b0dbd4d9f","665500ab8938657b03fbdba8","665792c93c30657b3954f005","1736","stimuli/0100011.jpg","0","","prediction_trial","0","","true","","0","true","true","false","true","false","true","[0]","100","011","1","","","","","","",""
"","","","","","image-keyboard-response","311","285463","0.0-286.0","5ea340a26c3ed82b0dbd4d9f","665500ab8938657b03fbdba8","665792c93c30657b3954f005","113","stimuli/01000110.jpg"," ","","feedback_trial","0","","","","","","","","","","","","","","","","","","","","",""
"","","","","","image-keyboard-response","312","286183","0.0-287.0","5ea340a26c3ed82b0dbd4d9f","665500ab8938657b03fbdba8","665792c93c30657b3954f005","715","stimuli/2001000.jpg","2","","prediction_trial","2","","true","","2","true","true","false","true","false","true","[2]","001","000","1","","","","","","",""
"","","","","","image-keyboard-response","313","286367","0.0-288.0","5ea340a26c3ed82b0dbd4d9f","665500ab8938657b03fbdba8","665792c93c30657b3954f005","178","stimuli/20010002.jpg"," ","","feedback_trial","2","","","","","","","","","","","","","","","","","","","","",""
"","","","","","image-keyboard-response","314","287160","0.0-289.0","5ea340a26c3ed82b0dbd4d9f","665500ab8938657b03fbdba8","665792c93c30657b3954f005","785","stimuli/1100001.jpg","1","","prediction_trial","1","","true","","1","true","true","true","true","true","true","[1]","100","001","1","","","","","","",""
"","","","","","image-keyboard-response","315","287311","0.0-290.0","5ea340a26c3ed82b0dbd4d9f","665500ab8938657b03fbdba8","665792c93c30657b3954f005","143","stimuli/11000011.jpg"," ","","feedback_trial","1","","","","","","","","","","","","","","","","","","","","",""
"","","","","","image-keyboard-response","316","288247","0.0-291.0","5ea340a26c3ed82b0dbd4d9f","665500ab8938657b03fbdba8","665792c93c30657b3954f005","929","stimuli/0000101.jpg","2","","prediction_trial","0","","false","","0","false","false","true","true","false","false","[0]","000","101","0","","","","","","",""
"","","","","","image-keyboard-response","317","288383","0.0-292.0","5ea340a26c3ed82b0dbd4d9f","665500ab8938657b03fbdba8","665792c93c30657b3954f005","130","stimuli/00001010.jpg"," ","","feedback_trial","0","","","","","","","","","","","","","","","","","","","","",""
"","","","","","survey-html-form","318","304467","0.0-293.0","5ea340a26c3ed82b0dbd4d9f","665500ab8938657b03fbdba8","665792c93c30657b3954f005","16080","","{""feedback"":""N/A"",""age"":""35"",""gender"":""Female"",""other_gender"":"""",""race"":""White"",""other_race"":"""",""ethnicity"":""Non-Hispanic""}","","exit_survey","","","","","","","","","","","","","","","","N/A","35","Non-Hispanic","Female","White","0.5972222222222222","0.5972222222222222"
