"success","timeout","failed_images","failed_audio","failed_video","trial_type","trial_index","time_elapsed","internal_node_id","prolific_id","prolific_study_id","prolific_session_id","rt","stimulus","response","view_history","trial","character_choice","stimulus_dict","accuracy","correct_response","ball_pos","ego_ball_visible","ego_can_infer","alter_ball_visible","alter_can_infer","collective_ball_visible","collective_can_infer","search_locations","alter_occluders","ego_occluders","accuracy_bool","feedback","age","ethnicity","gender","race","overall_accuracy","bonus"
"true","false","[]","[]","[]","preload","0","1315","0.0-0.0","5df416a57bf5722f9a501255","665500ab8938657b03fbdba8","665793096b35f257ed77effb","","","","","","","","","","","","","","","","","","","","","","","","","","",""
"true","","","","","fullscreen","1","4143","0.0-1.0","5df416a57bf5722f9a501255","665500ab8938657b03fbdba8","665793096b35f257ed77effb","","","","","","","","","","","","","","","","","","","","","","","","","","",""
"","","","","","html-button-response","2","6422","0.0-2.0","5df416a57bf5722f9a501255","665500ab8938657b03fbdba8","665793096b35f257ed77effb","2278","<p><b>Consent Form</b></p> <div style=""text-align:left;background-color:lightgrey; padding:20px; max-width:900px;""><p>Please consider this information carefully before deciding whether to participate in this research.</p> <p>The purpose of this research is to examine which factors influence social judgment and decision-making. You will be asked to make judgements about individuals and actions in social scenarios. We are simply interested in your judgement. The study will take less than 1 hour to complete, and you will receive less than $20 on Prolific. Your compensation and time commitment are specified in the study description. There are no anticipated risks associated with participating in this study. The effects of participating should be comparable to those you would ordinarily experience from viewing a computer monitor and using a mouse or keyboard for a similar amount of time. At the end of the study, we will provide an explanation of the questions that motivate this line of research and will describe the potential implications. </p><p> Your participation in this study is completely voluntary and you may refuse to participate or you may choose to withdraw at any time without penalty or loss of benefits to you which are otherwise entitled. Your participation in this study will remain confidential. No personally identifiable information will be associated with your data. Also, all analyses of the data will be averaged across all the participants, so your individual responses will never be specifically analyzed. </p><p> If you have questions or concerns about your participation or payment, or want to request a summary of research findings, please contact Dr. Jonathan Phillips at Jonathan.S.Phillips@dartmouth.edu. </p><p> Please save a copy of this form for your records. </p><p><b>Agreement: </b>The nature and purpose of this research have been sufficiently explained and I agree to participate in this study. I understand that I am free to withdraw at any time without incurring any penalty. Please consent by clicking the button below to continue. Otherwise, please exit the study at any time. </p>","0","","","","","","","","","","","","","","","","","","","","","","","",""
"","","","","","instructions","3","84170","0.0-3.0-0.0","5df416a57bf5722f9a501255","665500ab8938657b03fbdba8","665793096b35f257ed77effb","77747","","","[{""page_index"":0,""viewing_time"":17135},{""page_index"":1,""viewing_time"":12090},{""page_index"":2,""viewing_time"":2799},{""page_index"":3,""viewing_time"":4230},{""page_index"":4,""viewing_time"":3313},{""page_index"":5,""viewing_time"":2677},{""page_index"":6,""viewing_time"":2821},{""page_index"":7,""viewing_time"":2290},{""page_index"":8,""viewing_time"":2411},{""page_index"":9,""viewing_time"":2014},{""page_index"":10,""viewing_time"":14146},{""page_index"":11,""viewing_time"":5525},{""page_index"":12,""viewing_time"":4942},{""page_index"":13,""viewing_time"":1352}]","intro","","","","","","","","","","","","","","","","","","","","","",""
"","","","","","image-keyboard-response","4","91887","0.0-3.0-1.0","5df416a57bf5722f9a501255","665500ab8938657b03fbdba8","665793096b35f257ed77effb","7717","stimuli/2100001.jpg","2","","prediction_practice","2","{""filepath"":""stimuli/2100001.jpg"",""ball_pos"":2,""ego_ball_visible"":false,""ego_can_infer"":true,""alter_ball_visible"":true,""alter_can_infer"":true,""collective_ball_visible"":false,""collective_can_infer"":true,""search_locations"":[2],""alter_occluders"":""100"",""ego_occluders"":""001""}","true","","","","","","","","","","","","","","","","","","",""
"","","","","","image-keyboard-response","5","93271","0.0-3.0-2.0","5df416a57bf5722f9a501255","665500ab8938657b03fbdba8","665793096b35f257ed77effb","1383","stimuli/21000012.jpg"," ","","practrice_feedback","2","","","","","","","","","","","","","","","","","","","","",""
"","","","","","image-keyboard-response","6","97382","0.0-3.0-3.0","5df416a57bf5722f9a501255","665500ab8938657b03fbdba8","665793096b35f257ed77effb","4111","stimuli/1000110.jpg","1","","prediction_practice","1","{""filepath"":""stimuli/1000110.jpg"",""ball_pos"":1,""ego_ball_visible"":false,""ego_can_infer"":false,""alter_ball_visible"":true,""alter_can_infer"":true,""collective_ball_visible"":false,""collective_can_infer"":false,""search_locations"":[1],""alter_occluders"":""000"",""ego_occluders"":""110""}","true","","","","","","","","","","","","","","","","","","",""
"","","","","","image-keyboard-response","7","98805","0.0-3.0-4.0","5df416a57bf5722f9a501255","665500ab8938657b03fbdba8","665793096b35f257ed77effb","1423","stimuli/10001101.jpg"," ","","practrice_feedback","1","","","","","","","","","","","","","","","","","","","","",""
"","","","","","image-keyboard-response","8","104050","0.0-3.0-5.0","5df416a57bf5722f9a501255","665500ab8938657b03fbdba8","665793096b35f257ed77effb","5244","stimuli/2110001.jpg","2","","prediction_practice","2","{""filepath"":""stimuli/2110001.jpg"",""ball_pos"":2,""ego_ball_visible"":false,""ego_can_infer"":true,""alter_ball_visible"":true,""alter_can_infer"":true,""collective_ball_visible"":false,""collective_can_infer"":true,""search_locations"":[2],""alter_occluders"":""110"",""ego_occluders"":""001""}","true","","","","","","","","","","","","","","","","","","",""
"","","","","","image-keyboard-response","9","105961","0.0-3.0-6.0","5df416a57bf5722f9a501255","665500ab8938657b03fbdba8","665793096b35f257ed77effb","1911","stimuli/21100012.jpg"," ","","practrice_feedback","2","","","","","","","","","","","","","","","","","","","","",""
"","","","","","image-keyboard-response","10","110507","0.0-3.0-7.0","5df416a57bf5722f9a501255","665500ab8938657b03fbdba8","665793096b35f257ed77effb","4546","stimuli/0000101.jpg","0","","prediction_practice","0","{""filepath"":""stimuli/0000101.jpg"",""ball_pos"":0,""ego_ball_visible"":false,""ego_can_infer"":false,""alter_ball_visible"":true,""alter_can_infer"":true,""collective_ball_visible"":false,""collective_can_infer"":false,""search_locations"":[0],""alter_occluders"":""000"",""ego_occluders"":""101""}","true","","","","","","","","","","","","","","","","","","",""
"","","","","","image-keyboard-response","11","111718","0.0-3.0-8.0","5df416a57bf5722f9a501255","665500ab8938657b03fbdba8","665793096b35f257ed77effb","1210","stimuli/00001010.jpg"," ","","practrice_feedback","0","","","","","","","","","","","","","","","","","","","","",""
"","","","","","image-keyboard-response","12","115953","0.0-3.0-9.0","5df416a57bf5722f9a501255","665500ab8938657b03fbdba8","665793096b35f257ed77effb","4234","stimuli/2101000.jpg","2","","prediction_practice","0","{""filepath"":""stimuli/2101000.jpg"",""ball_pos"":2,""ego_ball_visible"":true,""ego_can_infer"":true,""alter_ball_visible"":false,""alter_can_infer"":false,""collective_ball_visible"":false,""collective_can_infer"":false,""search_locations"":[0,2],""alter_occluders"":""101"",""ego_occluders"":""000""}","false","","","","","","","","","","","","","","","","","","",""
"","","","","","image-keyboard-response","13","117609","0.0-3.0-10.0","5df416a57bf5722f9a501255","665500ab8938657b03fbdba8","665793096b35f257ed77effb","1656","stimuli/21010000.jpg"," ","","practrice_feedback","0","","","","","","","","","","","","","","","","","","","","",""
"","","","","","image-keyboard-response","14","118950","0.0-3.0-11.0","5df416a57bf5722f9a501255","665500ab8938657b03fbdba8","665793096b35f257ed77effb","1340","stimuli/1001001.jpg","1","","prediction_practice","1","{""filepath"":""stimuli/1001001.jpg"",""ball_pos"":1,""ego_ball_visible"":true,""ego_can_infer"":true,""alter_ball_visible"":true,""alter_can_infer"":true,""collective_ball_visible"":true,""collective_can_infer"":true,""search_locations"":[1],""alter_occluders"":""001"",""ego_occluders"":""001""}","true","","","","","","","","","","","","","","","","","","",""
"","","","","","image-keyboard-response","15","120951","0.0-3.0-12.0","5df416a57bf5722f9a501255","665500ab8938657b03fbdba8","665793096b35f257ed77effb","2000","stimuli/10010011.jpg"," ","","practrice_feedback","1","","","","","","","","","","","","","","","","","","","","",""
"","","","","","image-keyboard-response","16","123484","0.0-3.0-13.0","5df416a57bf5722f9a501255","665500ab8938657b03fbdba8","665793096b35f257ed77effb","2533","stimuli/2000001.jpg","2","","prediction_practice","2","{""filepath"":""stimuli/2000001.jpg"",""ball_pos"":2,""ego_ball_visible"":false,""ego_can_infer"":true,""alter_ball_visible"":true,""alter_can_infer"":true,""collective_ball_visible"":false,""collective_can_infer"":true,""search_locations"":[2],""alter_occluders"":""000"",""ego_occluders"":""001""}","true","","","","","","","","","","","","","","","","","","",""
"","","","","","image-keyboard-response","17","124465","0.0-3.0-14.0","5df416a57bf5722f9a501255","665500ab8938657b03fbdba8","665793096b35f257ed77effb","980","stimuli/20000012.jpg"," ","","practrice_feedback","2","","","","","","","","","","","","","","","","","","","","",""
"","","","","","image-keyboard-response","18","125962","0.0-3.0-15.0","5df416a57bf5722f9a501255","665500ab8938657b03fbdba8","665793096b35f257ed77effb","1497","stimuli/1010000.jpg","1","","prediction_practice","1","{""filepath"":""stimuli/1010000.jpg"",""ball_pos"":1,""ego_ball_visible"":true,""ego_can_infer"":true,""alter_ball_visible"":false,""alter_can_infer"":true,""collective_ball_visible"":false,""collective_can_infer"":true,""search_locations"":[1],""alter_occluders"":""010"",""ego_occluders"":""000""}","true","","","","","","","","","","","","","","","","","","",""
"","","","","","image-keyboard-response","19","126397","0.0-3.0-16.0","5df416a57bf5722f9a501255","665500ab8938657b03fbdba8","665793096b35f257ed77effb","434","stimuli/10100001.jpg"," ","","practrice_feedback","1","","","","","","","","","","","","","","","","","","","","",""
"","","","","","image-keyboard-response","20","131954","0.0-3.0-17.0","5df416a57bf5722f9a501255","665500ab8938657b03fbdba8","665793096b35f257ed77effb","5556","stimuli/1011010.jpg","1","","prediction_practice","1","{""filepath"":""stimuli/1011010.jpg"",""ball_pos"":1,""ego_ball_visible"":false,""ego_can_infer"":true,""alter_ball_visible"":false,""alter_can_infer"":false,""collective_ball_visible"":false,""collective_can_infer"":false,""search_locations"":[1,2],""alter_occluders"":""011"",""ego_occluders"":""010""}","true","","","","","","","","","","","","","","","","","","",""
"","","","","","image-keyboard-response","21","132696","0.0-3.0-18.0","5df416a57bf5722f9a501255","665500ab8938657b03fbdba8","665793096b35f257ed77effb","742","stimuli/10110101.jpg"," ","","practrice_feedback","1","","","","","","","","","","","","","","","","","","","","",""
"","","","","","image-keyboard-response","22","137211","0.0-3.0-19.0","5df416a57bf5722f9a501255","665500ab8938657b03fbdba8","665793096b35f257ed77effb","4515","stimuli/0110100.jpg","0","","prediction_practice","0","{""filepath"":""stimuli/0110100.jpg"",""ball_pos"":0,""ego_ball_visible"":false,""ego_can_infer"":true,""alter_ball_visible"":false,""alter_can_infer"":false,""collective_ball_visible"":false,""collective_can_infer"":false,""search_locations"":[0,1],""alter_occluders"":""110"",""ego_occluders"":""100""}","true","","","","","","","","","","","","","","","","","","",""
"","","","","","image-keyboard-response","23","137972","0.0-3.0-20.0","5df416a57bf5722f9a501255","665500ab8938657b03fbdba8","665793096b35f257ed77effb","760","stimuli/01101000.jpg"," ","","practrice_feedback","0","","","","","","","","","","","","","","","","","","","","",""
"","","","","","html-button-response","24","146680","0.0-3.0-21.0","5df416a57bf5722f9a501255","665500ab8938657b03fbdba8","665793096b35f257ed77effb","8707","Now that you've had some practice, you'll be tested with a couple of easy trials. If you correctly predict Sam's choice, you'll move on to complete the experiment!","0","","","","","","","","","","","","","","","","","","","","","","","",""
"","","","","","image-keyboard-response","25","148784","0.0-3.0-22.0-0.0","5df416a57bf5722f9a501255","665500ab8938657b03fbdba8","665793096b35f257ed77effb","2104","stimuli/0000011.jpg","arrowleft","","comprehension_quiz","","","true","arrowleft","","","","","","","","","","","","","","","","","",""
"","","","","","image-keyboard-response","26","149522","0.0-3.0-22.0-1.0","5df416a57bf5722f9a501255","665500ab8938657b03fbdba8","665793096b35f257ed77effb","737","stimuli/00000110.jpg"," ","","comprehension_quiz","","","true"," ","","","","","","","","","","","","","","","","","",""
"","","","","","image-keyboard-response","27","151775","0.0-3.0-22.0-2.0","5df416a57bf5722f9a501255","665500ab8938657b03fbdba8","665793096b35f257ed77effb","2253","stimuli/1010010.jpg","arrowdown","","comprehension_quiz","","","true","arrowdown","","","","","","","","","","","","","","","","","",""
"","","","","","image-keyboard-response","28","152267","0.0-3.0-22.0-3.0","5df416a57bf5722f9a501255","665500ab8938657b03fbdba8","665793096b35f257ed77effb","492","stimuli/10100101.jpg"," ","","comprehension_quiz","","","true"," ","","","","","","","","","","","","","","","","","",""
"","","","","","html-button-response","29","154075","0.0-4.0","5df416a57bf5722f9a501255","665500ab8938657b03fbdba8","665793096b35f257ed77effb","1808","The experiment will now begin.","0","","","","","","","","","","","","","","","","","","","","","","","",""
"","","","","","image-keyboard-response","30","157276","0.0-5.0","5df416a57bf5722f9a501255","665500ab8938657b03fbdba8","665793096b35f257ed77effb","3200","stimuli/2000111.jpg","1","","prediction_trial","2","","false","","2","false","false","true","true","false","false","[2]","000","111","0","","","","","","",""
"","","","","","image-keyboard-response","31","158286","0.0-6.0","5df416a57bf5722f9a501255","665500ab8938657b03fbdba8","665793096b35f257ed77effb","1009","stimuli/20001112.jpg"," ","","feedback_trial","2","","","","","","","","","","","","","","","","","","","","",""
"","","","","","image-keyboard-response","32","160647","0.0-7.0","5df416a57bf5722f9a501255","665500ab8938657b03fbdba8","665793096b35f257ed77effb","2361","stimuli/1100111.jpg","2","","prediction_trial","1","","false","","1","false","false","true","true","false","false","[1]","100","111","0","","","","","","",""
"","","","","","image-keyboard-response","33","161677","0.0-8.0","5df416a57bf5722f9a501255","665500ab8938657b03fbdba8","665793096b35f257ed77effb","1029","stimuli/11001111.jpg"," ","","feedback_trial","1","","","","","","","","","","","","","","","","","","","","",""
"","","","","","image-keyboard-response","34","164552","0.0-9.0","5df416a57bf5722f9a501255","665500ab8938657b03fbdba8","665793096b35f257ed77effb","2874","stimuli/1010100.jpg","1","","prediction_trial","1","","true","","1","true","true","false","true","false","true","[1]","010","100","1","","","","","","",""
"","","","","","image-keyboard-response","35","165438","0.0-10.0","5df416a57bf5722f9a501255","665500ab8938657b03fbdba8","665793096b35f257ed77effb","885","stimuli/10101001.jpg"," ","","feedback_trial","1","","","","","","","","","","","","","","","","","","","","",""
"","","","","","image-keyboard-response","36","167498","0.0-11.0","5df416a57bf5722f9a501255","665500ab8938657b03fbdba8","665793096b35f257ed77effb","2059","stimuli/0110011.jpg","0","","prediction_trial","1","","false","","0","true","true","false","false","false","false","[0,1]","110","011","0","","","","","","",""
"","","","","","image-keyboard-response","37","168432","0.0-12.0","5df416a57bf5722f9a501255","665500ab8938657b03fbdba8","665793096b35f257ed77effb","934","stimuli/01100111.jpg"," ","","feedback_trial","0","","","","","","","","","","","","","","","","","","","","",""
"","","","","","image-keyboard-response","38","169692","0.0-13.0","5df416a57bf5722f9a501255","665500ab8938657b03fbdba8","665793096b35f257ed77effb","1259","stimuli/1001101.jpg","1","","prediction_trial","1","","true","","1","true","true","true","true","true","true","[1]","001","101","1","","","","","","",""
"","","","","","image-keyboard-response","39","170159","0.0-14.0","5df416a57bf5722f9a501255","665500ab8938657b03fbdba8","665793096b35f257ed77effb","467","stimuli/10011011.jpg"," ","","feedback_trial","1","","","","","","","","","","","","","","","","","","","","",""
"","","","","","image-keyboard-response","40","171436","0.0-15.0","5df416a57bf5722f9a501255","665500ab8938657b03fbdba8","665793096b35f257ed77effb","1277","stimuli/1011001.jpg","1","","prediction_trial","1","","true","","1","true","true","false","false","false","false","[1,2]","011","001","1","","","","","","",""
"","","","","","image-keyboard-response","41","172055","0.0-16.0","5df416a57bf5722f9a501255","665500ab8938657b03fbdba8","665793096b35f257ed77effb","618","stimuli/10110011.jpg"," ","","feedback_trial","1","","","","","","","","","","","","","","","","","","","","",""
"","","","","","image-keyboard-response","42","173717","0.0-17.0","5df416a57bf5722f9a501255","665500ab8938657b03fbdba8","665793096b35f257ed77effb","1661","stimuli/1000011.jpg","1","","prediction_trial","1","","true","","1","false","false","true","true","false","false","[1]","000","011","1","","","","","","",""
"","","","","","image-keyboard-response","43","174348","0.0-18.0","5df416a57bf5722f9a501255","665500ab8938657b03fbdba8","665793096b35f257ed77effb","631","stimuli/10000111.jpg"," ","","feedback_trial","1","","","","","","","","","","","","","","","","","","","","",""
"","","","","","image-keyboard-response","44","175686","0.0-19.0","5df416a57bf5722f9a501255","665500ab8938657b03fbdba8","665793096b35f257ed77effb","1337","stimuli/0000100.jpg","0","","prediction_trial","0","","true","","0","false","true","true","true","false","true","[0]","000","100","1","","","","","","",""
"","","","","","image-keyboard-response","45","176308","0.0-20.0","5df416a57bf5722f9a501255","665500ab8938657b03fbdba8","665793096b35f257ed77effb","622","stimuli/00001000.jpg"," ","","feedback_trial","0","","","","","","","","","","","","","","","","","","","","",""
"","","","","","image-keyboard-response","46","180070","0.0-21.0","5df416a57bf5722f9a501255","665500ab8938657b03fbdba8","665793096b35f257ed77effb","3762","stimuli/2100101.jpg","2","","prediction_trial","2","","true","","2","false","false","true","true","false","false","[2]","100","101","1","","","","","","",""
"","","","","","image-keyboard-response","47","180930","0.0-22.0","5df416a57bf5722f9a501255","665500ab8938657b03fbdba8","665793096b35f257ed77effb","860","stimuli/21001012.jpg"," ","","feedback_trial","2","","","","","","","","","","","","","","","","","","","","",""
"","","","","","image-keyboard-response","48","184554","0.0-23.0","5df416a57bf5722f9a501255","665500ab8938657b03fbdba8","665793096b35f257ed77effb","3623","stimuli/2111110.jpg","1","","prediction_trial","2","","false","","2","true","true","false","false","false","false","[2,1,0]","111","110","0","","","","","","",""
"","","","","","image-keyboard-response","49","185570","0.0-24.0","5df416a57bf5722f9a501255","665500ab8938657b03fbdba8","665793096b35f257ed77effb","1015","stimuli/21111102.jpg"," ","","feedback_trial","2","","","","","","","","","","","","","","","","","","","","",""
"","","","","","image-keyboard-response","50","187895","0.0-25.0","5df416a57bf5722f9a501255","665500ab8938657b03fbdba8","665793096b35f257ed77effb","2325","stimuli/0010010.jpg","0","","prediction_trial","0","","true","","0","true","true","true","true","true","true","[0]","010","010","1","","","","","","",""
"","","","","","image-keyboard-response","51","188160","0.0-26.0","5df416a57bf5722f9a501255","665500ab8938657b03fbdba8","665793096b35f257ed77effb","264","stimuli/00100100.jpg"," ","","feedback_trial","0","","","","","","","","","","","","","","","","","","","","",""
"","","","","","image-keyboard-response","52","189358","0.0-27.0","5df416a57bf5722f9a501255","665500ab8938657b03fbdba8","665793096b35f257ed77effb","1198","stimuli/1101101.jpg","1","","prediction_trial","1","","true","","1","true","true","true","true","true","true","[1]","101","101","1","","","","","","",""
"","","","","","image-keyboard-response","53","189733","0.0-28.0","5df416a57bf5722f9a501255","665500ab8938657b03fbdba8","665793096b35f257ed77effb","374","stimuli/11011011.jpg"," ","","feedback_trial","1","","","","","","","","","","","","","","","","","","","","",""
"","","","","","image-keyboard-response","54","191426","0.0-29.0","5df416a57bf5722f9a501255","665500ab8938657b03fbdba8","665793096b35f257ed77effb","1692","stimuli/1101011.jpg","1","","prediction_trial","1","","true","","1","false","false","true","true","false","false","[1]","101","011","1","","","","","","",""
"","","","","","image-keyboard-response","55","191724","0.0-30.0","5df416a57bf5722f9a501255","665500ab8938657b03fbdba8","665793096b35f257ed77effb","298","stimuli/11010111.jpg"," ","","feedback_trial","1","","","","","","","","","","","","","","","","","","","","",""
"","","","","","image-keyboard-response","56","194661","0.0-31.0","5df416a57bf5722f9a501255","665500ab8938657b03fbdba8","665793096b35f257ed77effb","2936","stimuli/0100000.jpg","0","","prediction_trial","0","","true","","0","true","true","false","true","false","true","[0]","100","000","1","","","","","","",""
"","","","","","image-keyboard-response","57","194888","0.0-32.0","5df416a57bf5722f9a501255","665500ab8938657b03fbdba8","665793096b35f257ed77effb","227","stimuli/01000000.jpg"," ","","feedback_trial","0","","","","","","","","","","","","","","","","","","","","",""
"","","","","","image-keyboard-response","58","196569","0.0-33.0","5df416a57bf5722f9a501255","665500ab8938657b03fbdba8","665793096b35f257ed77effb","1680","stimuli/2111001.jpg","1","","prediction_trial","2","","false","","2","false","true","false","false","false","false","[2,1,0]","111","001","0","","","","","","",""
"","","","","","image-keyboard-response","59","197025","0.0-34.0","5df416a57bf5722f9a501255","665500ab8938657b03fbdba8","665793096b35f257ed77effb","455","stimuli/21110012.jpg"," ","","feedback_trial","2","","","","","","","","","","","","","","","","","","","","",""
"","","","","","image-keyboard-response","60","198388","0.0-35.0","5df416a57bf5722f9a501255","665500ab8938657b03fbdba8","665793096b35f257ed77effb","1363","stimuli/0001101.jpg","2","","prediction_trial","0","","false","","0","false","false","true","true","false","false","[0]","001","101","0","","","","","","",""
"","","","","","image-keyboard-response","61","198961","0.0-36.0","5df416a57bf5722f9a501255","665500ab8938657b03fbdba8","665793096b35f257ed77effb","572","stimuli/00011010.jpg"," ","","feedback_trial","0","","","","","","","","","","","","","","","","","","","","",""
"","","","","","image-keyboard-response","62","200860","0.0-37.0","5df416a57bf5722f9a501255","665500ab8938657b03fbdba8","665793096b35f257ed77effb","1899","stimuli/2100111.jpg","1","","prediction_trial","2","","false","","2","false","false","true","true","false","false","[2]","100","111","0","","","","","","",""
"","","","","","image-keyboard-response","63","201365","0.0-38.0","5df416a57bf5722f9a501255","665500ab8938657b03fbdba8","665793096b35f257ed77effb","505","stimuli/21001112.jpg"," ","","feedback_trial","2","","","","","","","","","","","","","","","","","","","","",""
"","","","","","image-keyboard-response","64","202515","0.0-39.0","5df416a57bf5722f9a501255","665500ab8938657b03fbdba8","665793096b35f257ed77effb","1150","stimuli/0101100.jpg","0","","prediction_trial","0","","true","","0","false","true","false","false","false","false","[2,0]","101","100","1","","","","","","",""
"","","","","","image-keyboard-response","65","203226","0.0-40.0","5df416a57bf5722f9a501255","665500ab8938657b03fbdba8","665793096b35f257ed77effb","711","stimuli/01011000.jpg"," ","","feedback_trial","2","","","","","","","","","","","","","","","","","","","","",""
"","","","","","image-keyboard-response","66","204518","0.0-41.0","5df416a57bf5722f9a501255","665500ab8938657b03fbdba8","665793096b35f257ed77effb","1291","stimuli/0011111.jpg","1","","prediction_trial","0","","false","","0","false","false","true","true","false","false","[0]","011","111","0","","","","","","",""
"","","","","","image-keyboard-response","67","204895","0.0-42.0","5df416a57bf5722f9a501255","665500ab8938657b03fbdba8","665793096b35f257ed77effb","377","stimuli/00111110.jpg"," ","","feedback_trial","0","","","","","","","","","","","","","","","","","","","","",""
"","","","","","image-keyboard-response","68","205871","0.0-43.0","5df416a57bf5722f9a501255","665500ab8938657b03fbdba8","665793096b35f257ed77effb","975","stimuli/0110111.jpg","2","","prediction_trial","0","","false","","0","false","false","false","false","false","false","[1,0]","110","111","0","","","","","","",""
"","","","","","image-keyboard-response","69","206215","0.0-44.0","5df416a57bf5722f9a501255","665500ab8938657b03fbdba8","665793096b35f257ed77effb","344","stimuli/01101110.jpg"," ","","feedback_trial","1","","","","","","","","","","","","","","","","","","","","",""
"","","","","","image-keyboard-response","70","208029","0.0-45.0","5df416a57bf5722f9a501255","665500ab8938657b03fbdba8","665793096b35f257ed77effb","1813","stimuli/0101010.jpg","0","","prediction_trial","2","","false","","0","true","true","false","false","false","false","[0,2]","101","010","0","","","","","","",""
"","","","","","image-keyboard-response","71","208543","0.0-46.0","5df416a57bf5722f9a501255","665500ab8938657b03fbdba8","665793096b35f257ed77effb","513","stimuli/01010102.jpg"," ","","feedback_trial","0","","","","","","","","","","","","","","","","","","","","",""
"","","","","","image-keyboard-response","72","209504","0.0-47.0","5df416a57bf5722f9a501255","665500ab8938657b03fbdba8","665793096b35f257ed77effb","961","stimuli/0111001.jpg","0","","prediction_trial","2","","false","","0","true","true","false","false","false","false","[0,1,2]","111","001","0","","","","","","",""
"","","","","","image-keyboard-response","73","210038","0.0-48.0","5df416a57bf5722f9a501255","665500ab8938657b03fbdba8","665793096b35f257ed77effb","533","stimuli/01110012.jpg"," ","","feedback_trial","0","","","","","","","","","","","","","","","","","","","","",""
"","","","","","image-keyboard-response","74","213410","0.0-49.0","5df416a57bf5722f9a501255","665500ab8938657b03fbdba8","665793096b35f257ed77effb","3372","stimuli/0110101.jpg","2","","prediction_trial","1","","false","","0","false","false","false","false","false","false","[1,0]","110","101","0","","","","","","",""
"","","","","","image-keyboard-response","75","214230","0.0-50.0","5df416a57bf5722f9a501255","665500ab8938657b03fbdba8","665793096b35f257ed77effb","819","stimuli/01101011.jpg"," ","","feedback_trial","1","","","","","","","","","","","","","","","","","","","","",""
"","","","","","image-keyboard-response","76","217101","0.0-51.0","5df416a57bf5722f9a501255","665500ab8938657b03fbdba8","665793096b35f257ed77effb","2870","stimuli/0010000.jpg","0","","prediction_trial","0","","true","","0","true","true","true","true","true","true","[0]","010","000","1","","","","","","",""
"","","","","","image-keyboard-response","77","217988","0.0-52.0","5df416a57bf5722f9a501255","665500ab8938657b03fbdba8","665793096b35f257ed77effb","886","stimuli/00100000.jpg"," ","","feedback_trial","0","","","","","","","","","","","","","","","","","","","","",""
"","","","","","image-keyboard-response","78","219521","0.0-53.0","5df416a57bf5722f9a501255","665500ab8938657b03fbdba8","665793096b35f257ed77effb","1533","stimuli/1101111.jpg","1","","prediction_trial","1","","true","","1","false","false","true","true","false","false","[1]","101","111","1","","","","","","",""
"","","","","","image-keyboard-response","79","220082","0.0-54.0","5df416a57bf5722f9a501255","665500ab8938657b03fbdba8","665793096b35f257ed77effb","560","stimuli/11011111.jpg"," ","","feedback_trial","1","","","","","","","","","","","","","","","","","","","","",""
"","","","","","image-keyboard-response","80","222018","0.0-55.0","5df416a57bf5722f9a501255","665500ab8938657b03fbdba8","665793096b35f257ed77effb","1936","stimuli/2111011.jpg","0","","prediction_trial","0","","true","","2","false","false","false","false","false","false","[0,1,2]","111","011","1","","","","","","",""
"","","","","","image-keyboard-response","81","222944","0.0-56.0","5df416a57bf5722f9a501255","665500ab8938657b03fbdba8","665793096b35f257ed77effb","925","stimuli/21110110.jpg"," ","","feedback_trial","0","","","","","","","","","","","","","","","","","","","","",""
"","","","","","image-keyboard-response","82","224698","0.0-57.0","5df416a57bf5722f9a501255","665500ab8938657b03fbdba8","665793096b35f257ed77effb","1753","stimuli/2100110.jpg","2","","prediction_trial","2","","true","","2","true","true","true","true","true","true","[2]","100","110","1","","","","","","",""
"","","","","","image-keyboard-response","83","225040","0.0-58.0","5df416a57bf5722f9a501255","665500ab8938657b03fbdba8","665793096b35f257ed77effb","342","stimuli/21001102.jpg"," ","","feedback_trial","2","","","","","","","","","","","","","","","","","","","","",""
"","","","","","image-keyboard-response","84","226799","0.0-59.0","5df416a57bf5722f9a501255","665500ab8938657b03fbdba8","665793096b35f257ed77effb","1758","stimuli/2011110.jpg","2","","prediction_trial","1","","false","","2","true","true","false","false","false","false","[2,1]","011","110","0","","","","","","",""
"","","","","","image-keyboard-response","85","227305","0.0-60.0","5df416a57bf5722f9a501255","665500ab8938657b03fbdba8","665793096b35f257ed77effb","505","stimuli/20111101.jpg"," ","","feedback_trial","2","","","","","","","","","","","","","","","","","","","","",""
"","","","","","image-keyboard-response","86","228246","0.0-61.0","5df416a57bf5722f9a501255","665500ab8938657b03fbdba8","665793096b35f257ed77effb","941","stimuli/0001111.jpg","1","","prediction_trial","0","","false","","0","false","false","true","true","false","false","[0]","001","111","0","","","","","","",""
"","","","","","image-keyboard-response","87","228690","0.0-62.0","5df416a57bf5722f9a501255","665500ab8938657b03fbdba8","665793096b35f257ed77effb","443","stimuli/00011110.jpg"," ","","feedback_trial","0","","","","","","","","","","","","","","","","","","","","",""
"","","","","","image-keyboard-response","88","231256","0.0-63.0","5df416a57bf5722f9a501255","665500ab8938657b03fbdba8","665793096b35f257ed77effb","2566","stimuli/1011000.jpg","1","","prediction_trial","2","","false","","1","true","true","false","false","false","false","[1,2]","011","000","0","","","","","","",""
"","","","","","image-keyboard-response","89","231655","0.0-64.0","5df416a57bf5722f9a501255","665500ab8938657b03fbdba8","665793096b35f257ed77effb","398","stimuli/10110002.jpg"," ","","feedback_trial","1","","","","","","","","","","","","","","","","","","","","",""
"","","","","","image-keyboard-response","90","233799","0.0-65.0","5df416a57bf5722f9a501255","665500ab8938657b03fbdba8","665793096b35f257ed77effb","2144","stimuli/0101001.jpg","0","","prediction_trial","2","","false","","0","true","true","false","false","false","false","[2,0]","101","001","0","","","","","","",""
"","","","","","image-keyboard-response","91","234634","0.0-66.0","5df416a57bf5722f9a501255","665500ab8938657b03fbdba8","665793096b35f257ed77effb","834","stimuli/01010012.jpg"," ","","feedback_trial","2","","","","","","","","","","","","","","","","","","","","",""
"","","","","","image-keyboard-response","92","235689","0.0-67.0","5df416a57bf5722f9a501255","665500ab8938657b03fbdba8","665793096b35f257ed77effb","1054","stimuli/0000111.jpg","1","","prediction_trial","0","","false","","0","false","false","true","true","false","false","[0]","000","111","0","","","","","","",""
"","","","","","image-keyboard-response","93","236186","0.0-68.0","5df416a57bf5722f9a501255","665500ab8938657b03fbdba8","665793096b35f257ed77effb","497","stimuli/00001110.jpg"," ","","feedback_trial","0","","","","","","","","","","","","","","","","","","","","",""
"","","","","","image-keyboard-response","94","237246","0.0-69.0","5df416a57bf5722f9a501255","665500ab8938657b03fbdba8","665793096b35f257ed77effb","1060","stimuli/1001001.jpg","1","","prediction_trial","1","","true","","1","true","true","true","true","true","true","[1]","001","001","1","","","","","","",""
"","","","","","image-keyboard-response","95","237461","0.0-70.0","5df416a57bf5722f9a501255","665500ab8938657b03fbdba8","665793096b35f257ed77effb","214","stimuli/10010011.jpg"," ","","feedback_trial","1","","","","","","","","","","","","","","","","","","","","",""
"","","","","","image-keyboard-response","96","238379","0.0-71.0","5df416a57bf5722f9a501255","665500ab8938657b03fbdba8","665793096b35f257ed77effb","918","stimuli/2000101.jpg","2","","prediction_trial","2","","true","","2","false","false","true","true","false","false","[2]","000","101","1","","","","","","",""
"","","","","","image-keyboard-response","97","238622","0.0-72.0","5df416a57bf5722f9a501255","665500ab8938657b03fbdba8","665793096b35f257ed77effb","242","stimuli/20001012.jpg"," ","","feedback_trial","2","","","","","","","","","","","","","","","","","","","","",""
"","","","","","image-keyboard-response","98","239503","0.0-73.0","5df416a57bf5722f9a501255","665500ab8938657b03fbdba8","665793096b35f257ed77effb","880","stimuli/0100011.jpg","0","","prediction_trial","0","","true","","0","true","true","false","true","false","true","[0]","100","011","1","","","","","","",""
"","","","","","image-keyboard-response","99","239725","0.0-74.0","5df416a57bf5722f9a501255","665500ab8938657b03fbdba8","665793096b35f257ed77effb","222","stimuli/01000110.jpg"," ","","feedback_trial","0","","","","","","","","","","","","","","","","","","","","",""
"","","","","","image-keyboard-response","100","240649","0.0-75.0","5df416a57bf5722f9a501255","665500ab8938657b03fbdba8","665793096b35f257ed77effb","924","stimuli/2101000.jpg","2","","prediction_trial","0","","false","","2","true","true","false","false","false","false","[0,2]","101","000","0","","","","","","",""
"","","","","","image-keyboard-response","101","241333","0.0-76.0","5df416a57bf5722f9a501255","665500ab8938657b03fbdba8","665793096b35f257ed77effb","684","stimuli/21010000.jpg"," ","","feedback_trial","0","","","","","","","","","","","","","","","","","","","","",""
"","","","","","image-keyboard-response","102","242281","0.0-77.0","5df416a57bf5722f9a501255","665500ab8938657b03fbdba8","665793096b35f257ed77effb","948","stimuli/2100000.jpg","2","","prediction_trial","2","","true","","2","true","true","true","true","true","true","[2]","100","000","1","","","","","","",""
"","","","","","image-keyboard-response","103","242607","0.0-78.0","5df416a57bf5722f9a501255","665500ab8938657b03fbdba8","665793096b35f257ed77effb","325","stimuli/21000002.jpg"," ","","feedback_trial","2","","","","","","","","","","","","","","","","","","","","",""
"","","","","","image-keyboard-response","104","243577","0.0-79.0","5df416a57bf5722f9a501255","665500ab8938657b03fbdba8","665793096b35f257ed77effb","969","stimuli/0011011.jpg","0","","prediction_trial","0","","true","","0","true","true","true","true","true","true","[0]","011","011","1","","","","","","",""
"","","","","","image-keyboard-response","105","243830","0.0-80.0","5df416a57bf5722f9a501255","665500ab8938657b03fbdba8","665793096b35f257ed77effb","253","stimuli/00110110.jpg"," ","","feedback_trial","0","","","","","","","","","","","","","","","","","","","","",""
"","","","","","image-keyboard-response","106","246283","0.0-81.0","5df416a57bf5722f9a501255","665500ab8938657b03fbdba8","665793096b35f257ed77effb","2452","stimuli/2100001.jpg","2","","prediction_trial","2","","true","","2","false","true","true","true","false","true","[2]","100","001","1","","","","","","",""
"","","","","","image-keyboard-response","107","246578","0.0-82.0","5df416a57bf5722f9a501255","665500ab8938657b03fbdba8","665793096b35f257ed77effb","294","stimuli/21000012.jpg"," ","","feedback_trial","2","","","","","","","","","","","","","","","","","","","","",""
"","","","","","image-keyboard-response","108","249218","0.0-83.0","5df416a57bf5722f9a501255","665500ab8938657b03fbdba8","665793096b35f257ed77effb","2639","stimuli/0000011.jpg","0","","prediction_trial","0","","true","","0","true","true","true","true","true","true","[0]","000","011","1","","","","","","",""
"","","","","","image-keyboard-response","109","249484","0.0-84.0","5df416a57bf5722f9a501255","665500ab8938657b03fbdba8","665793096b35f257ed77effb","265","stimuli/00000110.jpg"," ","","feedback_trial","0","","","","","","","","","","","","","","","","","","","","",""
"","","","","","image-keyboard-response","110","251647","0.0-85.0","5df416a57bf5722f9a501255","665500ab8938657b03fbdba8","665793096b35f257ed77effb","2163","stimuli/2011010.jpg","1","","prediction_trial","1","","true","","2","true","true","false","false","false","false","[1,2]","011","010","1","","","","","","",""
"","","","","","image-keyboard-response","111","251944","0.0-86.0","5df416a57bf5722f9a501255","665500ab8938657b03fbdba8","665793096b35f257ed77effb","296","stimuli/20110101.jpg"," ","","feedback_trial","1","","","","","","","","","","","","","","","","","","","","",""
"","","","","","image-keyboard-response","112","253724","0.0-87.0","5df416a57bf5722f9a501255","665500ab8938657b03fbdba8","665793096b35f257ed77effb","1779","stimuli/0110010.jpg","1","","prediction_trial","0","","false","","0","true","true","false","false","false","false","[0,1]","110","010","0","","","","","","",""
"","","","","","image-keyboard-response","113","254426","0.0-88.0","5df416a57bf5722f9a501255","665500ab8938657b03fbdba8","665793096b35f257ed77effb","701","stimuli/01100100.jpg"," ","","feedback_trial","0","","","","","","","","","","","","","","","","","","","","",""
"","","","","","image-keyboard-response","114","256259","0.0-89.0","5df416a57bf5722f9a501255","665500ab8938657b03fbdba8","665793096b35f257ed77effb","1833","stimuli/0110000.jpg","1","","prediction_trial","0","","false","","0","true","true","false","false","false","false","[0,1]","110","000","0","","","","","","",""
"","","","","","image-keyboard-response","115","256756","0.0-90.0","5df416a57bf5722f9a501255","665500ab8938657b03fbdba8","665793096b35f257ed77effb","496","stimuli/01100000.jpg"," ","","feedback_trial","0","","","","","","","","","","","","","","","","","","","","",""
"","","","","","image-keyboard-response","116","257911","0.0-91.0","5df416a57bf5722f9a501255","665500ab8938657b03fbdba8","665793096b35f257ed77effb","1154","stimuli/2001011.jpg","1","","prediction_trial","2","","false","","2","false","false","false","true","false","false","[2]","001","011","0","","","","","","",""
"","","","","","image-keyboard-response","117","258457","0.0-92.0","5df416a57bf5722f9a501255","665500ab8938657b03fbdba8","665793096b35f257ed77effb","546","stimuli/20010112.jpg"," ","","feedback_trial","2","","","","","","","","","","","","","","","","","","","","",""
"","","","","","image-keyboard-response","118","261162","0.0-93.0","5df416a57bf5722f9a501255","665500ab8938657b03fbdba8","665793096b35f257ed77effb","2705","stimuli/0111100.jpg","0","","prediction_trial","1","","false","","0","false","true","false","false","false","false","[2,1,0]","111","100","0","","","","","","",""
"","","","","","image-keyboard-response","119","261687","0.0-94.0","5df416a57bf5722f9a501255","665500ab8938657b03fbdba8","665793096b35f257ed77effb","523","stimuli/01111001.jpg"," ","","feedback_trial","2","","","","","","","","","","","","","","","","","","","","",""
"","","","","","image-keyboard-response","120","264118","0.0-95.0","5df416a57bf5722f9a501255","665500ab8938657b03fbdba8","665793096b35f257ed77effb","2431","stimuli/1011100.jpg","1","","prediction_trial","2","","false","","1","true","true","false","false","false","false","[1,2]","011","100","0","","","","","","",""
"","","","","","image-keyboard-response","121","264640","0.0-96.0","5df416a57bf5722f9a501255","665500ab8938657b03fbdba8","665793096b35f257ed77effb","522","stimuli/10111002.jpg"," ","","feedback_trial","1","","","","","","","","","","","","","","","","","","","","",""
"","","","","","image-keyboard-response","122","265242","0.0-97.0","5df416a57bf5722f9a501255","665500ab8938657b03fbdba8","665793096b35f257ed77effb","601","stimuli/1110101.jpg","1","","prediction_trial","1","","true","","1","true","true","false","false","false","false","[1,0]","110","101","1","","","","","","",""
"","","","","","image-keyboard-response","123","265712","0.0-98.0","5df416a57bf5722f9a501255","665500ab8938657b03fbdba8","665793096b35f257ed77effb","470","stimuli/11101011.jpg"," ","","feedback_trial","1","","","","","","","","","","","","","","","","","","","","",""
"","","","","","image-keyboard-response","124","266524","0.0-99.0","5df416a57bf5722f9a501255","665500ab8938657b03fbdba8","665793096b35f257ed77effb","813","stimuli/1111101.jpg","1","","prediction_trial","2","","false","","1","true","true","false","false","false","false","[1,2,0]","111","101","0","","","","","","",""
"","","","","","image-keyboard-response","125","266847","0.0-100.0","5df416a57bf5722f9a501255","665500ab8938657b03fbdba8","665793096b35f257ed77effb","323","stimuli/11111012.jpg"," ","","feedback_trial","1","","","","","","","","","","","","","","","","","","","","",""
"","","","","","image-keyboard-response","126","268081","0.0-101.0","5df416a57bf5722f9a501255","665500ab8938657b03fbdba8","665793096b35f257ed77effb","1233","stimuli/2110100.jpg","2","","prediction_trial","2","","true","","2","true","true","true","true","true","true","[2]","110","100","1","","","","","","",""
"","","","","","image-keyboard-response","127","268372","0.0-102.0","5df416a57bf5722f9a501255","665500ab8938657b03fbdba8","665793096b35f257ed77effb","291","stimuli/21101002.jpg"," ","","feedback_trial","2","","","","","","","","","","","","","","","","","","","","",""
"","","","","","image-keyboard-response","128","269245","0.0-103.0","5df416a57bf5722f9a501255","665500ab8938657b03fbdba8","665793096b35f257ed77effb","872","stimuli/2000110.jpg","2","","prediction_trial","2","","true","","2","true","true","true","true","true","true","[2]","000","110","1","","","","","","",""
"","","","","","image-keyboard-response","129","269528","0.0-104.0","5df416a57bf5722f9a501255","665500ab8938657b03fbdba8","665793096b35f257ed77effb","282","stimuli/20001102.jpg"," ","","feedback_trial","2","","","","","","","","","","","","","","","","","","","","",""
"","","","","","image-keyboard-response","130","271110","0.0-105.0","5df416a57bf5722f9a501255","665500ab8938657b03fbdba8","665793096b35f257ed77effb","1582","stimuli/1100010.jpg","1","","prediction_trial","1","","true","","1","false","true","true","true","false","true","[1]","100","010","1","","","","","","",""
"","","","","","image-keyboard-response","131","271473","0.0-106.0","5df416a57bf5722f9a501255","665500ab8938657b03fbdba8","665793096b35f257ed77effb","363","stimuli/11000101.jpg"," ","","feedback_trial","1","","","","","","","","","","","","","","","","","","","","",""
"","","","","","image-keyboard-response","132","273186","0.0-107.0","5df416a57bf5722f9a501255","665500ab8938657b03fbdba8","665793096b35f257ed77effb","1713","stimuli/0011101.jpg","0","","prediction_trial","0","","true","","0","false","false","true","true","false","false","[0]","011","101","1","","","","","","",""
"","","","","","image-keyboard-response","133","273596","0.0-108.0","5df416a57bf5722f9a501255","665500ab8938657b03fbdba8","665793096b35f257ed77effb","410","stimuli/00111010.jpg"," ","","feedback_trial","0","","","","","","","","","","","","","","","","","","","","",""
"","","","","","image-keyboard-response","134","274964","0.0-109.0","5df416a57bf5722f9a501255","665500ab8938657b03fbdba8","665793096b35f257ed77effb","1367","stimuli/0000000.jpg","0","","prediction_trial","0","","true","","0","true","true","true","true","true","true","[0]","000","000","1","","","","","","",""
"","","","","","image-keyboard-response","135","275699","0.0-110.0","5df416a57bf5722f9a501255","665500ab8938657b03fbdba8","665793096b35f257ed77effb","735","stimuli/00000000.jpg"," ","","feedback_trial","0","","","","","","","","","","","","","","","","","","","","",""
"","","","","","image-keyboard-response","136","276390","0.0-111.0","5df416a57bf5722f9a501255","665500ab8938657b03fbdba8","665793096b35f257ed77effb","690","stimuli/0100001.jpg","0","","prediction_trial","0","","true","","0","true","true","false","true","false","true","[0]","100","001","1","","","","","","",""
"","","","","","image-keyboard-response","137","277384","0.0-112.0","5df416a57bf5722f9a501255","665500ab8938657b03fbdba8","665793096b35f257ed77effb","993","stimuli/01000010.jpg"," ","","feedback_trial","0","","","","","","","","","","","","","","","","","","","","",""
"","","","","","image-keyboard-response","138","279108","0.0-113.0","5df416a57bf5722f9a501255","665500ab8938657b03fbdba8","665793096b35f257ed77effb","1723","stimuli/1001010.jpg","1","","prediction_trial","1","","true","","1","false","true","true","true","false","true","[1]","001","010","1","","","","","","",""
"","","","","","image-keyboard-response","139","279335","0.0-114.0","5df416a57bf5722f9a501255","665500ab8938657b03fbdba8","665793096b35f257ed77effb","226","stimuli/10010101.jpg"," ","","feedback_trial","1","","","","","","","","","","","","","","","","","","","","",""
"","","","","","image-keyboard-response","140","280288","0.0-115.0","5df416a57bf5722f9a501255","665500ab8938657b03fbdba8","665793096b35f257ed77effb","953","stimuli/1001100.jpg","1","","prediction_trial","1","","true","","1","true","true","true","true","true","true","[1]","001","100","1","","","","","","",""
"","","","","","image-keyboard-response","141","280539","0.0-116.0","5df416a57bf5722f9a501255","665500ab8938657b03fbdba8","665793096b35f257ed77effb","250","stimuli/10011001.jpg"," ","","feedback_trial","1","","","","","","","","","","","","","","","","","","","","",""
"","","","","","image-keyboard-response","142","282003","0.0-117.0","5df416a57bf5722f9a501255","665500ab8938657b03fbdba8","665793096b35f257ed77effb","1463","stimuli/0110100.jpg","0","","prediction_trial","0","","true","","0","false","true","false","false","false","false","[0,1]","110","100","1","","","","","","",""
"","","","","","image-keyboard-response","143","282291","0.0-118.0","5df416a57bf5722f9a501255","665500ab8938657b03fbdba8","665793096b35f257ed77effb","287","stimuli/01101000.jpg"," ","","feedback_trial","0","","","","","","","","","","","","","","","","","","","","",""
"","","","","","image-keyboard-response","144","283465","0.0-119.0","5df416a57bf5722f9a501255","665500ab8938657b03fbdba8","665793096b35f257ed77effb","1174","stimuli/2101100.jpg","2","","prediction_trial","0","","false","","2","true","true","false","false","false","false","[2,0]","101","100","0","","","","","","",""
"","","","","","image-keyboard-response","145","284171","0.0-120.0","5df416a57bf5722f9a501255","665500ab8938657b03fbdba8","665793096b35f257ed77effb","705","stimuli/21011000.jpg"," ","","feedback_trial","2","","","","","","","","","","","","","","","","","","","","",""
"","","","","","image-keyboard-response","146","285260","0.0-121.0","5df416a57bf5722f9a501255","665500ab8938657b03fbdba8","665793096b35f257ed77effb","1088","stimuli/2000010.jpg","2","","prediction_trial","2","","true","","2","true","true","true","true","true","true","[2]","000","010","1","","","","","","",""
"","","","","","image-keyboard-response","147","285492","0.0-122.0","5df416a57bf5722f9a501255","665500ab8938657b03fbdba8","665793096b35f257ed77effb","232","stimuli/20000102.jpg"," ","","feedback_trial","2","","","","","","","","","","","","","","","","","","","","",""
"","","","","","image-keyboard-response","148","286532","0.0-123.0","5df416a57bf5722f9a501255","665500ab8938657b03fbdba8","665793096b35f257ed77effb","1039","stimuli/1011011.jpg","1","","prediction_trial","2","","false","","1","false","false","false","false","false","false","[1,2]","011","011","0","","","","","","",""
"","","","","","image-keyboard-response","149","286754","0.0-124.0","5df416a57bf5722f9a501255","665500ab8938657b03fbdba8","665793096b35f257ed77effb","222","stimuli/10110112.jpg"," ","","feedback_trial","1","","","","","","","","","","","","","","","","","","","","",""
"","","","","","image-keyboard-response","150","287626","0.0-125.0","5df416a57bf5722f9a501255","665500ab8938657b03fbdba8","665793096b35f257ed77effb","871","stimuli/1000001.jpg","1","","prediction_trial","1","","true","","1","true","true","true","true","true","true","[1]","000","001","1","","","","","","",""
"","","","","","image-keyboard-response","151","287854","0.0-126.0","5df416a57bf5722f9a501255","665500ab8938657b03fbdba8","665793096b35f257ed77effb","227","stimuli/10000011.jpg"," ","","feedback_trial","1","","","","","","","","","","","","","","","","","","","","",""
"","","","","","image-keyboard-response","152","288905","0.0-127.0","5df416a57bf5722f9a501255","665500ab8938657b03fbdba8","665793096b35f257ed77effb","1051","stimuli/0010110.jpg","0","","prediction_trial","0","","true","","0","false","false","true","true","false","false","[0]","010","110","1","","","","","","",""
"","","","","","image-keyboard-response","153","289049","0.0-128.0","5df416a57bf5722f9a501255","665500ab8938657b03fbdba8","665793096b35f257ed77effb","143","stimuli/00101100.jpg"," ","","feedback_trial","0","","","","","","","","","","","","","","","","","","","","",""
"","","","","","image-keyboard-response","154","289730","0.0-129.0","5df416a57bf5722f9a501255","665500ab8938657b03fbdba8","665793096b35f257ed77effb","681","stimuli/1000101.jpg","1","","prediction_trial","1","","true","","1","true","true","true","true","true","true","[1]","000","101","1","","","","","","",""
"","","","","","image-keyboard-response","155","289951","0.0-130.0","5df416a57bf5722f9a501255","665500ab8938657b03fbdba8","665793096b35f257ed77effb","220","stimuli/10001011.jpg"," ","","feedback_trial","1","","","","","","","","","","","","","","","","","","","","",""
"","","","","","image-keyboard-response","156","290733","0.0-131.0","5df416a57bf5722f9a501255","665500ab8938657b03fbdba8","665793096b35f257ed77effb","782","stimuli/1110010.jpg","1","","prediction_trial","1","","true","","1","false","true","false","false","false","false","[0,1]","110","010","1","","","","","","",""
"","","","","","image-keyboard-response","157","290957","0.0-132.0","5df416a57bf5722f9a501255","665500ab8938657b03fbdba8","665793096b35f257ed77effb","223","stimuli/11100101.jpg"," ","","feedback_trial","0","","","","","","","","","","","","","","","","","","","","",""
"","","","","","image-keyboard-response","158","291798","0.0-133.0","5df416a57bf5722f9a501255","665500ab8938657b03fbdba8","665793096b35f257ed77effb","841","stimuli/1101110.jpg","2","","prediction_trial","1","","false","","1","false","false","true","true","false","false","[1]","101","110","0","","","","","","",""
"","","","","","image-keyboard-response","159","292572","0.0-134.0","5df416a57bf5722f9a501255","665500ab8938657b03fbdba8","665793096b35f257ed77effb","774","stimuli/11011101.jpg"," ","","feedback_trial","1","","","","","","","","","","","","","","","","","","","","",""
"","","","","","image-keyboard-response","160","293390","0.0-135.0","5df416a57bf5722f9a501255","665500ab8938657b03fbdba8","665793096b35f257ed77effb","817","stimuli/1111010.jpg","1","","prediction_trial","1","","true","","1","false","true","false","false","false","false","[1,0,2]","111","010","1","","","","","","",""
"","","","","","image-keyboard-response","161","293641","0.0-136.0","5df416a57bf5722f9a501255","665500ab8938657b03fbdba8","665793096b35f257ed77effb","251","stimuli/11110101.jpg"," ","","feedback_trial","1","","","","","","","","","","","","","","","","","","","","",""
"","","","","","image-keyboard-response","162","294553","0.0-137.0","5df416a57bf5722f9a501255","665500ab8938657b03fbdba8","665793096b35f257ed77effb","911","stimuli/0010100.jpg","0","","prediction_trial","0","","true","","0","false","true","true","true","false","true","[0]","010","100","1","","","","","","",""
"","","","","","image-keyboard-response","163","294768","0.0-138.0","5df416a57bf5722f9a501255","665500ab8938657b03fbdba8","665793096b35f257ed77effb","215","stimuli/00101000.jpg"," ","","feedback_trial","0","","","","","","","","","","","","","","","","","","","","",""
"","","","","","image-keyboard-response","164","296408","0.0-139.0","5df416a57bf5722f9a501255","665500ab8938657b03fbdba8","665793096b35f257ed77effb","1639","stimuli/2101010.jpg","2","","prediction_trial","2","","true","","2","true","true","false","false","false","false","[2,0]","101","010","1","","","","","","",""
"","","","","","image-keyboard-response","165","296653","0.0-140.0","5df416a57bf5722f9a501255","665500ab8938657b03fbdba8","665793096b35f257ed77effb","244","stimuli/21010102.jpg"," ","","feedback_trial","2","","","","","","","","","","","","","","","","","","","","",""
"","","","","","image-keyboard-response","166","297642","0.0-141.0","5df416a57bf5722f9a501255","665500ab8938657b03fbdba8","665793096b35f257ed77effb","989","stimuli/0100010.jpg","0","","prediction_trial","0","","true","","0","true","true","false","true","false","true","[0]","100","010","1","","","","","","",""
"","","","","","image-keyboard-response","167","297942","0.0-142.0","5df416a57bf5722f9a501255","665500ab8938657b03fbdba8","665793096b35f257ed77effb","299","stimuli/01000100.jpg"," ","","feedback_trial","0","","","","","","","","","","","","","","","","","","","","",""
"","","","","","image-keyboard-response","168","298945","0.0-143.0","5df416a57bf5722f9a501255","665500ab8938657b03fbdba8","665793096b35f257ed77effb","1003","stimuli/0011010.jpg","0","","prediction_trial","0","","true","","0","true","true","true","true","true","true","[0]","011","010","1","","","","","","",""
"","","","","","image-keyboard-response","169","299233","0.0-144.0","5df416a57bf5722f9a501255","665500ab8938657b03fbdba8","665793096b35f257ed77effb","287","stimuli/00110100.jpg"," ","","feedback_trial","0","","","","","","","","","","","","","","","","","","","","",""
"","","","","","image-keyboard-response","170","300519","0.0-145.0","5df416a57bf5722f9a501255","665500ab8938657b03fbdba8","665793096b35f257ed77effb","1286","stimuli/2001000.jpg","2","","prediction_trial","2","","true","","2","true","true","false","true","false","true","[2]","001","000","1","","","","","","",""
"","","","","","image-keyboard-response","171","300805","0.0-146.0","5df416a57bf5722f9a501255","665500ab8938657b03fbdba8","665793096b35f257ed77effb","285","stimuli/20010002.jpg"," ","","feedback_trial","2","","","","","","","","","","","","","","","","","","","","",""
"","","","","","image-keyboard-response","172","301637","0.0-147.0","5df416a57bf5722f9a501255","665500ab8938657b03fbdba8","665793096b35f257ed77effb","831","stimuli/0011001.jpg","0","","prediction_trial","0","","true","","0","true","true","true","true","true","true","[0]","011","001","1","","","","","","",""
"","","","","","image-keyboard-response","173","301850","0.0-148.0","5df416a57bf5722f9a501255","665500ab8938657b03fbdba8","665793096b35f257ed77effb","212","stimuli/00110010.jpg"," ","","feedback_trial","0","","","","","","","","","","","","","","","","","","","","",""
"","","","","","image-keyboard-response","174","302762","0.0-149.0","5df416a57bf5722f9a501255","665500ab8938657b03fbdba8","665793096b35f257ed77effb","911","stimuli/2010001.jpg","2","","prediction_trial","2","","true","","2","false","true","true","true","false","true","[2]","010","001","1","","","","","","",""
"","","","","","image-keyboard-response","175","302999","0.0-150.0","5df416a57bf5722f9a501255","665500ab8938657b03fbdba8","665793096b35f257ed77effb","237","stimuli/20100012.jpg"," ","","feedback_trial","2","","","","","","","","","","","","","","","","","","","","",""
"","","","","","image-keyboard-response","176","304620","0.0-151.0","5df416a57bf5722f9a501255","665500ab8938657b03fbdba8","665793096b35f257ed77effb","1620","stimuli/1111011.jpg","2","","prediction_trial","0","","false","","1","false","false","false","false","false","false","[0,1,2]","111","011","0","","","","","","",""
"","","","","","image-keyboard-response","177","304724","0.0-152.0","5df416a57bf5722f9a501255","665500ab8938657b03fbdba8","665793096b35f257ed77effb","104","stimuli/11110110.jpg"," ","","feedback_trial","0","","","","","","","","","","","","","","","","","","","","",""
"","","","","","image-keyboard-response","178","306073","0.0-153.0","5df416a57bf5722f9a501255","665500ab8938657b03fbdba8","665793096b35f257ed77effb","1348","stimuli/1000010.jpg","1","","prediction_trial","1","","true","","1","false","true","true","true","false","true","[1]","000","010","1","","","","","","",""
"","","","","","image-keyboard-response","179","306273","0.0-154.0","5df416a57bf5722f9a501255","665500ab8938657b03fbdba8","665793096b35f257ed77effb","200","stimuli/10000101.jpg"," ","","feedback_trial","1","","","","","","","","","","","","","","","","","","","","",""
"","","","","","image-keyboard-response","180","309397","0.0-155.0","5df416a57bf5722f9a501255","665500ab8938657b03fbdba8","665793096b35f257ed77effb","3123","stimuli/2111000.jpg","2","","prediction_trial","0","","false","","2","true","true","false","false","false","false","[1,2,0]","111","000","0","","","","","","",""
"","","","","","image-keyboard-response","181","309508","0.0-156.0","5df416a57bf5722f9a501255","665500ab8938657b03fbdba8","665793096b35f257ed77effb","110","stimuli/21110000.jpg"," ","","feedback_trial","1","","","","","","","","","","","","","","","","","","","","",""
"","","","","","image-keyboard-response","182","311433","0.0-157.0","5df416a57bf5722f9a501255","665500ab8938657b03fbdba8","665793096b35f257ed77effb","1925","stimuli/0000101.jpg","2","","prediction_trial","0","","false","","0","false","false","true","true","false","false","[0]","000","101","0","","","","","","",""
"","","","","","image-keyboard-response","183","311558","0.0-158.0","5df416a57bf5722f9a501255","665500ab8938657b03fbdba8","665793096b35f257ed77effb","124","stimuli/00001010.jpg"," ","","feedback_trial","0","","","","","","","","","","","","","","","","","","","","",""
"","","","","","image-keyboard-response","184","312799","0.0-159.0","5df416a57bf5722f9a501255","665500ab8938657b03fbdba8","665793096b35f257ed77effb","1241","stimuli/1101010.jpg","1","","prediction_trial","1","","true","","1","false","true","true","true","false","true","[1]","101","010","1","","","","","","",""
"","","","","","image-keyboard-response","185","312897","0.0-160.0","5df416a57bf5722f9a501255","665500ab8938657b03fbdba8","665793096b35f257ed77effb","98","stimuli/11010101.jpg"," ","","feedback_trial","1","","","","","","","","","","","","","","","","","","","","",""
"","","","","","image-keyboard-response","186","313707","0.0-161.0","5df416a57bf5722f9a501255","665500ab8938657b03fbdba8","665793096b35f257ed77effb","809","stimuli/2110111.jpg","2","","prediction_trial","2","","true","","2","false","false","true","true","false","false","[2]","110","111","1","","","","","","",""
"","","","","","image-keyboard-response","187","313809","0.0-162.0","5df416a57bf5722f9a501255","665500ab8938657b03fbdba8","665793096b35f257ed77effb","102","stimuli/21101112.jpg"," ","","feedback_trial","2","","","","","","","","","","","","","","","","","","","","",""
"","","","","","image-keyboard-response","188","314851","0.0-163.0","5df416a57bf5722f9a501255","665500ab8938657b03fbdba8","665793096b35f257ed77effb","1041","stimuli/2011011.jpg","0","","prediction_trial","1","","false","","2","false","false","false","false","false","false","[2,1]","011","011","0","","","","","","",""
"","","","","","image-keyboard-response","189","315626","0.0-164.0","5df416a57bf5722f9a501255","665500ab8938657b03fbdba8","665793096b35f257ed77effb","774","stimuli/20110111.jpg"," ","","feedback_trial","2","","","","","","","","","","","","","","","","","","","","",""
"","","","","","image-keyboard-response","190","316391","0.0-165.0","5df416a57bf5722f9a501255","665500ab8938657b03fbdba8","665793096b35f257ed77effb","765","stimuli/0000010.jpg","0","","prediction_trial","0","","true","","0","true","true","true","true","true","true","[0]","000","010","1","","","","","","",""
"","","","","","image-keyboard-response","191","316574","0.0-166.0","5df416a57bf5722f9a501255","665500ab8938657b03fbdba8","665793096b35f257ed77effb","182","stimuli/00000100.jpg"," ","","feedback_trial","0","","","","","","","","","","","","","","","","","","","","",""
"","","","","","image-keyboard-response","192","317528","0.0-167.0","5df416a57bf5722f9a501255","665500ab8938657b03fbdba8","665793096b35f257ed77effb","954","stimuli/1010111.jpg","0","","prediction_trial","1","","false","","1","false","false","false","true","false","false","[1]","010","111","0","","","","","","",""
"","","","","","image-keyboard-response","193","317943","0.0-168.0","5df416a57bf5722f9a501255","665500ab8938657b03fbdba8","665793096b35f257ed77effb","415","stimuli/10101111.jpg"," ","","feedback_trial","1","","","","","","","","","","","","","","","","","","","","",""
"","","","","","image-keyboard-response","194","318771","0.0-169.0","5df416a57bf5722f9a501255","665500ab8938657b03fbdba8","665793096b35f257ed77effb","828","stimuli/2110001.jpg","2","","prediction_trial","2","","true","","2","false","true","true","true","false","true","[2]","110","001","1","","","","","","",""
"","","","","","image-keyboard-response","195","319069","0.0-170.0","5df416a57bf5722f9a501255","665500ab8938657b03fbdba8","665793096b35f257ed77effb","297","stimuli/21100012.jpg"," ","","feedback_trial","2","","","","","","","","","","","","","","","","","","","","",""
"","","","","","image-keyboard-response","196","320150","0.0-171.0","5df416a57bf5722f9a501255","665500ab8938657b03fbdba8","665793096b35f257ed77effb","1081","stimuli/1001011.jpg","1","","prediction_trial","1","","true","","1","false","false","true","true","false","false","[1]","001","011","1","","","","","","",""
"","","","","","image-keyboard-response","197","320385","0.0-172.0","5df416a57bf5722f9a501255","665500ab8938657b03fbdba8","665793096b35f257ed77effb","234","stimuli/10010111.jpg"," ","","feedback_trial","1","","","","","","","","","","","","","","","","","","","","",""
"","","","","","image-keyboard-response","198","321095","0.0-173.0","5df416a57bf5722f9a501255","665500ab8938657b03fbdba8","665793096b35f257ed77effb","710","stimuli/0001100.jpg","0","","prediction_trial","0","","true","","0","false","true","true","true","false","true","[0]","001","100","1","","","","","","",""
"","","","","","image-keyboard-response","199","321323","0.0-174.0","5df416a57bf5722f9a501255","665500ab8938657b03fbdba8","665793096b35f257ed77effb","227","stimuli/00011000.jpg"," ","","feedback_trial","0","","","","","","","","","","","","","","","","","","","","",""
"","","","","","image-keyboard-response","200","322134","0.0-175.0","5df416a57bf5722f9a501255","665500ab8938657b03fbdba8","665793096b35f257ed77effb","810","stimuli/1001111.jpg","1","","prediction_trial","1","","true","","1","false","false","true","true","false","false","[1]","001","111","1","","","","","","",""
"","","","","","image-keyboard-response","201","322322","0.0-176.0","5df416a57bf5722f9a501255","665500ab8938657b03fbdba8","665793096b35f257ed77effb","188","stimuli/10011111.jpg"," ","","feedback_trial","1","","","","","","","","","","","","","","","","","","","","",""
"","","","","","image-keyboard-response","202","323728","0.0-177.0","5df416a57bf5722f9a501255","665500ab8938657b03fbdba8","665793096b35f257ed77effb","1405","stimuli/0101011.jpg","0","","prediction_trial","0","","true","","0","true","true","false","false","false","false","[0,2]","101","011","1","","","","","","",""
"","","","","","image-keyboard-response","203","323907","0.0-178.0","5df416a57bf5722f9a501255","665500ab8938657b03fbdba8","665793096b35f257ed77effb","179","stimuli/01010110.jpg"," ","","feedback_trial","0","","","","","","","","","","","","","","","","","","","","",""
"","","","","","image-keyboard-response","204","324711","0.0-179.0","5df416a57bf5722f9a501255","665500ab8938657b03fbdba8","665793096b35f257ed77effb","803","stimuli/0101111.jpg","1","","prediction_trial","0","","false","","0","false","false","false","false","false","false","[2,0]","101","111","0","","","","","","",""
"","","","","","image-keyboard-response","205","324909","0.0-180.0","5df416a57bf5722f9a501255","665500ab8938657b03fbdba8","665793096b35f257ed77effb","198","stimuli/01011110.jpg"," ","","feedback_trial","2","","","","","","","","","","","","","","","","","","","","",""
"","","","","","image-keyboard-response","206","330264","0.0-181.0","5df416a57bf5722f9a501255","665500ab8938657b03fbdba8","665793096b35f257ed77effb","5354","stimuli/2000001.jpg","2","","prediction_trial","2","","true","","2","false","true","true","true","false","true","[2]","000","001","1","","","","","","",""
"","","","","","image-keyboard-response","207","330479","0.0-182.0","5df416a57bf5722f9a501255","665500ab8938657b03fbdba8","665793096b35f257ed77effb","214","stimuli/20000012.jpg"," ","","feedback_trial","2","","","","","","","","","","","","","","","","","","","","",""
"","","","","","image-keyboard-response","208","331474","0.0-183.0","5df416a57bf5722f9a501255","665500ab8938657b03fbdba8","665793096b35f257ed77effb","995","stimuli/2010100.jpg","2","","prediction_trial","2","","true","","2","true","true","true","true","true","true","[2]","010","100","1","","","","","","",""
"","","","","","image-keyboard-response","209","331633","0.0-184.0","5df416a57bf5722f9a501255","665500ab8938657b03fbdba8","665793096b35f257ed77effb","158","stimuli/20101002.jpg"," ","","feedback_trial","2","","","","","","","","","","","","","","","","","","","","",""
"","","","","","image-keyboard-response","210","332488","0.0-185.0","5df416a57bf5722f9a501255","665500ab8938657b03fbdba8","665793096b35f257ed77effb","855","stimuli/0001001.jpg","0","","prediction_trial","0","","true","","0","true","true","true","true","true","true","[0]","001","001","1","","","","","","",""
"","","","","","image-keyboard-response","211","332674","0.0-186.0","5df416a57bf5722f9a501255","665500ab8938657b03fbdba8","665793096b35f257ed77effb","185","stimuli/00010010.jpg"," ","","feedback_trial","0","","","","","","","","","","","","","","","","","","","","",""
"","","","","","image-keyboard-response","212","334634","0.0-187.0","5df416a57bf5722f9a501255","665500ab8938657b03fbdba8","665793096b35f257ed77effb","1959","stimuli/1010001.jpg","1","","prediction_trial","1","","true","","1","true","true","false","true","false","true","[1]","010","001","1","","","","","","",""
"","","","","","image-keyboard-response","213","334792","0.0-188.0","5df416a57bf5722f9a501255","665500ab8938657b03fbdba8","665793096b35f257ed77effb","158","stimuli/10100011.jpg"," ","","feedback_trial","1","","","","","","","","","","","","","","","","","","","","",""
"","","","","","image-keyboard-response","214","337259","0.0-189.0","5df416a57bf5722f9a501255","665500ab8938657b03fbdba8","665793096b35f257ed77effb","2466","stimuli/2101110.jpg","2","","prediction_trial","2","","true","","2","true","true","false","false","false","false","[0,2]","101","110","1","","","","","","",""
"","","","","","image-keyboard-response","215","337579","0.0-190.0","5df416a57bf5722f9a501255","665500ab8938657b03fbdba8","665793096b35f257ed77effb","319","stimuli/21011102.jpg"," ","","feedback_trial","0","","","","","","","","","","","","","","","","","","","","",""
"","","","","","image-keyboard-response","216","338832","0.0-191.0","5df416a57bf5722f9a501255","665500ab8938657b03fbdba8","665793096b35f257ed77effb","1253","stimuli/0111111.jpg","1","","prediction_trial","1","","true","","0","false","false","false","false","false","false","[0,1,2]","111","111","1","","","","","","",""
"","","","","","image-keyboard-response","217","339071","0.0-192.0","5df416a57bf5722f9a501255","665500ab8938657b03fbdba8","665793096b35f257ed77effb","239","stimuli/01111111.jpg"," ","","feedback_trial","0","","","","","","","","","","","","","","","","","","","","",""
"","","","","","image-keyboard-response","218","341183","0.0-193.0","5df416a57bf5722f9a501255","665500ab8938657b03fbdba8","665793096b35f257ed77effb","2112","stimuli/0110001.jpg","0","","prediction_trial","1","","false","","0","true","true","false","false","false","false","[1,0]","110","001","0","","","","","","",""
"","","","","","image-keyboard-response","219","341607","0.0-194.0","5df416a57bf5722f9a501255","665500ab8938657b03fbdba8","665793096b35f257ed77effb","424","stimuli/01100011.jpg"," ","","feedback_trial","1","","","","","","","","","","","","","","","","","","","","",""
"","","","","","image-keyboard-response","220","343752","0.0-195.0","5df416a57bf5722f9a501255","665500ab8938657b03fbdba8","665793096b35f257ed77effb","2144","stimuli/1111111.jpg","1","","prediction_trial","2","","false","","1","false","false","false","false","false","false","[1,0,2]","111","111","0","","","","","","",""
"","","","","","image-keyboard-response","221","344175","0.0-196.0","5df416a57bf5722f9a501255","665500ab8938657b03fbdba8","665793096b35f257ed77effb","423","stimuli/11111112.jpg"," ","","feedback_trial","1","","","","","","","","","","","","","","","","","","","","",""
"","","","","","image-keyboard-response","222","345645","0.0-197.0","5df416a57bf5722f9a501255","665500ab8938657b03fbdba8","665793096b35f257ed77effb","1470","stimuli/2101001.jpg","2","","prediction_trial","2","","true","","2","false","true","false","false","false","false","[2,0]","101","001","1","","","","","","",""
"","","","","","image-keyboard-response","223","345964","0.0-198.0","5df416a57bf5722f9a501255","665500ab8938657b03fbdba8","665793096b35f257ed77effb","318","stimuli/21010012.jpg"," ","","feedback_trial","2","","","","","","","","","","","","","","","","","","","","",""
"","","","","","image-keyboard-response","224","347421","0.0-199.0","5df416a57bf5722f9a501255","665500ab8938657b03fbdba8","665793096b35f257ed77effb","1457","stimuli/1110000.jpg","1","","prediction_trial","0","","false","","1","true","true","false","false","false","false","[1,0]","110","000","0","","","","","","",""
"","","","","","image-keyboard-response","225","347707","0.0-200.0","5df416a57bf5722f9a501255","665500ab8938657b03fbdba8","665793096b35f257ed77effb","285","stimuli/11100000.jpg"," ","","feedback_trial","1","","","","","","","","","","","","","","","","","","","","",""
"","","","","","image-keyboard-response","226","348757","0.0-201.0","5df416a57bf5722f9a501255","665500ab8938657b03fbdba8","665793096b35f257ed77effb","1050","stimuli/1111110.jpg","1","","prediction_trial","2","","false","","1","false","false","false","false","false","false","[2,1,0]","111","110","0","","","","","","",""
"","","","","","image-keyboard-response","227","349021","0.0-202.0","5df416a57bf5722f9a501255","665500ab8938657b03fbdba8","665793096b35f257ed77effb","263","stimuli/11111102.jpg"," ","","feedback_trial","2","","","","","","","","","","","","","","","","","","","","",""
"","","","","","image-keyboard-response","228","349967","0.0-203.0","5df416a57bf5722f9a501255","665500ab8938657b03fbdba8","665793096b35f257ed77effb","946","stimuli/2111100.jpg","2","","prediction_trial","1","","false","","2","true","true","false","false","false","false","[2,0,1]","111","100","0","","","","","","",""
"","","","","","image-keyboard-response","229","350564","0.0-204.0","5df416a57bf5722f9a501255","665500ab8938657b03fbdba8","665793096b35f257ed77effb","597","stimuli/21111001.jpg"," ","","feedback_trial","2","","","","","","","","","","","","","","","","","","","","",""
"","","","","","image-keyboard-response","230","351787","0.0-205.0","5df416a57bf5722f9a501255","665500ab8938657b03fbdba8","665793096b35f257ed77effb","1223","stimuli/1100101.jpg","1","","prediction_trial","1","","true","","1","true","true","true","true","true","true","[1]","100","101","1","","","","","","",""
"","","","","","image-keyboard-response","231","351999","0.0-206.0","5df416a57bf5722f9a501255","665500ab8938657b03fbdba8","665793096b35f257ed77effb","211","stimuli/11001011.jpg"," ","","feedback_trial","1","","","","","","","","","","","","","","","","","","","","",""
"","","","","","image-keyboard-response","232","352713","0.0-207.0","5df416a57bf5722f9a501255","665500ab8938657b03fbdba8","665793096b35f257ed77effb","713","stimuli/2010010.jpg","2","","prediction_trial","2","","true","","2","true","true","true","true","true","true","[2]","010","010","1","","","","","","",""
"","","","","","image-keyboard-response","233","352901","0.0-208.0","5df416a57bf5722f9a501255","665500ab8938657b03fbdba8","665793096b35f257ed77effb","188","stimuli/20100102.jpg"," ","","feedback_trial","2","","","","","","","","","","","","","","","","","","","","",""
"","","","","","image-keyboard-response","234","353475","0.0-209.0","5df416a57bf5722f9a501255","665500ab8938657b03fbdba8","665793096b35f257ed77effb","573","stimuli/1101001.jpg","1","","prediction_trial","1","","true","","1","true","true","true","true","true","true","[1]","101","001","1","","","","","","",""
"","","","","","image-keyboard-response","235","353639","0.0-210.0","5df416a57bf5722f9a501255","665500ab8938657b03fbdba8","665793096b35f257ed77effb","163","stimuli/11010011.jpg"," ","","feedback_trial","1","","","","","","","","","","","","","","","","","","","","",""
"","","","","","image-keyboard-response","236","354220","0.0-211.0","5df416a57bf5722f9a501255","665500ab8938657b03fbdba8","665793096b35f257ed77effb","580","stimuli/2110000.jpg","2","","prediction_trial","2","","true","","2","true","true","true","true","true","true","[2]","110","000","1","","","","","","",""
"","","","","","image-keyboard-response","237","354417","0.0-212.0","5df416a57bf5722f9a501255","665500ab8938657b03fbdba8","665793096b35f257ed77effb","196","stimuli/21100002.jpg"," ","","feedback_trial","2","","","","","","","","","","","","","","","","","","","","",""
"","","","","","image-keyboard-response","238","355570","0.0-213.0","5df416a57bf5722f9a501255","665500ab8938657b03fbdba8","665793096b35f257ed77effb","1153","stimuli/2111101.jpg","0","","prediction_trial","0","","true","","2","false","false","false","false","false","false","[1,2,0]","111","101","1","","","","","","",""
"","","","","","image-keyboard-response","239","356060","0.0-214.0","5df416a57bf5722f9a501255","665500ab8938657b03fbdba8","665793096b35f257ed77effb","490","stimuli/21111010.jpg"," ","","feedback_trial","1","","","","","","","","","","","","","","","","","","","","",""
"","","","","","image-keyboard-response","240","356885","0.0-215.0","5df416a57bf5722f9a501255","665500ab8938657b03fbdba8","665793096b35f257ed77effb","824","stimuli/0010011.jpg","0","","prediction_trial","0","","true","","0","true","true","true","true","true","true","[0]","010","011","1","","","","","","",""
"","","","","","image-keyboard-response","241","357221","0.0-216.0","5df416a57bf5722f9a501255","665500ab8938657b03fbdba8","665793096b35f257ed77effb","335","stimuli/00100110.jpg"," ","","feedback_trial","0","","","","","","","","","","","","","","","","","","","","",""
"","","","","","image-keyboard-response","242","358358","0.0-217.0","5df416a57bf5722f9a501255","665500ab8938657b03fbdba8","665793096b35f257ed77effb","1137","stimuli/0101000.jpg","0","","prediction_trial","0","","true","","0","true","true","false","false","false","false","[2,0]","101","000","1","","","","","","",""
"","","","","","image-keyboard-response","243","358721","0.0-218.0","5df416a57bf5722f9a501255","665500ab8938657b03fbdba8","665793096b35f257ed77effb","362","stimuli/01010000.jpg"," ","","feedback_trial","2","","","","","","","","","","","","","","","","","","","","",""
"","","","","","image-keyboard-response","244","359967","0.0-219.0","5df416a57bf5722f9a501255","665500ab8938657b03fbdba8","665793096b35f257ed77effb","1246","stimuli/1010011.jpg","2","","prediction_trial","1","","false","","1","false","false","false","true","false","false","[1]","010","011","0","","","","","","",""
"","","","","","image-keyboard-response","245","360648","0.0-220.0","5df416a57bf5722f9a501255","665500ab8938657b03fbdba8","665793096b35f257ed77effb","681","stimuli/10100111.jpg"," ","","feedback_trial","1","","","","","","","","","","","","","","","","","","","","",""
"","","","","","image-keyboard-response","246","363106","0.0-221.0","5df416a57bf5722f9a501255","665500ab8938657b03fbdba8","665793096b35f257ed77effb","2457","stimuli/1000110.jpg","1","","prediction_trial","1","","true","","1","false","false","true","true","false","false","[1]","000","110","1","","","","","","",""
"","","","","","image-keyboard-response","247","363133","0.0-222.0","5df416a57bf5722f9a501255","665500ab8938657b03fbdba8","665793096b35f257ed77effb","28","stimuli/10001101.jpg"," ","","feedback_trial","1","","","","","","","","","","","","","","","","","","","","",""
"","","","","","image-keyboard-response","248","364828","0.0-223.0","5df416a57bf5722f9a501255","665500ab8938657b03fbdba8","665793096b35f257ed77effb","1694","stimuli/1011010.jpg","1","","prediction_trial","2","","false","","1","false","true","false","false","false","false","[1,2]","011","010","0","","","","","","",""
"","","","","","image-keyboard-response","249","364912","0.0-224.0","5df416a57bf5722f9a501255","665500ab8938657b03fbdba8","665793096b35f257ed77effb","83","stimuli/10110102.jpg"," ","","feedback_trial","1","","","","","","","","","","","","","","","","","","","","",""
"","","","","","image-keyboard-response","250","366265","0.0-225.0","5df416a57bf5722f9a501255","665500ab8938657b03fbdba8","665793096b35f257ed77effb","1353","stimuli/0100101.jpg","0","","prediction_trial","0","","true","","0","false","false","false","true","false","false","[0]","100","101","1","","","","","","",""
"","","","","","image-keyboard-response","251","366405","0.0-226.0","5df416a57bf5722f9a501255","665500ab8938657b03fbdba8","665793096b35f257ed77effb","139","stimuli/01001010.jpg"," ","","feedback_trial","0","","","","","","","","","","","","","","","","","","","","",""
"","","","","","image-keyboard-response","252","367225","0.0-227.0","5df416a57bf5722f9a501255","665500ab8938657b03fbdba8","665793096b35f257ed77effb","820","stimuli/1100100.jpg","1","","prediction_trial","1","","true","","1","true","true","true","true","true","true","[1]","100","100","1","","","","","","",""
"","","","","","image-keyboard-response","253","367384","0.0-228.0","5df416a57bf5722f9a501255","665500ab8938657b03fbdba8","665793096b35f257ed77effb","158","stimuli/11001001.jpg"," ","","feedback_trial","1","","","","","","","","","","","","","","","","","","","","",""
"","","","","","image-keyboard-response","254","368036","0.0-229.0","5df416a57bf5722f9a501255","665500ab8938657b03fbdba8","665793096b35f257ed77effb","651","stimuli/0001011.jpg","0","","prediction_trial","0","","true","","0","true","true","true","true","true","true","[0]","001","011","1","","","","","","",""
"","","","","","image-keyboard-response","255","368099","0.0-230.0","5df416a57bf5722f9a501255","665500ab8938657b03fbdba8","665793096b35f257ed77effb","62","stimuli/00010110.jpg"," ","","feedback_trial","0","","","","","","","","","","","","","","","","","","","","",""
"","","","","","image-keyboard-response","256","368742","0.0-231.0","5df416a57bf5722f9a501255","665500ab8938657b03fbdba8","665793096b35f257ed77effb","643","stimuli/1000000.jpg","1","","prediction_trial","1","","true","","1","true","true","true","true","true","true","[1]","000","000","1","","","","","","",""
"","","","","","image-keyboard-response","257","368822","0.0-232.0","5df416a57bf5722f9a501255","665500ab8938657b03fbdba8","665793096b35f257ed77effb","79","stimuli/10000001.jpg"," ","","feedback_trial","1","","","","","","","","","","","","","","","","","","","","",""
"","","","","","image-keyboard-response","258","369809","0.0-233.0","5df416a57bf5722f9a501255","665500ab8938657b03fbdba8","665793096b35f257ed77effb","987","stimuli/1110001.jpg","1","","prediction_trial","0","","false","","1","true","true","false","false","false","false","[0,1]","110","001","0","","","","","","",""
"","","","","","image-keyboard-response","259","369911","0.0-234.0","5df416a57bf5722f9a501255","665500ab8938657b03fbdba8","665793096b35f257ed77effb","101","stimuli/11100010.jpg"," ","","feedback_trial","0","","","","","","","","","","","","","","","","","","","","",""
"","","","","","image-keyboard-response","260","370771","0.0-235.0","5df416a57bf5722f9a501255","665500ab8938657b03fbdba8","665793096b35f257ed77effb","860","stimuli/2000000.jpg","2","","prediction_trial","2","","true","","2","true","true","true","true","true","true","[2]","000","000","1","","","","","","",""
"","","","","","image-keyboard-response","261","370826","0.0-236.0","5df416a57bf5722f9a501255","665500ab8938657b03fbdba8","665793096b35f257ed77effb","54","stimuli/20000002.jpg"," ","","feedback_trial","2","","","","","","","","","","","","","","","","","","","","",""
"","","","","","image-keyboard-response","262","371456","0.0-237.0","5df416a57bf5722f9a501255","665500ab8938657b03fbdba8","665793096b35f257ed77effb","629","stimuli/1101000.jpg","1","","prediction_trial","1","","true","","1","true","true","true","true","true","true","[1]","101","000","1","","","","","","",""
"","","","","","image-keyboard-response","263","371543","0.0-238.0","5df416a57bf5722f9a501255","665500ab8938657b03fbdba8","665793096b35f257ed77effb","87","stimuli/11010001.jpg"," ","","feedback_trial","1","","","","","","","","","","","","","","","","","","","","",""
"","","","","","image-keyboard-response","264","372348","0.0-239.0","5df416a57bf5722f9a501255","665500ab8938657b03fbdba8","665793096b35f257ed77effb","804","stimuli/0111101.jpg","2","","prediction_trial","0","","false","","0","false","false","false","false","false","false","[1,0,2]","111","101","0","","","","","","",""
"","","","","","image-keyboard-response","265","372447","0.0-240.0","5df416a57bf5722f9a501255","665500ab8938657b03fbdba8","665793096b35f257ed77effb","99","stimuli/01111010.jpg"," ","","feedback_trial","1","","","","","","","","","","","","","","","","","","","","",""
"","","","","","image-keyboard-response","266","373214","0.0-241.0","5df416a57bf5722f9a501255","665500ab8938657b03fbdba8","665793096b35f257ed77effb","766","stimuli/0100111.jpg","0","","prediction_trial","0","","true","","0","false","false","false","true","false","false","[0]","100","111","1","","","","","","",""
"","","","","","image-keyboard-response","267","373336","0.0-242.0","5df416a57bf5722f9a501255","665500ab8938657b03fbdba8","665793096b35f257ed77effb","121","stimuli/01001110.jpg"," ","","feedback_trial","0","","","","","","","","","","","","","","","","","","","","",""
"","","","","","image-keyboard-response","268","374093","0.0-243.0","5df416a57bf5722f9a501255","665500ab8938657b03fbdba8","665793096b35f257ed77effb","757","stimuli/1011110.jpg","1","","prediction_trial","1","","true","","1","false","false","false","false","false","false","[1,2]","011","110","1","","","","","","",""
"","","","","","image-keyboard-response","269","374204","0.0-244.0","5df416a57bf5722f9a501255","665500ab8938657b03fbdba8","665793096b35f257ed77effb","110","stimuli/10111101.jpg"," ","","feedback_trial","1","","","","","","","","","","","","","","","","","","","","",""
"","","","","","image-keyboard-response","270","374895","0.0-245.0","5df416a57bf5722f9a501255","665500ab8938657b03fbdba8","665793096b35f257ed77effb","691","stimuli/2010101.jpg","2","","prediction_trial","2","","true","","2","false","false","true","true","false","false","[2]","010","101","1","","","","","","",""
"","","","","","image-keyboard-response","271","375055","0.0-246.0","5df416a57bf5722f9a501255","665500ab8938657b03fbdba8","665793096b35f257ed77effb","159","stimuli/20101012.jpg"," ","","feedback_trial","2","","","","","","","","","","","","","","","","","","","","",""
"","","","","","image-keyboard-response","272","376328","0.0-247.0","5df416a57bf5722f9a501255","665500ab8938657b03fbdba8","665793096b35f257ed77effb","1273","stimuli/1110100.jpg","1","","prediction_trial","1","","true","","1","true","true","false","false","false","false","[1,0]","110","100","1","","","","","","",""
"","","","","","image-keyboard-response","273","376634","0.0-248.0","5df416a57bf5722f9a501255","665500ab8938657b03fbdba8","665793096b35f257ed77effb","305","stimuli/11101001.jpg"," ","","feedback_trial","1","","","","","","","","","","","","","","","","","","","","",""
"","","","","","image-keyboard-response","274","377440","0.0-249.0","5df416a57bf5722f9a501255","665500ab8938657b03fbdba8","665793096b35f257ed77effb","806","stimuli/1100110.jpg","0","","prediction_trial","1","","false","","1","false","false","true","true","false","false","[1]","100","110","0","","","","","","",""
"","","","","","image-keyboard-response","275","377637","0.0-250.0","5df416a57bf5722f9a501255","665500ab8938657b03fbdba8","665793096b35f257ed77effb","197","stimuli/11001101.jpg"," ","","feedback_trial","1","","","","","","","","","","","","","","","","","","","","",""
"","","","","","image-keyboard-response","276","378511","0.0-251.0","5df416a57bf5722f9a501255","665500ab8938657b03fbdba8","665793096b35f257ed77effb","874","stimuli/0111110.jpg","0","","prediction_trial","2","","false","","0","false","false","false","false","false","false","[2,1,0]","111","110","0","","","","","","",""
"","","","","","image-keyboard-response","277","378607","0.0-252.0","5df416a57bf5722f9a501255","665500ab8938657b03fbdba8","665793096b35f257ed77effb","96","stimuli/01111102.jpg"," ","","feedback_trial","2","","","","","","","","","","","","","","","","","","","","",""
"","","","","","image-keyboard-response","278","379937","0.0-253.0","5df416a57bf5722f9a501255","665500ab8938657b03fbdba8","665793096b35f257ed77effb","1330","stimuli/2001001.jpg","2","","prediction_trial","2","","true","","2","false","true","false","true","false","true","[2]","001","001","1","","","","","","",""
"","","","","","image-keyboard-response","279","380210","0.0-254.0","5df416a57bf5722f9a501255","665500ab8938657b03fbdba8","665793096b35f257ed77effb","272","stimuli/20010012.jpg"," ","","feedback_trial","2","","","","","","","","","","","","","","","","","","","","",""
"","","","","","image-keyboard-response","280","380949","0.0-255.0","5df416a57bf5722f9a501255","665500ab8938657b03fbdba8","665793096b35f257ed77effb","738","stimuli/1110111.jpg","1","","prediction_trial","0","","false","","1","false","false","false","false","false","false","[1,0]","110","111","0","","","","","","",""
"","","","","","image-keyboard-response","281","381137","0.0-256.0","5df416a57bf5722f9a501255","665500ab8938657b03fbdba8","665793096b35f257ed77effb","188","stimuli/11101110.jpg"," ","","feedback_trial","1","","","","","","","","","","","","","","","","","","","","",""
"","","","","","image-keyboard-response","282","383624","0.0-257.0","5df416a57bf5722f9a501255","665500ab8938657b03fbdba8","665793096b35f257ed77effb","2486","stimuli/2110011.jpg","1","","prediction_trial","2","","false","","2","false","false","true","true","false","false","[2]","110","011","0","","","","","","",""
"","","","","","image-keyboard-response","283","387150","0.0-258.0","5df416a57bf5722f9a501255","665500ab8938657b03fbdba8","665793096b35f257ed77effb","3526","stimuli/21100112.jpg"," ","","feedback_trial","2","","","","","","","","","","","","","","","","","","","","",""
"","","","","","image-keyboard-response","284","388035","0.0-259.0","5df416a57bf5722f9a501255","665500ab8938657b03fbdba8","665793096b35f257ed77effb","885","stimuli/2010000.jpg","2","","prediction_trial","2","","true","","2","true","true","true","true","true","true","[2]","010","000","1","","","","","","",""
"","","","","","image-keyboard-response","285","388271","0.0-260.0","5df416a57bf5722f9a501255","665500ab8938657b03fbdba8","665793096b35f257ed77effb","235","stimuli/20100002.jpg"," ","","feedback_trial","2","","","","","","","","","","","","","","","","","","","","",""
"","","","","","image-keyboard-response","286","389522","0.0-261.0","5df416a57bf5722f9a501255","665500ab8938657b03fbdba8","665793096b35f257ed77effb","1250","stimuli/0101110.jpg","1","","prediction_trial","0","","false","","0","false","false","false","false","false","false","[0,2]","101","110","0","","","","","","",""
"","","","","","image-keyboard-response","287","389851","0.0-262.0","5df416a57bf5722f9a501255","665500ab8938657b03fbdba8","665793096b35f257ed77effb","328","stimuli/01011100.jpg"," ","","feedback_trial","0","","","","","","","","","","","","","","","","","","","","",""
"","","","","","image-keyboard-response","288","390806","0.0-263.0","5df416a57bf5722f9a501255","665500ab8938657b03fbdba8","665793096b35f257ed77effb","955","stimuli/2001010.jpg","2","","prediction_trial","2","","true","","2","true","true","false","true","false","true","[2]","001","010","1","","","","","","",""
"","","","","","image-keyboard-response","289","391150","0.0-264.0","5df416a57bf5722f9a501255","665500ab8938657b03fbdba8","665793096b35f257ed77effb","343","stimuli/20010102.jpg"," ","","feedback_trial","2","","","","","","","","","","","","","","","","","","","","",""
"","","","","","image-keyboard-response","290","391795","0.0-265.0","5df416a57bf5722f9a501255","665500ab8938657b03fbdba8","665793096b35f257ed77effb","645","stimuli/0111011.jpg","0","","prediction_trial","2","","false","","0","true","true","false","false","false","false","[2,1,0]","111","011","0","","","","","","",""
"","","","","","image-keyboard-response","291","392105","0.0-266.0","5df416a57bf5722f9a501255","665500ab8938657b03fbdba8","665793096b35f257ed77effb","309","stimuli/01110112.jpg"," ","","feedback_trial","2","","","","","","","","","","","","","","","","","","","","",""
"","","","","","image-keyboard-response","292","392741","0.0-267.0","5df416a57bf5722f9a501255","665500ab8938657b03fbdba8","665793096b35f257ed77effb","636","stimuli/0111010.jpg","0","","prediction_trial","1","","false","","0","true","true","false","false","false","false","[1,0,2]","111","010","0","","","","","","",""
"","","","","","image-keyboard-response","293","393030","0.0-268.0","5df416a57bf5722f9a501255","665500ab8938657b03fbdba8","665793096b35f257ed77effb","288","stimuli/01110101.jpg"," ","","feedback_trial","1","","","","","","","","","","","","","","","","","","","","",""
"","","","","","image-keyboard-response","294","394899","0.0-269.0","5df416a57bf5722f9a501255","665500ab8938657b03fbdba8","665793096b35f257ed77effb","1868","stimuli/2001100.jpg","2","","prediction_trial","2","","true","","2","true","true","false","true","false","true","[2]","001","100","1","","","","","","",""
"","","","","","image-keyboard-response","295","395305","0.0-270.0","5df416a57bf5722f9a501255","665500ab8938657b03fbdba8","665793096b35f257ed77effb","406","stimuli/20011002.jpg"," ","","feedback_trial","2","","","","","","","","","","","","","","","","","","","","",""
"","","","","","image-keyboard-response","296","396478","0.0-271.0","5df416a57bf5722f9a501255","665500ab8938657b03fbdba8","665793096b35f257ed77effb","1172","stimuli/2011111.jpg","2","","prediction_trial","2","","true","","2","false","false","false","false","false","false","[2,1]","011","111","1","","","","","","",""
"","","","","","image-keyboard-response","297","396844","0.0-272.0","5df416a57bf5722f9a501255","665500ab8938657b03fbdba8","665793096b35f257ed77effb","365","stimuli/20111112.jpg"," ","","feedback_trial","2","","","","","","","","","","","","","","","","","","","","",""
"","","","","","image-keyboard-response","298","398089","0.0-273.0","5df416a57bf5722f9a501255","665500ab8938657b03fbdba8","665793096b35f257ed77effb","1245","stimuli/0011100.jpg","0","","prediction_trial","0","","true","","0","false","true","true","true","false","true","[0]","011","100","1","","","","","","",""
"","","","","","image-keyboard-response","299","398801","0.0-274.0","5df416a57bf5722f9a501255","665500ab8938657b03fbdba8","665793096b35f257ed77effb","711","stimuli/00111000.jpg"," ","","feedback_trial","0","","","","","","","","","","","","","","","","","","","","",""
"","","","","","image-keyboard-response","300","400893","0.0-275.0","5df416a57bf5722f9a501255","665500ab8938657b03fbdba8","665793096b35f257ed77effb","2092","stimuli/0100100.jpg","0","","prediction_trial","0","","true","","0","false","true","false","true","false","true","[0]","100","100","1","","","","","","",""
"","","","","","image-keyboard-response","301","401282","0.0-276.0","5df416a57bf5722f9a501255","665500ab8938657b03fbdba8","665793096b35f257ed77effb","388","stimuli/01001000.jpg"," ","","feedback_trial","0","","","","","","","","","","","","","","","","","","","","",""
"","","","","","image-keyboard-response","302","402265","0.0-277.0","5df416a57bf5722f9a501255","665500ab8938657b03fbdba8","665793096b35f257ed77effb","983","stimuli/0010111.jpg","1","","prediction_trial","0","","false","","0","false","false","true","true","false","false","[0]","010","111","0","","","","","","",""
"","","","","","image-keyboard-response","303","402509","0.0-278.0","5df416a57bf5722f9a501255","665500ab8938657b03fbdba8","665793096b35f257ed77effb","243","stimuli/00101110.jpg"," ","","feedback_trial","0","","","","","","","","","","","","","","","","","","","","",""
"","","","","","image-keyboard-response","304","403702","0.0-279.0","5df416a57bf5722f9a501255","665500ab8938657b03fbdba8","665793096b35f257ed77effb","1193","stimuli/2011001.jpg","2","","prediction_trial","2","","true","","2","false","true","false","false","false","false","[2,1]","011","001","1","","","","","","",""
"","","","","","image-keyboard-response","305","404296","0.0-280.0","5df416a57bf5722f9a501255","665500ab8938657b03fbdba8","665793096b35f257ed77effb","593","stimuli/20110012.jpg"," ","","feedback_trial","2","","","","","","","","","","","","","","","","","","","","",""
"","","","","","image-keyboard-response","306","406140","0.0-281.0","5df416a57bf5722f9a501255","665500ab8938657b03fbdba8","665793096b35f257ed77effb","1843","stimuli/1111001.jpg","2","","prediction_trial","2","","true","","1","true","true","false","false","false","false","[0,2,1]","111","001","1","","","","","","",""
"","","","","","image-keyboard-response","307","406460","0.0-282.0","5df416a57bf5722f9a501255","665500ab8938657b03fbdba8","665793096b35f257ed77effb","319","stimuli/11110012.jpg"," ","","feedback_trial","0","","","","","","","","","","","","","","","","","","","","",""
"","","","","","image-keyboard-response","308","407819","0.0-283.0","5df416a57bf5722f9a501255","665500ab8938657b03fbdba8","665793096b35f257ed77effb","1359","stimuli/1000100.jpg","1","","prediction_trial","1","","true","","1","true","true","true","true","true","true","[1]","000","100","1","","","","","","",""
"","","","","","image-keyboard-response","309","408078","0.0-284.0","5df416a57bf5722f9a501255","665500ab8938657b03fbdba8","665793096b35f257ed77effb","258","stimuli/10001001.jpg"," ","","feedback_trial","1","","","","","","","","","","","","","","","","","","","","",""
"","","","","","image-keyboard-response","310","408726","0.0-285.0","5df416a57bf5722f9a501255","665500ab8938657b03fbdba8","665793096b35f257ed77effb","648","stimuli/2100100.jpg","2","","prediction_trial","2","","true","","2","true","true","true","true","true","true","[2]","100","100","1","","","","","","",""
"","","","","","image-keyboard-response","311","408883","0.0-286.0","5df416a57bf5722f9a501255","665500ab8938657b03fbdba8","665793096b35f257ed77effb","156","stimuli/21001002.jpg"," ","","feedback_trial","2","","","","","","","","","","","","","","","","","","","","",""
"","","","","","image-keyboard-response","312","409604","0.0-287.0","5df416a57bf5722f9a501255","665500ab8938657b03fbdba8","665793096b35f257ed77effb","721","stimuli/2110010.jpg","2","","prediction_trial","2","","true","","2","true","true","true","true","true","true","[2]","110","010","1","","","","","","",""
"","","","","","image-keyboard-response","313","409729","0.0-288.0","5df416a57bf5722f9a501255","665500ab8938657b03fbdba8","665793096b35f257ed77effb","124","stimuli/21100102.jpg"," ","","feedback_trial","2","","","","","","","","","","","","","","","","","","","","",""
"","","","","","image-keyboard-response","314","410930","0.0-289.0","5df416a57bf5722f9a501255","665500ab8938657b03fbdba8","665793096b35f257ed77effb","1201","stimuli/2001101.jpg","2","","prediction_trial","2","","true","","2","false","false","false","true","false","false","[2]","001","101","1","","","","","","",""
"","","","","","image-keyboard-response","315","411245","0.0-290.0","5df416a57bf5722f9a501255","665500ab8938657b03fbdba8","665793096b35f257ed77effb","314","stimuli/20011012.jpg"," ","","feedback_trial","2","","","","","","","","","","","","","","","","","","","","",""
"","","","","","image-keyboard-response","316","412827","0.0-291.0","5df416a57bf5722f9a501255","665500ab8938657b03fbdba8","665793096b35f257ed77effb","1581","stimuli/0010101.jpg","2","","prediction_trial","0","","false","","0","false","false","true","true","false","false","[0]","010","101","0","","","","","","",""
"","","","","","image-keyboard-response","317","413031","0.0-292.0","5df416a57bf5722f9a501255","665500ab8938657b03fbdba8","665793096b35f257ed77effb","204","stimuli/00101010.jpg"," ","","feedback_trial","0","","","","","","","","","","","","","","","","","","","","",""
"","","","","","survey-html-form","318","443341","0.0-293.0","5df416a57bf5722f9a501255","665500ab8938657b03fbdba8","665793096b35f257ed77effb","30309","","{""feedback"":""Sams view of the balls and whether he was guessing or not"",""age"":""37"",""gender"":""Male"",""other_gender"":"""",""race"":""White"",""other_race"":"""",""ethnicity"":""Non-Hispanic""}","","exit_survey","","","","","","","","","","","","","","","","Sams view of the balls and whether he was guessing or not","37","Non-Hispanic","Male","White","0.6458333333333334","0.6458333333333334"
