"success","timeout","failed_images","failed_audio","failed_video","trial_type","trial_index","time_elapsed","internal_node_id","prolific_id","prolific_study_id","prolific_session_id","rt","stimulus","response","view_history","trial","character_choice","stimulus_dict","accuracy","correct_response","ball_pos","ego_ball_visible","ego_can_infer","alter_ball_visible","alter_can_infer","collective_ball_visible","collective_can_infer","search_locations","alter_occluders","ego_occluders","accuracy_bool","feedback","age","ethnicity","gender","race","overall_accuracy","bonus"
"true","false","[]","[]","[]","preload","0","2793","0.0-0.0","5ec34daa8236521a70e0a4d7","665500ab8938657b03fbdba8","6657740f4cdf8a17e2cbb7ee","","","","","","","","","","","","","","","","","","","","","","","","","","",""
"true","","","","","fullscreen","1","267745","0.0-1.0","5ec34daa8236521a70e0a4d7","665500ab8938657b03fbdba8","6657740f4cdf8a17e2cbb7ee","","","","","","","","","","","","","","","","","","","","","","","","","","",""
"","","","","","html-button-response","2","306779","0.0-2.0","5ec34daa8236521a70e0a4d7","665500ab8938657b03fbdba8","6657740f4cdf8a17e2cbb7ee","39032","<p><b>Consent Form</b></p> <div style=""text-align:left;background-color:lightgrey; padding:20px; max-width:900px;""><p>Please consider this information carefully before deciding whether to participate in this research.</p> <p>The purpose of this research is to examine which factors influence social judgment and decision-making. You will be asked to make judgements about individuals and actions in social scenarios. We are simply interested in your judgement. The study will take less than 1 hour to complete, and you will receive less than $20 on Prolific. Your compensation and time commitment are specified in the study description. There are no anticipated risks associated with participating in this study. The effects of participating should be comparable to those you would ordinarily experience from viewing a computer monitor and using a mouse or keyboard for a similar amount of time. At the end of the study, we will provide an explanation of the questions that motivate this line of research and will describe the potential implications. </p><p> Your participation in this study is completely voluntary and you may refuse to participate or you may choose to withdraw at any time without penalty or loss of benefits to you which are otherwise entitled. Your participation in this study will remain confidential. No personally identifiable information will be associated with your data. Also, all analyses of the data will be averaged across all the participants, so your individual responses will never be specifically analyzed. </p><p> If you have questions or concerns about your participation or payment, or want to request a summary of research findings, please contact Dr. Jonathan Phillips at Jonathan.S.Phillips@dartmouth.edu. </p><p> Please save a copy of this form for your records. </p><p><b>Agreement: </b>The nature and purpose of this research have been sufficiently explained and I agree to participate in this study. I understand that I am free to withdraw at any time without incurring any penalty. Please consent by clicking the button below to continue. Otherwise, please exit the study at any time. </p>","0","","","","","","","","","","","","","","","","","","","","","","","",""
"","","","","","instructions","3","374908","0.0-3.0-0.0","5ec34daa8236521a70e0a4d7","665500ab8938657b03fbdba8","6657740f4cdf8a17e2cbb7ee","68127","","","[{""page_index"":0,""viewing_time"":1526},{""page_index"":1,""viewing_time"":2424},{""page_index"":2,""viewing_time"":3120},{""page_index"":3,""viewing_time"":5656},{""page_index"":4,""viewing_time"":3208},{""page_index"":5,""viewing_time"":3992},{""page_index"":6,""viewing_time"":6704},{""page_index"":7,""viewing_time"":3064},{""page_index"":8,""viewing_time"":7536},{""page_index"":9,""viewing_time"":2168},{""page_index"":10,""viewing_time"":12480},{""page_index"":11,""viewing_time"":6337},{""page_index"":12,""viewing_time"":8799},{""page_index"":13,""viewing_time"":1112}]","intro","","","","","","","","","","","","","","","","","","","","","",""
"","","","","","image-keyboard-response","4","377520","0.0-3.0-1.0","5ec34daa8236521a70e0a4d7","665500ab8938657b03fbdba8","6657740f4cdf8a17e2cbb7ee","2609","stimuli/2111011.jpg","1","","prediction_practice","0","{""filepath"":""stimuli/2111011.jpg"",""ball_pos"":2,""ego_ball_visible"":false,""ego_can_infer"":false,""alter_ball_visible"":false,""alter_can_infer"":false,""collective_ball_visible"":false,""collective_can_infer"":false,""search_locations"":[1,2,0],""alter_occluders"":""111"",""ego_occluders"":""011""}","false","","","","","","","","","","","","","","","","","","",""
"","","","","","image-keyboard-response","5","379575","0.0-3.0-2.0","5ec34daa8236521a70e0a4d7","665500ab8938657b03fbdba8","6657740f4cdf8a17e2cbb7ee","2053","stimuli/21110110.jpg"," ","","practrice_feedback","1","","","","","","","","","","","","","","","","","","","","",""
"","","","","","image-keyboard-response","6","380839","0.0-3.0-3.0","5ec34daa8236521a70e0a4d7","665500ab8938657b03fbdba8","6657740f4cdf8a17e2cbb7ee","1263","stimuli/2000100.jpg","1","","prediction_practice","2","{""filepath"":""stimuli/2000100.jpg"",""ball_pos"":2,""ego_ball_visible"":true,""ego_can_infer"":true,""alter_ball_visible"":true,""alter_can_infer"":true,""collective_ball_visible"":true,""collective_can_infer"":true,""search_locations"":[2],""alter_occluders"":""000"",""ego_occluders"":""100""}","false","","","","","","","","","","","","","","","","","","",""
"","","","","","image-keyboard-response","7","382071","0.0-3.0-4.0","5ec34daa8236521a70e0a4d7","665500ab8938657b03fbdba8","6657740f4cdf8a17e2cbb7ee","1231","stimuli/20001002.jpg"," ","","practrice_feedback","2","","","","","","","","","","","","","","","","","","","","",""
"","","","","","image-keyboard-response","8","383039","0.0-3.0-5.0","5ec34daa8236521a70e0a4d7","665500ab8938657b03fbdba8","6657740f4cdf8a17e2cbb7ee","967","stimuli/2100001.jpg","1","","prediction_practice","2","{""filepath"":""stimuli/2100001.jpg"",""ball_pos"":2,""ego_ball_visible"":false,""ego_can_infer"":true,""alter_ball_visible"":true,""alter_can_infer"":true,""collective_ball_visible"":false,""collective_can_infer"":true,""search_locations"":[2],""alter_occluders"":""100"",""ego_occluders"":""001""}","false","","","","","","","","","","","","","","","","","","",""
"","","","","","image-keyboard-response","9","384055","0.0-3.0-6.0","5ec34daa8236521a70e0a4d7","665500ab8938657b03fbdba8","6657740f4cdf8a17e2cbb7ee","1015","stimuli/21000012.jpg"," ","","practrice_feedback","2","","","","","","","","","","","","","","","","","","","","",""
"","","","","","image-keyboard-response","10","385087","0.0-3.0-7.0","5ec34daa8236521a70e0a4d7","665500ab8938657b03fbdba8","6657740f4cdf8a17e2cbb7ee","1031","stimuli/0011110.jpg","0","","prediction_practice","0","{""filepath"":""stimuli/0011110.jpg"",""ball_pos"":0,""ego_ball_visible"":false,""ego_can_infer"":false,""alter_ball_visible"":true,""alter_can_infer"":true,""collective_ball_visible"":false,""collective_can_infer"":false,""search_locations"":[0],""alter_occluders"":""011"",""ego_occluders"":""110""}","true","","","","","","","","","","","","","","","","","","",""
"","","","","","image-keyboard-response","11","386839","0.0-3.0-8.0","5ec34daa8236521a70e0a4d7","665500ab8938657b03fbdba8","6657740f4cdf8a17e2cbb7ee","1751","stimuli/00111100.jpg"," ","","practrice_feedback","0","","","","","","","","","","","","","","","","","","","","",""
"","","","","","image-keyboard-response","12","388079","0.0-3.0-9.0","5ec34daa8236521a70e0a4d7","665500ab8938657b03fbdba8","6657740f4cdf8a17e2cbb7ee","1240","stimuli/2101010.jpg","2","","prediction_practice","0","{""filepath"":""stimuli/2101010.jpg"",""ball_pos"":2,""ego_ball_visible"":true,""ego_can_infer"":true,""alter_ball_visible"":false,""alter_can_infer"":false,""collective_ball_visible"":false,""collective_can_infer"":false,""search_locations"":[2,0],""alter_occluders"":""101"",""ego_occluders"":""010""}","false","","","","","","","","","","","","","","","","","","",""
"","","","","","image-keyboard-response","13","388791","0.0-3.0-10.0","5ec34daa8236521a70e0a4d7","665500ab8938657b03fbdba8","6657740f4cdf8a17e2cbb7ee","711","stimuli/21010100.jpg"," ","","practrice_feedback","2","","","","","","","","","","","","","","","","","","","","",""
"","","","","","image-keyboard-response","14","389423","0.0-3.0-11.0","5ec34daa8236521a70e0a4d7","665500ab8938657b03fbdba8","6657740f4cdf8a17e2cbb7ee","632","stimuli/0000101.jpg","1","","prediction_practice","0","{""filepath"":""stimuli/0000101.jpg"",""ball_pos"":0,""ego_ball_visible"":false,""ego_can_infer"":false,""alter_ball_visible"":true,""alter_can_infer"":true,""collective_ball_visible"":false,""collective_can_infer"":false,""search_locations"":[0],""alter_occluders"":""000"",""ego_occluders"":""101""}","false","","","","","","","","","","","","","","","","","","",""
"","","","","","image-keyboard-response","15","390207","0.0-3.0-12.0","5ec34daa8236521a70e0a4d7","665500ab8938657b03fbdba8","6657740f4cdf8a17e2cbb7ee","783","stimuli/00001010.jpg"," ","","practrice_feedback","0","","","","","","","","","","","","","","","","","","","","",""
"","","","","","image-keyboard-response","16","391103","0.0-3.0-13.0","5ec34daa8236521a70e0a4d7","665500ab8938657b03fbdba8","6657740f4cdf8a17e2cbb7ee","895","stimuli/2001010.jpg","1","","prediction_practice","2","{""filepath"":""stimuli/2001010.jpg"",""ball_pos"":2,""ego_ball_visible"":true,""ego_can_infer"":true,""alter_ball_visible"":false,""alter_can_infer"":true,""collective_ball_visible"":false,""collective_can_infer"":true,""search_locations"":[2],""alter_occluders"":""001"",""ego_occluders"":""010""}","false","","","","","","","","","","","","","","","","","","",""
"","","","","","image-keyboard-response","17","391879","0.0-3.0-14.0","5ec34daa8236521a70e0a4d7","665500ab8938657b03fbdba8","6657740f4cdf8a17e2cbb7ee","776","stimuli/20010102.jpg"," ","","practrice_feedback","2","","","","","","","","","","","","","","","","","","","","",""
"","","","","","image-keyboard-response","18","393863","0.0-3.0-15.0","5ec34daa8236521a70e0a4d7","665500ab8938657b03fbdba8","6657740f4cdf8a17e2cbb7ee","1983","stimuli/0000011.jpg","0","","prediction_practice","0","{""filepath"":""stimuli/0000011.jpg"",""ball_pos"":0,""ego_ball_visible"":true,""ego_can_infer"":true,""alter_ball_visible"":true,""alter_can_infer"":true,""collective_ball_visible"":true,""collective_can_infer"":true,""search_locations"":[0],""alter_occluders"":""000"",""ego_occluders"":""011""}","true","","","","","","","","","","","","","","","","","","",""
"","","","","","image-keyboard-response","19","395319","0.0-3.0-16.0","5ec34daa8236521a70e0a4d7","665500ab8938657b03fbdba8","6657740f4cdf8a17e2cbb7ee","1456","stimuli/00000110.jpg"," ","","practrice_feedback","0","","","","","","","","","","","","","","","","","","","","",""
"","","","","","image-keyboard-response","20","397591","0.0-3.0-17.0","5ec34daa8236521a70e0a4d7","665500ab8938657b03fbdba8","6657740f4cdf8a17e2cbb7ee","2271","stimuli/2011000.jpg","1","","prediction_practice","2","{""filepath"":""stimuli/2011000.jpg"",""ball_pos"":2,""ego_ball_visible"":true,""ego_can_infer"":true,""alter_ball_visible"":false,""alter_can_infer"":false,""collective_ball_visible"":false,""collective_can_infer"":false,""search_locations"":[1,2],""alter_occluders"":""011"",""ego_occluders"":""000""}","false","","","","","","","","","","","","","","","","","","",""
"","","","","","image-keyboard-response","21","398535","0.0-3.0-18.0","5ec34daa8236521a70e0a4d7","665500ab8938657b03fbdba8","6657740f4cdf8a17e2cbb7ee","944","stimuli/20110002.jpg"," ","","practrice_feedback","1","","","","","","","","","","","","","","","","","","","","",""
"","","","","","image-keyboard-response","22","399743","0.0-3.0-19.0","5ec34daa8236521a70e0a4d7","665500ab8938657b03fbdba8","6657740f4cdf8a17e2cbb7ee","1207","stimuli/1011111.jpg","1","","prediction_practice","1","{""filepath"":""stimuli/1011111.jpg"",""ball_pos"":1,""ego_ball_visible"":false,""ego_can_infer"":false,""alter_ball_visible"":false,""alter_can_infer"":false,""collective_ball_visible"":false,""collective_can_infer"":false,""search_locations"":[2,1],""alter_occluders"":""011"",""ego_occluders"":""111""}","true","","","","","","","","","","","","","","","","","","",""
"","","","","","image-keyboard-response","23","400335","0.0-3.0-20.0","5ec34daa8236521a70e0a4d7","665500ab8938657b03fbdba8","6657740f4cdf8a17e2cbb7ee","592","stimuli/10111111.jpg"," ","","practrice_feedback","2","","","","","","","","","","","","","","","","","","","","",""
"","","","","","html-button-response","24","404291","0.0-3.0-21.0","5ec34daa8236521a70e0a4d7","665500ab8938657b03fbdba8","6657740f4cdf8a17e2cbb7ee","3956","Now that you've had some practice, you'll be tested with a couple of easy trials. If you correctly predict Sam's choice, you'll move on to complete the experiment!","0","","","","","","","","","","","","","","","","","","","","","","","",""
"","","","","","image-keyboard-response","25","405791","0.0-3.0-22.0-0.0","5ec34daa8236521a70e0a4d7","665500ab8938657b03fbdba8","6657740f4cdf8a17e2cbb7ee","1499","stimuli/0000011.jpg","arrowleft","","comprehension_quiz","","","true","arrowleft","","","","","","","","","","","","","","","","","",""
"","","","","","image-keyboard-response","26","406439","0.0-3.0-22.0-1.0","5ec34daa8236521a70e0a4d7","665500ab8938657b03fbdba8","6657740f4cdf8a17e2cbb7ee","647","stimuli/00000110.jpg"," ","","comprehension_quiz","","","true"," ","","","","","","","","","","","","","","","","","",""
"","","","","","image-keyboard-response","27","407654","0.0-3.0-22.0-2.0","5ec34daa8236521a70e0a4d7","665500ab8938657b03fbdba8","6657740f4cdf8a17e2cbb7ee","1215","stimuli/1010010.jpg","arrowdown","","comprehension_quiz","","","true","arrowdown","","","","","","","","","","","","","","","","","",""
"","","","","","image-keyboard-response","28","408127","0.0-3.0-22.0-3.0","5ec34daa8236521a70e0a4d7","665500ab8938657b03fbdba8","6657740f4cdf8a17e2cbb7ee","472","stimuli/10100101.jpg"," ","","comprehension_quiz","","","true"," ","","","","","","","","","","","","","","","","","",""
"","","","","","html-button-response","29","411179","0.0-4.0","5ec34daa8236521a70e0a4d7","665500ab8938657b03fbdba8","6657740f4cdf8a17e2cbb7ee","3050","The experiment will now begin.","0","","","","","","","","","","","","","","","","","","","","","","","",""
"","","","","","image-keyboard-response","30","413575","0.0-5.0","5ec34daa8236521a70e0a4d7","665500ab8938657b03fbdba8","6657740f4cdf8a17e2cbb7ee","2395","stimuli/2001110.jpg","2","","prediction_trial","2","","true","","2","true","true","false","true","false","true","[2]","001","110","1","","","","","","",""
"","","","","","image-keyboard-response","31","414095","0.0-6.0","5ec34daa8236521a70e0a4d7","665500ab8938657b03fbdba8","6657740f4cdf8a17e2cbb7ee","519","stimuli/20011102.jpg"," ","","feedback_trial","2","","","","","","","","","","","","","","","","","","","","",""
"","","","","","image-keyboard-response","32","416663","0.0-7.0","5ec34daa8236521a70e0a4d7","665500ab8938657b03fbdba8","6657740f4cdf8a17e2cbb7ee","2568","stimuli/0011100.jpg","0","","prediction_trial","0","","true","","0","false","true","true","true","false","true","[0]","011","100","1","","","","","","",""
"","","","","","image-keyboard-response","33","417111","0.0-8.0","5ec34daa8236521a70e0a4d7","665500ab8938657b03fbdba8","6657740f4cdf8a17e2cbb7ee","447","stimuli/00111000.jpg"," ","","feedback_trial","0","","","","","","","","","","","","","","","","","","","","",""
"","","","","","image-keyboard-response","34","418255","0.0-9.0","5ec34daa8236521a70e0a4d7","665500ab8938657b03fbdba8","6657740f4cdf8a17e2cbb7ee","1144","stimuli/0010000.jpg","0","","prediction_trial","0","","true","","0","true","true","true","true","true","true","[0]","010","000","1","","","","","","",""
"","","","","","image-keyboard-response","35","418687","0.0-10.0","5ec34daa8236521a70e0a4d7","665500ab8938657b03fbdba8","6657740f4cdf8a17e2cbb7ee","432","stimuli/00100000.jpg"," ","","feedback_trial","0","","","","","","","","","","","","","","","","","","","","",""
"","","","","","image-keyboard-response","36","421151","0.0-11.0","5ec34daa8236521a70e0a4d7","665500ab8938657b03fbdba8","6657740f4cdf8a17e2cbb7ee","2463","stimuli/2111001.jpg","1","","prediction_trial","0","","false","","2","false","true","false","false","false","false","[1,2,0]","111","001","0","","","","","","",""
"","","","","","image-keyboard-response","37","421735","0.0-12.0","5ec34daa8236521a70e0a4d7","665500ab8938657b03fbdba8","6657740f4cdf8a17e2cbb7ee","583","stimuli/21110010.jpg"," ","","feedback_trial","1","","","","","","","","","","","","","","","","","","","","",""
"","","","","","image-keyboard-response","38","424063","0.0-13.0","5ec34daa8236521a70e0a4d7","665500ab8938657b03fbdba8","6657740f4cdf8a17e2cbb7ee","2327","stimuli/2000101.jpg","0","","prediction_trial","2","","false","","2","false","false","true","true","false","false","[2]","000","101","0","","","","","","",""
"","","","","","image-keyboard-response","39","424551","0.0-14.0","5ec34daa8236521a70e0a4d7","665500ab8938657b03fbdba8","6657740f4cdf8a17e2cbb7ee","487","stimuli/20001012.jpg"," ","","feedback_trial","2","","","","","","","","","","","","","","","","","","","","",""
"","","","","","image-keyboard-response","40","426302","0.0-15.0","5ec34daa8236521a70e0a4d7","665500ab8938657b03fbdba8","6657740f4cdf8a17e2cbb7ee","1751","stimuli/1011000.jpg","1","","prediction_trial","2","","false","","1","true","true","false","false","false","false","[2,1]","011","000","0","","","","","","",""
"","","","","","image-keyboard-response","41","426759","0.0-16.0","5ec34daa8236521a70e0a4d7","665500ab8938657b03fbdba8","6657740f4cdf8a17e2cbb7ee","456","stimuli/10110002.jpg"," ","","feedback_trial","2","","","","","","","","","","","","","","","","","","","","",""
"","","","","","image-keyboard-response","42","428895","0.0-17.0","5ec34daa8236521a70e0a4d7","665500ab8938657b03fbdba8","6657740f4cdf8a17e2cbb7ee","2135","stimuli/0110101.jpg","2","","prediction_trial","0","","false","","0","false","false","false","false","false","false","[1,0]","110","101","0","","","","","","",""
"","","","","","image-keyboard-response","43","429351","0.0-18.0","5ec34daa8236521a70e0a4d7","665500ab8938657b03fbdba8","6657740f4cdf8a17e2cbb7ee","455","stimuli/01101010.jpg"," ","","feedback_trial","1","","","","","","","","","","","","","","","","","","","","",""
"","","","","","image-keyboard-response","44","430391","0.0-19.0","5ec34daa8236521a70e0a4d7","665500ab8938657b03fbdba8","6657740f4cdf8a17e2cbb7ee","1039","stimuli/2010110.jpg","2","","prediction_trial","2","","true","","2","true","true","true","true","true","true","[2]","010","110","1","","","","","","",""
"","","","","","image-keyboard-response","45","430871","0.0-20.0","5ec34daa8236521a70e0a4d7","665500ab8938657b03fbdba8","6657740f4cdf8a17e2cbb7ee","480","stimuli/20101102.jpg"," ","","feedback_trial","2","","","","","","","","","","","","","","","","","","","","",""
"","","","","","image-keyboard-response","46","432239","0.0-21.0","5ec34daa8236521a70e0a4d7","665500ab8938657b03fbdba8","6657740f4cdf8a17e2cbb7ee","1367","stimuli/0011111.jpg","0","","prediction_trial","0","","true","","0","false","false","true","true","false","false","[0]","011","111","1","","","","","","",""
"","","","","","image-keyboard-response","47","432607","0.0-22.0","5ec34daa8236521a70e0a4d7","665500ab8938657b03fbdba8","6657740f4cdf8a17e2cbb7ee","367","stimuli/00111110.jpg"," ","","feedback_trial","0","","","","","","","","","","","","","","","","","","","","",""
"","","","","","image-keyboard-response","48","433374","0.0-23.0","5ec34daa8236521a70e0a4d7","665500ab8938657b03fbdba8","6657740f4cdf8a17e2cbb7ee","767","stimuli/2100010.jpg","2","","prediction_trial","2","","true","","2","true","true","true","true","true","true","[2]","100","010","1","","","","","","",""
"","","","","","image-keyboard-response","49","433759","0.0-24.0","5ec34daa8236521a70e0a4d7","665500ab8938657b03fbdba8","6657740f4cdf8a17e2cbb7ee","383","stimuli/21000102.jpg"," ","","feedback_trial","2","","","","","","","","","","","","","","","","","","","","",""
"","","","","","image-keyboard-response","50","437255","0.0-25.0","5ec34daa8236521a70e0a4d7","665500ab8938657b03fbdba8","6657740f4cdf8a17e2cbb7ee","3496","stimuli/0100101.jpg","0","","prediction_trial","0","","true","","0","false","false","false","true","false","false","[0]","100","101","1","","","","","","",""
"","","","","","image-keyboard-response","51","437647","0.0-26.0","5ec34daa8236521a70e0a4d7","665500ab8938657b03fbdba8","6657740f4cdf8a17e2cbb7ee","391","stimuli/01001010.jpg"," ","","feedback_trial","0","","","","","","","","","","","","","","","","","","","","",""
"","","","","","image-keyboard-response","52","438463","0.0-27.0","5ec34daa8236521a70e0a4d7","665500ab8938657b03fbdba8","6657740f4cdf8a17e2cbb7ee","815","stimuli/0000000.jpg","0","","prediction_trial","0","","true","","0","true","true","true","true","true","true","[0]","000","000","1","","","","","","",""
"","","","","","image-keyboard-response","53","438799","0.0-28.0","5ec34daa8236521a70e0a4d7","665500ab8938657b03fbdba8","6657740f4cdf8a17e2cbb7ee","335","stimuli/00000000.jpg"," ","","feedback_trial","0","","","","","","","","","","","","","","","","","","","","",""
"","","","","","image-keyboard-response","54","439631","0.0-29.0","5ec34daa8236521a70e0a4d7","665500ab8938657b03fbdba8","6657740f4cdf8a17e2cbb7ee","831","stimuli/0011011.jpg","0","","prediction_trial","0","","true","","0","true","true","true","true","true","true","[0]","011","011","1","","","","","","",""
"","","","","","image-keyboard-response","55","439983","0.0-30.0","5ec34daa8236521a70e0a4d7","665500ab8938657b03fbdba8","6657740f4cdf8a17e2cbb7ee","352","stimuli/00110110.jpg"," ","","feedback_trial","0","","","","","","","","","","","","","","","","","","","","",""
"","","","","","image-keyboard-response","56","440591","0.0-31.0","5ec34daa8236521a70e0a4d7","665500ab8938657b03fbdba8","6657740f4cdf8a17e2cbb7ee","607","stimuli/0000011.jpg","0","","prediction_trial","0","","true","","0","true","true","true","true","true","true","[0]","000","011","1","","","","","","",""
"","","","","","image-keyboard-response","57","440927","0.0-32.0","5ec34daa8236521a70e0a4d7","665500ab8938657b03fbdba8","6657740f4cdf8a17e2cbb7ee","335","stimuli/00000110.jpg"," ","","feedback_trial","0","","","","","","","","","","","","","","","","","","","","",""
"","","","","","image-keyboard-response","58","441775","0.0-33.0","5ec34daa8236521a70e0a4d7","665500ab8938657b03fbdba8","6657740f4cdf8a17e2cbb7ee","848","stimuli/2000001.jpg","2","","prediction_trial","2","","true","","2","false","true","true","true","false","true","[2]","000","001","1","","","","","","",""
"","","","","","image-keyboard-response","59","442151","0.0-34.0","5ec34daa8236521a70e0a4d7","665500ab8938657b03fbdba8","6657740f4cdf8a17e2cbb7ee","375","stimuli/20000012.jpg"," ","","feedback_trial","2","","","","","","","","","","","","","","","","","","","","",""
"","","","","","image-keyboard-response","60","443535","0.0-35.0","5ec34daa8236521a70e0a4d7","665500ab8938657b03fbdba8","6657740f4cdf8a17e2cbb7ee","1383","stimuli/1001111.jpg","1","","prediction_trial","1","","true","","1","false","false","true","true","false","false","[1]","001","111","1","","","","","","",""
"","","","","","image-keyboard-response","61","443895","0.0-36.0","5ec34daa8236521a70e0a4d7","665500ab8938657b03fbdba8","6657740f4cdf8a17e2cbb7ee","359","stimuli/10011111.jpg"," ","","feedback_trial","1","","","","","","","","","","","","","","","","","","","","",""
"","","","","","image-keyboard-response","62","444863","0.0-37.0","5ec34daa8236521a70e0a4d7","665500ab8938657b03fbdba8","6657740f4cdf8a17e2cbb7ee","967","stimuli/2001011.jpg","1","","prediction_trial","2","","false","","2","false","false","false","true","false","false","[2]","001","011","0","","","","","","",""
"","","","","","image-keyboard-response","63","445255","0.0-38.0","5ec34daa8236521a70e0a4d7","665500ab8938657b03fbdba8","6657740f4cdf8a17e2cbb7ee","391","stimuli/20010112.jpg"," ","","feedback_trial","2","","","","","","","","","","","","","","","","","","","","",""
"","","","","","image-keyboard-response","64","445975","0.0-39.0","5ec34daa8236521a70e0a4d7","665500ab8938657b03fbdba8","6657740f4cdf8a17e2cbb7ee","720","stimuli/0011001.jpg","0","","prediction_trial","0","","true","","0","true","true","true","true","true","true","[0]","011","001","1","","","","","","",""
"","","","","","image-keyboard-response","65","446310","0.0-40.0","5ec34daa8236521a70e0a4d7","665500ab8938657b03fbdba8","6657740f4cdf8a17e2cbb7ee","335","stimuli/00110010.jpg"," ","","feedback_trial","0","","","","","","","","","","","","","","","","","","","","",""
"","","","","","image-keyboard-response","66","448663","0.0-41.0","5ec34daa8236521a70e0a4d7","665500ab8938657b03fbdba8","6657740f4cdf8a17e2cbb7ee","2352","stimuli/0110011.jpg","1","","prediction_trial","1","","true","","0","true","true","false","false","false","false","[0,1]","110","011","1","","","","","","",""
"","","","","","image-keyboard-response","67","449015","0.0-42.0","5ec34daa8236521a70e0a4d7","665500ab8938657b03fbdba8","6657740f4cdf8a17e2cbb7ee","351","stimuli/01100111.jpg"," ","","feedback_trial","0","","","","","","","","","","","","","","","","","","","","",""
"","","","","","image-keyboard-response","68","450230","0.0-43.0","5ec34daa8236521a70e0a4d7","665500ab8938657b03fbdba8","6657740f4cdf8a17e2cbb7ee","1215","stimuli/1111011.jpg","1","","prediction_trial","1","","true","","1","false","false","false","false","false","false","[1,0,2]","111","011","1","","","","","","",""
"","","","","","image-keyboard-response","69","450551","0.0-44.0","5ec34daa8236521a70e0a4d7","665500ab8938657b03fbdba8","6657740f4cdf8a17e2cbb7ee","319","stimuli/11110111.jpg"," ","","feedback_trial","1","","","","","","","","","","","","","","","","","","","","",""
"","","","","","image-keyboard-response","70","451519","0.0-45.0","5ec34daa8236521a70e0a4d7","665500ab8938657b03fbdba8","6657740f4cdf8a17e2cbb7ee","968","stimuli/1111111.jpg","2","","prediction_trial","2","","true","","1","false","false","false","false","false","false","[0,1,2]","111","111","1","","","","","","",""
"","","","","","image-keyboard-response","71","451871","0.0-46.0","5ec34daa8236521a70e0a4d7","665500ab8938657b03fbdba8","6657740f4cdf8a17e2cbb7ee","351","stimuli/11111112.jpg"," ","","feedback_trial","0","","","","","","","","","","","","","","","","","","","","",""
"","","","","","image-keyboard-response","72","452735","0.0-47.0","5ec34daa8236521a70e0a4d7","665500ab8938657b03fbdba8","6657740f4cdf8a17e2cbb7ee","863","stimuli/1000000.jpg","1","","prediction_trial","1","","true","","1","true","true","true","true","true","true","[1]","000","000","1","","","","","","",""
"","","","","","image-keyboard-response","73","453015","0.0-48.0","5ec34daa8236521a70e0a4d7","665500ab8938657b03fbdba8","6657740f4cdf8a17e2cbb7ee","279","stimuli/10000001.jpg"," ","","feedback_trial","1","","","","","","","","","","","","","","","","","","","","",""
"","","","","","image-keyboard-response","74","454527","0.0-49.0","5ec34daa8236521a70e0a4d7","665500ab8938657b03fbdba8","6657740f4cdf8a17e2cbb7ee","1511","stimuli/1110111.jpg","1","","prediction_trial","1","","true","","1","false","false","false","false","false","false","[0,1]","110","111","1","","","","","","",""
"","","","","","image-keyboard-response","75","454902","0.0-50.0","5ec34daa8236521a70e0a4d7","665500ab8938657b03fbdba8","6657740f4cdf8a17e2cbb7ee","375","stimuli/11101111.jpg"," ","","feedback_trial","0","","","","","","","","","","","","","","","","","","","","",""
"","","","","","image-keyboard-response","76","455687","0.0-51.0","5ec34daa8236521a70e0a4d7","665500ab8938657b03fbdba8","6657740f4cdf8a17e2cbb7ee","784","stimuli/2111000.jpg","2","","prediction_trial","0","","false","","2","true","true","false","false","false","false","[0,2,1]","111","000","0","","","","","","",""
"","","","","","image-keyboard-response","77","456094","0.0-52.0","5ec34daa8236521a70e0a4d7","665500ab8938657b03fbdba8","6657740f4cdf8a17e2cbb7ee","407","stimuli/21110000.jpg"," ","","feedback_trial","0","","","","","","","","","","","","","","","","","","","","",""
"","","","","","image-keyboard-response","78","457038","0.0-53.0","5ec34daa8236521a70e0a4d7","665500ab8938657b03fbdba8","6657740f4cdf8a17e2cbb7ee","943","stimuli/1010010.jpg","1","","prediction_trial","1","","true","","1","false","true","false","true","false","true","[1]","010","010","1","","","","","","",""
"","","","","","image-keyboard-response","79","457391","0.0-54.0","5ec34daa8236521a70e0a4d7","665500ab8938657b03fbdba8","6657740f4cdf8a17e2cbb7ee","351","stimuli/10100101.jpg"," ","","feedback_trial","1","","","","","","","","","","","","","","","","","","","","",""
"","","","","","image-keyboard-response","80","458247","0.0-55.0","5ec34daa8236521a70e0a4d7","665500ab8938657b03fbdba8","6657740f4cdf8a17e2cbb7ee","856","stimuli/1000101.jpg","1","","prediction_trial","1","","true","","1","true","true","true","true","true","true","[1]","000","101","1","","","","","","",""
"","","","","","image-keyboard-response","81","458551","0.0-56.0","5ec34daa8236521a70e0a4d7","665500ab8938657b03fbdba8","6657740f4cdf8a17e2cbb7ee","303","stimuli/10001011.jpg"," ","","feedback_trial","1","","","","","","","","","","","","","","","","","","","","",""
"","","","","","image-keyboard-response","82","461695","0.0-57.0","5ec34daa8236521a70e0a4d7","665500ab8938657b03fbdba8","6657740f4cdf8a17e2cbb7ee","3144","stimuli/1100110.jpg","1","","prediction_trial","1","","true","","1","false","false","true","true","false","false","[1]","100","110","1","","","","","","",""
"","","","","","image-keyboard-response","83","462039","0.0-58.0","5ec34daa8236521a70e0a4d7","665500ab8938657b03fbdba8","6657740f4cdf8a17e2cbb7ee","343","stimuli/11001101.jpg"," ","","feedback_trial","1","","","","","","","","","","","","","","","","","","","","",""
"","","","","","image-keyboard-response","84","463334","0.0-59.0","5ec34daa8236521a70e0a4d7","665500ab8938657b03fbdba8","6657740f4cdf8a17e2cbb7ee","1295","stimuli/1011011.jpg","2","","prediction_trial","1","","false","","1","false","false","false","false","false","false","[1,2]","011","011","0","","","","","","",""
"","","","","","image-keyboard-response","85","463742","0.0-60.0","5ec34daa8236521a70e0a4d7","665500ab8938657b03fbdba8","6657740f4cdf8a17e2cbb7ee","407","stimuli/10110111.jpg"," ","","feedback_trial","1","","","","","","","","","","","","","","","","","","","","",""
"","","","","","image-keyboard-response","86","466615","0.0-61.0","5ec34daa8236521a70e0a4d7","665500ab8938657b03fbdba8","6657740f4cdf8a17e2cbb7ee","2872","stimuli/1010100.jpg","1","","prediction_trial","1","","true","","1","true","true","false","true","false","true","[1]","010","100","1","","","","","","",""
"","","","","","image-keyboard-response","87","466959","0.0-62.0","5ec34daa8236521a70e0a4d7","665500ab8938657b03fbdba8","6657740f4cdf8a17e2cbb7ee","343","stimuli/10101001.jpg"," ","","feedback_trial","1","","","","","","","","","","","","","","","","","","","","",""
"","","","","","image-keyboard-response","88","468823","0.0-63.0","5ec34daa8236521a70e0a4d7","665500ab8938657b03fbdba8","6657740f4cdf8a17e2cbb7ee","1863","stimuli/1110100.jpg","0","","prediction_trial","0","","true","","1","true","true","false","false","false","false","[0,1]","110","100","1","","","","","","",""
"","","","","","image-keyboard-response","89","469175","0.0-64.0","5ec34daa8236521a70e0a4d7","665500ab8938657b03fbdba8","6657740f4cdf8a17e2cbb7ee","351","stimuli/11101000.jpg"," ","","feedback_trial","0","","","","","","","","","","","","","","","","","","","","",""
"","","","","","image-keyboard-response","90","472375","0.0-65.0","5ec34daa8236521a70e0a4d7","665500ab8938657b03fbdba8","6657740f4cdf8a17e2cbb7ee","3199","stimuli/1101111.jpg","2","","prediction_trial","1","","false","","1","false","false","true","true","false","false","[1]","101","111","0","","","","","","",""
"","","","","","image-keyboard-response","91","472751","0.0-66.0","5ec34daa8236521a70e0a4d7","665500ab8938657b03fbdba8","6657740f4cdf8a17e2cbb7ee","375","stimuli/11011111.jpg"," ","","feedback_trial","1","","","","","","","","","","","","","","","","","","","","",""
"","","","","","image-keyboard-response","92","473695","0.0-67.0","5ec34daa8236521a70e0a4d7","665500ab8938657b03fbdba8","6657740f4cdf8a17e2cbb7ee","944","stimuli/1001100.jpg","1","","prediction_trial","1","","true","","1","true","true","true","true","true","true","[1]","001","100","1","","","","","","",""
"","","","","","image-keyboard-response","93","473999","0.0-68.0","5ec34daa8236521a70e0a4d7","665500ab8938657b03fbdba8","6657740f4cdf8a17e2cbb7ee","303","stimuli/10011001.jpg"," ","","feedback_trial","1","","","","","","","","","","","","","","","","","","","","",""
"","","","","","image-keyboard-response","94","475759","0.0-69.0","5ec34daa8236521a70e0a4d7","665500ab8938657b03fbdba8","6657740f4cdf8a17e2cbb7ee","1760","stimuli/0010111.jpg","2","","prediction_trial","0","","false","","0","false","false","true","true","false","false","[0]","010","111","0","","","","","","",""
"","","","","","image-keyboard-response","95","476159","0.0-70.0","5ec34daa8236521a70e0a4d7","665500ab8938657b03fbdba8","6657740f4cdf8a17e2cbb7ee","399","stimuli/00101110.jpg"," ","","feedback_trial","0","","","","","","","","","","","","","","","","","","","","",""
"","","","","","image-keyboard-response","96","477551","0.0-71.0","5ec34daa8236521a70e0a4d7","665500ab8938657b03fbdba8","6657740f4cdf8a17e2cbb7ee","1391","stimuli/1110000.jpg","0","","prediction_trial","0","","true","","1","true","true","false","false","false","false","[1,0]","110","000","1","","","","","","",""
"","","","","","image-keyboard-response","97","477847","0.0-72.0","5ec34daa8236521a70e0a4d7","665500ab8938657b03fbdba8","6657740f4cdf8a17e2cbb7ee","295","stimuli/11100000.jpg"," ","","feedback_trial","1","","","","","","","","","","","","","","","","","","","","",""
"","","","","","image-keyboard-response","98","479663","0.0-73.0","5ec34daa8236521a70e0a4d7","665500ab8938657b03fbdba8","6657740f4cdf8a17e2cbb7ee","1815","stimuli/2001010.jpg","2","","prediction_trial","2","","true","","2","true","true","false","true","false","true","[2]","001","010","1","","","","","","",""
"","","","","","image-keyboard-response","99","479975","0.0-74.0","5ec34daa8236521a70e0a4d7","665500ab8938657b03fbdba8","6657740f4cdf8a17e2cbb7ee","311","stimuli/20010102.jpg"," ","","feedback_trial","2","","","","","","","","","","","","","","","","","","","","",""
"","","","","","image-keyboard-response","100","481087","0.0-75.0","5ec34daa8236521a70e0a4d7","665500ab8938657b03fbdba8","6657740f4cdf8a17e2cbb7ee","1111","stimuli/2010101.jpg","0","","prediction_trial","2","","false","","2","false","false","true","true","false","false","[2]","010","101","0","","","","","","",""
"","","","","","image-keyboard-response","101","481487","0.0-76.0","5ec34daa8236521a70e0a4d7","665500ab8938657b03fbdba8","6657740f4cdf8a17e2cbb7ee","399","stimuli/20101012.jpg"," ","","feedback_trial","2","","","","","","","","","","","","","","","","","","","","",""
"","","","","","image-keyboard-response","102","483719","0.0-77.0","5ec34daa8236521a70e0a4d7","665500ab8938657b03fbdba8","6657740f4cdf8a17e2cbb7ee","2232","stimuli/0101110.jpg","1","","prediction_trial","0","","false","","0","false","false","false","false","false","false","[0,2]","101","110","0","","","","","","",""
"","","","","","image-keyboard-response","103","484103","0.0-78.0","5ec34daa8236521a70e0a4d7","665500ab8938657b03fbdba8","6657740f4cdf8a17e2cbb7ee","383","stimuli/01011100.jpg"," ","","feedback_trial","0","","","","","","","","","","","","","","","","","","","","",""
"","","","","","image-keyboard-response","104","485022","0.0-79.0","5ec34daa8236521a70e0a4d7","665500ab8938657b03fbdba8","6657740f4cdf8a17e2cbb7ee","919","stimuli/2000000.jpg","2","","prediction_trial","2","","true","","2","true","true","true","true","true","true","[2]","000","000","1","","","","","","",""
"","","","","","image-keyboard-response","105","485334","0.0-80.0","5ec34daa8236521a70e0a4d7","665500ab8938657b03fbdba8","6657740f4cdf8a17e2cbb7ee","312","stimuli/20000002.jpg"," ","","feedback_trial","2","","","","","","","","","","","","","","","","","","","","",""
"","","","","","image-keyboard-response","106","487119","0.0-81.0","5ec34daa8236521a70e0a4d7","665500ab8938657b03fbdba8","6657740f4cdf8a17e2cbb7ee","1784","stimuli/0111010.jpg","0","","prediction_trial","0","","true","","0","true","true","false","false","false","false","[1,2,0]","111","010","1","","","","","","",""
"","","","","","image-keyboard-response","107","487510","0.0-82.0","5ec34daa8236521a70e0a4d7","665500ab8938657b03fbdba8","6657740f4cdf8a17e2cbb7ee","391","stimuli/01110100.jpg"," ","","feedback_trial","1","","","","","","","","","","","","","","","","","","","","",""
"","","","","","image-keyboard-response","108","488567","0.0-83.0","5ec34daa8236521a70e0a4d7","665500ab8938657b03fbdba8","6657740f4cdf8a17e2cbb7ee","1055","stimuli/2011100.jpg","2","","prediction_trial","2","","true","","2","true","true","false","false","false","false","[2,1]","011","100","1","","","","","","",""
"","","","","","image-keyboard-response","109","488886","0.0-84.0","5ec34daa8236521a70e0a4d7","665500ab8938657b03fbdba8","6657740f4cdf8a17e2cbb7ee","319","stimuli/20111002.jpg"," ","","feedback_trial","2","","","","","","","","","","","","","","","","","","","","",""
"","","","","","image-keyboard-response","110","489839","0.0-85.0","5ec34daa8236521a70e0a4d7","665500ab8938657b03fbdba8","6657740f4cdf8a17e2cbb7ee","952","stimuli/1101100.jpg","1","","prediction_trial","1","","true","","1","true","true","true","true","true","true","[1]","101","100","1","","","","","","",""
"","","","","","image-keyboard-response","111","490095","0.0-86.0","5ec34daa8236521a70e0a4d7","665500ab8938657b03fbdba8","6657740f4cdf8a17e2cbb7ee","255","stimuli/11011001.jpg"," ","","feedback_trial","1","","","","","","","","","","","","","","","","","","","","",""
"","","","","","image-keyboard-response","112","491166","0.0-87.0","5ec34daa8236521a70e0a4d7","665500ab8938657b03fbdba8","6657740f4cdf8a17e2cbb7ee","1071","stimuli/0100011.jpg","0","","prediction_trial","0","","true","","0","true","true","false","true","false","true","[0]","100","011","1","","","","","","",""
"","","","","","image-keyboard-response","113","491400","0.0-88.0","5ec34daa8236521a70e0a4d7","665500ab8938657b03fbdba8","6657740f4cdf8a17e2cbb7ee","232","stimuli/01000110.jpg"," ","","feedback_trial","0","","","","","","","","","","","","","","","","","","","","",""
"","","","","","image-keyboard-response","114","492831","0.0-89.0","5ec34daa8236521a70e0a4d7","665500ab8938657b03fbdba8","6657740f4cdf8a17e2cbb7ee","1429","stimuli/0001111.jpg","2","","prediction_trial","0","","false","","0","false","false","true","true","false","false","[0]","001","111","0","","","","","","",""
"","","","","","image-keyboard-response","115","493151","0.0-90.0","5ec34daa8236521a70e0a4d7","665500ab8938657b03fbdba8","6657740f4cdf8a17e2cbb7ee","319","stimuli/00011110.jpg"," ","","feedback_trial","0","","","","","","","","","","","","","","","","","","","","",""
"","","","","","image-keyboard-response","116","494839","0.0-91.0","5ec34daa8236521a70e0a4d7","665500ab8938657b03fbdba8","6657740f4cdf8a17e2cbb7ee","1687","stimuli/0010100.jpg","0","","prediction_trial","0","","true","","0","false","true","true","true","false","true","[0]","010","100","1","","","","","","",""
"","","","","","image-keyboard-response","117","495135","0.0-92.0","5ec34daa8236521a70e0a4d7","665500ab8938657b03fbdba8","6657740f4cdf8a17e2cbb7ee","295","stimuli/00101000.jpg"," ","","feedback_trial","0","","","","","","","","","","","","","","","","","","","","",""
"","","","","","image-keyboard-response","118","496431","0.0-93.0","5ec34daa8236521a70e0a4d7","665500ab8938657b03fbdba8","6657740f4cdf8a17e2cbb7ee","1295","stimuli/1110110.jpg","1","","prediction_trial","0","","false","","1","false","false","false","false","false","false","[0,1]","110","110","0","","","","","","",""
"","","","","","image-keyboard-response","119","496751","0.0-94.0","5ec34daa8236521a70e0a4d7","665500ab8938657b03fbdba8","6657740f4cdf8a17e2cbb7ee","320","stimuli/11101100.jpg"," ","","feedback_trial","0","","","","","","","","","","","","","","","","","","","","",""
"","","","","","image-keyboard-response","120","497535","0.0-95.0","5ec34daa8236521a70e0a4d7","665500ab8938657b03fbdba8","6657740f4cdf8a17e2cbb7ee","783","stimuli/0000100.jpg","0","","prediction_trial","0","","true","","0","false","true","true","true","false","true","[0]","000","100","1","","","","","","",""
"","","","","","image-keyboard-response","121","497823","0.0-96.0","5ec34daa8236521a70e0a4d7","665500ab8938657b03fbdba8","6657740f4cdf8a17e2cbb7ee","287","stimuli/00001000.jpg"," ","","feedback_trial","0","","","","","","","","","","","","","","","","","","","","",""
"","","","","","image-keyboard-response","122","498935","0.0-97.0","5ec34daa8236521a70e0a4d7","665500ab8938657b03fbdba8","6657740f4cdf8a17e2cbb7ee","1111","stimuli/2100101.jpg","2","","prediction_trial","2","","true","","2","false","false","true","true","false","false","[2]","100","101","1","","","","","","",""
"","","","","","image-keyboard-response","123","499350","0.0-98.0","5ec34daa8236521a70e0a4d7","665500ab8938657b03fbdba8","6657740f4cdf8a17e2cbb7ee","415","stimuli/21001012.jpg"," ","","feedback_trial","2","","","","","","","","","","","","","","","","","","","","",""
"","","","","","image-keyboard-response","124","500111","0.0-99.0","5ec34daa8236521a70e0a4d7","665500ab8938657b03fbdba8","6657740f4cdf8a17e2cbb7ee","760","stimuli/1101010.jpg","1","","prediction_trial","1","","true","","1","false","true","true","true","false","true","[1]","101","010","1","","","","","","",""
"","","","","","image-keyboard-response","125","500446","0.0-100.0","5ec34daa8236521a70e0a4d7","665500ab8938657b03fbdba8","6657740f4cdf8a17e2cbb7ee","335","stimuli/11010101.jpg"," ","","feedback_trial","1","","","","","","","","","","","","","","","","","","","","",""
"","","","","","image-keyboard-response","126","501742","0.0-101.0","5ec34daa8236521a70e0a4d7","665500ab8938657b03fbdba8","6657740f4cdf8a17e2cbb7ee","1295","stimuli/2001111.jpg","1","","prediction_trial","2","","false","","2","false","false","false","true","false","false","[2]","001","111","0","","","","","","",""
"","","","","","image-keyboard-response","127","502087","0.0-102.0","5ec34daa8236521a70e0a4d7","665500ab8938657b03fbdba8","6657740f4cdf8a17e2cbb7ee","343","stimuli/20011112.jpg"," ","","feedback_trial","2","","","","","","","","","","","","","","","","","","","","",""
"","","","","","image-keyboard-response","128","503342","0.0-103.0","5ec34daa8236521a70e0a4d7","665500ab8938657b03fbdba8","6657740f4cdf8a17e2cbb7ee","1255","stimuli/2110011.jpg","2","","prediction_trial","2","","true","","2","false","false","true","true","false","false","[2]","110","011","1","","","","","","",""
"","","","","","image-keyboard-response","129","503694","0.0-104.0","5ec34daa8236521a70e0a4d7","665500ab8938657b03fbdba8","6657740f4cdf8a17e2cbb7ee","351","stimuli/21100112.jpg"," ","","feedback_trial","2","","","","","","","","","","","","","","","","","","","","",""
"","","","","","image-keyboard-response","130","505231","0.0-105.0","5ec34daa8236521a70e0a4d7","665500ab8938657b03fbdba8","6657740f4cdf8a17e2cbb7ee","1536","stimuli/0110010.jpg","1","","prediction_trial","0","","false","","0","true","true","false","false","false","false","[0,1]","110","010","0","","","","","","",""
"","","","","","image-keyboard-response","131","505551","0.0-106.0","5ec34daa8236521a70e0a4d7","665500ab8938657b03fbdba8","6657740f4cdf8a17e2cbb7ee","319","stimuli/01100100.jpg"," ","","feedback_trial","0","","","","","","","","","","","","","","","","","","","","",""
"","","","","","image-keyboard-response","132","506847","0.0-107.0","5ec34daa8236521a70e0a4d7","665500ab8938657b03fbdba8","6657740f4cdf8a17e2cbb7ee","1295","stimuli/0101101.jpg","0","","prediction_trial","0","","true","","0","false","false","false","false","false","false","[0,2]","101","101","1","","","","","","",""
"","","","","","image-keyboard-response","133","507151","0.0-108.0","5ec34daa8236521a70e0a4d7","665500ab8938657b03fbdba8","6657740f4cdf8a17e2cbb7ee","303","stimuli/01011010.jpg"," ","","feedback_trial","0","","","","","","","","","","","","","","","","","","","","",""
"","","","","","image-keyboard-response","134","508550","0.0-109.0","5ec34daa8236521a70e0a4d7","665500ab8938657b03fbdba8","6657740f4cdf8a17e2cbb7ee","1399","stimuli/2101000.jpg","0","","prediction_trial","0","","true","","2","true","true","false","false","false","false","[2,0]","101","000","1","","","","","","",""
"","","","","","image-keyboard-response","135","508822","0.0-110.0","5ec34daa8236521a70e0a4d7","665500ab8938657b03fbdba8","6657740f4cdf8a17e2cbb7ee","271","stimuli/21010000.jpg"," ","","feedback_trial","2","","","","","","","","","","","","","","","","","","","","",""
"","","","","","image-keyboard-response","136","509910","0.0-111.0","5ec34daa8236521a70e0a4d7","665500ab8938657b03fbdba8","6657740f4cdf8a17e2cbb7ee","1088","stimuli/0001100.jpg","0","","prediction_trial","0","","true","","0","false","true","true","true","false","true","[0]","001","100","1","","","","","","",""
"","","","","","image-keyboard-response","137","510166","0.0-112.0","5ec34daa8236521a70e0a4d7","665500ab8938657b03fbdba8","6657740f4cdf8a17e2cbb7ee","255","stimuli/00011000.jpg"," ","","feedback_trial","0","","","","","","","","","","","","","","","","","","","","",""
"","","","","","image-keyboard-response","138","510950","0.0-113.0","5ec34daa8236521a70e0a4d7","665500ab8938657b03fbdba8","6657740f4cdf8a17e2cbb7ee","783","stimuli/2010010.jpg","2","","prediction_trial","2","","true","","2","true","true","true","true","true","true","[2]","010","010","1","","","","","","",""
"","","","","","image-keyboard-response","139","511246","0.0-114.0","5ec34daa8236521a70e0a4d7","665500ab8938657b03fbdba8","6657740f4cdf8a17e2cbb7ee","295","stimuli/20100102.jpg"," ","","feedback_trial","2","","","","","","","","","","","","","","","","","","","","",""
"","","","","","image-keyboard-response","140","512678","0.0-115.0","5ec34daa8236521a70e0a4d7","665500ab8938657b03fbdba8","6657740f4cdf8a17e2cbb7ee","1431","stimuli/1110011.jpg","2","","prediction_trial","1","","false","","1","false","false","false","false","false","false","[1,0]","110","011","0","","","","","","",""
"","","","","","image-keyboard-response","141","513006","0.0-116.0","5ec34daa8236521a70e0a4d7","665500ab8938657b03fbdba8","6657740f4cdf8a17e2cbb7ee","327","stimuli/11100111.jpg"," ","","feedback_trial","1","","","","","","","","","","","","","","","","","","","","",""
"","","","","","image-keyboard-response","142","514846","0.0-117.0","5ec34daa8236521a70e0a4d7","665500ab8938657b03fbdba8","6657740f4cdf8a17e2cbb7ee","1840","stimuli/0011110.jpg","1","","prediction_trial","0","","false","","0","false","false","true","true","false","false","[0]","011","110","0","","","","","","",""
"","","","","","image-keyboard-response","143","515134","0.0-118.0","5ec34daa8236521a70e0a4d7","665500ab8938657b03fbdba8","6657740f4cdf8a17e2cbb7ee","287","stimuli/00111100.jpg"," ","","feedback_trial","0","","","","","","","","","","","","","","","","","","","","",""
"","","","","","image-keyboard-response","144","515998","0.0-119.0","5ec34daa8236521a70e0a4d7","665500ab8938657b03fbdba8","6657740f4cdf8a17e2cbb7ee","864","stimuli/1111100.jpg","1","","prediction_trial","0","","false","","1","true","true","false","false","false","false","[2,1,0]","111","100","0","","","","","","",""
"","","","","","image-keyboard-response","145","516230","0.0-120.0","5ec34daa8236521a70e0a4d7","665500ab8938657b03fbdba8","6657740f4cdf8a17e2cbb7ee","231","stimuli/11111000.jpg"," ","","feedback_trial","2","","","","","","","","","","","","","","","","","","","","",""
"","","","","","image-keyboard-response","146","517878","0.0-121.0","5ec34daa8236521a70e0a4d7","665500ab8938657b03fbdba8","6657740f4cdf8a17e2cbb7ee","1647","stimuli/1111010.jpg","1","","prediction_trial","0","","false","","1","false","true","false","false","false","false","[1,0,2]","111","010","0","","","","","","",""
"","","","","","image-keyboard-response","147","518246","0.0-122.0","5ec34daa8236521a70e0a4d7","665500ab8938657b03fbdba8","6657740f4cdf8a17e2cbb7ee","367","stimuli/11110100.jpg"," ","","feedback_trial","1","","","","","","","","","","","","","","","","","","","","",""
"","","","","","image-keyboard-response","148","519334","0.0-123.0","5ec34daa8236521a70e0a4d7","665500ab8938657b03fbdba8","6657740f4cdf8a17e2cbb7ee","1087","stimuli/1000001.jpg","1","","prediction_trial","1","","true","","1","true","true","true","true","true","true","[1]","000","001","1","","","","","","",""
"","","","","","image-keyboard-response","149","519614","0.0-124.0","5ec34daa8236521a70e0a4d7","665500ab8938657b03fbdba8","6657740f4cdf8a17e2cbb7ee","280","stimuli/10000011.jpg"," ","","feedback_trial","1","","","","","","","","","","","","","","","","","","","","",""
"","","","","","image-keyboard-response","150","520934","0.0-125.0","5ec34daa8236521a70e0a4d7","665500ab8938657b03fbdba8","6657740f4cdf8a17e2cbb7ee","1320","stimuli/0101001.jpg","0","","prediction_trial","2","","false","","0","true","true","false","false","false","false","[2,0]","101","001","0","","","","","","",""
"","","","","","image-keyboard-response","151","521174","0.0-126.0","5ec34daa8236521a70e0a4d7","665500ab8938657b03fbdba8","6657740f4cdf8a17e2cbb7ee","239","stimuli/01010012.jpg"," ","","feedback_trial","2","","","","","","","","","","","","","","","","","","","","",""
"","","","","","image-keyboard-response","152","522182","0.0-127.0","5ec34daa8236521a70e0a4d7","665500ab8938657b03fbdba8","6657740f4cdf8a17e2cbb7ee","1008","stimuli/2110010.jpg","2","","prediction_trial","2","","true","","2","true","true","true","true","true","true","[2]","110","010","1","","","","","","",""
"","","","","","image-keyboard-response","153","522430","0.0-128.0","5ec34daa8236521a70e0a4d7","665500ab8938657b03fbdba8","6657740f4cdf8a17e2cbb7ee","247","stimuli/21100102.jpg"," ","","feedback_trial","2","","","","","","","","","","","","","","","","","","","","",""
"","","","","","image-keyboard-response","154","523238","0.0-129.0","5ec34daa8236521a70e0a4d7","665500ab8938657b03fbdba8","6657740f4cdf8a17e2cbb7ee","808","stimuli/0000111.jpg","2","","prediction_trial","0","","false","","0","false","false","true","true","false","false","[0]","000","111","0","","","","","","",""
"","","","","","image-keyboard-response","155","523550","0.0-130.0","5ec34daa8236521a70e0a4d7","665500ab8938657b03fbdba8","6657740f4cdf8a17e2cbb7ee","311","stimuli/00001110.jpg"," ","","feedback_trial","0","","","","","","","","","","","","","","","","","","","","",""
"","","","","","image-keyboard-response","156","524246","0.0-131.0","5ec34daa8236521a70e0a4d7","665500ab8938657b03fbdba8","6657740f4cdf8a17e2cbb7ee","696","stimuli/2110000.jpg","2","","prediction_trial","2","","true","","2","true","true","true","true","true","true","[2]","110","000","1","","","","","","",""
"","","","","","image-keyboard-response","157","524558","0.0-132.0","5ec34daa8236521a70e0a4d7","665500ab8938657b03fbdba8","6657740f4cdf8a17e2cbb7ee","311","stimuli/21100002.jpg"," ","","feedback_trial","2","","","","","","","","","","","","","","","","","","","","",""
"","","","","","image-keyboard-response","158","525494","0.0-133.0","5ec34daa8236521a70e0a4d7","665500ab8938657b03fbdba8","6657740f4cdf8a17e2cbb7ee","935","stimuli/1000011.jpg","2","","prediction_trial","1","","false","","1","false","false","true","true","false","false","[1]","000","011","0","","","","","","",""
"","","","","","image-keyboard-response","159","525846","0.0-134.0","5ec34daa8236521a70e0a4d7","665500ab8938657b03fbdba8","6657740f4cdf8a17e2cbb7ee","351","stimuli/10000111.jpg"," ","","feedback_trial","1","","","","","","","","","","","","","","","","","","","","",""
"","","","","","image-keyboard-response","160","527118","0.0-135.0","5ec34daa8236521a70e0a4d7","665500ab8938657b03fbdba8","6657740f4cdf8a17e2cbb7ee","1272","stimuli/0111000.jpg","2","","prediction_trial","0","","false","","0","true","true","false","false","false","false","[1,2,0]","111","000","0","","","","","","",""
"","","","","","image-keyboard-response","161","527422","0.0-136.0","5ec34daa8236521a70e0a4d7","665500ab8938657b03fbdba8","6657740f4cdf8a17e2cbb7ee","303","stimuli/01110000.jpg"," ","","feedback_trial","1","","","","","","","","","","","","","","","","","","","","",""
"","","","","","image-keyboard-response","162","528262","0.0-137.0","5ec34daa8236521a70e0a4d7","665500ab8938657b03fbdba8","6657740f4cdf8a17e2cbb7ee","840","stimuli/2010100.jpg","2","","prediction_trial","2","","true","","2","true","true","true","true","true","true","[2]","010","100","1","","","","","","",""
"","","","","","image-keyboard-response","163","528486","0.0-138.0","5ec34daa8236521a70e0a4d7","665500ab8938657b03fbdba8","6657740f4cdf8a17e2cbb7ee","223","stimuli/20101002.jpg"," ","","feedback_trial","2","","","","","","","","","","","","","","","","","","","","",""
"","","","","","image-keyboard-response","164","529846","0.0-139.0","5ec34daa8236521a70e0a4d7","665500ab8938657b03fbdba8","6657740f4cdf8a17e2cbb7ee","1359","stimuli/0111001.jpg","2","","prediction_trial","2","","true","","0","true","true","false","false","false","false","[2,0,1]","111","001","1","","","","","","",""
"","","","","","image-keyboard-response","165","530126","0.0-140.0","5ec34daa8236521a70e0a4d7","665500ab8938657b03fbdba8","6657740f4cdf8a17e2cbb7ee","279","stimuli/01110012.jpg"," ","","feedback_trial","2","","","","","","","","","","","","","","","","","","","","",""
"","","","","","image-keyboard-response","166","531142","0.0-141.0","5ec34daa8236521a70e0a4d7","665500ab8938657b03fbdba8","6657740f4cdf8a17e2cbb7ee","1015","stimuli/1010011.jpg","1","","prediction_trial","1","","true","","1","false","false","false","true","false","false","[1]","010","011","1","","","","","","",""
"","","","","","image-keyboard-response","167","531414","0.0-142.0","5ec34daa8236521a70e0a4d7","665500ab8938657b03fbdba8","6657740f4cdf8a17e2cbb7ee","272","stimuli/10100111.jpg"," ","","feedback_trial","1","","","","","","","","","","","","","","","","","","","","",""
"","","","","","image-keyboard-response","168","532406","0.0-143.0","5ec34daa8236521a70e0a4d7","665500ab8938657b03fbdba8","6657740f4cdf8a17e2cbb7ee","992","stimuli/0100111.jpg","1","","prediction_trial","0","","false","","0","false","false","false","true","false","false","[0]","100","111","0","","","","","","",""
"","","","","","image-keyboard-response","169","532670","0.0-144.0","5ec34daa8236521a70e0a4d7","665500ab8938657b03fbdba8","6657740f4cdf8a17e2cbb7ee","263","stimuli/01001110.jpg"," ","","feedback_trial","0","","","","","","","","","","","","","","","","","","","","",""
"","","","","","image-keyboard-response","170","533566","0.0-145.0","5ec34daa8236521a70e0a4d7","665500ab8938657b03fbdba8","6657740f4cdf8a17e2cbb7ee","895","stimuli/0111101.jpg","2","","prediction_trial","0","","false","","0","false","false","false","false","false","false","[0,2,1]","111","101","0","","","","","","",""
"","","","","","image-keyboard-response","171","533862","0.0-146.0","5ec34daa8236521a70e0a4d7","665500ab8938657b03fbdba8","6657740f4cdf8a17e2cbb7ee","295","stimuli/01111010.jpg"," ","","feedback_trial","0","","","","","","","","","","","","","","","","","","","","",""
"","","","","","image-keyboard-response","172","534798","0.0-147.0","5ec34daa8236521a70e0a4d7","665500ab8938657b03fbdba8","6657740f4cdf8a17e2cbb7ee","935","stimuli/0100100.jpg","0","","prediction_trial","0","","true","","0","false","true","false","true","false","true","[0]","100","100","1","","","","","","",""
"","","","","","image-keyboard-response","173","535047","0.0-148.0","5ec34daa8236521a70e0a4d7","665500ab8938657b03fbdba8","6657740f4cdf8a17e2cbb7ee","248","stimuli/01001000.jpg"," ","","feedback_trial","0","","","","","","","","","","","","","","","","","","","","",""
"","","","","","image-keyboard-response","174","536542","0.0-149.0","5ec34daa8236521a70e0a4d7","665500ab8938657b03fbdba8","6657740f4cdf8a17e2cbb7ee","1493","stimuli/0110000.jpg","1","","prediction_trial","0","","false","","0","true","true","false","false","false","false","[1,0]","110","000","0","","","","","","",""
"","","","","","image-keyboard-response","175","536830","0.0-150.0","5ec34daa8236521a70e0a4d7","665500ab8938657b03fbdba8","6657740f4cdf8a17e2cbb7ee","287","stimuli/01100000.jpg"," ","","feedback_trial","1","","","","","","","","","","","","","","","","","","","","",""
"","","","","","image-keyboard-response","176","538102","0.0-151.0","5ec34daa8236521a70e0a4d7","665500ab8938657b03fbdba8","6657740f4cdf8a17e2cbb7ee","1271","stimuli/1110101.jpg","0","","prediction_trial","1","","false","","1","true","true","false","false","false","false","[1,0]","110","101","0","","","","","","",""
"","","","","","image-keyboard-response","177","538326","0.0-152.0","5ec34daa8236521a70e0a4d7","665500ab8938657b03fbdba8","6657740f4cdf8a17e2cbb7ee","223","stimuli/11101011.jpg"," ","","feedback_trial","1","","","","","","","","","","","","","","","","","","","","",""
"","","","","","image-keyboard-response","178","539326","0.0-153.0","5ec34daa8236521a70e0a4d7","665500ab8938657b03fbdba8","6657740f4cdf8a17e2cbb7ee","1000","stimuli/0101010.jpg","0","","prediction_trial","2","","false","","0","true","true","false","false","false","false","[0,2]","101","010","0","","","","","","",""
"","","","","","image-keyboard-response","179","539582","0.0-154.0","5ec34daa8236521a70e0a4d7","665500ab8938657b03fbdba8","6657740f4cdf8a17e2cbb7ee","256","stimuli/01010102.jpg"," ","","feedback_trial","0","","","","","","","","","","","","","","","","","","","","",""
"","","","","","image-keyboard-response","180","540566","0.0-155.0","5ec34daa8236521a70e0a4d7","665500ab8938657b03fbdba8","6657740f4cdf8a17e2cbb7ee","983","stimuli/1001110.jpg","1","","prediction_trial","1","","true","","1","false","false","true","true","false","false","[1]","001","110","1","","","","","","",""
"","","","","","image-keyboard-response","181","540894","0.0-156.0","5ec34daa8236521a70e0a4d7","665500ab8938657b03fbdba8","6657740f4cdf8a17e2cbb7ee","327","stimuli/10011101.jpg"," ","","feedback_trial","1","","","","","","","","","","","","","","","","","","","","",""
"","","","","","image-keyboard-response","182","542478","0.0-157.0","5ec34daa8236521a70e0a4d7","665500ab8938657b03fbdba8","6657740f4cdf8a17e2cbb7ee","1583","stimuli/2111100.jpg","0","","prediction_trial","2","","false","","2","true","true","false","false","false","false","[2,1,0]","111","100","0","","","","","","",""
"","","","","","image-keyboard-response","183","542790","0.0-158.0","5ec34daa8236521a70e0a4d7","665500ab8938657b03fbdba8","6657740f4cdf8a17e2cbb7ee","311","stimuli/21111002.jpg"," ","","feedback_trial","2","","","","","","","","","","","","","","","","","","","","",""
"","","","","","image-keyboard-response","184","544310","0.0-159.0","5ec34daa8236521a70e0a4d7","665500ab8938657b03fbdba8","6657740f4cdf8a17e2cbb7ee","1519","stimuli/2111101.jpg","1","","prediction_trial","0","","false","","2","false","false","false","false","false","false","[1,0,2]","111","101","0","","","","","","",""
"","","","","","image-keyboard-response","185","544598","0.0-160.0","5ec34daa8236521a70e0a4d7","665500ab8938657b03fbdba8","6657740f4cdf8a17e2cbb7ee","287","stimuli/21111010.jpg"," ","","feedback_trial","1","","","","","","","","","","","","","","","","","","","","",""
"","","","","","image-keyboard-response","186","545598","0.0-161.0","5ec34daa8236521a70e0a4d7","665500ab8938657b03fbdba8","6657740f4cdf8a17e2cbb7ee","1000","stimuli/0011101.jpg","2","","prediction_trial","0","","false","","0","false","false","true","true","false","false","[0]","011","101","0","","","","","","",""
"","","","","","image-keyboard-response","187","545926","0.0-162.0","5ec34daa8236521a70e0a4d7","665500ab8938657b03fbdba8","6657740f4cdf8a17e2cbb7ee","327","stimuli/00111010.jpg"," ","","feedback_trial","0","","","","","","","","","","","","","","","","","","","","",""
"","","","","","image-keyboard-response","188","546982","0.0-163.0","5ec34daa8236521a70e0a4d7","665500ab8938657b03fbdba8","6657740f4cdf8a17e2cbb7ee","1055","stimuli/1100000.jpg","1","","prediction_trial","1","","true","","1","true","true","true","true","true","true","[1]","100","000","1","","","","","","",""
"","","","","","image-keyboard-response","189","547230","0.0-164.0","5ec34daa8236521a70e0a4d7","665500ab8938657b03fbdba8","6657740f4cdf8a17e2cbb7ee","248","stimuli/11000001.jpg"," ","","feedback_trial","1","","","","","","","","","","","","","","","","","","","","",""
"","","","","","image-keyboard-response","190","548223","0.0-165.0","5ec34daa8236521a70e0a4d7","665500ab8938657b03fbdba8","6657740f4cdf8a17e2cbb7ee","992","stimuli/2101011.jpg","1","","prediction_trial","2","","false","","2","false","false","false","false","false","false","[2,0]","101","011","0","","","","","","",""
"","","","","","image-keyboard-response","191","548502","0.0-166.0","5ec34daa8236521a70e0a4d7","665500ab8938657b03fbdba8","6657740f4cdf8a17e2cbb7ee","278","stimuli/21010112.jpg"," ","","feedback_trial","2","","","","","","","","","","","","","","","","","","","","",""
"","","","","","image-keyboard-response","192","549886","0.0-167.0","5ec34daa8236521a70e0a4d7","665500ab8938657b03fbdba8","6657740f4cdf8a17e2cbb7ee","1384","stimuli/2011010.jpg","2","","prediction_trial","1","","false","","2","true","true","false","false","false","false","[1,2]","011","010","0","","","","","","",""
"","","","","","image-keyboard-response","193","550230","0.0-168.0","5ec34daa8236521a70e0a4d7","665500ab8938657b03fbdba8","6657740f4cdf8a17e2cbb7ee","343","stimuli/20110101.jpg"," ","","feedback_trial","1","","","","","","","","","","","","","","","","","","","","",""
"","","","","","image-keyboard-response","194","552078","0.0-169.0","5ec34daa8236521a70e0a4d7","665500ab8938657b03fbdba8","6657740f4cdf8a17e2cbb7ee","1847","stimuli/0100010.jpg","0","","prediction_trial","0","","true","","0","true","true","false","true","false","true","[0]","100","010","1","","","","","","",""
"","","","","","image-keyboard-response","195","552350","0.0-170.0","5ec34daa8236521a70e0a4d7","665500ab8938657b03fbdba8","6657740f4cdf8a17e2cbb7ee","271","stimuli/01000100.jpg"," ","","feedback_trial","0","","","","","","","","","","","","","","","","","","","","",""
"","","","","","image-keyboard-response","196","553502","0.0-171.0","5ec34daa8236521a70e0a4d7","665500ab8938657b03fbdba8","6657740f4cdf8a17e2cbb7ee","1152","stimuli/2010111.jpg","2","","prediction_trial","2","","true","","2","false","false","true","true","false","false","[2]","010","111","1","","","","","","",""
"","","","","","image-keyboard-response","197","553822","0.0-172.0","5ec34daa8236521a70e0a4d7","665500ab8938657b03fbdba8","6657740f4cdf8a17e2cbb7ee","319","stimuli/20101112.jpg"," ","","feedback_trial","2","","","","","","","","","","","","","","","","","","","","",""
"","","","","","image-keyboard-response","198","555462","0.0-173.0","5ec34daa8236521a70e0a4d7","665500ab8938657b03fbdba8","6657740f4cdf8a17e2cbb7ee","1639","stimuli/2011001.jpg","2","","prediction_trial","2","","true","","2","false","true","false","false","false","false","[2,1]","011","001","1","","","","","","",""
"","","","","","image-keyboard-response","199","555774","0.0-174.0","5ec34daa8236521a70e0a4d7","665500ab8938657b03fbdba8","6657740f4cdf8a17e2cbb7ee","311","stimuli/20110012.jpg"," ","","feedback_trial","2","","","","","","","","","","","","","","","","","","","","",""
"","","","","","image-keyboard-response","200","557862","0.0-175.0","5ec34daa8236521a70e0a4d7","665500ab8938657b03fbdba8","6657740f4cdf8a17e2cbb7ee","2088","stimuli/2100111.jpg","0","","prediction_trial","2","","false","","2","false","false","true","true","false","false","[2]","100","111","0","","","","","","",""
"","","","","","image-keyboard-response","201","558151","0.0-176.0","5ec34daa8236521a70e0a4d7","665500ab8938657b03fbdba8","6657740f4cdf8a17e2cbb7ee","288","stimuli/21001112.jpg"," ","","feedback_trial","2","","","","","","","","","","","","","","","","","","","","",""
"","","","","","image-keyboard-response","202","559246","0.0-177.0","5ec34daa8236521a70e0a4d7","665500ab8938657b03fbdba8","6657740f4cdf8a17e2cbb7ee","1094","stimuli/1010110.jpg","0","","prediction_trial","1","","false","","1","false","false","false","true","false","false","[1]","010","110","0","","","","","","",""
"","","","","","image-keyboard-response","203","559550","0.0-178.0","5ec34daa8236521a70e0a4d7","665500ab8938657b03fbdba8","6657740f4cdf8a17e2cbb7ee","303","stimuli/10101101.jpg"," ","","feedback_trial","1","","","","","","","","","","","","","","","","","","","","",""
"","","","","","image-keyboard-response","204","560454","0.0-179.0","5ec34daa8236521a70e0a4d7","665500ab8938657b03fbdba8","6657740f4cdf8a17e2cbb7ee","903","stimuli/1101000.jpg","1","","prediction_trial","1","","true","","1","true","true","true","true","true","true","[1]","101","000","1","","","","","","",""
"","","","","","image-keyboard-response","205","560718","0.0-180.0","5ec34daa8236521a70e0a4d7","665500ab8938657b03fbdba8","6657740f4cdf8a17e2cbb7ee","263","stimuli/11010001.jpg"," ","","feedback_trial","1","","","","","","","","","","","","","","","","","","","","",""
"","","","","","image-keyboard-response","206","561982","0.0-181.0","5ec34daa8236521a70e0a4d7","665500ab8938657b03fbdba8","6657740f4cdf8a17e2cbb7ee","1264","stimuli/1010000.jpg","1","","prediction_trial","1","","true","","1","true","true","false","true","false","true","[1]","010","000","1","","","","","","",""
"","","","","","image-keyboard-response","207","562422","0.0-182.0","5ec34daa8236521a70e0a4d7","665500ab8938657b03fbdba8","6657740f4cdf8a17e2cbb7ee","439","stimuli/10100001.jpg"," ","","feedback_trial","1","","","","","","","","","","","","","","","","","","","","",""
"","","","","","image-keyboard-response","208","564526","0.0-183.0","5ec34daa8236521a70e0a4d7","665500ab8938657b03fbdba8","6657740f4cdf8a17e2cbb7ee","2103","stimuli/0111011.jpg","2","","prediction_trial","0","","false","","0","true","true","false","false","false","false","[2,1,0]","111","011","0","","","","","","",""
"","","","","","image-keyboard-response","209","564878","0.0-184.0","5ec34daa8236521a70e0a4d7","665500ab8938657b03fbdba8","6657740f4cdf8a17e2cbb7ee","352","stimuli/01110110.jpg"," ","","feedback_trial","2","","","","","","","","","","","","","","","","","","","","",""
"","","","","","image-keyboard-response","210","566014","0.0-185.0","5ec34daa8236521a70e0a4d7","665500ab8938657b03fbdba8","6657740f4cdf8a17e2cbb7ee","1135","stimuli/1011100.jpg","1","","prediction_trial","2","","false","","1","true","true","false","false","false","false","[1,2]","011","100","0","","","","","","",""
"","","","","","image-keyboard-response","211","566366","0.0-186.0","5ec34daa8236521a70e0a4d7","665500ab8938657b03fbdba8","6657740f4cdf8a17e2cbb7ee","351","stimuli/10111002.jpg"," ","","feedback_trial","1","","","","","","","","","","","","","","","","","","","","",""
"","","","","","image-keyboard-response","212","567014","0.0-187.0","5ec34daa8236521a70e0a4d7","665500ab8938657b03fbdba8","6657740f4cdf8a17e2cbb7ee","648","stimuli/1011010.jpg","1","","prediction_trial","1","","true","","1","false","true","false","false","false","false","[1,2]","011","010","1","","","","","","",""
"","","","","","image-keyboard-response","213","567398","0.0-188.0","5ec34daa8236521a70e0a4d7","665500ab8938657b03fbdba8","6657740f4cdf8a17e2cbb7ee","383","stimuli/10110101.jpg"," ","","feedback_trial","1","","","","","","","","","","","","","","","","","","","","",""
"","","","","","image-keyboard-response","214","568862","0.0-189.0","5ec34daa8236521a70e0a4d7","665500ab8938657b03fbdba8","6657740f4cdf8a17e2cbb7ee","1463","stimuli/2101010.jpg","2","","prediction_trial","0","","false","","2","true","true","false","false","false","false","[2,0]","101","010","0","","","","","","",""
"","","","","","image-keyboard-response","215","569199","0.0-190.0","5ec34daa8236521a70e0a4d7","665500ab8938657b03fbdba8","6657740f4cdf8a17e2cbb7ee","337","stimuli/21010100.jpg"," ","","feedback_trial","2","","","","","","","","","","","","","","","","","","","","",""
"","","","","","image-keyboard-response","216","569894","0.0-191.0","5ec34daa8236521a70e0a4d7","665500ab8938657b03fbdba8","6657740f4cdf8a17e2cbb7ee","693","stimuli/0010101.jpg","2","","prediction_trial","0","","false","","0","false","false","true","true","false","false","[0]","010","101","0","","","","","","",""
"","","","","","image-keyboard-response","217","570262","0.0-192.0","5ec34daa8236521a70e0a4d7","665500ab8938657b03fbdba8","6657740f4cdf8a17e2cbb7ee","367","stimuli/00101010.jpg"," ","","feedback_trial","0","","","","","","","","","","","","","","","","","","","","",""
"","","","","","image-keyboard-response","218","571046","0.0-193.0","5ec34daa8236521a70e0a4d7","665500ab8938657b03fbdba8","6657740f4cdf8a17e2cbb7ee","783","stimuli/1100001.jpg","2","","prediction_trial","1","","false","","1","true","true","true","true","true","true","[1]","100","001","0","","","","","","",""
"","","","","","image-keyboard-response","219","571726","0.0-194.0","5ec34daa8236521a70e0a4d7","665500ab8938657b03fbdba8","6657740f4cdf8a17e2cbb7ee","679","stimuli/11000011.jpg"," ","","feedback_trial","1","","","","","","","","","","","","","","","","","","","","",""
"","","","","","image-keyboard-response","220","572822","0.0-195.0","5ec34daa8236521a70e0a4d7","665500ab8938657b03fbdba8","6657740f4cdf8a17e2cbb7ee","1095","stimuli/0000001.jpg","0","","prediction_trial","0","","true","","0","true","true","true","true","true","true","[0]","000","001","1","","","","","","",""
"","","","","","image-keyboard-response","221","573063","0.0-196.0","5ec34daa8236521a70e0a4d7","665500ab8938657b03fbdba8","6657740f4cdf8a17e2cbb7ee","240","stimuli/00000010.jpg"," ","","feedback_trial","0","","","","","","","","","","","","","","","","","","","","",""
"","","","","","image-keyboard-response","222","574158","0.0-197.0","5ec34daa8236521a70e0a4d7","665500ab8938657b03fbdba8","6657740f4cdf8a17e2cbb7ee","1094","stimuli/0001110.jpg","0","","prediction_trial","0","","true","","0","false","false","true","true","false","false","[0]","001","110","1","","","","","","",""
"","","","","","image-keyboard-response","223","574486","0.0-198.0","5ec34daa8236521a70e0a4d7","665500ab8938657b03fbdba8","6657740f4cdf8a17e2cbb7ee","327","stimuli/00011100.jpg"," ","","feedback_trial","0","","","","","","","","","","","","","","","","","","","","",""
"","","","","","image-keyboard-response","224","575486","0.0-199.0","5ec34daa8236521a70e0a4d7","665500ab8938657b03fbdba8","6657740f4cdf8a17e2cbb7ee","999","stimuli/0000010.jpg","0","","prediction_trial","0","","true","","0","true","true","true","true","true","true","[0]","000","010","1","","","","","","",""
"","","","","","image-keyboard-response","225","575710","0.0-200.0","5ec34daa8236521a70e0a4d7","665500ab8938657b03fbdba8","6657740f4cdf8a17e2cbb7ee","223","stimuli/00000100.jpg"," ","","feedback_trial","0","","","","","","","","","","","","","","","","","","","","",""
"","","","","","image-keyboard-response","226","576398","0.0-201.0","5ec34daa8236521a70e0a4d7","665500ab8938657b03fbdba8","6657740f4cdf8a17e2cbb7ee","687","stimuli/2100110.jpg","2","","prediction_trial","2","","true","","2","true","true","true","true","true","true","[2]","100","110","1","","","","","","",""
"","","","","","image-keyboard-response","227","576670","0.0-202.0","5ec34daa8236521a70e0a4d7","665500ab8938657b03fbdba8","6657740f4cdf8a17e2cbb7ee","271","stimuli/21001102.jpg"," ","","feedback_trial","2","","","","","","","","","","","","","","","","","","","","",""
"","","","","","image-keyboard-response","228","577830","0.0-203.0","5ec34daa8236521a70e0a4d7","665500ab8938657b03fbdba8","6657740f4cdf8a17e2cbb7ee","1159","stimuli/2110101.jpg","2","","prediction_trial","2","","true","","2","false","false","true","true","false","false","[2]","110","101","1","","","","","","",""
"","","","","","image-keyboard-response","229","578126","0.0-204.0","5ec34daa8236521a70e0a4d7","665500ab8938657b03fbdba8","6657740f4cdf8a17e2cbb7ee","295","stimuli/21101012.jpg"," ","","feedback_trial","2","","","","","","","","","","","","","","","","","","","","",""
"","","","","","image-keyboard-response","230","579398","0.0-205.0","5ec34daa8236521a70e0a4d7","665500ab8938657b03fbdba8","6657740f4cdf8a17e2cbb7ee","1271","stimuli/0110100.jpg","0","","prediction_trial","1","","false","","0","false","true","false","false","false","false","[1,0]","110","100","0","","","","","","",""
"","","","","","image-keyboard-response","231","579621","0.0-206.0","5ec34daa8236521a70e0a4d7","665500ab8938657b03fbdba8","6657740f4cdf8a17e2cbb7ee","223","stimuli/01101001.jpg"," ","","feedback_trial","1","","","","","","","","","","","","","","","","","","","","",""
"","","","","","image-keyboard-response","232","580430","0.0-207.0","5ec34daa8236521a70e0a4d7","665500ab8938657b03fbdba8","6657740f4cdf8a17e2cbb7ee","808","stimuli/2011111.jpg","1","","prediction_trial","1","","true","","2","false","false","false","false","false","false","[1,2]","011","111","1","","","","","","",""
"","","","","","image-keyboard-response","233","580693","0.0-208.0","5ec34daa8236521a70e0a4d7","665500ab8938657b03fbdba8","6657740f4cdf8a17e2cbb7ee","263","stimuli/20111111.jpg"," ","","feedback_trial","1","","","","","","","","","","","","","","","","","","","","",""
"","","","","","image-keyboard-response","234","581374","0.0-209.0","5ec34daa8236521a70e0a4d7","665500ab8938657b03fbdba8","6657740f4cdf8a17e2cbb7ee","680","stimuli/0010011.jpg","0","","prediction_trial","0","","true","","0","true","true","true","true","true","true","[0]","010","011","1","","","","","","",""
"","","","","","image-keyboard-response","235","581613","0.0-210.0","5ec34daa8236521a70e0a4d7","665500ab8938657b03fbdba8","6657740f4cdf8a17e2cbb7ee","239","stimuli/00100110.jpg"," ","","feedback_trial","0","","","","","","","","","","","","","","","","","","","","",""
"","","","","","image-keyboard-response","236","582374","0.0-211.0","5ec34daa8236521a70e0a4d7","665500ab8938657b03fbdba8","6657740f4cdf8a17e2cbb7ee","759","stimuli/2010001.jpg","2","","prediction_trial","2","","true","","2","false","true","true","true","false","true","[2]","010","001","1","","","","","","",""
"","","","","","image-keyboard-response","237","582686","0.0-212.0","5ec34daa8236521a70e0a4d7","665500ab8938657b03fbdba8","6657740f4cdf8a17e2cbb7ee","312","stimuli/20100012.jpg"," ","","feedback_trial","2","","","","","","","","","","","","","","","","","","","","",""
"","","","","","image-keyboard-response","238","583701","0.0-213.0","5ec34daa8236521a70e0a4d7","665500ab8938657b03fbdba8","6657740f4cdf8a17e2cbb7ee","1015","stimuli/1100011.jpg","1","","prediction_trial","1","","true","","1","false","false","true","true","false","false","[1]","100","011","1","","","","","","",""
"","","","","","image-keyboard-response","239","584046","0.0-214.0","5ec34daa8236521a70e0a4d7","665500ab8938657b03fbdba8","6657740f4cdf8a17e2cbb7ee","344","stimuli/11000111.jpg"," ","","feedback_trial","1","","","","","","","","","","","","","","","","","","","","",""
"","","","","","image-keyboard-response","240","584958","0.0-215.0","5ec34daa8236521a70e0a4d7","665500ab8938657b03fbdba8","6657740f4cdf8a17e2cbb7ee","911","stimuli/1100101.jpg","1","","prediction_trial","1","","true","","1","true","true","true","true","true","true","[1]","100","101","1","","","","","","",""
"","","","","","image-keyboard-response","241","585182","0.0-216.0","5ec34daa8236521a70e0a4d7","665500ab8938657b03fbdba8","6657740f4cdf8a17e2cbb7ee","223","stimuli/11001011.jpg"," ","","feedback_trial","1","","","","","","","","","","","","","","","","","","","","",""
"","","","","","image-keyboard-response","242","586462","0.0-217.0","5ec34daa8236521a70e0a4d7","665500ab8938657b03fbdba8","6657740f4cdf8a17e2cbb7ee","1279","stimuli/0000101.jpg","2","","prediction_trial","0","","false","","0","false","false","true","true","false","false","[0]","000","101","0","","","","","","",""
"","","","","","image-keyboard-response","243","587318","0.0-218.0","5ec34daa8236521a70e0a4d7","665500ab8938657b03fbdba8","6657740f4cdf8a17e2cbb7ee","855","stimuli/00001010.jpg"," ","","feedback_trial","0","","","","","","","","","","","","","","","","","","","","",""
"","","","","","image-keyboard-response","244","587933","0.0-219.0","5ec34daa8236521a70e0a4d7","665500ab8938657b03fbdba8","6657740f4cdf8a17e2cbb7ee","615","stimuli/2101100.jpg","2","","prediction_trial","0","","false","","2","true","true","false","false","false","false","[2,0]","101","100","0","","","","","","",""
"","","","","","image-keyboard-response","245","588245","0.0-220.0","5ec34daa8236521a70e0a4d7","665500ab8938657b03fbdba8","6657740f4cdf8a17e2cbb7ee","311","stimuli/21011000.jpg"," ","","feedback_trial","2","","","","","","","","","","","","","","","","","","","","",""
"","","","","","image-keyboard-response","246","589493","0.0-221.0","5ec34daa8236521a70e0a4d7","665500ab8938657b03fbdba8","6657740f4cdf8a17e2cbb7ee","1247","stimuli/2110111.jpg","0","","prediction_trial","2","","false","","2","false","false","true","true","false","false","[2]","110","111","0","","","","","","",""
"","","","","","image-keyboard-response","247","590350","0.0-222.0","5ec34daa8236521a70e0a4d7","665500ab8938657b03fbdba8","6657740f4cdf8a17e2cbb7ee","856","stimuli/21101112.jpg"," ","","feedback_trial","2","","","","","","","","","","","","","","","","","","","","",""
"","","","","","image-keyboard-response","248","591534","0.0-223.0","5ec34daa8236521a70e0a4d7","665500ab8938657b03fbdba8","6657740f4cdf8a17e2cbb7ee","1183","stimuli/0110111.jpg","1","","prediction_trial","0","","false","","0","false","false","false","false","false","false","[0,1]","110","111","0","","","","","","",""
"","","","","","image-keyboard-response","249","591846","0.0-224.0","5ec34daa8236521a70e0a4d7","665500ab8938657b03fbdba8","6657740f4cdf8a17e2cbb7ee","311","stimuli/01101110.jpg"," ","","feedback_trial","0","","","","","","","","","","","","","","","","","","","","",""
"","","","","","image-keyboard-response","250","592949","0.0-225.0","5ec34daa8236521a70e0a4d7","665500ab8938657b03fbdba8","6657740f4cdf8a17e2cbb7ee","1103","stimuli/2000111.jpg","1","","prediction_trial","2","","false","","2","false","false","true","true","false","false","[2]","000","111","0","","","","","","",""
"","","","","","image-keyboard-response","251","593205","0.0-226.0","5ec34daa8236521a70e0a4d7","665500ab8938657b03fbdba8","6657740f4cdf8a17e2cbb7ee","256","stimuli/20001112.jpg"," ","","feedback_trial","2","","","","","","","","","","","","","","","","","","","","",""
"","","","","","image-keyboard-response","252","595989","0.0-227.0","5ec34daa8236521a70e0a4d7","665500ab8938657b03fbdba8","6657740f4cdf8a17e2cbb7ee","2783","stimuli/0100110.jpg","0","","prediction_trial","0","","true","","0","false","false","false","true","false","false","[0]","100","110","1","","","","","","",""
"","","","","","image-keyboard-response","253","596301","0.0-228.0","5ec34daa8236521a70e0a4d7","665500ab8938657b03fbdba8","6657740f4cdf8a17e2cbb7ee","311","stimuli/01001100.jpg"," ","","feedback_trial","0","","","","","","","","","","","","","","","","","","","","",""
"","","","","","image-keyboard-response","254","597894","0.0-229.0","5ec34daa8236521a70e0a4d7","665500ab8938657b03fbdba8","6657740f4cdf8a17e2cbb7ee","1591","stimuli/1100010.jpg","1","","prediction_trial","1","","true","","1","false","true","true","true","false","true","[1]","100","010","1","","","","","","",""
"","","","","","image-keyboard-response","255","598261","0.0-230.0","5ec34daa8236521a70e0a4d7","665500ab8938657b03fbdba8","6657740f4cdf8a17e2cbb7ee","367","stimuli/11000101.jpg"," ","","feedback_trial","1","","","","","","","","","","","","","","","","","","","","",""
"","","","","","image-keyboard-response","256","599382","0.0-231.0","5ec34daa8236521a70e0a4d7","665500ab8938657b03fbdba8","6657740f4cdf8a17e2cbb7ee","1120","stimuli/1111101.jpg","0","","prediction_trial","2","","false","","1","true","true","false","false","false","false","[0,1,2]","111","101","0","","","","","","",""
"","","","","","image-keyboard-response","257","599686","0.0-232.0","5ec34daa8236521a70e0a4d7","665500ab8938657b03fbdba8","6657740f4cdf8a17e2cbb7ee","303","stimuli/11111012.jpg"," ","","feedback_trial","0","","","","","","","","","","","","","","","","","","","","",""
"","","","","","image-keyboard-response","258","600741","0.0-233.0","5ec34daa8236521a70e0a4d7","665500ab8938657b03fbdba8","6657740f4cdf8a17e2cbb7ee","1055","stimuli/2111010.jpg","0","","prediction_trial","2","","false","","2","true","true","false","false","false","false","[2,1,0]","111","010","0","","","","","","",""
"","","","","","image-keyboard-response","259","601029","0.0-234.0","5ec34daa8236521a70e0a4d7","665500ab8938657b03fbdba8","6657740f4cdf8a17e2cbb7ee","288","stimuli/21110102.jpg"," ","","feedback_trial","2","","","","","","","","","","","","","","","","","","","","",""
"","","","","","image-keyboard-response","260","602166","0.0-235.0","5ec34daa8236521a70e0a4d7","665500ab8938657b03fbdba8","6657740f4cdf8a17e2cbb7ee","1136","stimuli/2000010.jpg","2","","prediction_trial","2","","true","","2","true","true","true","true","true","true","[2]","000","010","1","","","","","","",""
"","","","","","image-keyboard-response","261","602469","0.0-236.0","5ec34daa8236521a70e0a4d7","665500ab8938657b03fbdba8","6657740f4cdf8a17e2cbb7ee","303","stimuli/20000102.jpg"," ","","feedback_trial","2","","","","","","","","","","","","","","","","","","","","",""
"","","","","","image-keyboard-response","262","603349","0.0-237.0","5ec34daa8236521a70e0a4d7","665500ab8938657b03fbdba8","6657740f4cdf8a17e2cbb7ee","879","stimuli/1011111.jpg","0","","prediction_trial","2","","false","","1","false","false","false","false","false","false","[2,1]","011","111","0","","","","","","",""
"","","","","","image-keyboard-response","263","603623","0.0-238.0","5ec34daa8236521a70e0a4d7","665500ab8938657b03fbdba8","6657740f4cdf8a17e2cbb7ee","272","stimuli/10111112.jpg"," ","","feedback_trial","2","","","","","","","","","","","","","","","","","","","","",""
"","","","","","image-keyboard-response","264","604597","0.0-239.0","5ec34daa8236521a70e0a4d7","665500ab8938657b03fbdba8","6657740f4cdf8a17e2cbb7ee","973","stimuli/0111111.jpg","2","","prediction_trial","1","","false","","0","false","false","false","false","false","false","[0,1,2]","111","111","0","","","","","","",""
"","","","","","image-keyboard-response","265","604958","0.0-240.0","5ec34daa8236521a70e0a4d7","665500ab8938657b03fbdba8","6657740f4cdf8a17e2cbb7ee","360","stimuli/01111111.jpg"," ","","feedback_trial","0","","","","","","","","","","","","","","","","","","","","",""
"","","","","","image-keyboard-response","266","605798","0.0-241.0","5ec34daa8236521a70e0a4d7","665500ab8938657b03fbdba8","6657740f4cdf8a17e2cbb7ee","839","stimuli/1000110.jpg","1","","prediction_trial","1","","true","","1","false","false","true","true","false","false","[1]","000","110","1","","","","","","",""
"","","","","","image-keyboard-response","267","606094","0.0-242.0","5ec34daa8236521a70e0a4d7","665500ab8938657b03fbdba8","6657740f4cdf8a17e2cbb7ee","295","stimuli/10001101.jpg"," ","","feedback_trial","1","","","","","","","","","","","","","","","","","","","","",""
"","","","","","image-keyboard-response","268","607077","0.0-243.0","5ec34daa8236521a70e0a4d7","665500ab8938657b03fbdba8","6657740f4cdf8a17e2cbb7ee","983","stimuli/1011110.jpg","1","","prediction_trial","1","","true","","1","false","false","false","false","false","false","[2,1]","011","110","1","","","","","","",""
"","","","","","image-keyboard-response","269","607349","0.0-244.0","5ec34daa8236521a70e0a4d7","665500ab8938657b03fbdba8","6657740f4cdf8a17e2cbb7ee","271","stimuli/10111101.jpg"," ","","feedback_trial","2","","","","","","","","","","","","","","","","","","","","",""
"","","","","","image-keyboard-response","270","608022","0.0-245.0","5ec34daa8236521a70e0a4d7","665500ab8938657b03fbdba8","6657740f4cdf8a17e2cbb7ee","672","stimuli/1000100.jpg","1","","prediction_trial","1","","true","","1","true","true","true","true","true","true","[1]","000","100","1","","","","","","",""
"","","","","","image-keyboard-response","271","608277","0.0-246.0","5ec34daa8236521a70e0a4d7","665500ab8938657b03fbdba8","6657740f4cdf8a17e2cbb7ee","255","stimuli/10001001.jpg"," ","","feedback_trial","1","","","","","","","","","","","","","","","","","","","","",""
"","","","","","image-keyboard-response","272","609366","0.0-247.0","5ec34daa8236521a70e0a4d7","665500ab8938657b03fbdba8","6657740f4cdf8a17e2cbb7ee","1088","stimuli/0100001.jpg","0","","prediction_trial","0","","true","","0","true","true","false","true","false","true","[0]","100","001","1","","","","","","",""
"","","","","","image-keyboard-response","273","609629","0.0-248.0","5ec34daa8236521a70e0a4d7","665500ab8938657b03fbdba8","6657740f4cdf8a17e2cbb7ee","263","stimuli/01000010.jpg"," ","","feedback_trial","0","","","","","","","","","","","","","","","","","","","","",""
"","","","","","image-keyboard-response","274","610509","0.0-249.0","5ec34daa8236521a70e0a4d7","665500ab8938657b03fbdba8","6657740f4cdf8a17e2cbb7ee","879","stimuli/1001011.jpg","2","","prediction_trial","1","","false","","1","false","false","true","true","false","false","[1]","001","011","0","","","","","","",""
"","","","","","image-keyboard-response","275","610829","0.0-250.0","5ec34daa8236521a70e0a4d7","665500ab8938657b03fbdba8","6657740f4cdf8a17e2cbb7ee","319","stimuli/10010111.jpg"," ","","feedback_trial","1","","","","","","","","","","","","","","","","","","","","",""
"","","","","","image-keyboard-response","276","611733","0.0-251.0","5ec34daa8236521a70e0a4d7","665500ab8938657b03fbdba8","6657740f4cdf8a17e2cbb7ee","903","stimuli/2100011.jpg","1","","prediction_trial","2","","false","","2","false","false","true","true","false","false","[2]","100","011","0","","","","","","",""
"","","","","","image-keyboard-response","277","612038","0.0-252.0","5ec34daa8236521a70e0a4d7","665500ab8938657b03fbdba8","6657740f4cdf8a17e2cbb7ee","304","stimuli/21000112.jpg"," ","","feedback_trial","2","","","","","","","","","","","","","","","","","","","","",""
"","","","","","image-keyboard-response","278","612966","0.0-253.0","5ec34daa8236521a70e0a4d7","665500ab8938657b03fbdba8","6657740f4cdf8a17e2cbb7ee","928","stimuli/2001001.jpg","2","","prediction_trial","2","","true","","2","false","true","false","true","false","true","[2]","001","001","1","","","","","","",""
"","","","","","image-keyboard-response","279","613237","0.0-254.0","5ec34daa8236521a70e0a4d7","665500ab8938657b03fbdba8","6657740f4cdf8a17e2cbb7ee","271","stimuli/20010012.jpg"," ","","feedback_trial","2","","","","","","","","","","","","","","","","","","","","",""
"","","","","","image-keyboard-response","280","614070","0.0-255.0","5ec34daa8236521a70e0a4d7","665500ab8938657b03fbdba8","6657740f4cdf8a17e2cbb7ee","832","stimuli/1101101.jpg","1","","prediction_trial","1","","true","","1","true","true","true","true","true","true","[1]","101","101","1","","","","","","",""
"","","","","","image-keyboard-response","281","614325","0.0-256.0","5ec34daa8236521a70e0a4d7","665500ab8938657b03fbdba8","6657740f4cdf8a17e2cbb7ee","255","stimuli/11011011.jpg"," ","","feedback_trial","1","","","","","","","","","","","","","","","","","","","","",""
"","","","","","image-keyboard-response","282","615541","0.0-257.0","5ec34daa8236521a70e0a4d7","665500ab8938657b03fbdba8","6657740f4cdf8a17e2cbb7ee","1215","stimuli/2111110.jpg","0","","prediction_trial","2","","false","","2","true","true","false","false","false","false","[0,1,2]","111","110","0","","","","","","",""
"","","","","","image-keyboard-response","283","615781","0.0-258.0","5ec34daa8236521a70e0a4d7","665500ab8938657b03fbdba8","6657740f4cdf8a17e2cbb7ee","239","stimuli/21111102.jpg"," ","","feedback_trial","0","","","","","","","","","","","","","","","","","","","","",""
"","","","","","image-keyboard-response","284","616806","0.0-259.0","5ec34daa8236521a70e0a4d7","665500ab8938657b03fbdba8","6657740f4cdf8a17e2cbb7ee","1024","stimuli/2000011.jpg","1","","prediction_trial","2","","false","","2","false","false","true","true","false","false","[2]","000","011","0","","","","","","",""
"","","","","","image-keyboard-response","285","617405","0.0-260.0","5ec34daa8236521a70e0a4d7","665500ab8938657b03fbdba8","6657740f4cdf8a17e2cbb7ee","599","stimuli/20000112.jpg"," ","","feedback_trial","2","","","","","","","","","","","","","","","","","","","","",""
"","","","","","image-keyboard-response","286","618214","0.0-261.0","5ec34daa8236521a70e0a4d7","665500ab8938657b03fbdba8","6657740f4cdf8a17e2cbb7ee","808","stimuli/2101101.jpg","0","","prediction_trial","2","","false","","2","false","false","false","false","false","false","[2,0]","101","101","0","","","","","","",""
"","","","","","image-keyboard-response","287","618781","0.0-262.0","5ec34daa8236521a70e0a4d7","665500ab8938657b03fbdba8","6657740f4cdf8a17e2cbb7ee","567","stimuli/21011012.jpg"," ","","feedback_trial","2","","","","","","","","","","","","","","","","","","","","",""
"","","","","","image-keyboard-response","288","619405","0.0-263.0","5ec34daa8236521a70e0a4d7","665500ab8938657b03fbdba8","6657740f4cdf8a17e2cbb7ee","623","stimuli/0000110.jpg","0","","prediction_trial","0","","true","","0","false","false","true","true","false","false","[0]","000","110","1","","","","","","",""
"","","","","","image-keyboard-response","289","619718","0.0-264.0","5ec34daa8236521a70e0a4d7","665500ab8938657b03fbdba8","6657740f4cdf8a17e2cbb7ee","311","stimuli/00001100.jpg"," ","","feedback_trial","0","","","","","","","","","","","","","","","","","","","","",""
"","","","","","image-keyboard-response","290","620893","0.0-265.0","5ec34daa8236521a70e0a4d7","665500ab8938657b03fbdba8","6657740f4cdf8a17e2cbb7ee","1175","stimuli/2111011.jpg","1","","prediction_trial","0","","false","","2","false","false","false","false","false","false","[1,2,0]","111","011","0","","","","","","",""
"","","","","","image-keyboard-response","291","621189","0.0-266.0","5ec34daa8236521a70e0a4d7","665500ab8938657b03fbdba8","6657740f4cdf8a17e2cbb7ee","295","stimuli/21110110.jpg"," ","","feedback_trial","1","","","","","","","","","","","","","","","","","","","","",""
"","","","","","image-keyboard-response","292","622213","0.0-267.0","5ec34daa8236521a70e0a4d7","665500ab8938657b03fbdba8","6657740f4cdf8a17e2cbb7ee","1024","stimuli/0111100.jpg","2","","prediction_trial","0","","false","","0","false","true","false","false","false","false","[2,1,0]","111","100","0","","","","","","",""
"","","","","","image-keyboard-response","293","622573","0.0-268.0","5ec34daa8236521a70e0a4d7","665500ab8938657b03fbdba8","6657740f4cdf8a17e2cbb7ee","359","stimuli/01111000.jpg"," ","","feedback_trial","2","","","","","","","","","","","","","","","","","","","","",""
"","","","","","image-keyboard-response","294","623278","0.0-269.0","5ec34daa8236521a70e0a4d7","665500ab8938657b03fbdba8","6657740f4cdf8a17e2cbb7ee","704","stimuli/1111001.jpg","1","","prediction_trial","1","","true","","1","true","true","false","false","false","false","[0,1,2]","111","001","1","","","","","","",""
"","","","","","image-keyboard-response","295","623550","0.0-270.0","5ec34daa8236521a70e0a4d7","665500ab8938657b03fbdba8","6657740f4cdf8a17e2cbb7ee","271","stimuli/11110011.jpg"," ","","feedback_trial","0","","","","","","","","","","","","","","","","","","","","",""
"","","","","","image-keyboard-response","296","624325","0.0-271.0","5ec34daa8236521a70e0a4d7","665500ab8938657b03fbdba8","6657740f4cdf8a17e2cbb7ee","775","stimuli/0001010.jpg","0","","prediction_trial","0","","true","","0","true","true","true","true","true","true","[0]","001","010","1","","","","","","",""
"","","","","","image-keyboard-response","297","624574","0.0-272.0","5ec34daa8236521a70e0a4d7","665500ab8938657b03fbdba8","6657740f4cdf8a17e2cbb7ee","248","stimuli/00010100.jpg"," ","","feedback_trial","0","","","","","","","","","","","","","","","","","","","","",""
"","","","","","image-keyboard-response","298","625077","0.0-273.0","5ec34daa8236521a70e0a4d7","665500ab8938657b03fbdba8","6657740f4cdf8a17e2cbb7ee","503","stimuli/0101011.jpg","0","","prediction_trial","0","","true","","0","true","true","false","false","false","false","[2,0]","101","011","1","","","","","","",""
"","","","","","image-keyboard-response","299","625349","0.0-274.0","5ec34daa8236521a70e0a4d7","665500ab8938657b03fbdba8","6657740f4cdf8a17e2cbb7ee","272","stimuli/01010110.jpg"," ","","feedback_trial","2","","","","","","","","","","","","","","","","","","","","",""
"","","","","","image-keyboard-response","300","626062","0.0-275.0","5ec34daa8236521a70e0a4d7","665500ab8938657b03fbdba8","6657740f4cdf8a17e2cbb7ee","712","stimuli/2011000.jpg","2","","prediction_trial","2","","true","","2","true","true","false","false","false","false","[1,2]","011","000","1","","","","","","",""
"","","","","","image-keyboard-response","301","626405","0.0-276.0","5ec34daa8236521a70e0a4d7","665500ab8938657b03fbdba8","6657740f4cdf8a17e2cbb7ee","343","stimuli/20110002.jpg"," ","","feedback_trial","1","","","","","","","","","","","","","","","","","","","","",""
"","","","","","image-keyboard-response","302","627245","0.0-277.0","5ec34daa8236521a70e0a4d7","665500ab8938657b03fbdba8","6657740f4cdf8a17e2cbb7ee","839","stimuli/0010110.jpg","1","","prediction_trial","0","","false","","0","false","false","true","true","false","false","[0]","010","110","0","","","","","","",""
"","","","","","image-keyboard-response","303","627517","0.0-278.0","5ec34daa8236521a70e0a4d7","665500ab8938657b03fbdba8","6657740f4cdf8a17e2cbb7ee","271","stimuli/00101100.jpg"," ","","feedback_trial","0","","","","","","","","","","","","","","","","","","","","",""
"","","","","","image-keyboard-response","304","628277","0.0-279.0","5ec34daa8236521a70e0a4d7","665500ab8938657b03fbdba8","6657740f4cdf8a17e2cbb7ee","760","stimuli/1101001.jpg","1","","prediction_trial","1","","true","","1","true","true","true","true","true","true","[1]","101","001","1","","","","","","",""
"","","","","","image-keyboard-response","305","628533","0.0-280.0","5ec34daa8236521a70e0a4d7","665500ab8938657b03fbdba8","6657740f4cdf8a17e2cbb7ee","256","stimuli/11010011.jpg"," ","","feedback_trial","1","","","","","","","","","","","","","","","","","","","","",""
"","","","","","image-keyboard-response","306","631838","0.0-281.0","5ec34daa8236521a70e0a4d7","665500ab8938657b03fbdba8","6657740f4cdf8a17e2cbb7ee","3303","stimuli/0101100.jpg","0","","prediction_trial","2","","false","","0","false","true","false","false","false","false","[2,0]","101","100","0","","","","","","",""
"","","","","","image-keyboard-response","307","632174","0.0-282.0","5ec34daa8236521a70e0a4d7","665500ab8938657b03fbdba8","6657740f4cdf8a17e2cbb7ee","336","stimuli/01011002.jpg"," ","","feedback_trial","2","","","","","","","","","","","","","","","","","","","","",""
"","","","","","image-keyboard-response","308","633078","0.0-283.0","5ec34daa8236521a70e0a4d7","665500ab8938657b03fbdba8","6657740f4cdf8a17e2cbb7ee","903","stimuli/1110010.jpg","1","","prediction_trial","1","","true","","1","false","true","false","false","false","false","[0,1]","110","010","1","","","","","","",""
"","","","","","image-keyboard-response","309","633390","0.0-284.0","5ec34daa8236521a70e0a4d7","665500ab8938657b03fbdba8","6657740f4cdf8a17e2cbb7ee","312","stimuli/11100101.jpg"," ","","feedback_trial","0","","","","","","","","","","","","","","","","","","","","",""
"","","","","","image-keyboard-response","310","634350","0.0-285.0","5ec34daa8236521a70e0a4d7","665500ab8938657b03fbdba8","6657740f4cdf8a17e2cbb7ee","959","stimuli/1001101.jpg","1","","prediction_trial","1","","true","","1","true","true","true","true","true","true","[1]","001","101","1","","","","","","",""
"","","","","","image-keyboard-response","311","634606","0.0-286.0","5ec34daa8236521a70e0a4d7","665500ab8938657b03fbdba8","6657740f4cdf8a17e2cbb7ee","255","stimuli/10011011.jpg"," ","","feedback_trial","1","","","","","","","","","","","","","","","","","","","","",""
"","","","","","image-keyboard-response","312","635438","0.0-287.0","5ec34daa8236521a70e0a4d7","665500ab8938657b03fbdba8","6657740f4cdf8a17e2cbb7ee","831","stimuli/1101011.jpg","1","","prediction_trial","1","","true","","1","false","false","true","true","false","false","[1]","101","011","1","","","","","","",""
"","","","","","image-keyboard-response","313","635798","0.0-288.0","5ec34daa8236521a70e0a4d7","665500ab8938657b03fbdba8","6657740f4cdf8a17e2cbb7ee","359","stimuli/11010111.jpg"," ","","feedback_trial","1","","","","","","","","","","","","","","","","","","","","",""
"","","","","","image-keyboard-response","314","636518","0.0-289.0","5ec34daa8236521a70e0a4d7","665500ab8938657b03fbdba8","6657740f4cdf8a17e2cbb7ee","720","stimuli/0011000.jpg","0","","prediction_trial","0","","true","","0","true","true","true","true","true","true","[0]","011","000","1","","","","","","",""
"","","","","","image-keyboard-response","315","636758","0.0-290.0","5ec34daa8236521a70e0a4d7","665500ab8938657b03fbdba8","6657740f4cdf8a17e2cbb7ee","239","stimuli/00110000.jpg"," ","","feedback_trial","0","","","","","","","","","","","","","","","","","","","","",""
"","","","","","image-keyboard-response","316","637646","0.0-291.0","5ec34daa8236521a70e0a4d7","665500ab8938657b03fbdba8","6657740f4cdf8a17e2cbb7ee","887","stimuli/2110100.jpg","2","","prediction_trial","2","","true","","2","true","true","true","true","true","true","[2]","110","100","1","","","","","","",""
"","","","","","image-keyboard-response","317","637926","0.0-292.0","5ec34daa8236521a70e0a4d7","665500ab8938657b03fbdba8","6657740f4cdf8a17e2cbb7ee","279","stimuli/21101002.jpg"," ","","feedback_trial","2","","","","","","","","","","","","","","","","","","","","",""
"","","","","","survey-html-form","318","650771","0.0-293.0","5ec34daa8236521a70e0a4d7","665500ab8938657b03fbdba8","6657740f4cdf8a17e2cbb7ee","12844","","{""feedback"":"""",""age"":""31"",""gender"":""Female"",""other_gender"":"""",""race"":""Black/African American"",""other_race"":"""",""ethnicity"":""Non-Hispanic""}","","exit_survey","","","","","","","","","","","","","","","","","31","Non-Hispanic","Female","Black/African American","0.5902777777777778","0.5902777777777778"
