"success","timeout","failed_images","failed_audio","failed_video","trial_type","trial_index","time_elapsed","internal_node_id","prolific_id","prolific_study_id","prolific_session_id","rt","stimulus","response","view_history","trial","character_choice","stimulus_dict","accuracy","correct_response","ball_pos","ego_ball_visible","ego_can_infer","alter_ball_visible","alter_can_infer","collective_ball_visible","collective_can_infer","search_locations","alter_occluders","ego_occluders","accuracy_bool","feedback","age","ethnicity","gender","race","overall_accuracy","bonus"
"true","false","[]","[]","[]","preload","0","973","0.0-0.0","5d0e6b201b7ef6001a6346fc","665500ab8938657b03fbdba8","6657929076ac1e0591ba762e","","","","","","","","","","","","","","","","","","","","","","","","","","",""
"true","","","","","fullscreen","1","27791","0.0-1.0","5d0e6b201b7ef6001a6346fc","665500ab8938657b03fbdba8","6657929076ac1e0591ba762e","","","","","","","","","","","","","","","","","","","","","","","","","","",""
"","","","","","html-button-response","2","33391","0.0-2.0","5d0e6b201b7ef6001a6346fc","665500ab8938657b03fbdba8","6657929076ac1e0591ba762e","5598","<p><b>Consent Form</b></p> <div style=""text-align:left;background-color:lightgrey; padding:20px; max-width:900px;""><p>Please consider this information carefully before deciding whether to participate in this research.</p> <p>The purpose of this research is to examine which factors influence social judgment and decision-making. You will be asked to make judgements about individuals and actions in social scenarios. We are simply interested in your judgement. The study will take less than 1 hour to complete, and you will receive less than $20 on Prolific. Your compensation and time commitment are specified in the study description. There are no anticipated risks associated with participating in this study. The effects of participating should be comparable to those you would ordinarily experience from viewing a computer monitor and using a mouse or keyboard for a similar amount of time. At the end of the study, we will provide an explanation of the questions that motivate this line of research and will describe the potential implications. </p><p> Your participation in this study is completely voluntary and you may refuse to participate or you may choose to withdraw at any time without penalty or loss of benefits to you which are otherwise entitled. Your participation in this study will remain confidential. No personally identifiable information will be associated with your data. Also, all analyses of the data will be averaged across all the participants, so your individual responses will never be specifically analyzed. </p><p> If you have questions or concerns about your participation or payment, or want to request a summary of research findings, please contact Dr. Jonathan Phillips at Jonathan.S.Phillips@dartmouth.edu. </p><p> Please save a copy of this form for your records. </p><p><b>Agreement: </b>The nature and purpose of this research have been sufficiently explained and I agree to participate in this study. I understand that I am free to withdraw at any time without incurring any penalty. Please consent by clicking the button below to continue. Otherwise, please exit the study at any time. </p>","0","","","","","","","","","","","","","","","","","","","","","","","",""
"","","","","","instructions","3","178757","0.0-3.0-0.0","5d0e6b201b7ef6001a6346fc","665500ab8938657b03fbdba8","6657929076ac1e0591ba762e","145363","","","[{""page_index"":0,""viewing_time"":2829},{""page_index"":1,""viewing_time"":1671},{""page_index"":2,""viewing_time"":776},{""page_index"":3,""viewing_time"":114055},{""page_index"":4,""viewing_time"":1242},{""page_index"":5,""viewing_time"":1287},{""page_index"":6,""viewing_time"":2422},{""page_index"":7,""viewing_time"":1437},{""page_index"":8,""viewing_time"":1312},{""page_index"":9,""viewing_time"":1160},{""page_index"":10,""viewing_time"":7623},{""page_index"":11,""viewing_time"":3569},{""page_index"":12,""viewing_time"":5077},{""page_index"":13,""viewing_time"":903}]","intro","","","","","","","","","","","","","","","","","","","","","",""
"","","","","","image-keyboard-response","4","184667","0.0-3.0-1.0","5d0e6b201b7ef6001a6346fc","665500ab8938657b03fbdba8","6657929076ac1e0591ba762e","5893","stimuli/0010110.jpg","1","","prediction_practice","0","{""filepath"":""stimuli/0010110.jpg"",""ball_pos"":0,""ego_ball_visible"":false,""ego_can_infer"":false,""alter_ball_visible"":true,""alter_can_infer"":true,""collective_ball_visible"":false,""collective_can_infer"":false,""search_locations"":[0],""alter_occluders"":""010"",""ego_occluders"":""110""}","false","","","","","","","","","","","","","","","","","","",""
"","","","","","image-keyboard-response","5","186867","0.0-3.0-2.0","5d0e6b201b7ef6001a6346fc","665500ab8938657b03fbdba8","6657929076ac1e0591ba762e","2198","stimuli/00101100.jpg"," ","","practrice_feedback","0","","","","","","","","","","","","","","","","","","","","",""
"","","","","","image-keyboard-response","6","188987","0.0-3.0-3.0","5d0e6b201b7ef6001a6346fc","665500ab8938657b03fbdba8","6657929076ac1e0591ba762e","2118","stimuli/0010001.jpg","0","","prediction_practice","0","{""filepath"":""stimuli/0010001.jpg"",""ball_pos"":0,""ego_ball_visible"":true,""ego_can_infer"":true,""alter_ball_visible"":true,""alter_can_infer"":true,""collective_ball_visible"":true,""collective_can_infer"":true,""search_locations"":[0],""alter_occluders"":""010"",""ego_occluders"":""001""}","true","","","","","","","","","","","","","","","","","","",""
"","","","","","image-keyboard-response","7","190041","0.0-3.0-4.0","5d0e6b201b7ef6001a6346fc","665500ab8938657b03fbdba8","6657929076ac1e0591ba762e","1053","stimuli/00100010.jpg"," ","","practrice_feedback","0","","","","","","","","","","","","","","","","","","","","",""
"","","","","","image-keyboard-response","8","192640","0.0-3.0-5.0","5d0e6b201b7ef6001a6346fc","665500ab8938657b03fbdba8","6657929076ac1e0591ba762e","2597","stimuli/2001010.jpg","2","","prediction_practice","2","{""filepath"":""stimuli/2001010.jpg"",""ball_pos"":2,""ego_ball_visible"":true,""ego_can_infer"":true,""alter_ball_visible"":false,""alter_can_infer"":true,""collective_ball_visible"":false,""collective_can_infer"":true,""search_locations"":[2],""alter_occluders"":""001"",""ego_occluders"":""010""}","true","","","","","","","","","","","","","","","","","","",""
"","","","","","image-keyboard-response","9","193918","0.0-3.0-6.0","5d0e6b201b7ef6001a6346fc","665500ab8938657b03fbdba8","6657929076ac1e0591ba762e","1276","stimuli/20010102.jpg"," ","","practrice_feedback","2","","","","","","","","","","","","","","","","","","","","",""
"","","","","","image-keyboard-response","10","196117","0.0-3.0-7.0","5d0e6b201b7ef6001a6346fc","665500ab8938657b03fbdba8","6657929076ac1e0591ba762e","2198","stimuli/1101100.jpg","1","","prediction_practice","1","{""filepath"":""stimuli/1101100.jpg"",""ball_pos"":1,""ego_ball_visible"":true,""ego_can_infer"":true,""alter_ball_visible"":true,""alter_can_infer"":true,""collective_ball_visible"":true,""collective_can_infer"":true,""search_locations"":[1],""alter_occluders"":""101"",""ego_occluders"":""100""}","true","","","","","","","","","","","","","","","","","","",""
"","","","","","image-keyboard-response","11","197434","0.0-3.0-8.0","5d0e6b201b7ef6001a6346fc","665500ab8938657b03fbdba8","6657929076ac1e0591ba762e","1316","stimuli/11011001.jpg"," ","","practrice_feedback","1","","","","","","","","","","","","","","","","","","","","",""
"","","","","","image-keyboard-response","12","198221","0.0-3.0-9.0","5d0e6b201b7ef6001a6346fc","665500ab8938657b03fbdba8","6657929076ac1e0591ba762e","786","stimuli/1100000.jpg","1","","prediction_practice","1","{""filepath"":""stimuli/1100000.jpg"",""ball_pos"":1,""ego_ball_visible"":true,""ego_can_infer"":true,""alter_ball_visible"":true,""alter_can_infer"":true,""collective_ball_visible"":true,""collective_can_infer"":true,""search_locations"":[1],""alter_occluders"":""100"",""ego_occluders"":""000""}","true","","","","","","","","","","","","","","","","","","",""
"","","","","","image-keyboard-response","13","198989","0.0-3.0-10.0","5d0e6b201b7ef6001a6346fc","665500ab8938657b03fbdba8","6657929076ac1e0591ba762e","765","stimuli/11000001.jpg"," ","","practrice_feedback","1","","","","","","","","","","","","","","","","","","","","",""
"","","","","","image-keyboard-response","14","200889","0.0-3.0-11.0","5d0e6b201b7ef6001a6346fc","665500ab8938657b03fbdba8","6657929076ac1e0591ba762e","1899","stimuli/2101010.jpg","0","","prediction_practice","2","{""filepath"":""stimuli/2101010.jpg"",""ball_pos"":2,""ego_ball_visible"":true,""ego_can_infer"":true,""alter_ball_visible"":false,""alter_can_infer"":false,""collective_ball_visible"":false,""collective_can_infer"":false,""search_locations"":[0,2],""alter_occluders"":""101"",""ego_occluders"":""010""}","false","","","","","","","","","","","","","","","","","","",""
"","","","","","image-keyboard-response","15","202581","0.0-3.0-12.0","5d0e6b201b7ef6001a6346fc","665500ab8938657b03fbdba8","6657929076ac1e0591ba762e","1691","stimuli/21010102.jpg"," ","","practrice_feedback","0","","","","","","","","","","","","","","","","","","","","",""
"","","","","","image-keyboard-response","16","208593","0.0-3.0-13.0","5d0e6b201b7ef6001a6346fc","665500ab8938657b03fbdba8","6657929076ac1e0591ba762e","6011","stimuli/2010001.jpg","1","","prediction_practice","2","{""filepath"":""stimuli/2010001.jpg"",""ball_pos"":2,""ego_ball_visible"":false,""ego_can_infer"":true,""alter_ball_visible"":true,""alter_can_infer"":true,""collective_ball_visible"":false,""collective_can_infer"":true,""search_locations"":[2],""alter_occluders"":""010"",""ego_occluders"":""001""}","false","","","","","","","","","","","","","","","","","","",""
"","","","","","image-keyboard-response","17","210975","0.0-3.0-14.0","5d0e6b201b7ef6001a6346fc","665500ab8938657b03fbdba8","6657929076ac1e0591ba762e","2381","stimuli/20100012.jpg"," ","","practrice_feedback","2","","","","","","","","","","","","","","","","","","","","",""
"","","","","","image-keyboard-response","18","212703","0.0-3.0-15.0","5d0e6b201b7ef6001a6346fc","665500ab8938657b03fbdba8","6657929076ac1e0591ba762e","1727","stimuli/2110010.jpg","1","","prediction_practice","2","{""filepath"":""stimuli/2110010.jpg"",""ball_pos"":2,""ego_ball_visible"":true,""ego_can_infer"":true,""alter_ball_visible"":true,""alter_can_infer"":true,""collective_ball_visible"":true,""collective_can_infer"":true,""search_locations"":[2],""alter_occluders"":""110"",""ego_occluders"":""010""}","false","","","","","","","","","","","","","","","","","","",""
"","","","","","image-keyboard-response","19","215037","0.0-3.0-16.0","5d0e6b201b7ef6001a6346fc","665500ab8938657b03fbdba8","6657929076ac1e0591ba762e","2332","stimuli/21100102.jpg"," ","","practrice_feedback","2","","","","","","","","","","","","","","","","","","","","",""
"","","","","","image-keyboard-response","20","216640","0.0-3.0-17.0","5d0e6b201b7ef6001a6346fc","665500ab8938657b03fbdba8","6657929076ac1e0591ba762e","1602","stimuli/1111110.jpg","1","","prediction_practice","2","{""filepath"":""stimuli/1111110.jpg"",""ball_pos"":1,""ego_ball_visible"":false,""ego_can_infer"":false,""alter_ball_visible"":false,""alter_can_infer"":false,""collective_ball_visible"":false,""collective_can_infer"":false,""search_locations"":[0,2,1],""alter_occluders"":""111"",""ego_occluders"":""110""}","false","","","","","","","","","","","","","","","","","","",""
"","","","","","image-keyboard-response","21","219365","0.0-3.0-18.0","5d0e6b201b7ef6001a6346fc","665500ab8938657b03fbdba8","6657929076ac1e0591ba762e","2724","stimuli/11111102.jpg"," ","","practrice_feedback","0","","","","","","","","","","","","","","","","","","","","",""
"","","","","","image-keyboard-response","22","220639","0.0-3.0-19.0","5d0e6b201b7ef6001a6346fc","665500ab8938657b03fbdba8","6657929076ac1e0591ba762e","1272","stimuli/0011111.jpg","0","","prediction_practice","0","{""filepath"":""stimuli/0011111.jpg"",""ball_pos"":0,""ego_ball_visible"":false,""ego_can_infer"":false,""alter_ball_visible"":true,""alter_can_infer"":true,""collective_ball_visible"":false,""collective_can_infer"":false,""search_locations"":[0],""alter_occluders"":""011"",""ego_occluders"":""111""}","true","","","","","","","","","","","","","","","","","","",""
"","","","","","image-keyboard-response","23","222136","0.0-3.0-20.0","5d0e6b201b7ef6001a6346fc","665500ab8938657b03fbdba8","6657929076ac1e0591ba762e","1496","stimuli/00111110.jpg"," ","","practrice_feedback","0","","","","","","","","","","","","","","","","","","","","",""
"","","","","","html-button-response","24","228512","0.0-3.0-21.0","5d0e6b201b7ef6001a6346fc","665500ab8938657b03fbdba8","6657929076ac1e0591ba762e","6375","Now that you've had some practice, you'll be tested with a couple of easy trials. If you correctly predict Sam's choice, you'll move on to complete the experiment!","0","","","","","","","","","","","","","","","","","","","","","","","",""
"","","","","","image-keyboard-response","25","229409","0.0-3.0-22.0-0.0","5d0e6b201b7ef6001a6346fc","665500ab8938657b03fbdba8","6657929076ac1e0591ba762e","896","stimuli/0000011.jpg","arrowleft","","comprehension_quiz","","","true","arrowleft","","","","","","","","","","","","","","","","","",""
"","","","","","image-keyboard-response","26","230636","0.0-3.0-22.0-1.0","5d0e6b201b7ef6001a6346fc","665500ab8938657b03fbdba8","6657929076ac1e0591ba762e","1224","stimuli/00000110.jpg"," ","","comprehension_quiz","","","true"," ","","","","","","","","","","","","","","","","","",""
"","","","","","image-keyboard-response","27","231926","0.0-3.0-22.0-2.0","5d0e6b201b7ef6001a6346fc","665500ab8938657b03fbdba8","6657929076ac1e0591ba762e","1289","stimuli/1010010.jpg","arrowdown","","comprehension_quiz","","","true","arrowdown","","","","","","","","","","","","","","","","","",""
"","","","","","image-keyboard-response","28","232684","0.0-3.0-22.0-3.0","5d0e6b201b7ef6001a6346fc","665500ab8938657b03fbdba8","6657929076ac1e0591ba762e","757","stimuli/10100101.jpg"," ","","comprehension_quiz","","","true"," ","","","","","","","","","","","","","","","","","",""
"","","","","","html-button-response","29","233783","0.0-4.0","5d0e6b201b7ef6001a6346fc","665500ab8938657b03fbdba8","6657929076ac1e0591ba762e","1096","The experiment will now begin.","0","","","","","","","","","","","","","","","","","","","","","","","",""
"","","","","","image-keyboard-response","30","235186","0.0-5.0","5d0e6b201b7ef6001a6346fc","665500ab8938657b03fbdba8","6657929076ac1e0591ba762e","1400","stimuli/2001001.jpg","2","","prediction_trial","2","","true","","2","false","true","false","true","false","true","[2]","001","001","1","","","","","","",""
"","","","","","image-keyboard-response","31","235800","0.0-6.0","5d0e6b201b7ef6001a6346fc","665500ab8938657b03fbdba8","6657929076ac1e0591ba762e","613","stimuli/20010012.jpg"," ","","feedback_trial","2","","","","","","","","","","","","","","","","","","","","",""
"","","","","","image-keyboard-response","32","239065","0.0-7.0","5d0e6b201b7ef6001a6346fc","665500ab8938657b03fbdba8","6657929076ac1e0591ba762e","3263","stimuli/0001100.jpg","0","","prediction_trial","0","","true","","0","false","true","true","true","false","true","[0]","001","100","1","","","","","","",""
"","","","","","image-keyboard-response","33","239349","0.0-8.0","5d0e6b201b7ef6001a6346fc","665500ab8938657b03fbdba8","6657929076ac1e0591ba762e","283","stimuli/00011000.jpg"," ","","feedback_trial","0","","","","","","","","","","","","","","","","","","","","",""
"","","","","","image-keyboard-response","34","240273","0.0-9.0","5d0e6b201b7ef6001a6346fc","665500ab8938657b03fbdba8","6657929076ac1e0591ba762e","922","stimuli/1101101.jpg","1","","prediction_trial","1","","true","","1","true","true","true","true","true","true","[1]","101","101","1","","","","","","",""
"","","","","","image-keyboard-response","35","240586","0.0-10.0","5d0e6b201b7ef6001a6346fc","665500ab8938657b03fbdba8","6657929076ac1e0591ba762e","312","stimuli/11011011.jpg"," ","","feedback_trial","1","","","","","","","","","","","","","","","","","","","","",""
"","","","","","image-keyboard-response","36","242490","0.0-11.0","5d0e6b201b7ef6001a6346fc","665500ab8938657b03fbdba8","6657929076ac1e0591ba762e","1902","stimuli/0000110.jpg","0","","prediction_trial","0","","true","","0","false","false","true","true","false","false","[0]","000","110","1","","","","","","",""
"","","","","","image-keyboard-response","37","242789","0.0-12.0","5d0e6b201b7ef6001a6346fc","665500ab8938657b03fbdba8","6657929076ac1e0591ba762e","297","stimuli/00001100.jpg"," ","","feedback_trial","0","","","","","","","","","","","","","","","","","","","","",""
"","","","","","image-keyboard-response","38","243585","0.0-13.0","5d0e6b201b7ef6001a6346fc","665500ab8938657b03fbdba8","6657929076ac1e0591ba762e","795","stimuli/1100101.jpg","1","","prediction_trial","1","","true","","1","true","true","true","true","true","true","[1]","100","101","1","","","","","","",""
"","","","","","image-keyboard-response","39","243784","0.0-14.0","5d0e6b201b7ef6001a6346fc","665500ab8938657b03fbdba8","6657929076ac1e0591ba762e","198","stimuli/11001011.jpg"," ","","feedback_trial","1","","","","","","","","","","","","","","","","","","","","",""
"","","","","","image-keyboard-response","40","246226","0.0-15.0","5d0e6b201b7ef6001a6346fc","665500ab8938657b03fbdba8","6657929076ac1e0591ba762e","2441","stimuli/1011010.jpg","2","","prediction_trial","2","","true","","1","false","true","false","false","false","false","[1,2]","011","010","1","","","","","","",""
"","","","","","image-keyboard-response","41","246315","0.0-16.0","5d0e6b201b7ef6001a6346fc","665500ab8938657b03fbdba8","6657929076ac1e0591ba762e","88","stimuli/10110102.jpg"," ","","feedback_trial","1","","","","","","","","","","","","","","","","","","","","",""
"","","","","","image-keyboard-response","42","248616","0.0-17.0","5d0e6b201b7ef6001a6346fc","665500ab8938657b03fbdba8","6657929076ac1e0591ba762e","2300","stimuli/1111001.jpg","1","","prediction_trial","1","","true","","1","true","true","false","false","false","false","[0,2,1]","111","001","1","","","","","","",""
"","","","","","image-keyboard-response","43","249229","0.0-18.0","5d0e6b201b7ef6001a6346fc","665500ab8938657b03fbdba8","6657929076ac1e0591ba762e","612","stimuli/11110011.jpg"," ","","feedback_trial","0","","","","","","","","","","","","","","","","","","","","",""
"","","","","","image-keyboard-response","44","250726","0.0-19.0","5d0e6b201b7ef6001a6346fc","665500ab8938657b03fbdba8","6657929076ac1e0591ba762e","1496","stimuli/2001100.jpg","2","","prediction_trial","2","","true","","2","true","true","false","true","false","true","[2]","001","100","1","","","","","","",""
"","","","","","image-keyboard-response","45","251198","0.0-20.0","5d0e6b201b7ef6001a6346fc","665500ab8938657b03fbdba8","6657929076ac1e0591ba762e","470","stimuli/20011002.jpg"," ","","feedback_trial","2","","","","","","","","","","","","","","","","","","","","",""
"","","","","","image-keyboard-response","46","252949","0.0-21.0","5d0e6b201b7ef6001a6346fc","665500ab8938657b03fbdba8","6657929076ac1e0591ba762e","1750","stimuli/2110011.jpg","2","","prediction_trial","2","","true","","2","false","false","true","true","false","false","[2]","110","011","1","","","","","","",""
"","","","","","image-keyboard-response","47","253584","0.0-22.0","5d0e6b201b7ef6001a6346fc","665500ab8938657b03fbdba8","6657929076ac1e0591ba762e","633","stimuli/21100112.jpg"," ","","feedback_trial","2","","","","","","","","","","","","","","","","","","","","",""
"","","","","","image-keyboard-response","48","255192","0.0-23.0","5d0e6b201b7ef6001a6346fc","665500ab8938657b03fbdba8","6657929076ac1e0591ba762e","1607","stimuli/2001111.jpg","0","","prediction_trial","2","","false","","2","false","false","false","true","false","false","[2]","001","111","0","","","","","","",""
"","","","","","image-keyboard-response","49","256030","0.0-24.0","5d0e6b201b7ef6001a6346fc","665500ab8938657b03fbdba8","6657929076ac1e0591ba762e","837","stimuli/20011112.jpg"," ","","feedback_trial","2","","","","","","","","","","","","","","","","","","","","",""
"","","","","","image-keyboard-response","50","258070","0.0-25.0","5d0e6b201b7ef6001a6346fc","665500ab8938657b03fbdba8","6657929076ac1e0591ba762e","2039","stimuli/2101101.jpg","0","","prediction_trial","2","","false","","2","false","false","false","false","false","false","[0,2]","101","101","0","","","","","","",""
"","","","","","image-keyboard-response","51","258783","0.0-26.0","5d0e6b201b7ef6001a6346fc","665500ab8938657b03fbdba8","6657929076ac1e0591ba762e","711","stimuli/21011012.jpg"," ","","feedback_trial","0","","","","","","","","","","","","","","","","","","","","",""
"","","","","","image-keyboard-response","52","259663","0.0-27.0","5d0e6b201b7ef6001a6346fc","665500ab8938657b03fbdba8","6657929076ac1e0591ba762e","879","stimuli/0100100.jpg","0","","prediction_trial","0","","true","","0","false","true","false","true","false","true","[0]","100","100","1","","","","","","",""
"","","","","","image-keyboard-response","53","259962","0.0-28.0","5d0e6b201b7ef6001a6346fc","665500ab8938657b03fbdba8","6657929076ac1e0591ba762e","298","stimuli/01001000.jpg"," ","","feedback_trial","0","","","","","","","","","","","","","","","","","","","","",""
"","","","","","image-keyboard-response","54","260675","0.0-29.0","5d0e6b201b7ef6001a6346fc","665500ab8938657b03fbdba8","6657929076ac1e0591ba762e","711","stimuli/0100000.jpg","0","","prediction_trial","0","","true","","0","true","true","false","true","false","true","[0]","100","000","1","","","","","","",""
"","","","","","image-keyboard-response","55","261118","0.0-30.0","5d0e6b201b7ef6001a6346fc","665500ab8938657b03fbdba8","6657929076ac1e0591ba762e","441","stimuli/01000000.jpg"," ","","feedback_trial","0","","","","","","","","","","","","","","","","","","","","",""
"","","","","","image-keyboard-response","56","261865","0.0-31.0","5d0e6b201b7ef6001a6346fc","665500ab8938657b03fbdba8","6657929076ac1e0591ba762e","746","stimuli/1100000.jpg","1","","prediction_trial","1","","true","","1","true","true","true","true","true","true","[1]","100","000","1","","","","","","",""
"","","","","","image-keyboard-response","57","262262","0.0-32.0","5d0e6b201b7ef6001a6346fc","665500ab8938657b03fbdba8","6657929076ac1e0591ba762e","396","stimuli/11000001.jpg"," ","","feedback_trial","1","","","","","","","","","","","","","","","","","","","","",""
"","","","","","image-keyboard-response","58","263189","0.0-33.0","5d0e6b201b7ef6001a6346fc","665500ab8938657b03fbdba8","6657929076ac1e0591ba762e","926","stimuli/0011001.jpg","0","","prediction_trial","0","","true","","0","true","true","true","true","true","true","[0]","011","001","1","","","","","","",""
"","","","","","image-keyboard-response","59","263511","0.0-34.0","5d0e6b201b7ef6001a6346fc","665500ab8938657b03fbdba8","6657929076ac1e0591ba762e","320","stimuli/00110010.jpg"," ","","feedback_trial","0","","","","","","","","","","","","","","","","","","","","",""
"","","","","","image-keyboard-response","60","265084","0.0-35.0","5d0e6b201b7ef6001a6346fc","665500ab8938657b03fbdba8","6657929076ac1e0591ba762e","1572","stimuli/1000110.jpg","1","","prediction_trial","1","","true","","1","false","false","true","true","false","false","[1]","000","110","1","","","","","","",""
"","","","","","image-keyboard-response","61","265478","0.0-36.0","5d0e6b201b7ef6001a6346fc","665500ab8938657b03fbdba8","6657929076ac1e0591ba762e","393","stimuli/10001101.jpg"," ","","feedback_trial","1","","","","","","","","","","","","","","","","","","","","",""
"","","","","","image-keyboard-response","62","266148","0.0-37.0","5d0e6b201b7ef6001a6346fc","665500ab8938657b03fbdba8","6657929076ac1e0591ba762e","668","stimuli/1000001.jpg","1","","prediction_trial","1","","true","","1","true","true","true","true","true","true","[1]","000","001","1","","","","","","",""
"","","","","","image-keyboard-response","63","266497","0.0-38.0","5d0e6b201b7ef6001a6346fc","665500ab8938657b03fbdba8","6657929076ac1e0591ba762e","347","stimuli/10000011.jpg"," ","","feedback_trial","1","","","","","","","","","","","","","","","","","","","","",""
"","","","","","image-keyboard-response","64","267130","0.0-39.0","5d0e6b201b7ef6001a6346fc","665500ab8938657b03fbdba8","6657929076ac1e0591ba762e","632","stimuli/1100100.jpg","1","","prediction_trial","1","","true","","1","true","true","true","true","true","true","[1]","100","100","1","","","","","","",""
"","","","","","image-keyboard-response","65","267520","0.0-40.0","5d0e6b201b7ef6001a6346fc","665500ab8938657b03fbdba8","6657929076ac1e0591ba762e","388","stimuli/11001001.jpg"," ","","feedback_trial","1","","","","","","","","","","","","","","","","","","","","",""
"","","","","","image-keyboard-response","66","268329","0.0-41.0","5d0e6b201b7ef6001a6346fc","665500ab8938657b03fbdba8","6657929076ac1e0591ba762e","808","stimuli/0001011.jpg","0","","prediction_trial","0","","true","","0","true","true","true","true","true","true","[0]","001","011","1","","","","","","",""
"","","","","","image-keyboard-response","67","268571","0.0-42.0","5d0e6b201b7ef6001a6346fc","665500ab8938657b03fbdba8","6657929076ac1e0591ba762e","240","stimuli/00010110.jpg"," ","","feedback_trial","0","","","","","","","","","","","","","","","","","","","","",""
"","","","","","image-keyboard-response","68","269929","0.0-43.0","5d0e6b201b7ef6001a6346fc","665500ab8938657b03fbdba8","6657929076ac1e0591ba762e","1357","stimuli/1010011.jpg","2","","prediction_trial","1","","false","","1","false","false","false","true","false","false","[1]","010","011","0","","","","","","",""
"","","","","","image-keyboard-response","69","270180","0.0-44.0","5d0e6b201b7ef6001a6346fc","665500ab8938657b03fbdba8","6657929076ac1e0591ba762e","250","stimuli/10100111.jpg"," ","","feedback_trial","1","","","","","","","","","","","","","","","","","","","","",""
"","","","","","image-keyboard-response","70","270943","0.0-45.0","5d0e6b201b7ef6001a6346fc","665500ab8938657b03fbdba8","6657929076ac1e0591ba762e","761","stimuli/1010100.jpg","1","","prediction_trial","1","","true","","1","true","true","false","true","false","true","[1]","010","100","1","","","","","","",""
"","","","","","image-keyboard-response","71","271166","0.0-46.0","5d0e6b201b7ef6001a6346fc","665500ab8938657b03fbdba8","6657929076ac1e0591ba762e","222","stimuli/10101001.jpg"," ","","feedback_trial","1","","","","","","","","","","","","","","","","","","","","",""
"","","","","","image-keyboard-response","72","272689","0.0-47.0","5d0e6b201b7ef6001a6346fc","665500ab8938657b03fbdba8","6657929076ac1e0591ba762e","1521","stimuli/0101100.jpg","0","","prediction_trial","0","","true","","0","false","true","false","false","false","false","[0,2]","101","100","1","","","","","","",""
"","","","","","image-keyboard-response","73","273030","0.0-48.0","5d0e6b201b7ef6001a6346fc","665500ab8938657b03fbdba8","6657929076ac1e0591ba762e","340","stimuli/01011000.jpg"," ","","feedback_trial","0","","","","","","","","","","","","","","","","","","","","",""
"","","","","","image-keyboard-response","74","274798","0.0-49.0","5d0e6b201b7ef6001a6346fc","665500ab8938657b03fbdba8","6657929076ac1e0591ba762e","1766","stimuli/0101110.jpg","2","","prediction_trial","0","","false","","0","false","false","false","false","false","false","[0,2]","101","110","0","","","","","","",""
"","","","","","image-keyboard-response","75","275320","0.0-50.0","5d0e6b201b7ef6001a6346fc","665500ab8938657b03fbdba8","6657929076ac1e0591ba762e","520","stimuli/01011100.jpg"," ","","feedback_trial","0","","","","","","","","","","","","","","","","","","","","",""
"","","","","","image-keyboard-response","76","276474","0.0-51.0","5d0e6b201b7ef6001a6346fc","665500ab8938657b03fbdba8","6657929076ac1e0591ba762e","1153","stimuli/2111001.jpg","2","","prediction_trial","0","","false","","2","false","true","false","false","false","false","[0,1,2]","111","001","0","","","","","","",""
"","","","","","image-keyboard-response","77","277159","0.0-52.0","5d0e6b201b7ef6001a6346fc","665500ab8938657b03fbdba8","6657929076ac1e0591ba762e","683","stimuli/21110010.jpg"," ","","feedback_trial","0","","","","","","","","","","","","","","","","","","","","",""
"","","","","","image-keyboard-response","78","277953","0.0-53.0","5d0e6b201b7ef6001a6346fc","665500ab8938657b03fbdba8","6657929076ac1e0591ba762e","793","stimuli/0100001.jpg","1","","prediction_trial","0","","false","","0","true","true","false","true","false","true","[0]","100","001","0","","","","","","",""
"","","","","","image-keyboard-response","79","278352","0.0-54.0","5d0e6b201b7ef6001a6346fc","665500ab8938657b03fbdba8","6657929076ac1e0591ba762e","398","stimuli/01000010.jpg"," ","","feedback_trial","0","","","","","","","","","","","","","","","","","","","","",""
"","","","","","image-keyboard-response","80","281033","0.0-55.0","5d0e6b201b7ef6001a6346fc","665500ab8938657b03fbdba8","6657929076ac1e0591ba762e","2680","stimuli/1011001.jpg","1","","prediction_trial","1","","true","","1","true","true","false","false","false","false","[1,2]","011","001","1","","","","","","",""
"","","","","","image-keyboard-response","81","281648","0.0-56.0","5d0e6b201b7ef6001a6346fc","665500ab8938657b03fbdba8","6657929076ac1e0591ba762e","614","stimuli/10110011.jpg"," ","","feedback_trial","1","","","","","","","","","","","","","","","","","","","","",""
"","","","","","image-keyboard-response","82","282710","0.0-57.0","5d0e6b201b7ef6001a6346fc","665500ab8938657b03fbdba8","6657929076ac1e0591ba762e","1060","stimuli/0011011.jpg","0","","prediction_trial","0","","true","","0","true","true","true","true","true","true","[0]","011","011","1","","","","","","",""
"","","","","","image-keyboard-response","83","283066","0.0-58.0","5d0e6b201b7ef6001a6346fc","665500ab8938657b03fbdba8","6657929076ac1e0591ba762e","356","stimuli/00110110.jpg"," ","","feedback_trial","0","","","","","","","","","","","","","","","","","","","","",""
"","","","","","image-keyboard-response","84","284087","0.0-59.0","5d0e6b201b7ef6001a6346fc","665500ab8938657b03fbdba8","6657929076ac1e0591ba762e","1019","stimuli/2101110.jpg","2","","prediction_trial","2","","true","","2","true","true","false","false","false","false","[2,0]","101","110","1","","","","","","",""
"","","","","","image-keyboard-response","85","284471","0.0-60.0","5d0e6b201b7ef6001a6346fc","665500ab8938657b03fbdba8","6657929076ac1e0591ba762e","382","stimuli/21011102.jpg"," ","","feedback_trial","2","","","","","","","","","","","","","","","","","","","","",""
"","","","","","image-keyboard-response","86","286648","0.0-61.0","5d0e6b201b7ef6001a6346fc","665500ab8938657b03fbdba8","6657929076ac1e0591ba762e","2176","stimuli/2101011.jpg","1","","prediction_trial","2","","false","","2","false","false","false","false","false","false","[0,2]","101","011","0","","","","","","",""
"","","","","","image-keyboard-response","87","287433","0.0-62.0","5d0e6b201b7ef6001a6346fc","665500ab8938657b03fbdba8","6657929076ac1e0591ba762e","783","stimuli/21010112.jpg"," ","","feedback_trial","0","","","","","","","","","","","","","","","","","","","","",""
"","","","","","image-keyboard-response","88","288926","0.0-63.0","5d0e6b201b7ef6001a6346fc","665500ab8938657b03fbdba8","6657929076ac1e0591ba762e","1491","stimuli/2010010.jpg","2","","prediction_trial","2","","true","","2","true","true","true","true","true","true","[2]","010","010","1","","","","","","",""
"","","","","","image-keyboard-response","89","289168","0.0-64.0","5d0e6b201b7ef6001a6346fc","665500ab8938657b03fbdba8","6657929076ac1e0591ba762e","241","stimuli/20100102.jpg"," ","","feedback_trial","2","","","","","","","","","","","","","","","","","","","","",""
"","","","","","image-keyboard-response","90","290301","0.0-65.0","5d0e6b201b7ef6001a6346fc","665500ab8938657b03fbdba8","6657929076ac1e0591ba762e","1132","stimuli/2000010.jpg","2","","prediction_trial","2","","true","","2","true","true","true","true","true","true","[2]","000","010","1","","","","","","",""
"","","","","","image-keyboard-response","91","290517","0.0-66.0","5d0e6b201b7ef6001a6346fc","665500ab8938657b03fbdba8","6657929076ac1e0591ba762e","215","stimuli/20000102.jpg"," ","","feedback_trial","2","","","","","","","","","","","","","","","","","","","","",""
"","","","","","image-keyboard-response","92","292493","0.0-67.0","5d0e6b201b7ef6001a6346fc","665500ab8938657b03fbdba8","6657929076ac1e0591ba762e","1976","stimuli/1001110.jpg","1","","prediction_trial","1","","true","","1","false","false","true","true","false","false","[1]","001","110","1","","","","","","",""
"","","","","","image-keyboard-response","93","292937","0.0-68.0","5d0e6b201b7ef6001a6346fc","665500ab8938657b03fbdba8","6657929076ac1e0591ba762e","442","stimuli/10011101.jpg"," ","","feedback_trial","1","","","","","","","","","","","","","","","","","","","","",""
"","","","","","image-keyboard-response","94","294166","0.0-69.0","5d0e6b201b7ef6001a6346fc","665500ab8938657b03fbdba8","6657929076ac1e0591ba762e","1228","stimuli/2010001.jpg","2","","prediction_trial","2","","true","","2","false","true","true","true","false","true","[2]","010","001","1","","","","","","",""
"","","","","","image-keyboard-response","95","294617","0.0-70.0","5d0e6b201b7ef6001a6346fc","665500ab8938657b03fbdba8","6657929076ac1e0591ba762e","449","stimuli/20100012.jpg"," ","","feedback_trial","2","","","","","","","","","","","","","","","","","","","","",""
"","","","","","image-keyboard-response","96","295432","0.0-71.0","5d0e6b201b7ef6001a6346fc","665500ab8938657b03fbdba8","6657929076ac1e0591ba762e","814","stimuli/2000000.jpg","2","","prediction_trial","2","","true","","2","true","true","true","true","true","true","[2]","000","000","1","","","","","","",""
"","","","","","image-keyboard-response","97","295744","0.0-72.0","5d0e6b201b7ef6001a6346fc","665500ab8938657b03fbdba8","6657929076ac1e0591ba762e","311","stimuli/20000002.jpg"," ","","feedback_trial","2","","","","","","","","","","","","","","","","","","","","",""
"","","","","","image-keyboard-response","98","297077","0.0-73.0","5d0e6b201b7ef6001a6346fc","665500ab8938657b03fbdba8","6657929076ac1e0591ba762e","1331","stimuli/1110110.jpg","0","","prediction_trial","1","","false","","1","false","false","false","false","false","false","[0,1]","110","110","0","","","","","","",""
"","","","","","image-keyboard-response","99","297625","0.0-74.0","5d0e6b201b7ef6001a6346fc","665500ab8938657b03fbdba8","6657929076ac1e0591ba762e","546","stimuli/11101101.jpg"," ","","feedback_trial","0","","","","","","","","","","","","","","","","","","","","",""
"","","","","","image-keyboard-response","100","300142","0.0-75.0","5d0e6b201b7ef6001a6346fc","665500ab8938657b03fbdba8","6657929076ac1e0591ba762e","2516","stimuli/0010100.jpg","0","","prediction_trial","0","","true","","0","false","true","true","true","false","true","[0]","010","100","1","","","","","","",""
"","","","","","image-keyboard-response","101","300514","0.0-76.0","5d0e6b201b7ef6001a6346fc","665500ab8938657b03fbdba8","6657929076ac1e0591ba762e","371","stimuli/00101000.jpg"," ","","feedback_trial","0","","","","","","","","","","","","","","","","","","","","",""
"","","","","","image-keyboard-response","102","301528","0.0-77.0","5d0e6b201b7ef6001a6346fc","665500ab8938657b03fbdba8","6657929076ac1e0591ba762e","1012","stimuli/1101010.jpg","1","","prediction_trial","1","","true","","1","false","true","true","true","false","true","[1]","101","010","1","","","","","","",""
"","","","","","image-keyboard-response","103","301847","0.0-78.0","5d0e6b201b7ef6001a6346fc","665500ab8938657b03fbdba8","6657929076ac1e0591ba762e","317","stimuli/11010101.jpg"," ","","feedback_trial","1","","","","","","","","","","","","","","","","","","","","",""
"","","","","","image-keyboard-response","104","303039","0.0-79.0","5d0e6b201b7ef6001a6346fc","665500ab8938657b03fbdba8","6657929076ac1e0591ba762e","1191","stimuli/1101011.jpg","1","","prediction_trial","1","","true","","1","false","false","true","true","false","false","[1]","101","011","1","","","","","","",""
"","","","","","image-keyboard-response","105","303451","0.0-80.0","5d0e6b201b7ef6001a6346fc","665500ab8938657b03fbdba8","6657929076ac1e0591ba762e","410","stimuli/11010111.jpg"," ","","feedback_trial","1","","","","","","","","","","","","","","","","","","","","",""
"","","","","","image-keyboard-response","106","304954","0.0-81.0","5d0e6b201b7ef6001a6346fc","665500ab8938657b03fbdba8","6657929076ac1e0591ba762e","1501","stimuli/0110010.jpg","0","","prediction_trial","0","","true","","0","true","true","false","false","false","false","[1,0]","110","010","1","","","","","","",""
"","","","","","image-keyboard-response","107","305432","0.0-82.0","5d0e6b201b7ef6001a6346fc","665500ab8938657b03fbdba8","6657929076ac1e0591ba762e","477","stimuli/01100100.jpg"," ","","feedback_trial","1","","","","","","","","","","","","","","","","","","","","",""
"","","","","","image-keyboard-response","108","306139","0.0-83.0","5d0e6b201b7ef6001a6346fc","665500ab8938657b03fbdba8","6657929076ac1e0591ba762e","705","stimuli/1001100.jpg","1","","prediction_trial","1","","true","","1","true","true","true","true","true","true","[1]","001","100","1","","","","","","",""
"","","","","","image-keyboard-response","109","306539","0.0-84.0","5d0e6b201b7ef6001a6346fc","665500ab8938657b03fbdba8","6657929076ac1e0591ba762e","399","stimuli/10011001.jpg"," ","","feedback_trial","1","","","","","","","","","","","","","","","","","","","","",""
"","","","","","image-keyboard-response","110","307744","0.0-85.0","5d0e6b201b7ef6001a6346fc","665500ab8938657b03fbdba8","6657929076ac1e0591ba762e","1204","stimuli/0111000.jpg","0","","prediction_trial","2","","false","","0","true","true","false","false","false","false","[2,0,1]","111","000","0","","","","","","",""
"","","","","","image-keyboard-response","111","308441","0.0-86.0","5d0e6b201b7ef6001a6346fc","665500ab8938657b03fbdba8","6657929076ac1e0591ba762e","695","stimuli/01110002.jpg"," ","","feedback_trial","2","","","","","","","","","","","","","","","","","","","","",""
"","","","","","image-keyboard-response","112","309203","0.0-87.0","5d0e6b201b7ef6001a6346fc","665500ab8938657b03fbdba8","6657929076ac1e0591ba762e","761","stimuli/2001010.jpg","2","","prediction_trial","2","","true","","2","true","true","false","true","false","true","[2]","001","010","1","","","","","","",""
"","","","","","image-keyboard-response","113","309714","0.0-88.0","5d0e6b201b7ef6001a6346fc","665500ab8938657b03fbdba8","6657929076ac1e0591ba762e","510","stimuli/20010102.jpg"," ","","feedback_trial","2","","","","","","","","","","","","","","","","","","","","",""
"","","","","","image-keyboard-response","114","310751","0.0-89.0","5d0e6b201b7ef6001a6346fc","665500ab8938657b03fbdba8","6657929076ac1e0591ba762e","1035","stimuli/0111111.jpg","1","","prediction_trial","0","","false","","0","false","false","false","false","false","false","[0,2,1]","111","111","0","","","","","","",""
"","","","","","image-keyboard-response","115","311291","0.0-90.0","5d0e6b201b7ef6001a6346fc","665500ab8938657b03fbdba8","6657929076ac1e0591ba762e","538","stimuli/01111110.jpg"," ","","feedback_trial","0","","","","","","","","","","","","","","","","","","","","",""
"","","","","","image-keyboard-response","116","311989","0.0-91.0","5d0e6b201b7ef6001a6346fc","665500ab8938657b03fbdba8","6657929076ac1e0591ba762e","697","stimuli/2110000.jpg","2","","prediction_trial","2","","true","","2","true","true","true","true","true","true","[2]","110","000","1","","","","","","",""
"","","","","","image-keyboard-response","117","312367","0.0-92.0","5d0e6b201b7ef6001a6346fc","665500ab8938657b03fbdba8","6657929076ac1e0591ba762e","376","stimuli/21100002.jpg"," ","","feedback_trial","2","","","","","","","","","","","","","","","","","","","","",""
"","","","","","image-keyboard-response","118","312923","0.0-93.0","5d0e6b201b7ef6001a6346fc","665500ab8938657b03fbdba8","6657929076ac1e0591ba762e","555","stimuli/0001010.jpg","0","","prediction_trial","0","","true","","0","true","true","true","true","true","true","[0]","001","010","1","","","","","","",""
"","","","","","image-keyboard-response","119","313284","0.0-94.0","5d0e6b201b7ef6001a6346fc","665500ab8938657b03fbdba8","6657929076ac1e0591ba762e","359","stimuli/00010100.jpg"," ","","feedback_trial","0","","","","","","","","","","","","","","","","","","","","",""
"","","","","","image-keyboard-response","120","314591","0.0-95.0","5d0e6b201b7ef6001a6346fc","665500ab8938657b03fbdba8","6657929076ac1e0591ba762e","1307","stimuli/2101000.jpg","2","","prediction_trial","0","","false","","2","true","true","false","false","false","false","[2,0]","101","000","0","","","","","","",""
"","","","","","image-keyboard-response","121","314960","0.0-96.0","5d0e6b201b7ef6001a6346fc","665500ab8938657b03fbdba8","6657929076ac1e0591ba762e","367","stimuli/21010000.jpg"," ","","feedback_trial","2","","","","","","","","","","","","","","","","","","","","",""
"","","","","","image-keyboard-response","122","316280","0.0-97.0","5d0e6b201b7ef6001a6346fc","665500ab8938657b03fbdba8","6657929076ac1e0591ba762e","1319","stimuli/0000111.jpg","0","","prediction_trial","0","","true","","0","false","false","true","true","false","false","[0]","000","111","1","","","","","","",""
"","","","","","image-keyboard-response","123","316775","0.0-98.0","5d0e6b201b7ef6001a6346fc","665500ab8938657b03fbdba8","6657929076ac1e0591ba762e","493","stimuli/00001110.jpg"," ","","feedback_trial","0","","","","","","","","","","","","","","","","","","","","",""
"","","","","","image-keyboard-response","124","318186","0.0-99.0","5d0e6b201b7ef6001a6346fc","665500ab8938657b03fbdba8","6657929076ac1e0591ba762e","1410","stimuli/2001000.jpg","2","","prediction_trial","2","","true","","2","true","true","false","true","false","true","[2]","001","000","1","","","","","","",""
"","","","","","image-keyboard-response","125","318824","0.0-100.0","5d0e6b201b7ef6001a6346fc","665500ab8938657b03fbdba8","6657929076ac1e0591ba762e","637","stimuli/20010002.jpg"," ","","feedback_trial","2","","","","","","","","","","","","","","","","","","","","",""
"","","","","","image-keyboard-response","126","319662","0.0-101.0","5d0e6b201b7ef6001a6346fc","665500ab8938657b03fbdba8","6657929076ac1e0591ba762e","836","stimuli/0001000.jpg","0","","prediction_trial","0","","true","","0","true","true","true","true","true","true","[0]","001","000","1","","","","","","",""
"","","","","","image-keyboard-response","127","319957","0.0-102.0","5d0e6b201b7ef6001a6346fc","665500ab8938657b03fbdba8","6657929076ac1e0591ba762e","294","stimuli/00010000.jpg"," ","","feedback_trial","0","","","","","","","","","","","","","","","","","","","","",""
"","","","","","image-keyboard-response","128","320842","0.0-103.0","5d0e6b201b7ef6001a6346fc","665500ab8938657b03fbdba8","6657929076ac1e0591ba762e","885","stimuli/1010010.jpg","1","","prediction_trial","1","","true","","1","false","true","false","true","false","true","[1]","010","010","1","","","","","","",""
"","","","","","image-keyboard-response","129","321066","0.0-104.0","5d0e6b201b7ef6001a6346fc","665500ab8938657b03fbdba8","6657929076ac1e0591ba762e","223","stimuli/10100101.jpg"," ","","feedback_trial","1","","","","","","","","","","","","","","","","","","","","",""
"","","","","","image-keyboard-response","130","321795","0.0-105.0","5d0e6b201b7ef6001a6346fc","665500ab8938657b03fbdba8","6657929076ac1e0591ba762e","727","stimuli/2100100.jpg","2","","prediction_trial","2","","true","","2","true","true","true","true","true","true","[2]","100","100","1","","","","","","",""
"","","","","","image-keyboard-response","131","322026","0.0-106.0","5d0e6b201b7ef6001a6346fc","665500ab8938657b03fbdba8","6657929076ac1e0591ba762e","230","stimuli/21001002.jpg"," ","","feedback_trial","2","","","","","","","","","","","","","","","","","","","","",""
"","","","","","image-keyboard-response","132","323317","0.0-107.0","5d0e6b201b7ef6001a6346fc","665500ab8938657b03fbdba8","6657929076ac1e0591ba762e","1290","stimuli/1111011.jpg","1","","prediction_trial","2","","false","","1","false","false","false","false","false","false","[2,0,1]","111","011","0","","","","","","",""
"","","","","","image-keyboard-response","133","323861","0.0-108.0","5d0e6b201b7ef6001a6346fc","665500ab8938657b03fbdba8","6657929076ac1e0591ba762e","543","stimuli/11110112.jpg"," ","","feedback_trial","2","","","","","","","","","","","","","","","","","","","","",""
"","","","","","image-keyboard-response","134","324680","0.0-109.0","5d0e6b201b7ef6001a6346fc","665500ab8938657b03fbdba8","6657929076ac1e0591ba762e","818","stimuli/0011111.jpg","2","","prediction_trial","0","","false","","0","false","false","true","true","false","false","[0]","011","111","0","","","","","","",""
"","","","","","image-keyboard-response","135","325206","0.0-110.0","5d0e6b201b7ef6001a6346fc","665500ab8938657b03fbdba8","6657929076ac1e0591ba762e","524","stimuli/00111110.jpg"," ","","feedback_trial","0","","","","","","","","","","","","","","","","","","","","",""
"","","","","","image-keyboard-response","136","325885","0.0-111.0","5d0e6b201b7ef6001a6346fc","665500ab8938657b03fbdba8","6657929076ac1e0591ba762e","678","stimuli/1000100.jpg","1","","prediction_trial","1","","true","","1","true","true","true","true","true","true","[1]","000","100","1","","","","","","",""
"","","","","","image-keyboard-response","137","326227","0.0-112.0","5d0e6b201b7ef6001a6346fc","665500ab8938657b03fbdba8","6657929076ac1e0591ba762e","340","stimuli/10001001.jpg"," ","","feedback_trial","1","","","","","","","","","","","","","","","","","","","","",""
"","","","","","image-keyboard-response","138","326900","0.0-113.0","5d0e6b201b7ef6001a6346fc","665500ab8938657b03fbdba8","6657929076ac1e0591ba762e","672","stimuli/0101011.jpg","0","","prediction_trial","0","","true","","0","true","true","false","false","false","false","[0,2]","101","011","1","","","","","","",""
"","","","","","image-keyboard-response","139","327267","0.0-114.0","5d0e6b201b7ef6001a6346fc","665500ab8938657b03fbdba8","6657929076ac1e0591ba762e","365","stimuli/01010110.jpg"," ","","feedback_trial","0","","","","","","","","","","","","","","","","","","","","",""
"","","","","","image-keyboard-response","140","329561","0.0-115.0","5d0e6b201b7ef6001a6346fc","665500ab8938657b03fbdba8","6657929076ac1e0591ba762e","2293","stimuli/1110101.jpg","0","","prediction_trial","0","","true","","1","true","true","false","false","false","false","[0,1]","110","101","1","","","","","","",""
"","","","","","image-keyboard-response","141","329810","0.0-116.0","5d0e6b201b7ef6001a6346fc","665500ab8938657b03fbdba8","6657929076ac1e0591ba762e","247","stimuli/11101010.jpg"," ","","feedback_trial","0","","","","","","","","","","","","","","","","","","","","",""
"","","","","","image-keyboard-response","142","330559","0.0-117.0","5d0e6b201b7ef6001a6346fc","665500ab8938657b03fbdba8","6657929076ac1e0591ba762e","748","stimuli/0000010.jpg","0","","prediction_trial","0","","true","","0","true","true","true","true","true","true","[0]","000","010","1","","","","","","",""
"","","","","","image-keyboard-response","143","330825","0.0-118.0","5d0e6b201b7ef6001a6346fc","665500ab8938657b03fbdba8","6657929076ac1e0591ba762e","264","stimuli/00000100.jpg"," ","","feedback_trial","0","","","","","","","","","","","","","","","","","","","","",""
"","","","","","image-keyboard-response","144","332661","0.0-119.0","5d0e6b201b7ef6001a6346fc","665500ab8938657b03fbdba8","6657929076ac1e0591ba762e","1835","stimuli/0100101.jpg","2","","prediction_trial","0","","false","","0","false","false","false","true","false","false","[0]","100","101","0","","","","","","",""
"","","","","","image-keyboard-response","145","332943","0.0-120.0","5d0e6b201b7ef6001a6346fc","665500ab8938657b03fbdba8","6657929076ac1e0591ba762e","280","stimuli/01001010.jpg"," ","","feedback_trial","0","","","","","","","","","","","","","","","","","","","","",""
"","","","","","image-keyboard-response","146","334894","0.0-121.0","5d0e6b201b7ef6001a6346fc","665500ab8938657b03fbdba8","6657929076ac1e0591ba762e","1950","stimuli/2011101.jpg","0","","prediction_trial","1","","false","","2","false","false","false","false","false","false","[2,1]","011","101","0","","","","","","",""
"","","","","","image-keyboard-response","147","335170","0.0-122.0","5d0e6b201b7ef6001a6346fc","665500ab8938657b03fbdba8","6657929076ac1e0591ba762e","274","stimuli/20111011.jpg"," ","","feedback_trial","2","","","","","","","","","","","","","","","","","","","","",""
"","","","","","image-keyboard-response","148","336559","0.0-123.0","5d0e6b201b7ef6001a6346fc","665500ab8938657b03fbdba8","6657929076ac1e0591ba762e","1388","stimuli/2101010.jpg","2","","prediction_trial","2","","true","","2","true","true","false","false","false","false","[0,2]","101","010","1","","","","","","",""
"","","","","","image-keyboard-response","149","336839","0.0-124.0","5d0e6b201b7ef6001a6346fc","665500ab8938657b03fbdba8","6657929076ac1e0591ba762e","279","stimuli/21010102.jpg"," ","","feedback_trial","0","","","","","","","","","","","","","","","","","","","","",""
"","","","","","image-keyboard-response","150","337763","0.0-125.0","5d0e6b201b7ef6001a6346fc","665500ab8938657b03fbdba8","6657929076ac1e0591ba762e","923","stimuli/0011110.jpg","1","","prediction_trial","0","","false","","0","false","false","true","true","false","false","[0]","011","110","0","","","","","","",""
"","","","","","image-keyboard-response","151","338113","0.0-126.0","5d0e6b201b7ef6001a6346fc","665500ab8938657b03fbdba8","6657929076ac1e0591ba762e","348","stimuli/00111100.jpg"," ","","feedback_trial","0","","","","","","","","","","","","","","","","","","","","",""
"","","","","","image-keyboard-response","152","338723","0.0-127.0","5d0e6b201b7ef6001a6346fc","665500ab8938657b03fbdba8","6657929076ac1e0591ba762e","609","stimuli/2100000.jpg","2","","prediction_trial","2","","true","","2","true","true","true","true","true","true","[2]","100","000","1","","","","","","",""
"","","","","","image-keyboard-response","153","339011","0.0-128.0","5d0e6b201b7ef6001a6346fc","665500ab8938657b03fbdba8","6657929076ac1e0591ba762e","286","stimuli/21000002.jpg"," ","","feedback_trial","2","","","","","","","","","","","","","","","","","","","","",""
"","","","","","image-keyboard-response","154","340179","0.0-129.0","5d0e6b201b7ef6001a6346fc","665500ab8938657b03fbdba8","6657929076ac1e0591ba762e","1167","stimuli/0101111.jpg","1","","prediction_trial","0","","false","","0","false","false","false","false","false","false","[0,2]","101","111","0","","","","","","",""
"","","","","","image-keyboard-response","155","340589","0.0-130.0","5d0e6b201b7ef6001a6346fc","665500ab8938657b03fbdba8","6657929076ac1e0591ba762e","408","stimuli/01011110.jpg"," ","","feedback_trial","0","","","","","","","","","","","","","","","","","","","","",""
"","","","","","image-keyboard-response","156","341901","0.0-131.0","5d0e6b201b7ef6001a6346fc","665500ab8938657b03fbdba8","6657929076ac1e0591ba762e","1311","stimuli/1111010.jpg","1","","prediction_trial","2","","false","","1","false","true","false","false","false","false","[0,1,2]","111","010","0","","","","","","",""
"","","","","","image-keyboard-response","157","342214","0.0-132.0","5d0e6b201b7ef6001a6346fc","665500ab8938657b03fbdba8","6657929076ac1e0591ba762e","311","stimuli/11110102.jpg"," ","","feedback_trial","0","","","","","","","","","","","","","","","","","","","","",""
"","","","","","image-keyboard-response","158","342977","0.0-133.0","5d0e6b201b7ef6001a6346fc","665500ab8938657b03fbdba8","6657929076ac1e0591ba762e","763","stimuli/0011000.jpg","0","","prediction_trial","0","","true","","0","true","true","true","true","true","true","[0]","011","000","1","","","","","","",""
"","","","","","image-keyboard-response","159","343233","0.0-134.0","5d0e6b201b7ef6001a6346fc","665500ab8938657b03fbdba8","6657929076ac1e0591ba762e","254","stimuli/00110000.jpg"," ","","feedback_trial","0","","","","","","","","","","","","","","","","","","","","",""
"","","","","","image-keyboard-response","160","344382","0.0-135.0","5d0e6b201b7ef6001a6346fc","665500ab8938657b03fbdba8","6657929076ac1e0591ba762e","1147","stimuli/1011011.jpg","2","","prediction_trial","1","","false","","1","false","false","false","false","false","false","[1,2]","011","011","0","","","","","","",""
"","","","","","image-keyboard-response","161","344774","0.0-136.0","5d0e6b201b7ef6001a6346fc","665500ab8938657b03fbdba8","6657929076ac1e0591ba762e","391","stimuli/10110111.jpg"," ","","feedback_trial","1","","","","","","","","","","","","","","","","","","","","",""
"","","","","","image-keyboard-response","162","345557","0.0-137.0","5d0e6b201b7ef6001a6346fc","665500ab8938657b03fbdba8","6657929076ac1e0591ba762e","781","stimuli/1111111.jpg","0","","prediction_trial","0","","true","","1","false","false","false","false","false","false","[2,0,1]","111","111","1","","","","","","",""
"","","","","","image-keyboard-response","163","345904","0.0-138.0","5d0e6b201b7ef6001a6346fc","665500ab8938657b03fbdba8","6657929076ac1e0591ba762e","346","stimuli/11111110.jpg"," ","","feedback_trial","2","","","","","","","","","","","","","","","","","","","","",""
"","","","","","image-keyboard-response","164","347030","0.0-139.0","5d0e6b201b7ef6001a6346fc","665500ab8938657b03fbdba8","6657929076ac1e0591ba762e","1125","stimuli/2010101.jpg","0","","prediction_trial","2","","false","","2","false","false","true","true","false","false","[2]","010","101","0","","","","","","",""
"","","","","","image-keyboard-response","165","347687","0.0-140.0","5d0e6b201b7ef6001a6346fc","665500ab8938657b03fbdba8","6657929076ac1e0591ba762e","655","stimuli/20101012.jpg"," ","","feedback_trial","2","","","","","","","","","","","","","","","","","","","","",""
"","","","","","image-keyboard-response","166","349583","0.0-141.0","5d0e6b201b7ef6001a6346fc","665500ab8938657b03fbdba8","6657929076ac1e0591ba762e","1895","stimuli/1011100.jpg","2","","prediction_trial","2","","true","","1","true","true","false","false","false","false","[1,2]","011","100","1","","","","","","",""
"","","","","","image-keyboard-response","167","349816","0.0-142.0","5d0e6b201b7ef6001a6346fc","665500ab8938657b03fbdba8","6657929076ac1e0591ba762e","232","stimuli/10111002.jpg"," ","","feedback_trial","1","","","","","","","","","","","","","","","","","","","","",""
"","","","","","image-keyboard-response","168","352191","0.0-143.0","5d0e6b201b7ef6001a6346fc","665500ab8938657b03fbdba8","6657929076ac1e0591ba762e","2373","stimuli/1100110.jpg","1","","prediction_trial","1","","true","","1","false","false","true","true","false","false","[1]","100","110","1","","","","","","",""
"","","","","","image-keyboard-response","169","352471","0.0-144.0","5d0e6b201b7ef6001a6346fc","665500ab8938657b03fbdba8","6657929076ac1e0591ba762e","279","stimuli/11001101.jpg"," ","","feedback_trial","1","","","","","","","","","","","","","","","","","","","","",""
"","","","","","image-keyboard-response","170","354091","0.0-145.0","5d0e6b201b7ef6001a6346fc","665500ab8938657b03fbdba8","6657929076ac1e0591ba762e","1619","stimuli/2001110.jpg","2","","prediction_trial","2","","true","","2","true","true","false","true","false","true","[2]","001","110","1","","","","","","",""
"","","","","","image-keyboard-response","171","354317","0.0-146.0","5d0e6b201b7ef6001a6346fc","665500ab8938657b03fbdba8","6657929076ac1e0591ba762e","224","stimuli/20011102.jpg"," ","","feedback_trial","2","","","","","","","","","","","","","","","","","","","","",""
"","","","","","image-keyboard-response","172","355480","0.0-147.0","5d0e6b201b7ef6001a6346fc","665500ab8938657b03fbdba8","6657929076ac1e0591ba762e","1161","stimuli/0111110.jpg","0","","prediction_trial","1","","false","","0","false","false","false","false","false","false","[2,0,1]","111","110","0","","","","","","",""
"","","","","","image-keyboard-response","173","355775","0.0-148.0","5d0e6b201b7ef6001a6346fc","665500ab8938657b03fbdba8","6657929076ac1e0591ba762e","294","stimuli/01111101.jpg"," ","","feedback_trial","2","","","","","","","","","","","","","","","","","","","","",""
"","","","","","image-keyboard-response","174","356906","0.0-149.0","5d0e6b201b7ef6001a6346fc","665500ab8938657b03fbdba8","6657929076ac1e0591ba762e","1131","stimuli/2111010.jpg","2","","prediction_trial","0","","false","","2","true","true","false","false","false","false","[1,0,2]","111","010","0","","","","","","",""
"","","","","","image-keyboard-response","175","357162","0.0-150.0","5d0e6b201b7ef6001a6346fc","665500ab8938657b03fbdba8","6657929076ac1e0591ba762e","254","stimuli/21110100.jpg"," ","","feedback_trial","1","","","","","","","","","","","","","","","","","","","","",""
"","","","","","image-keyboard-response","176","358040","0.0-151.0","5d0e6b201b7ef6001a6346fc","665500ab8938657b03fbdba8","6657929076ac1e0591ba762e","877","stimuli/2001011.jpg","1","","prediction_trial","2","","false","","2","false","false","false","true","false","false","[2]","001","011","0","","","","","","",""
"","","","","","image-keyboard-response","177","358367","0.0-152.0","5d0e6b201b7ef6001a6346fc","665500ab8938657b03fbdba8","6657929076ac1e0591ba762e","326","stimuli/20010112.jpg"," ","","feedback_trial","2","","","","","","","","","","","","","","","","","","","","",""
"","","","","","image-keyboard-response","178","359439","0.0-153.0","5d0e6b201b7ef6001a6346fc","665500ab8938657b03fbdba8","6657929076ac1e0591ba762e","1071","stimuli/1110010.jpg","1","","prediction_trial","0","","false","","1","false","true","false","false","false","false","[0,1]","110","010","0","","","","","","",""
"","","","","","image-keyboard-response","179","359859","0.0-154.0","5d0e6b201b7ef6001a6346fc","665500ab8938657b03fbdba8","6657929076ac1e0591ba762e","419","stimuli/11100100.jpg"," ","","feedback_trial","0","","","","","","","","","","","","","","","","","","","","",""
"","","","","","image-keyboard-response","180","360834","0.0-155.0","5d0e6b201b7ef6001a6346fc","665500ab8938657b03fbdba8","6657929076ac1e0591ba762e","974","stimuli/1101110.jpg","0","","prediction_trial","1","","false","","1","false","false","true","true","false","false","[1]","101","110","0","","","","","","",""
"","","","","","image-keyboard-response","181","361331","0.0-156.0","5d0e6b201b7ef6001a6346fc","665500ab8938657b03fbdba8","6657929076ac1e0591ba762e","496","stimuli/11011101.jpg"," ","","feedback_trial","1","","","","","","","","","","","","","","","","","","","","",""
"","","","","","image-keyboard-response","182","362097","0.0-157.0","5d0e6b201b7ef6001a6346fc","665500ab8938657b03fbdba8","6657929076ac1e0591ba762e","765","stimuli/1110100.jpg","1","","prediction_trial","0","","false","","1","true","true","false","false","false","false","[0,1]","110","100","0","","","","","","",""
"","","","","","image-keyboard-response","183","362425","0.0-158.0","5d0e6b201b7ef6001a6346fc","665500ab8938657b03fbdba8","6657929076ac1e0591ba762e","327","stimuli/11101000.jpg"," ","","feedback_trial","0","","","","","","","","","","","","","","","","","","","","",""
"","","","","","image-keyboard-response","184","363858","0.0-159.0","5d0e6b201b7ef6001a6346fc","665500ab8938657b03fbdba8","6657929076ac1e0591ba762e","1432","stimuli/0110111.jpg","1","","prediction_trial","1","","true","","0","false","false","false","false","false","false","[1,0]","110","111","1","","","","","","",""
"","","","","","image-keyboard-response","185","364186","0.0-160.0","5d0e6b201b7ef6001a6346fc","665500ab8938657b03fbdba8","6657929076ac1e0591ba762e","326","stimuli/01101111.jpg"," ","","feedback_trial","1","","","","","","","","","","","","","","","","","","","","",""
"","","","","","image-keyboard-response","186","364918","0.0-161.0","5d0e6b201b7ef6001a6346fc","665500ab8938657b03fbdba8","6657929076ac1e0591ba762e","731","stimuli/0000011.jpg","0","","prediction_trial","0","","true","","0","true","true","true","true","true","true","[0]","000","011","1","","","","","","",""
"","","","","","image-keyboard-response","187","365157","0.0-162.0","5d0e6b201b7ef6001a6346fc","665500ab8938657b03fbdba8","6657929076ac1e0591ba762e","238","stimuli/00000110.jpg"," ","","feedback_trial","0","","","","","","","","","","","","","","","","","","","","",""
"","","","","","image-keyboard-response","188","365724","0.0-163.0","5d0e6b201b7ef6001a6346fc","665500ab8938657b03fbdba8","6657929076ac1e0591ba762e","566","stimuli/1110001.jpg","1","","prediction_trial","1","","true","","1","true","true","false","false","false","false","[1,0]","110","001","1","","","","","","",""
"","","","","","image-keyboard-response","189","365938","0.0-164.0","5d0e6b201b7ef6001a6346fc","665500ab8938657b03fbdba8","6657929076ac1e0591ba762e","213","stimuli/11100011.jpg"," ","","feedback_trial","1","","","","","","","","","","","","","","","","","","","","",""
"","","","","","image-keyboard-response","190","366743","0.0-165.0","5d0e6b201b7ef6001a6346fc","665500ab8938657b03fbdba8","6657929076ac1e0591ba762e","804","stimuli/2010111.jpg","1","","prediction_trial","2","","false","","2","false","false","true","true","false","false","[2]","010","111","0","","","","","","",""
"","","","","","image-keyboard-response","191","366966","0.0-166.0","5d0e6b201b7ef6001a6346fc","665500ab8938657b03fbdba8","6657929076ac1e0591ba762e","221","stimuli/20101112.jpg"," ","","feedback_trial","2","","","","","","","","","","","","","","","","","","","","",""
"","","","","","image-keyboard-response","192","367837","0.0-167.0","5d0e6b201b7ef6001a6346fc","665500ab8938657b03fbdba8","6657929076ac1e0591ba762e","870","stimuli/1101100.jpg","1","","prediction_trial","1","","true","","1","true","true","true","true","true","true","[1]","101","100","1","","","","","","",""
"","","","","","image-keyboard-response","193","368148","0.0-168.0","5d0e6b201b7ef6001a6346fc","665500ab8938657b03fbdba8","6657929076ac1e0591ba762e","310","stimuli/11011001.jpg"," ","","feedback_trial","1","","","","","","","","","","","","","","","","","","","","",""
"","","","","","image-keyboard-response","194","370684","0.0-169.0","5d0e6b201b7ef6001a6346fc","665500ab8938657b03fbdba8","6657929076ac1e0591ba762e","2534","stimuli/0110001.jpg","1","","prediction_trial","0","","false","","0","true","true","false","false","false","false","[1,0]","110","001","0","","","","","","",""
"","","","","","image-keyboard-response","195","370894","0.0-170.0","5d0e6b201b7ef6001a6346fc","665500ab8938657b03fbdba8","6657929076ac1e0591ba762e","208","stimuli/01100010.jpg"," ","","feedback_trial","1","","","","","","","","","","","","","","","","","","","","",""
"","","","","","image-keyboard-response","196","372112","0.0-171.0","5d0e6b201b7ef6001a6346fc","665500ab8938657b03fbdba8","6657929076ac1e0591ba762e","1217","stimuli/1011101.jpg","1","","prediction_trial","1","","true","","1","true","true","false","false","false","false","[1,2]","011","101","1","","","","","","",""
"","","","","","image-keyboard-response","197","372390","0.0-172.0","5d0e6b201b7ef6001a6346fc","665500ab8938657b03fbdba8","6657929076ac1e0591ba762e","277","stimuli/10111011.jpg"," ","","feedback_trial","1","","","","","","","","","","","","","","","","","","","","",""
"","","","","","image-keyboard-response","198","373811","0.0-173.0","5d0e6b201b7ef6001a6346fc","665500ab8938657b03fbdba8","6657929076ac1e0591ba762e","1420","stimuli/0110101.jpg","2","","prediction_trial","1","","false","","0","false","false","false","false","false","false","[0,1]","110","101","0","","","","","","",""
"","","","","","image-keyboard-response","199","374066","0.0-174.0","5d0e6b201b7ef6001a6346fc","665500ab8938657b03fbdba8","6657929076ac1e0591ba762e","254","stimuli/01101011.jpg"," ","","feedback_trial","0","","","","","","","","","","","","","","","","","","","","",""
"","","","","","image-keyboard-response","200","376332","0.0-175.0","5d0e6b201b7ef6001a6346fc","665500ab8938657b03fbdba8","6657929076ac1e0591ba762e","2265","stimuli/0011101.jpg","0","","prediction_trial","0","","true","","0","false","false","true","true","false","false","[0]","011","101","1","","","","","","",""
"","","","","","image-keyboard-response","201","376579","0.0-176.0","5d0e6b201b7ef6001a6346fc","665500ab8938657b03fbdba8","6657929076ac1e0591ba762e","245","stimuli/00111010.jpg"," ","","feedback_trial","0","","","","","","","","","","","","","","","","","","","","",""
"","","","","","image-keyboard-response","202","377750","0.0-177.0","5d0e6b201b7ef6001a6346fc","665500ab8938657b03fbdba8","6657929076ac1e0591ba762e","1170","stimuli/2110111.jpg","2","","prediction_trial","2","","true","","2","false","false","true","true","false","false","[2]","110","111","1","","","","","","",""
"","","","","","image-keyboard-response","203","378040","0.0-178.0","5d0e6b201b7ef6001a6346fc","665500ab8938657b03fbdba8","6657929076ac1e0591ba762e","289","stimuli/21101112.jpg"," ","","feedback_trial","2","","","","","","","","","","","","","","","","","","","","",""
"","","","","","image-keyboard-response","204","379006","0.0-179.0","5d0e6b201b7ef6001a6346fc","665500ab8938657b03fbdba8","6657929076ac1e0591ba762e","964","stimuli/1011111.jpg","0","","prediction_trial","2","","false","","1","false","false","false","false","false","false","[1,2]","011","111","0","","","","","","",""
"","","","","","image-keyboard-response","205","379482","0.0-180.0","5d0e6b201b7ef6001a6346fc","665500ab8938657b03fbdba8","6657929076ac1e0591ba762e","475","stimuli/10111112.jpg"," ","","feedback_trial","1","","","","","","","","","","","","","","","","","","","","",""
"","","","","","image-keyboard-response","206","381006","0.0-181.0","5d0e6b201b7ef6001a6346fc","665500ab8938657b03fbdba8","6657929076ac1e0591ba762e","1523","stimuli/2000011.jpg","1","","prediction_trial","2","","false","","2","false","false","true","true","false","false","[2]","000","011","0","","","","","","",""
"","","","","","image-keyboard-response","207","381373","0.0-182.0","5d0e6b201b7ef6001a6346fc","665500ab8938657b03fbdba8","6657929076ac1e0591ba762e","366","stimuli/20000112.jpg"," ","","feedback_trial","2","","","","","","","","","","","","","","","","","","","","",""
"","","","","","image-keyboard-response","208","382840","0.0-183.0","5d0e6b201b7ef6001a6346fc","665500ab8938657b03fbdba8","6657929076ac1e0591ba762e","1466","stimuli/1010110.jpg","1","","prediction_trial","1","","true","","1","false","false","false","true","false","false","[1]","010","110","1","","","","","","",""
"","","","","","image-keyboard-response","209","383148","0.0-184.0","5d0e6b201b7ef6001a6346fc","665500ab8938657b03fbdba8","6657929076ac1e0591ba762e","306","stimuli/10101101.jpg"," ","","feedback_trial","1","","","","","","","","","","","","","","","","","","","","",""
"","","","","","image-keyboard-response","210","384047","0.0-185.0","5d0e6b201b7ef6001a6346fc","665500ab8938657b03fbdba8","6657929076ac1e0591ba762e","898","stimuli/0111100.jpg","0","","prediction_trial","0","","true","","0","false","true","false","false","false","false","[0,1,2]","111","100","1","","","","","","",""
"","","","","","image-keyboard-response","211","384289","0.0-186.0","5d0e6b201b7ef6001a6346fc","665500ab8938657b03fbdba8","6657929076ac1e0591ba762e","241","stimuli/01111000.jpg"," ","","feedback_trial","0","","","","","","","","","","","","","","","","","","","","",""
"","","","","","image-keyboard-response","212","384992","0.0-187.0","5d0e6b201b7ef6001a6346fc","665500ab8938657b03fbdba8","6657929076ac1e0591ba762e","702","stimuli/1100001.jpg","0","","prediction_trial","1","","false","","1","true","true","true","true","true","true","[1]","100","001","0","","","","","","",""
"","","","","","image-keyboard-response","213","386150","0.0-188.0","5d0e6b201b7ef6001a6346fc","665500ab8938657b03fbdba8","6657929076ac1e0591ba762e","1157","stimuli/11000011.jpg"," ","","feedback_trial","1","","","","","","","","","","","","","","","","","","","","",""
"","","","","","image-keyboard-response","214","387233","0.0-189.0","5d0e6b201b7ef6001a6346fc","665500ab8938657b03fbdba8","6657929076ac1e0591ba762e","1082","stimuli/0101101.jpg","2","","prediction_trial","0","","false","","0","false","false","false","false","false","false","[0,2]","101","101","0","","","","","","",""
"","","","","","image-keyboard-response","215","387423","0.0-190.0","5d0e6b201b7ef6001a6346fc","665500ab8938657b03fbdba8","6657929076ac1e0591ba762e","188","stimuli/01011010.jpg"," ","","feedback_trial","0","","","","","","","","","","","","","","","","","","","","",""
"","","","","","image-keyboard-response","216","388745","0.0-191.0","5d0e6b201b7ef6001a6346fc","665500ab8938657b03fbdba8","6657929076ac1e0591ba762e","1320","stimuli/2011010.jpg","1","","prediction_trial","1","","true","","2","true","true","false","false","false","false","[2,1]","011","010","1","","","","","","",""
"","","","","","image-keyboard-response","217","388954","0.0-192.0","5d0e6b201b7ef6001a6346fc","665500ab8938657b03fbdba8","6657929076ac1e0591ba762e","208","stimuli/20110101.jpg"," ","","feedback_trial","2","","","","","","","","","","","","","","","","","","","","",""
"","","","","","image-keyboard-response","218","390782","0.0-193.0","5d0e6b201b7ef6001a6346fc","665500ab8938657b03fbdba8","6657929076ac1e0591ba762e","1827","stimuli/0001101.jpg","0","","prediction_trial","0","","true","","0","false","false","true","true","false","false","[0]","001","101","1","","","","","","",""
"","","","","","image-keyboard-response","219","390978","0.0-194.0","5d0e6b201b7ef6001a6346fc","665500ab8938657b03fbdba8","6657929076ac1e0591ba762e","194","stimuli/00011010.jpg"," ","","feedback_trial","0","","","","","","","","","","","","","","","","","","","","",""
"","","","","","image-keyboard-response","220","392668","0.0-195.0","5d0e6b201b7ef6001a6346fc","665500ab8938657b03fbdba8","6657929076ac1e0591ba762e","1689","stimuli/0111010.jpg","1","","prediction_trial","1","","true","","0","true","true","false","false","false","false","[1,2,0]","111","010","1","","","","","","",""
"","","","","","image-keyboard-response","221","392882","0.0-196.0","5d0e6b201b7ef6001a6346fc","665500ab8938657b03fbdba8","6657929076ac1e0591ba762e","213","stimuli/01110101.jpg"," ","","feedback_trial","1","","","","","","","","","","","","","","","","","","","","",""
"","","","","","image-keyboard-response","222","393870","0.0-197.0","5d0e6b201b7ef6001a6346fc","665500ab8938657b03fbdba8","6657929076ac1e0591ba762e","987","stimuli/2000110.jpg","2","","prediction_trial","2","","true","","2","true","true","true","true","true","true","[2]","000","110","1","","","","","","",""
"","","","","","image-keyboard-response","223","394062","0.0-198.0","5d0e6b201b7ef6001a6346fc","665500ab8938657b03fbdba8","6657929076ac1e0591ba762e","191","stimuli/20001102.jpg"," ","","feedback_trial","2","","","","","","","","","","","","","","","","","","","","",""
"","","","","","image-keyboard-response","224","395334","0.0-199.0","5d0e6b201b7ef6001a6346fc","665500ab8938657b03fbdba8","6657929076ac1e0591ba762e","1271","stimuli/2100101.jpg","2","","prediction_trial","2","","true","","2","false","false","true","true","false","false","[2]","100","101","1","","","","","","",""
"","","","","","image-keyboard-response","225","395580","0.0-200.0","5d0e6b201b7ef6001a6346fc","665500ab8938657b03fbdba8","6657929076ac1e0591ba762e","244","stimuli/21001012.jpg"," ","","feedback_trial","2","","","","","","","","","","","","","","","","","","","","",""
"","","","","","image-keyboard-response","226","398875","0.0-201.0","5d0e6b201b7ef6001a6346fc","665500ab8938657b03fbdba8","6657929076ac1e0591ba762e","3293","stimuli/1101111.jpg","2","","prediction_trial","1","","false","","1","false","false","true","true","false","false","[1]","101","111","0","","","","","","",""
"","","","","","image-keyboard-response","227","399424","0.0-202.0","5d0e6b201b7ef6001a6346fc","665500ab8938657b03fbdba8","6657929076ac1e0591ba762e","547","stimuli/11011111.jpg"," ","","feedback_trial","1","","","","","","","","","","","","","","","","","","","","",""
"","","","","","image-keyboard-response","228","400263","0.0-203.0","5d0e6b201b7ef6001a6346fc","665500ab8938657b03fbdba8","6657929076ac1e0591ba762e","838","stimuli/0010010.jpg","0","","prediction_trial","0","","true","","0","true","true","true","true","true","true","[0]","010","010","1","","","","","","",""
"","","","","","image-keyboard-response","229","400468","0.0-204.0","5d0e6b201b7ef6001a6346fc","665500ab8938657b03fbdba8","6657929076ac1e0591ba762e","203","stimuli/00100100.jpg"," ","","feedback_trial","0","","","","","","","","","","","","","","","","","","","","",""
"","","","","","image-keyboard-response","230","401210","0.0-205.0","5d0e6b201b7ef6001a6346fc","665500ab8938657b03fbdba8","6657929076ac1e0591ba762e","741","stimuli/0100010.jpg","0","","prediction_trial","0","","true","","0","true","true","false","true","false","true","[0]","100","010","1","","","","","","",""
"","","","","","image-keyboard-response","231","401370","0.0-206.0","5d0e6b201b7ef6001a6346fc","665500ab8938657b03fbdba8","6657929076ac1e0591ba762e","159","stimuli/01000100.jpg"," ","","feedback_trial","0","","","","","","","","","","","","","","","","","","","","",""
"","","","","","image-keyboard-response","232","402016","0.0-207.0","5d0e6b201b7ef6001a6346fc","665500ab8938657b03fbdba8","6657929076ac1e0591ba762e","645","stimuli/1001000.jpg","1","","prediction_trial","1","","true","","1","true","true","true","true","true","true","[1]","001","000","1","","","","","","",""
"","","","","","image-keyboard-response","233","402217","0.0-208.0","5d0e6b201b7ef6001a6346fc","665500ab8938657b03fbdba8","6657929076ac1e0591ba762e","199","stimuli/10010001.jpg"," ","","feedback_trial","1","","","","","","","","","","","","","","","","","","","","",""
"","","","","","image-keyboard-response","234","403774","0.0-209.0","5d0e6b201b7ef6001a6346fc","665500ab8938657b03fbdba8","6657929076ac1e0591ba762e","1556","stimuli/1010111.jpg","0","","prediction_trial","1","","false","","1","false","false","false","true","false","false","[1]","010","111","0","","","","","","",""
"","","","","","image-keyboard-response","235","404698","0.0-210.0","5d0e6b201b7ef6001a6346fc","665500ab8938657b03fbdba8","6657929076ac1e0591ba762e","923","stimuli/10101111.jpg"," ","","feedback_trial","1","","","","","","","","","","","","","","","","","","","","",""
"","","","","","image-keyboard-response","236","406076","0.0-211.0","5d0e6b201b7ef6001a6346fc","665500ab8938657b03fbdba8","6657929076ac1e0591ba762e","1376","stimuli/0000101.jpg","2","","prediction_trial","0","","false","","0","false","false","true","true","false","false","[0]","000","101","0","","","","","","",""
"","","","","","image-keyboard-response","237","406584","0.0-212.0","5d0e6b201b7ef6001a6346fc","665500ab8938657b03fbdba8","6657929076ac1e0591ba762e","507","stimuli/00001010.jpg"," ","","feedback_trial","0","","","","","","","","","","","","","","","","","","","","",""
"","","","","","image-keyboard-response","238","407685","0.0-213.0","5d0e6b201b7ef6001a6346fc","665500ab8938657b03fbdba8","6657929076ac1e0591ba762e","1099","stimuli/2111000.jpg","2","","prediction_trial","0","","false","","2","true","true","false","false","false","false","[0,1,2]","111","000","0","","","","","","",""
"","","","","","image-keyboard-response","239","407924","0.0-214.0","5d0e6b201b7ef6001a6346fc","665500ab8938657b03fbdba8","6657929076ac1e0591ba762e","238","stimuli/21110000.jpg"," ","","feedback_trial","0","","","","","","","","","","","","","","","","","","","","",""
"","","","","","image-keyboard-response","240","408760","0.0-215.0","5d0e6b201b7ef6001a6346fc","665500ab8938657b03fbdba8","6657929076ac1e0591ba762e","835","stimuli/2000111.jpg","2","","prediction_trial","2","","true","","2","false","false","true","true","false","false","[2]","000","111","1","","","","","","",""
"","","","","","image-keyboard-response","241","408968","0.0-216.0","5d0e6b201b7ef6001a6346fc","665500ab8938657b03fbdba8","6657929076ac1e0591ba762e","207","stimuli/20001112.jpg"," ","","feedback_trial","2","","","","","","","","","","","","","","","","","","","","",""
"","","","","","image-keyboard-response","242","409831","0.0-217.0","5d0e6b201b7ef6001a6346fc","665500ab8938657b03fbdba8","6657929076ac1e0591ba762e","862","stimuli/0011010.jpg","0","","prediction_trial","0","","true","","0","true","true","true","true","true","true","[0]","011","010","1","","","","","","",""
"","","","","","image-keyboard-response","243","409997","0.0-218.0","5d0e6b201b7ef6001a6346fc","665500ab8938657b03fbdba8","6657929076ac1e0591ba762e","164","stimuli/00110100.jpg"," ","","feedback_trial","0","","","","","","","","","","","","","","","","","","","","",""
"","","","","","image-keyboard-response","244","410788","0.0-219.0","5d0e6b201b7ef6001a6346fc","665500ab8938657b03fbdba8","6657929076ac1e0591ba762e","789","stimuli/2110001.jpg","2","","prediction_trial","2","","true","","2","false","true","true","true","false","true","[2]","110","001","1","","","","","","",""
"","","","","","image-keyboard-response","245","410988","0.0-220.0","5d0e6b201b7ef6001a6346fc","665500ab8938657b03fbdba8","6657929076ac1e0591ba762e","199","stimuli/21100012.jpg"," ","","feedback_trial","2","","","","","","","","","","","","","","","","","","","","",""
"","","","","","image-keyboard-response","246","411745","0.0-221.0","5d0e6b201b7ef6001a6346fc","665500ab8938657b03fbdba8","6657929076ac1e0591ba762e","755","stimuli/2110100.jpg","2","","prediction_trial","2","","true","","2","true","true","true","true","true","true","[2]","110","100","1","","","","","","",""
"","","","","","image-keyboard-response","247","411896","0.0-222.0","5d0e6b201b7ef6001a6346fc","665500ab8938657b03fbdba8","6657929076ac1e0591ba762e","150","stimuli/21101002.jpg"," ","","feedback_trial","2","","","","","","","","","","","","","","","","","","","","",""
"","","","","","image-keyboard-response","248","413546","0.0-223.0","5d0e6b201b7ef6001a6346fc","665500ab8938657b03fbdba8","6657929076ac1e0591ba762e","1648","stimuli/2111011.jpg","1","","prediction_trial","1","","true","","2","false","false","false","false","false","false","[2,0,1]","111","011","1","","","","","","",""
"","","","","","image-keyboard-response","249","413764","0.0-224.0","5d0e6b201b7ef6001a6346fc","665500ab8938657b03fbdba8","6657929076ac1e0591ba762e","218","stimuli/21110111.jpg"," ","","feedback_trial","2","","","","","","","","","","","","","","","","","","","","",""
"","","","","","image-keyboard-response","250","415286","0.0-225.0","5d0e6b201b7ef6001a6346fc","665500ab8938657b03fbdba8","6657929076ac1e0591ba762e","1520","stimuli/2011000.jpg","1","","prediction_trial","1","","true","","2","true","true","false","false","false","false","[1,2]","011","000","1","","","","","","",""
"","","","","","image-keyboard-response","251","415414","0.0-226.0","5d0e6b201b7ef6001a6346fc","665500ab8938657b03fbdba8","6657929076ac1e0591ba762e","127","stimuli/20110001.jpg"," ","","feedback_trial","1","","","","","","","","","","","","","","","","","","","","",""
"","","","","","image-keyboard-response","252","417857","0.0-227.0","5d0e6b201b7ef6001a6346fc","665500ab8938657b03fbdba8","6657929076ac1e0591ba762e","2443","stimuli/0110100.jpg","1","","prediction_trial","1","","true","","0","false","true","false","false","false","false","[0,1]","110","100","1","","","","","","",""
"","","","","","image-keyboard-response","253","418029","0.0-228.0","5d0e6b201b7ef6001a6346fc","665500ab8938657b03fbdba8","6657929076ac1e0591ba762e","170","stimuli/01101001.jpg"," ","","feedback_trial","0","","","","","","","","","","","","","","","","","","","","",""
"","","","","","image-keyboard-response","254","419953","0.0-229.0","5d0e6b201b7ef6001a6346fc","665500ab8938657b03fbdba8","6657929076ac1e0591ba762e","1923","stimuli/1000011.jpg","1","","prediction_trial","1","","true","","1","false","false","true","true","false","false","[1]","000","011","1","","","","","","",""
"","","","","","image-keyboard-response","255","420501","0.0-230.0","5d0e6b201b7ef6001a6346fc","665500ab8938657b03fbdba8","6657929076ac1e0591ba762e","546","stimuli/10000111.jpg"," ","","feedback_trial","1","","","","","","","","","","","","","","","","","","","","",""
"","","","","","image-keyboard-response","256","421523","0.0-231.0","5d0e6b201b7ef6001a6346fc","665500ab8938657b03fbdba8","6657929076ac1e0591ba762e","1021","stimuli/0100011.jpg","0","","prediction_trial","0","","true","","0","true","true","false","true","false","true","[0]","100","011","1","","","","","","",""
"","","","","","image-keyboard-response","257","421741","0.0-232.0","5d0e6b201b7ef6001a6346fc","665500ab8938657b03fbdba8","6657929076ac1e0591ba762e","216","stimuli/01000110.jpg"," ","","feedback_trial","0","","","","","","","","","","","","","","","","","","","","",""
"","","","","","image-keyboard-response","258","422545","0.0-233.0","5d0e6b201b7ef6001a6346fc","665500ab8938657b03fbdba8","6657929076ac1e0591ba762e","803","stimuli/1010000.jpg","1","","prediction_trial","1","","true","","1","true","true","false","true","false","true","[1]","010","000","1","","","","","","",""
"","","","","","image-keyboard-response","259","422760","0.0-234.0","5d0e6b201b7ef6001a6346fc","665500ab8938657b03fbdba8","6657929076ac1e0591ba762e","214","stimuli/10100001.jpg"," ","","feedback_trial","1","","","","","","","","","","","","","","","","","","","","",""
"","","","","","image-keyboard-response","260","423975","0.0-235.0","5d0e6b201b7ef6001a6346fc","665500ab8938657b03fbdba8","6657929076ac1e0591ba762e","1214","stimuli/1000000.jpg","1","","prediction_trial","1","","true","","1","true","true","true","true","true","true","[1]","000","000","1","","","","","","",""
"","","","","","image-keyboard-response","261","424269","0.0-236.0","5d0e6b201b7ef6001a6346fc","665500ab8938657b03fbdba8","6657929076ac1e0591ba762e","293","stimuli/10000001.jpg"," ","","feedback_trial","1","","","","","","","","","","","","","","","","","","","","",""
"","","","","","image-keyboard-response","262","425911","0.0-237.0","5d0e6b201b7ef6001a6346fc","665500ab8938657b03fbdba8","6657929076ac1e0591ba762e","1641","stimuli/0010111.jpg","2","","prediction_trial","0","","false","","0","false","false","true","true","false","false","[0]","010","111","0","","","","","","",""
"","","","","","image-keyboard-response","263","426190","0.0-238.0","5d0e6b201b7ef6001a6346fc","665500ab8938657b03fbdba8","6657929076ac1e0591ba762e","278","stimuli/00101110.jpg"," ","","feedback_trial","0","","","","","","","","","","","","","","","","","","","","",""
"","","","","","image-keyboard-response","264","427460","0.0-239.0","5d0e6b201b7ef6001a6346fc","665500ab8938657b03fbdba8","6657929076ac1e0591ba762e","1269","stimuli/2001101.jpg","0","","prediction_trial","2","","false","","2","false","false","false","true","false","false","[2]","001","101","0","","","","","","",""
"","","","","","image-keyboard-response","265","427660","0.0-240.0","5d0e6b201b7ef6001a6346fc","665500ab8938657b03fbdba8","6657929076ac1e0591ba762e","198","stimuli/20011012.jpg"," ","","feedback_trial","2","","","","","","","","","","","","","","","","","","","","",""
"","","","","","image-keyboard-response","266","428833","0.0-241.0","5d0e6b201b7ef6001a6346fc","665500ab8938657b03fbdba8","6657929076ac1e0591ba762e","1171","stimuli/1100011.jpg","1","","prediction_trial","1","","true","","1","false","false","true","true","false","false","[1]","100","011","1","","","","","","",""
"","","","","","image-keyboard-response","267","429139","0.0-242.0","5d0e6b201b7ef6001a6346fc","665500ab8938657b03fbdba8","6657929076ac1e0591ba762e","305","stimuli/11000111.jpg"," ","","feedback_trial","1","","","","","","","","","","","","","","","","","","","","",""
"","","","","","image-keyboard-response","268","430556","0.0-243.0","5d0e6b201b7ef6001a6346fc","665500ab8938657b03fbdba8","6657929076ac1e0591ba762e","1416","stimuli/2011111.jpg","1","","prediction_trial","2","","false","","2","false","false","false","false","false","false","[2,1]","011","111","0","","","","","","",""
"","","","","","image-keyboard-response","269","430799","0.0-244.0","5d0e6b201b7ef6001a6346fc","665500ab8938657b03fbdba8","6657929076ac1e0591ba762e","241","stimuli/20111112.jpg"," ","","feedback_trial","2","","","","","","","","","","","","","","","","","","","","",""
"","","","","","image-keyboard-response","270","431406","0.0-245.0","5d0e6b201b7ef6001a6346fc","665500ab8938657b03fbdba8","6657929076ac1e0591ba762e","607","stimuli/1011000.jpg","1","","prediction_trial","1","","true","","1","true","true","false","false","false","false","[1,2]","011","000","1","","","","","","",""
"","","","","","image-keyboard-response","271","431654","0.0-246.0","5d0e6b201b7ef6001a6346fc","665500ab8938657b03fbdba8","6657929076ac1e0591ba762e","246","stimuli/10110001.jpg"," ","","feedback_trial","1","","","","","","","","","","","","","","","","","","","","",""
"","","","","","image-keyboard-response","272","439759","0.0-247.0","5d0e6b201b7ef6001a6346fc","665500ab8938657b03fbdba8","6657929076ac1e0591ba762e","8104","stimuli/2110110.jpg","1","","prediction_trial","2","","false","","2","true","true","true","true","true","true","[2]","110","110","0","","","","","","",""
"","","","","","image-keyboard-response","273","439906","0.0-248.0","5d0e6b201b7ef6001a6346fc","665500ab8938657b03fbdba8","6657929076ac1e0591ba762e","145","stimuli/21101102.jpg"," ","","feedback_trial","2","","","","","","","","","","","","","","","","","","","","",""
"","","","","","image-keyboard-response","274","440927","0.0-249.0","5d0e6b201b7ef6001a6346fc","665500ab8938657b03fbdba8","6657929076ac1e0591ba762e","1020","stimuli/1001011.jpg","1","","prediction_trial","1","","true","","1","false","false","true","true","false","false","[1]","001","011","1","","","","","","",""
"","","","","","image-keyboard-response","275","441038","0.0-250.0","5d0e6b201b7ef6001a6346fc","665500ab8938657b03fbdba8","6657929076ac1e0591ba762e","109","stimuli/10010111.jpg"," ","","feedback_trial","1","","","","","","","","","","","","","","","","","","","","",""
"","","","","","image-keyboard-response","276","442273","0.0-251.0","5d0e6b201b7ef6001a6346fc","665500ab8938657b03fbdba8","6657929076ac1e0591ba762e","1233","stimuli/1100111.jpg","1","","prediction_trial","1","","true","","1","false","false","true","true","false","false","[1]","100","111","1","","","","","","",""
"","","","","","image-keyboard-response","277","442427","0.0-252.0","5d0e6b201b7ef6001a6346fc","665500ab8938657b03fbdba8","6657929076ac1e0591ba762e","154","stimuli/11001111.jpg"," ","","feedback_trial","1","","","","","","","","","","","","","","","","","","","","",""
"","","","","","image-keyboard-response","278","443427","0.0-253.0","5d0e6b201b7ef6001a6346fc","665500ab8938657b03fbdba8","6657929076ac1e0591ba762e","999","stimuli/2011100.jpg","2","","prediction_trial","1","","false","","2","true","true","false","false","false","false","[1,2]","011","100","0","","","","","","",""
"","","","","","image-keyboard-response","279","443567","0.0-254.0","5d0e6b201b7ef6001a6346fc","665500ab8938657b03fbdba8","6657929076ac1e0591ba762e","138","stimuli/20111001.jpg"," ","","feedback_trial","1","","","","","","","","","","","","","","","","","","","","",""
"","","","","","image-keyboard-response","280","444580","0.0-255.0","5d0e6b201b7ef6001a6346fc","665500ab8938657b03fbdba8","6657929076ac1e0591ba762e","1012","stimuli/0110110.jpg","1","","prediction_trial","1","","true","","0","false","false","false","false","false","false","[1,0]","110","110","1","","","","","","",""
"","","","","","image-keyboard-response","281","444750","0.0-256.0","5d0e6b201b7ef6001a6346fc","665500ab8938657b03fbdba8","6657929076ac1e0591ba762e","168","stimuli/01101101.jpg"," ","","feedback_trial","1","","","","","","","","","","","","","","","","","","","","",""
"","","","","","image-keyboard-response","282","445594","0.0-257.0","5d0e6b201b7ef6001a6346fc","665500ab8938657b03fbdba8","6657929076ac1e0591ba762e","843","stimuli/2010100.jpg","2","","prediction_trial","2","","true","","2","true","true","true","true","true","true","[2]","010","100","1","","","","","","",""
"","","","","","image-keyboard-response","283","445744","0.0-258.0","5d0e6b201b7ef6001a6346fc","665500ab8938657b03fbdba8","6657929076ac1e0591ba762e","148","stimuli/20101002.jpg"," ","","feedback_trial","2","","","","","","","","","","","","","","","","","","","","",""
"","","","","","image-keyboard-response","284","446715","0.0-259.0","5d0e6b201b7ef6001a6346fc","665500ab8938657b03fbdba8","6657929076ac1e0591ba762e","970","stimuli/1011110.jpg","0","","prediction_trial","2","","false","","1","false","false","false","false","false","false","[2,1]","011","110","0","","","","","","",""
"","","","","","image-keyboard-response","285","446917","0.0-260.0","5d0e6b201b7ef6001a6346fc","665500ab8938657b03fbdba8","6657929076ac1e0591ba762e","200","stimuli/10111102.jpg"," ","","feedback_trial","2","","","","","","","","","","","","","","","","","","","","",""
"","","","","","image-keyboard-response","286","448050","0.0-261.0","5d0e6b201b7ef6001a6346fc","665500ab8938657b03fbdba8","6657929076ac1e0591ba762e","1132","stimuli/0010110.jpg","0","","prediction_trial","0","","true","","0","false","false","true","true","false","false","[0]","010","110","1","","","","","","",""
"","","","","","image-keyboard-response","287","448186","0.0-262.0","5d0e6b201b7ef6001a6346fc","665500ab8938657b03fbdba8","6657929076ac1e0591ba762e","134","stimuli/00101100.jpg"," ","","feedback_trial","0","","","","","","","","","","","","","","","","","","","","",""
"","","","","","image-keyboard-response","288","448812","0.0-263.0","5d0e6b201b7ef6001a6346fc","665500ab8938657b03fbdba8","6657929076ac1e0591ba762e","625","stimuli/1001101.jpg","1","","prediction_trial","1","","true","","1","true","true","true","true","true","true","[1]","001","101","1","","","","","","",""
"","","","","","image-keyboard-response","289","448952","0.0-264.0","5d0e6b201b7ef6001a6346fc","665500ab8938657b03fbdba8","6657929076ac1e0591ba762e","139","stimuli/10011011.jpg"," ","","feedback_trial","1","","","","","","","","","","","","","","","","","","","","",""
"","","","","","image-keyboard-response","290","449944","0.0-265.0","5d0e6b201b7ef6001a6346fc","665500ab8938657b03fbdba8","6657929076ac1e0591ba762e","991","stimuli/0000100.jpg","0","","prediction_trial","0","","true","","0","false","true","true","true","false","true","[0]","000","100","1","","","","","","",""
"","","","","","image-keyboard-response","291","450071","0.0-266.0","5d0e6b201b7ef6001a6346fc","665500ab8938657b03fbdba8","6657929076ac1e0591ba762e","125","stimuli/00001000.jpg"," ","","feedback_trial","0","","","","","","","","","","","","","","","","","","","","",""
"","","","","","image-keyboard-response","292","450867","0.0-267.0","5d0e6b201b7ef6001a6346fc","665500ab8938657b03fbdba8","6657929076ac1e0591ba762e","794","stimuli/2111110.jpg","2","","prediction_trial","0","","false","","2","true","true","false","false","false","false","[2,1,0]","111","110","0","","","","","","",""
"","","","","","image-keyboard-response","293","451039","0.0-268.0","5d0e6b201b7ef6001a6346fc","665500ab8938657b03fbdba8","6657929076ac1e0591ba762e","171","stimuli/21111100.jpg"," ","","feedback_trial","2","","","","","","","","","","","","","","","","","","","","",""
"","","","","","image-keyboard-response","294","451902","0.0-269.0","5d0e6b201b7ef6001a6346fc","665500ab8938657b03fbdba8","6657929076ac1e0591ba762e","862","stimuli/2010000.jpg","2","","prediction_trial","2","","true","","2","true","true","true","true","true","true","[2]","010","000","1","","","","","","",""
"","","","","","image-keyboard-response","295","452059","0.0-270.0","5d0e6b201b7ef6001a6346fc","665500ab8938657b03fbdba8","6657929076ac1e0591ba762e","156","stimuli/20100002.jpg"," ","","feedback_trial","2","","","","","","","","","","","","","","","","","","","","",""
"","","","","","image-keyboard-response","296","453314","0.0-271.0","5d0e6b201b7ef6001a6346fc","665500ab8938657b03fbdba8","6657929076ac1e0591ba762e","1253","stimuli/2111101.jpg","2","","prediction_trial","0","","false","","2","false","false","false","false","false","false","[2,1,0]","111","101","0","","","","","","",""
"","","","","","image-keyboard-response","297","453496","0.0-272.0","5d0e6b201b7ef6001a6346fc","665500ab8938657b03fbdba8","6657929076ac1e0591ba762e","181","stimuli/21111010.jpg"," ","","feedback_trial","2","","","","","","","","","","","","","","","","","","","","",""
"","","","","","image-keyboard-response","298","454105","0.0-273.0","5d0e6b201b7ef6001a6346fc","665500ab8938657b03fbdba8","6657929076ac1e0591ba762e","607","stimuli/1101001.jpg","1","","prediction_trial","1","","true","","1","true","true","true","true","true","true","[1]","101","001","1","","","","","","",""
"","","","","","image-keyboard-response","299","454258","0.0-274.0","5d0e6b201b7ef6001a6346fc","665500ab8938657b03fbdba8","6657929076ac1e0591ba762e","152","stimuli/11010011.jpg"," ","","feedback_trial","1","","","","","","","","","","","","","","","","","","","","",""
"","","","","","image-keyboard-response","300","454943","0.0-275.0","5d0e6b201b7ef6001a6346fc","665500ab8938657b03fbdba8","6657929076ac1e0591ba762e","684","stimuli/2011110.jpg","2","","prediction_trial","1","","false","","2","true","true","false","false","false","false","[1,2]","011","110","0","","","","","","",""
"","","","","","image-keyboard-response","301","455103","0.0-276.0","5d0e6b201b7ef6001a6346fc","665500ab8938657b03fbdba8","6657929076ac1e0591ba762e","159","stimuli/20111101.jpg"," ","","feedback_trial","1","","","","","","","","","","","","","","","","","","","","",""
"","","","","","image-keyboard-response","302","456107","0.0-277.0","5d0e6b201b7ef6001a6346fc","665500ab8938657b03fbdba8","6657929076ac1e0591ba762e","1002","stimuli/2101111.jpg","1","","prediction_trial","2","","false","","2","false","false","false","false","false","false","[2,0]","101","111","0","","","","","","",""
"","","","","","image-keyboard-response","303","456339","0.0-278.0","5d0e6b201b7ef6001a6346fc","665500ab8938657b03fbdba8","6657929076ac1e0591ba762e","231","stimuli/21011112.jpg"," ","","feedback_trial","2","","","","","","","","","","","","","","","","","","","","",""
"","","","","","image-keyboard-response","304","457467","0.0-279.0","5d0e6b201b7ef6001a6346fc","665500ab8938657b03fbdba8","6657929076ac1e0591ba762e","1126","stimuli/0100110.jpg","0","","prediction_trial","0","","true","","0","false","false","false","true","false","false","[0]","100","110","1","","","","","","",""
"","","","","","image-keyboard-response","305","457668","0.0-280.0","5d0e6b201b7ef6001a6346fc","665500ab8938657b03fbdba8","6657929076ac1e0591ba762e","199","stimuli/01001100.jpg"," ","","feedback_trial","0","","","","","","","","","","","","","","","","","","","","",""
"","","","","","image-keyboard-response","306","458724","0.0-281.0","5d0e6b201b7ef6001a6346fc","665500ab8938657b03fbdba8","6657929076ac1e0591ba762e","1055","stimuli/2110101.jpg","2","","prediction_trial","2","","true","","2","false","false","true","true","false","false","[2]","110","101","1","","","","","","",""
"","","","","","image-keyboard-response","307","458932","0.0-282.0","5d0e6b201b7ef6001a6346fc","665500ab8938657b03fbdba8","6657929076ac1e0591ba762e","207","stimuli/21101012.jpg"," ","","feedback_trial","2","","","","","","","","","","","","","","","","","","","","",""
"","","","","","image-keyboard-response","308","460240","0.0-283.0","5d0e6b201b7ef6001a6346fc","665500ab8938657b03fbdba8","6657929076ac1e0591ba762e","1307","stimuli/2100111.jpg","1","","prediction_trial","2","","false","","2","false","false","true","true","false","false","[2]","100","111","0","","","","","","",""
"","","","","","image-keyboard-response","309","460471","0.0-284.0","5d0e6b201b7ef6001a6346fc","665500ab8938657b03fbdba8","6657929076ac1e0591ba762e","229","stimuli/21001112.jpg"," ","","feedback_trial","2","","","","","","","","","","","","","","","","","","","","",""
"","","","","","image-keyboard-response","310","461355","0.0-285.0","5d0e6b201b7ef6001a6346fc","665500ab8938657b03fbdba8","6657929076ac1e0591ba762e","883","stimuli/0111101.jpg","0","","prediction_trial","2","","false","","0","false","false","false","false","false","false","[1,2,0]","111","101","0","","","","","","",""
"","","","","","image-keyboard-response","311","461505","0.0-286.0","5d0e6b201b7ef6001a6346fc","665500ab8938657b03fbdba8","6657929076ac1e0591ba762e","149","stimuli/01111012.jpg"," ","","feedback_trial","1","","","","","","","","","","","","","","","","","","","","",""
"","","","","","image-keyboard-response","312","462126","0.0-287.0","5d0e6b201b7ef6001a6346fc","665500ab8938657b03fbdba8","6657929076ac1e0591ba762e","620","stimuli/0101001.jpg","0","","prediction_trial","0","","true","","0","true","true","false","false","false","false","[2,0]","101","001","1","","","","","","",""
"","","","","","image-keyboard-response","313","462270","0.0-288.0","5d0e6b201b7ef6001a6346fc","665500ab8938657b03fbdba8","6657929076ac1e0591ba762e","142","stimuli/01010010.jpg"," ","","feedback_trial","2","","","","","","","","","","","","","","","","","","","","",""
"","","","","","image-keyboard-response","314","462974","0.0-289.0","5d0e6b201b7ef6001a6346fc","665500ab8938657b03fbdba8","6657929076ac1e0591ba762e","703","stimuli/1111100.jpg","1","","prediction_trial","1","","true","","1","true","true","false","false","false","false","[0,1,2]","111","100","1","","","","","","",""
"","","","","","image-keyboard-response","315","463170","0.0-290.0","5d0e6b201b7ef6001a6346fc","665500ab8938657b03fbdba8","6657929076ac1e0591ba762e","194","stimuli/11111001.jpg"," ","","feedback_trial","0","","","","","","","","","","","","","","","","","","","","",""
"","","","","","image-keyboard-response","316","463836","0.0-291.0","5d0e6b201b7ef6001a6346fc","665500ab8938657b03fbdba8","6657929076ac1e0591ba762e","665","stimuli/0101010.jpg","0","","prediction_trial","0","","true","","0","true","true","false","false","false","false","[2,0]","101","010","1","","","","","","",""
"","","","","","image-keyboard-response","317","463960","0.0-292.0","5d0e6b201b7ef6001a6346fc","665500ab8938657b03fbdba8","6657929076ac1e0591ba762e","123","stimuli/01010100.jpg"," ","","feedback_trial","2","","","","","","","","","","","","","","","","","","","","",""
"","","","","","survey-html-form","318","475800","0.0-293.0","5d0e6b201b7ef6001a6346fc","665500ab8938657b03fbdba8","6657929076ac1e0591ba762e","11835","","{""feedback"":"""",""age"":""23"",""gender"":""Female"",""other_gender"":"""",""race"":""White"",""other_race"":"""",""ethnicity"":""Non-Hispanic""}","","exit_survey","","","","","","","","","","","","","","","","","23","Non-Hispanic","Female","White","0.6597222222222222","0.6597222222222222"
