"success","timeout","failed_images","failed_audio","failed_video","trial_type","trial_index","time_elapsed","internal_node_id","prolific_id","prolific_study_id","prolific_session_id","rt","stimulus","response","view_history","trial","character_choice","stimulus_dict","accuracy","correct_response","ball_pos","ego_ball_visible","ego_can_infer","alter_ball_visible","alter_can_infer","collective_ball_visible","collective_can_infer","search_locations","alter_occluders","ego_occluders","accuracy_bool","feedback","age","ethnicity","gender","race","overall_accuracy","bonus"
"true","false","[]","[]","[]","preload","0","3325","0.0-0.0","5ddeed7ba4aa26f9afcd1ef6","665500ab8938657b03fbdba8","665798f551cf2402886e651e","","","","","","","","","","","","","","","","","","","","","","","","","","",""
"true","","","","","fullscreen","1","6566","0.0-1.0","5ddeed7ba4aa26f9afcd1ef6","665500ab8938657b03fbdba8","665798f551cf2402886e651e","","","","","","","","","","","","","","","","","","","","","","","","","","",""
"","","","","","html-button-response","2","13182","0.0-2.0","5ddeed7ba4aa26f9afcd1ef6","665500ab8938657b03fbdba8","665798f551cf2402886e651e","6613","<p><b>Consent Form</b></p> <div style=""text-align:left;background-color:lightgrey; padding:20px; max-width:900px;""><p>Please consider this information carefully before deciding whether to participate in this research.</p> <p>The purpose of this research is to examine which factors influence social judgment and decision-making. You will be asked to make judgements about individuals and actions in social scenarios. We are simply interested in your judgement. The study will take less than 1 hour to complete, and you will receive less than $20 on Prolific. Your compensation and time commitment are specified in the study description. There are no anticipated risks associated with participating in this study. The effects of participating should be comparable to those you would ordinarily experience from viewing a computer monitor and using a mouse or keyboard for a similar amount of time. At the end of the study, we will provide an explanation of the questions that motivate this line of research and will describe the potential implications. </p><p> Your participation in this study is completely voluntary and you may refuse to participate or you may choose to withdraw at any time without penalty or loss of benefits to you which are otherwise entitled. Your participation in this study will remain confidential. No personally identifiable information will be associated with your data. Also, all analyses of the data will be averaged across all the participants, so your individual responses will never be specifically analyzed. </p><p> If you have questions or concerns about your participation or payment, or want to request a summary of research findings, please contact Dr. Jonathan Phillips at Jonathan.S.Phillips@dartmouth.edu. </p><p> Please save a copy of this form for your records. </p><p><b>Agreement: </b>The nature and purpose of this research have been sufficiently explained and I agree to participate in this study. I understand that I am free to withdraw at any time without incurring any penalty. Please consent by clicking the button below to continue. Otherwise, please exit the study at any time. </p>","0","","","","","","","","","","","","","","","","","","","","","","","",""
"","","","","","instructions","3","135461","0.0-3.0-0.0","5ddeed7ba4aa26f9afcd1ef6","665500ab8938657b03fbdba8","665798f551cf2402886e651e","122277","","","[{""page_index"":0,""viewing_time"":10378},{""page_index"":1,""viewing_time"":24525},{""page_index"":2,""viewing_time"":7548},{""page_index"":3,""viewing_time"":13755},{""page_index"":4,""viewing_time"":6918},{""page_index"":5,""viewing_time"":5086},{""page_index"":6,""viewing_time"":10188},{""page_index"":7,""viewing_time"":3687},{""page_index"":8,""viewing_time"":3957},{""page_index"":9,""viewing_time"":3423},{""page_index"":10,""viewing_time"":13042},{""page_index"":11,""viewing_time"":13371},{""page_index"":12,""viewing_time"":5165},{""page_index"":13,""viewing_time"":1232}]","intro","","","","","","","","","","","","","","","","","","","","","",""
"","","","","","image-keyboard-response","4","139459","0.0-3.0-1.0","5ddeed7ba4aa26f9afcd1ef6","665500ab8938657b03fbdba8","665798f551cf2402886e651e","3989","stimuli/2000011.jpg","1","","prediction_practice","2","{""filepath"":""stimuli/2000011.jpg"",""ball_pos"":2,""ego_ball_visible"":false,""ego_can_infer"":false,""alter_ball_visible"":true,""alter_can_infer"":true,""collective_ball_visible"":false,""collective_can_infer"":false,""search_locations"":[2],""alter_occluders"":""000"",""ego_occluders"":""011""}","false","","","","","","","","","","","","","","","","","","",""
"","","","","","image-keyboard-response","5","141525","0.0-3.0-2.0","5ddeed7ba4aa26f9afcd1ef6","665500ab8938657b03fbdba8","665798f551cf2402886e651e","2064","stimuli/20000112.jpg"," ","","practrice_feedback","2","","","","","","","","","","","","","","","","","","","","",""
"","","","","","image-keyboard-response","6","142786","0.0-3.0-3.0","5ddeed7ba4aa26f9afcd1ef6","665500ab8938657b03fbdba8","665798f551cf2402886e651e","1259","stimuli/1010001.jpg","2","","prediction_practice","1","{""filepath"":""stimuli/1010001.jpg"",""ball_pos"":1,""ego_ball_visible"":true,""ego_can_infer"":true,""alter_ball_visible"":false,""alter_can_infer"":true,""collective_ball_visible"":false,""collective_can_infer"":true,""search_locations"":[1],""alter_occluders"":""010"",""ego_occluders"":""001""}","false","","","","","","","","","","","","","","","","","","",""
"","","","","","image-keyboard-response","7","143849","0.0-3.0-4.0","5ddeed7ba4aa26f9afcd1ef6","665500ab8938657b03fbdba8","665798f551cf2402886e651e","1061","stimuli/10100011.jpg"," ","","practrice_feedback","1","","","","","","","","","","","","","","","","","","","","",""
"","","","","","image-keyboard-response","8","144799","0.0-3.0-5.0","5ddeed7ba4aa26f9afcd1ef6","665500ab8938657b03fbdba8","665798f551cf2402886e651e","948","stimuli/2101110.jpg","0","","prediction_practice","0","{""filepath"":""stimuli/2101110.jpg"",""ball_pos"":2,""ego_ball_visible"":true,""ego_can_infer"":true,""alter_ball_visible"":false,""alter_can_infer"":false,""collective_ball_visible"":false,""collective_can_infer"":false,""search_locations"":[0,2],""alter_occluders"":""101"",""ego_occluders"":""110""}","true","","","","","","","","","","","","","","","","","","",""
"","","","","","image-keyboard-response","9","145931","0.0-3.0-6.0","5ddeed7ba4aa26f9afcd1ef6","665500ab8938657b03fbdba8","665798f551cf2402886e651e","1130","stimuli/21011100.jpg"," ","","practrice_feedback","0","","","","","","","","","","","","","","","","","","","","",""
"","","","","","image-keyboard-response","10","149365","0.0-3.0-7.0","5ddeed7ba4aa26f9afcd1ef6","665500ab8938657b03fbdba8","665798f551cf2402886e651e","3432","stimuli/0101001.jpg","2","","prediction_practice","0","{""filepath"":""stimuli/0101001.jpg"",""ball_pos"":0,""ego_ball_visible"":true,""ego_can_infer"":true,""alter_ball_visible"":false,""alter_can_infer"":false,""collective_ball_visible"":false,""collective_can_infer"":false,""search_locations"":[2,0],""alter_occluders"":""101"",""ego_occluders"":""001""}","false","","","","","","","","","","","","","","","","","","",""
"","","","","","image-keyboard-response","11","152970","0.0-3.0-8.0","5ddeed7ba4aa26f9afcd1ef6","665500ab8938657b03fbdba8","665798f551cf2402886e651e","3603","stimuli/01010010.jpg"," ","","practrice_feedback","2","","","","","","","","","","","","","","","","","","","","",""
"","","","","","image-keyboard-response","12","157153","0.0-3.0-9.0","5ddeed7ba4aa26f9afcd1ef6","665500ab8938657b03fbdba8","665798f551cf2402886e651e","4181","stimuli/2110011.jpg","2","","prediction_practice","2","{""filepath"":""stimuli/2110011.jpg"",""ball_pos"":2,""ego_ball_visible"":false,""ego_can_infer"":false,""alter_ball_visible"":true,""alter_can_infer"":true,""collective_ball_visible"":false,""collective_can_infer"":false,""search_locations"":[2],""alter_occluders"":""110"",""ego_occluders"":""011""}","true","","","","","","","","","","","","","","","","","","",""
"","","","","","image-keyboard-response","13","159669","0.0-3.0-10.0","5ddeed7ba4aa26f9afcd1ef6","665500ab8938657b03fbdba8","665798f551cf2402886e651e","2513","stimuli/21100112.jpg"," ","","practrice_feedback","2","","","","","","","","","","","","","","","","","","","","",""
"","","","","","image-keyboard-response","14","167375","0.0-3.0-11.0","5ddeed7ba4aa26f9afcd1ef6","665500ab8938657b03fbdba8","665798f551cf2402886e651e","7704","stimuli/0111100.jpg","0","","prediction_practice","2","{""filepath"":""stimuli/0111100.jpg"",""ball_pos"":0,""ego_ball_visible"":false,""ego_can_infer"":true,""alter_ball_visible"":false,""alter_can_infer"":false,""collective_ball_visible"":false,""collective_can_infer"":false,""search_locations"":[1,2,0],""alter_occluders"":""111"",""ego_occluders"":""100""}","false","","","","","","","","","","","","","","","","","","",""
"","","","","","image-keyboard-response","15","169246","0.0-3.0-12.0","5ddeed7ba4aa26f9afcd1ef6","665500ab8938657b03fbdba8","665798f551cf2402886e651e","1869","stimuli/01111002.jpg"," ","","practrice_feedback","1","","","","","","","","","","","","","","","","","","","","",""
"","","","","","image-keyboard-response","16","171071","0.0-3.0-13.0","5ddeed7ba4aa26f9afcd1ef6","665500ab8938657b03fbdba8","665798f551cf2402886e651e","1824","stimuli/0000111.jpg","1","","prediction_practice","0","{""filepath"":""stimuli/0000111.jpg"",""ball_pos"":0,""ego_ball_visible"":false,""ego_can_infer"":false,""alter_ball_visible"":true,""alter_can_infer"":true,""collective_ball_visible"":false,""collective_can_infer"":false,""search_locations"":[0],""alter_occluders"":""000"",""ego_occluders"":""111""}","false","","","","","","","","","","","","","","","","","","",""
"","","","","","image-keyboard-response","17","173062","0.0-3.0-14.0","5ddeed7ba4aa26f9afcd1ef6","665500ab8938657b03fbdba8","665798f551cf2402886e651e","1989","stimuli/00001110.jpg"," ","","practrice_feedback","0","","","","","","","","","","","","","","","","","","","","",""
"","","","","","image-keyboard-response","18","177715","0.0-3.0-15.0","5ddeed7ba4aa26f9afcd1ef6","665500ab8938657b03fbdba8","665798f551cf2402886e651e","4639","stimuli/0111000.jpg","0","","prediction_practice","0","{""filepath"":""stimuli/0111000.jpg"",""ball_pos"":0,""ego_ball_visible"":true,""ego_can_infer"":true,""alter_ball_visible"":false,""alter_can_infer"":false,""collective_ball_visible"":false,""collective_can_infer"":false,""search_locations"":[0,1,2],""alter_occluders"":""111"",""ego_occluders"":""000""}","true","","","","","","","","","","","","","","","","","","",""
"","","","","","image-keyboard-response","19","179785","0.0-3.0-16.0","5ddeed7ba4aa26f9afcd1ef6","665500ab8938657b03fbdba8","665798f551cf2402886e651e","2068","stimuli/01110000.jpg"," ","","practrice_feedback","0","","","","","","","","","","","","","","","","","","","","",""
"","","","","","image-keyboard-response","20","181354","0.0-3.0-17.0","5ddeed7ba4aa26f9afcd1ef6","665500ab8938657b03fbdba8","665798f551cf2402886e651e","1577","stimuli/2101010.jpg","2","","prediction_practice","0","{""filepath"":""stimuli/2101010.jpg"",""ball_pos"":2,""ego_ball_visible"":true,""ego_can_infer"":true,""alter_ball_visible"":false,""alter_can_infer"":false,""collective_ball_visible"":false,""collective_can_infer"":false,""search_locations"":[2,0],""alter_occluders"":""101"",""ego_occluders"":""010""}","false","","","","","","","","","","","","","","","","","","",""
"","","","","","image-keyboard-response","21","187110","0.0-3.0-18.0","5ddeed7ba4aa26f9afcd1ef6","665500ab8938657b03fbdba8","665798f551cf2402886e651e","5754","stimuli/21010100.jpg"," ","","practrice_feedback","2","","","","","","","","","","","","","","","","","","","","",""
"","","","","","image-keyboard-response","22","189100","0.0-3.0-19.0","5ddeed7ba4aa26f9afcd1ef6","665500ab8938657b03fbdba8","665798f551cf2402886e651e","1989","stimuli/2001001.jpg","2","","prediction_practice","2","{""filepath"":""stimuli/2001001.jpg"",""ball_pos"":2,""ego_ball_visible"":false,""ego_can_infer"":true,""alter_ball_visible"":false,""alter_can_infer"":true,""collective_ball_visible"":false,""collective_can_infer"":true,""search_locations"":[2],""alter_occluders"":""001"",""ego_occluders"":""001""}","true","","","","","","","","","","","","","","","","","","",""
"","","","","","image-keyboard-response","23","190237","0.0-3.0-20.0","5ddeed7ba4aa26f9afcd1ef6","665500ab8938657b03fbdba8","665798f551cf2402886e651e","1135","stimuli/20010012.jpg"," ","","practrice_feedback","2","","","","","","","","","","","","","","","","","","","","",""
"","","","","","html-button-response","24","193767","0.0-3.0-21.0","5ddeed7ba4aa26f9afcd1ef6","665500ab8938657b03fbdba8","665798f551cf2402886e651e","3528","Now that you've had some practice, you'll be tested with a couple of easy trials. If you correctly predict Sam's choice, you'll move on to complete the experiment!","0","","","","","","","","","","","","","","","","","","","","","","","",""
"","","","","","image-keyboard-response","25","196160","0.0-3.0-22.0-0.0","5ddeed7ba4aa26f9afcd1ef6","665500ab8938657b03fbdba8","665798f551cf2402886e651e","2392","stimuli/0000011.jpg","arrowleft","","comprehension_quiz","","","true","arrowleft","","","","","","","","","","","","","","","","","",""
"","","","","","image-keyboard-response","26","199782","0.0-3.0-22.0-1.0","5ddeed7ba4aa26f9afcd1ef6","665500ab8938657b03fbdba8","665798f551cf2402886e651e","3619","stimuli/00000110.jpg"," ","","comprehension_quiz","","","true"," ","","","","","","","","","","","","","","","","","",""
"","","","","","image-keyboard-response","27","200920","0.0-3.0-22.0-2.0","5ddeed7ba4aa26f9afcd1ef6","665500ab8938657b03fbdba8","665798f551cf2402886e651e","1137","stimuli/1010010.jpg","arrowdown","","comprehension_quiz","","","true","arrowdown","","","","","","","","","","","","","","","","","",""
"","","","","","image-keyboard-response","28","201930","0.0-3.0-22.0-3.0","5ddeed7ba4aa26f9afcd1ef6","665500ab8938657b03fbdba8","665798f551cf2402886e651e","1009","stimuli/10100101.jpg"," ","","comprehension_quiz","","","true"," ","","","","","","","","","","","","","","","","","",""
"","","","","","html-button-response","29","205831","0.0-4.0","5ddeed7ba4aa26f9afcd1ef6","665500ab8938657b03fbdba8","665798f551cf2402886e651e","3897","The experiment will now begin.","0","","","","","","","","","","","","","","","","","","","","","","","",""
"","","","","","image-keyboard-response","30","208732","0.0-5.0","5ddeed7ba4aa26f9afcd1ef6","665500ab8938657b03fbdba8","665798f551cf2402886e651e","2886","stimuli/2011110.jpg","1","","prediction_trial","2","","false","","2","true","true","false","false","false","false","[1,2]","011","110","0","","","","","","",""
"","","","","","image-keyboard-response","31","212803","0.0-6.0","5ddeed7ba4aa26f9afcd1ef6","665500ab8938657b03fbdba8","665798f551cf2402886e651e","4069","stimuli/20111102.jpg"," ","","feedback_trial","1","","","","","","","","","","","","","","","","","","","","",""
"","","","","","image-keyboard-response","32","217839","0.0-7.0","5ddeed7ba4aa26f9afcd1ef6","665500ab8938657b03fbdba8","665798f551cf2402886e651e","5034","stimuli/1101011.jpg","2","","prediction_trial","1","","false","","1","false","false","true","true","false","false","[1]","101","011","0","","","","","","",""
"","","","","","image-keyboard-response","33","219445","0.0-8.0","5ddeed7ba4aa26f9afcd1ef6","665500ab8938657b03fbdba8","665798f551cf2402886e651e","1604","stimuli/11010111.jpg"," ","","feedback_trial","1","","","","","","","","","","","","","","","","","","","","",""
"","","","","","image-keyboard-response","34","220912","0.0-9.0","5ddeed7ba4aa26f9afcd1ef6","665500ab8938657b03fbdba8","665798f551cf2402886e651e","1465","stimuli/1110001.jpg","1","","prediction_trial","1","","true","","1","true","true","false","false","false","false","[1,0]","110","001","1","","","","","","",""
"","","","","","image-keyboard-response","35","222337","0.0-10.0","5ddeed7ba4aa26f9afcd1ef6","665500ab8938657b03fbdba8","665798f551cf2402886e651e","1423","stimuli/11100011.jpg"," ","","feedback_trial","1","","","","","","","","","","","","","","","","","","","","",""
"","","","","","image-keyboard-response","36","224526","0.0-11.0","5ddeed7ba4aa26f9afcd1ef6","665500ab8938657b03fbdba8","665798f551cf2402886e651e","2187","stimuli/2101111.jpg","0","","prediction_trial","0","","true","","2","false","false","false","false","false","false","[0,2]","101","111","1","","","","","","",""
"","","","","","image-keyboard-response","37","225524","0.0-12.0","5ddeed7ba4aa26f9afcd1ef6","665500ab8938657b03fbdba8","665798f551cf2402886e651e","997","stimuli/21011110.jpg"," ","","feedback_trial","0","","","","","","","","","","","","","","","","","","","","",""
"","","","","","image-keyboard-response","38","227936","0.0-13.0","5ddeed7ba4aa26f9afcd1ef6","665500ab8938657b03fbdba8","665798f551cf2402886e651e","2411","stimuli/1100001.jpg","1","","prediction_trial","1","","true","","1","true","true","true","true","true","true","[1]","100","001","1","","","","","","",""
"","","","","","image-keyboard-response","39","228820","0.0-14.0","5ddeed7ba4aa26f9afcd1ef6","665500ab8938657b03fbdba8","665798f551cf2402886e651e","882","stimuli/11000011.jpg"," ","","feedback_trial","1","","","","","","","","","","","","","","","","","","","","",""
"","","","","","image-keyboard-response","40","233119","0.0-15.0","5ddeed7ba4aa26f9afcd1ef6","665500ab8938657b03fbdba8","665798f551cf2402886e651e","4296","stimuli/1001011.jpg","2","","prediction_trial","1","","false","","1","false","false","true","true","false","false","[1]","001","011","0","","","","","","",""
"","","","","","image-keyboard-response","41","234695","0.0-16.0","5ddeed7ba4aa26f9afcd1ef6","665500ab8938657b03fbdba8","665798f551cf2402886e651e","1575","stimuli/10010111.jpg"," ","","feedback_trial","1","","","","","","","","","","","","","","","","","","","","",""
"","","","","","image-keyboard-response","42","239460","0.0-17.0","5ddeed7ba4aa26f9afcd1ef6","665500ab8938657b03fbdba8","665798f551cf2402886e651e","4762","stimuli/2010011.jpg","1","","prediction_trial","2","","false","","2","false","false","true","true","false","false","[2]","010","011","0","","","","","","",""
"","","","","","image-keyboard-response","43","241115","0.0-18.0","5ddeed7ba4aa26f9afcd1ef6","665500ab8938657b03fbdba8","665798f551cf2402886e651e","1653","stimuli/20100112.jpg"," ","","feedback_trial","2","","","","","","","","","","","","","","","","","","","","",""
"","","","","","image-keyboard-response","44","242072","0.0-19.0","5ddeed7ba4aa26f9afcd1ef6","665500ab8938657b03fbdba8","665798f551cf2402886e651e","959","stimuli/2110001.jpg","2","","prediction_trial","2","","true","","2","false","true","true","true","false","true","[2]","110","001","1","","","","","","",""
"","","","","","image-keyboard-response","45","243006","0.0-20.0","5ddeed7ba4aa26f9afcd1ef6","665500ab8938657b03fbdba8","665798f551cf2402886e651e","932","stimuli/21100012.jpg"," ","","feedback_trial","2","","","","","","","","","","","","","","","","","","","","",""
"","","","","","image-keyboard-response","46","244592","0.0-21.0","5ddeed7ba4aa26f9afcd1ef6","665500ab8938657b03fbdba8","665798f551cf2402886e651e","1584","stimuli/2101010.jpg","2","","prediction_trial","2","","true","","2","true","true","false","false","false","false","[2,0]","101","010","1","","","","","","",""
"","","","","","image-keyboard-response","47","245675","0.0-22.0","5ddeed7ba4aa26f9afcd1ef6","665500ab8938657b03fbdba8","665798f551cf2402886e651e","1081","stimuli/21010102.jpg"," ","","feedback_trial","2","","","","","","","","","","","","","","","","","","","","",""
"","","","","","image-keyboard-response","48","246694","0.0-23.0","5ddeed7ba4aa26f9afcd1ef6","665500ab8938657b03fbdba8","665798f551cf2402886e651e","1018","stimuli/1011000.jpg","1","","prediction_trial","2","","false","","1","true","true","false","false","false","false","[1,2]","011","000","0","","","","","","",""
"","","","","","image-keyboard-response","49","247503","0.0-24.0","5ddeed7ba4aa26f9afcd1ef6","665500ab8938657b03fbdba8","665798f551cf2402886e651e","807","stimuli/10110002.jpg"," ","","feedback_trial","1","","","","","","","","","","","","","","","","","","","","",""
"","","","","","image-keyboard-response","50","249074","0.0-25.0","5ddeed7ba4aa26f9afcd1ef6","665500ab8938657b03fbdba8","665798f551cf2402886e651e","1570","stimuli/2011101.jpg","2","","prediction_trial","1","","false","","2","false","false","false","false","false","false","[2,1]","011","101","0","","","","","","",""
"","","","","","image-keyboard-response","51","249551","0.0-26.0","5ddeed7ba4aa26f9afcd1ef6","665500ab8938657b03fbdba8","665798f551cf2402886e651e","475","stimuli/20111011.jpg"," ","","feedback_trial","2","","","","","","","","","","","","","","","","","","","","",""
"","","","","","image-keyboard-response","52","251732","0.0-27.0","5ddeed7ba4aa26f9afcd1ef6","665500ab8938657b03fbdba8","665798f551cf2402886e651e","2178","stimuli/2001001.jpg","2","","prediction_trial","2","","true","","2","false","true","false","true","false","true","[2]","001","001","1","","","","","","",""
"","","","","","image-keyboard-response","53","252574","0.0-28.0","5ddeed7ba4aa26f9afcd1ef6","665500ab8938657b03fbdba8","665798f551cf2402886e651e","840","stimuli/20010012.jpg"," ","","feedback_trial","2","","","","","","","","","","","","","","","","","","","","",""
"","","","","","image-keyboard-response","54","254263","0.0-29.0","5ddeed7ba4aa26f9afcd1ef6","665500ab8938657b03fbdba8","665798f551cf2402886e651e","1688","stimuli/1100100.jpg","0","","prediction_trial","1","","false","","1","true","true","true","true","true","true","[1]","100","100","0","","","","","","",""
"","","","","","image-keyboard-response","55","255200","0.0-30.0","5ddeed7ba4aa26f9afcd1ef6","665500ab8938657b03fbdba8","665798f551cf2402886e651e","934","stimuli/11001001.jpg"," ","","feedback_trial","1","","","","","","","","","","","","","","","","","","","","",""
"","","","","","image-keyboard-response","56","256376","0.0-31.0","5ddeed7ba4aa26f9afcd1ef6","665500ab8938657b03fbdba8","665798f551cf2402886e651e","1168","stimuli/2000011.jpg","1","","prediction_trial","2","","false","","2","false","false","true","true","false","false","[2]","000","011","0","","","","","","",""
"","","","","","image-keyboard-response","57","257283","0.0-32.0","5ddeed7ba4aa26f9afcd1ef6","665500ab8938657b03fbdba8","665798f551cf2402886e651e","905","stimuli/20000112.jpg"," ","","feedback_trial","2","","","","","","","","","","","","","","","","","","","","",""
"","","","","","image-keyboard-response","58","259674","0.0-33.0","5ddeed7ba4aa26f9afcd1ef6","665500ab8938657b03fbdba8","665798f551cf2402886e651e","2389","stimuli/0010101.jpg","1","","prediction_trial","0","","false","","0","false","false","true","true","false","false","[0]","010","101","0","","","","","","",""
"","","","","","image-keyboard-response","59","261903","0.0-34.0","5ddeed7ba4aa26f9afcd1ef6","665500ab8938657b03fbdba8","665798f551cf2402886e651e","2228","stimuli/00101010.jpg"," ","","feedback_trial","0","","","","","","","","","","","","","","","","","","","","",""
"","","","","","image-keyboard-response","60","262775","0.0-35.0","5ddeed7ba4aa26f9afcd1ef6","665500ab8938657b03fbdba8","665798f551cf2402886e651e","869","stimuli/2011100.jpg","2","","prediction_trial","1","","false","","2","true","true","false","false","false","false","[2,1]","011","100","0","","","","","","",""
"","","","","","image-keyboard-response","61","263791","0.0-36.0","5ddeed7ba4aa26f9afcd1ef6","665500ab8938657b03fbdba8","665798f551cf2402886e651e","1015","stimuli/20111001.jpg"," ","","feedback_trial","2","","","","","","","","","","","","","","","","","","","","",""
"","","","","","image-keyboard-response","62","264928","0.0-37.0","5ddeed7ba4aa26f9afcd1ef6","665500ab8938657b03fbdba8","665798f551cf2402886e651e","1135","stimuli/0110011.jpg","0","","prediction_trial","0","","true","","0","true","true","false","false","false","false","[1,0]","110","011","1","","","","","","",""
"","","","","","image-keyboard-response","63","265645","0.0-38.0","5ddeed7ba4aa26f9afcd1ef6","665500ab8938657b03fbdba8","665798f551cf2402886e651e","715","stimuli/01100110.jpg"," ","","feedback_trial","1","","","","","","","","","","","","","","","","","","","","",""
"","","","","","image-keyboard-response","64","268008","0.0-39.0","5ddeed7ba4aa26f9afcd1ef6","665500ab8938657b03fbdba8","665798f551cf2402886e651e","2362","stimuli/1100010.jpg","1","","prediction_trial","1","","true","","1","false","true","true","true","false","true","[1]","100","010","1","","","","","","",""
"","","","","","image-keyboard-response","65","268697","0.0-40.0","5ddeed7ba4aa26f9afcd1ef6","665500ab8938657b03fbdba8","665798f551cf2402886e651e","687","stimuli/11000101.jpg"," ","","feedback_trial","1","","","","","","","","","","","","","","","","","","","","",""
"","","","","","image-keyboard-response","66","271837","0.0-41.0","5ddeed7ba4aa26f9afcd1ef6","665500ab8938657b03fbdba8","665798f551cf2402886e651e","3139","stimuli/2010111.jpg","2","","prediction_trial","2","","true","","2","false","false","true","true","false","false","[2]","010","111","1","","","","","","",""
"","","","","","image-keyboard-response","67","272548","0.0-42.0","5ddeed7ba4aa26f9afcd1ef6","665500ab8938657b03fbdba8","665798f551cf2402886e651e","709","stimuli/20101112.jpg"," ","","feedback_trial","2","","","","","","","","","","","","","","","","","","","","",""
"","","","","","image-keyboard-response","68","273559","0.0-43.0","5ddeed7ba4aa26f9afcd1ef6","665500ab8938657b03fbdba8","665798f551cf2402886e651e","1009","stimuli/0010011.jpg","0","","prediction_trial","0","","true","","0","true","true","true","true","true","true","[0]","010","011","1","","","","","","",""
"","","","","","image-keyboard-response","69","274161","0.0-44.0","5ddeed7ba4aa26f9afcd1ef6","665500ab8938657b03fbdba8","665798f551cf2402886e651e","600","stimuli/00100110.jpg"," ","","feedback_trial","0","","","","","","","","","","","","","","","","","","","","",""
"","","","","","image-keyboard-response","70","275339","0.0-45.0","5ddeed7ba4aa26f9afcd1ef6","665500ab8938657b03fbdba8","665798f551cf2402886e651e","1176","stimuli/1000010.jpg","1","","prediction_trial","1","","true","","1","false","true","true","true","false","true","[1]","000","010","1","","","","","","",""
"","","","","","image-keyboard-response","71","276096","0.0-46.0","5ddeed7ba4aa26f9afcd1ef6","665500ab8938657b03fbdba8","665798f551cf2402886e651e","755","stimuli/10000101.jpg"," ","","feedback_trial","1","","","","","","","","","","","","","","","","","","","","",""
"","","","","","image-keyboard-response","72","277142","0.0-47.0","5ddeed7ba4aa26f9afcd1ef6","665500ab8938657b03fbdba8","665798f551cf2402886e651e","1045","stimuli/2111111.jpg","1","","prediction_trial","2","","false","","2","false","false","false","false","false","false","[0,2,1]","111","111","0","","","","","","",""
"","","","","","image-keyboard-response","73","278208","0.0-48.0","5ddeed7ba4aa26f9afcd1ef6","665500ab8938657b03fbdba8","665798f551cf2402886e651e","1065","stimuli/21111112.jpg"," ","","feedback_trial","0","","","","","","","","","","","","","","","","","","","","",""
"","","","","","image-keyboard-response","74","279023","0.0-49.0","5ddeed7ba4aa26f9afcd1ef6","665500ab8938657b03fbdba8","665798f551cf2402886e651e","813","stimuli/1010011.jpg","1","","prediction_trial","1","","true","","1","false","false","false","true","false","false","[1]","010","011","1","","","","","","",""
"","","","","","image-keyboard-response","75","279561","0.0-50.0","5ddeed7ba4aa26f9afcd1ef6","665500ab8938657b03fbdba8","665798f551cf2402886e651e","537","stimuli/10100111.jpg"," ","","feedback_trial","1","","","","","","","","","","","","","","","","","","","","",""
"","","","","","image-keyboard-response","76","280902","0.0-51.0","5ddeed7ba4aa26f9afcd1ef6","665500ab8938657b03fbdba8","665798f551cf2402886e651e","1340","stimuli/2010110.jpg","2","","prediction_trial","2","","true","","2","true","true","true","true","true","true","[2]","010","110","1","","","","","","",""
"","","","","","image-keyboard-response","77","281495","0.0-52.0","5ddeed7ba4aa26f9afcd1ef6","665500ab8938657b03fbdba8","665798f551cf2402886e651e","591","stimuli/20101102.jpg"," ","","feedback_trial","2","","","","","","","","","","","","","","","","","","","","",""
"","","","","","image-keyboard-response","78","285122","0.0-53.0","5ddeed7ba4aa26f9afcd1ef6","665500ab8938657b03fbdba8","665798f551cf2402886e651e","3625","stimuli/1110101.jpg","1","","prediction_trial","1","","true","","1","true","true","false","false","false","false","[1,0]","110","101","1","","","","","","",""
"","","","","","image-keyboard-response","79","285824","0.0-54.0","5ddeed7ba4aa26f9afcd1ef6","665500ab8938657b03fbdba8","665798f551cf2402886e651e","700","stimuli/11101011.jpg"," ","","feedback_trial","1","","","","","","","","","","","","","","","","","","","","",""
"","","","","","image-keyboard-response","80","286790","0.0-55.0","5ddeed7ba4aa26f9afcd1ef6","665500ab8938657b03fbdba8","665798f551cf2402886e651e","964","stimuli/1100101.jpg","1","","prediction_trial","1","","true","","1","true","true","true","true","true","true","[1]","100","101","1","","","","","","",""
"","","","","","image-keyboard-response","81","287329","0.0-56.0","5ddeed7ba4aa26f9afcd1ef6","665500ab8938657b03fbdba8","665798f551cf2402886e651e","537","stimuli/11001011.jpg"," ","","feedback_trial","1","","","","","","","","","","","","","","","","","","","","",""
"","","","","","image-keyboard-response","82","289323","0.0-57.0","5ddeed7ba4aa26f9afcd1ef6","665500ab8938657b03fbdba8","665798f551cf2402886e651e","1981","stimuli/1000110.jpg","0","","prediction_trial","1","","false","","1","false","false","true","true","false","false","[1]","000","110","0","","","","","","",""
"","","","","","image-keyboard-response","83","290790","0.0-58.0","5ddeed7ba4aa26f9afcd1ef6","665500ab8938657b03fbdba8","665798f551cf2402886e651e","1466","stimuli/10001101.jpg"," ","","feedback_trial","1","","","","","","","","","","","","","","","","","","","","",""
"","","","","","image-keyboard-response","84","292635","0.0-59.0","5ddeed7ba4aa26f9afcd1ef6","665500ab8938657b03fbdba8","665798f551cf2402886e651e","1843","stimuli/0111100.jpg","0","","prediction_trial","1","","false","","0","false","true","false","false","false","false","[1,2,0]","111","100","0","","","","","","",""
"","","","","","image-keyboard-response","85","293382","0.0-60.0","5ddeed7ba4aa26f9afcd1ef6","665500ab8938657b03fbdba8","665798f551cf2402886e651e","745","stimuli/01111001.jpg"," ","","feedback_trial","1","","","","","","","","","","","","","","","","","","","","",""
"","","","","","image-keyboard-response","86","294318","0.0-61.0","5ddeed7ba4aa26f9afcd1ef6","665500ab8938657b03fbdba8","665798f551cf2402886e651e","935","stimuli/1100111.jpg","1","","prediction_trial","1","","true","","1","false","false","true","true","false","false","[1]","100","111","1","","","","","","",""
"","","","","","image-keyboard-response","87","295061","0.0-62.0","5ddeed7ba4aa26f9afcd1ef6","665500ab8938657b03fbdba8","665798f551cf2402886e651e","741","stimuli/11001111.jpg"," ","","feedback_trial","1","","","","","","","","","","","","","","","","","","","","",""
"","","","","","image-keyboard-response","88","297005","0.0-63.0","5ddeed7ba4aa26f9afcd1ef6","665500ab8938657b03fbdba8","665798f551cf2402886e651e","1942","stimuli/2110010.jpg","2","","prediction_trial","2","","true","","2","true","true","true","true","true","true","[2]","110","010","1","","","","","","",""
"","","","","","image-keyboard-response","89","297743","0.0-64.0","5ddeed7ba4aa26f9afcd1ef6","665500ab8938657b03fbdba8","665798f551cf2402886e651e","736","stimuli/21100102.jpg"," ","","feedback_trial","2","","","","","","","","","","","","","","","","","","","","",""
"","","","","","image-keyboard-response","90","298605","0.0-65.0","5ddeed7ba4aa26f9afcd1ef6","665500ab8938657b03fbdba8","665798f551cf2402886e651e","861","stimuli/2110110.jpg","2","","prediction_trial","2","","true","","2","true","true","true","true","true","true","[2]","110","110","1","","","","","","",""
"","","","","","image-keyboard-response","91","299071","0.0-66.0","5ddeed7ba4aa26f9afcd1ef6","665500ab8938657b03fbdba8","665798f551cf2402886e651e","464","stimuli/21101102.jpg"," ","","feedback_trial","2","","","","","","","","","","","","","","","","","","","","",""
"","","","","","image-keyboard-response","92","302025","0.0-67.0","5ddeed7ba4aa26f9afcd1ef6","665500ab8938657b03fbdba8","665798f551cf2402886e651e","2952","stimuli/0001110.jpg","1","","prediction_trial","0","","false","","0","false","false","true","true","false","false","[0]","001","110","0","","","","","","",""
"","","","","","image-keyboard-response","93","302879","0.0-68.0","5ddeed7ba4aa26f9afcd1ef6","665500ab8938657b03fbdba8","665798f551cf2402886e651e","841","stimuli/00011100.jpg"," ","","feedback_trial","0","","","","","","","","","","","","","","","","","","","","",""
"","","","","","image-keyboard-response","94","304514","0.0-69.0","5ddeed7ba4aa26f9afcd1ef6","665500ab8938657b03fbdba8","665798f551cf2402886e651e","1633","stimuli/0000101.jpg","2","","prediction_trial","0","","false","","0","false","false","true","true","false","false","[0]","000","101","0","","","","","","",""
"","","","","","image-keyboard-response","95","305717","0.0-70.0","5ddeed7ba4aa26f9afcd1ef6","665500ab8938657b03fbdba8","665798f551cf2402886e651e","1200","stimuli/00001010.jpg"," ","","feedback_trial","0","","","","","","","","","","","","","","","","","","","","",""
"","","","","","image-keyboard-response","96","306827","0.0-71.0","5ddeed7ba4aa26f9afcd1ef6","665500ab8938657b03fbdba8","665798f551cf2402886e651e","1109","stimuli/1110011.jpg","1","","prediction_trial","1","","true","","1","false","false","false","false","false","false","[1,0]","110","011","1","","","","","","",""
"","","","","","image-keyboard-response","97","307470","0.0-72.0","5ddeed7ba4aa26f9afcd1ef6","665500ab8938657b03fbdba8","665798f551cf2402886e651e","641","stimuli/11100111.jpg"," ","","feedback_trial","1","","","","","","","","","","","","","","","","","","","","",""
"","","","","","image-keyboard-response","98","310914","0.0-73.0","5ddeed7ba4aa26f9afcd1ef6","665500ab8938657b03fbdba8","665798f551cf2402886e651e","3442","stimuli/0101001.jpg","0","","prediction_trial","0","","true","","0","true","true","false","false","false","false","[2,0]","101","001","1","","","","","","",""
"","","","","","image-keyboard-response","99","312373","0.0-74.0","5ddeed7ba4aa26f9afcd1ef6","665500ab8938657b03fbdba8","665798f551cf2402886e651e","1458","stimuli/01010010.jpg"," ","","feedback_trial","2","","","","","","","","","","","","","","","","","","","","",""
"","","","","","image-keyboard-response","100","318656","0.0-75.0","5ddeed7ba4aa26f9afcd1ef6","665500ab8938657b03fbdba8","665798f551cf2402886e651e","6280","stimuli/2110011.jpg","2","","prediction_trial","2","","true","","2","false","false","true","true","false","false","[2]","110","011","1","","","","","","",""
"","","","","","image-keyboard-response","101","319951","0.0-76.0","5ddeed7ba4aa26f9afcd1ef6","665500ab8938657b03fbdba8","665798f551cf2402886e651e","1294","stimuli/21100112.jpg"," ","","feedback_trial","2","","","","","","","","","","","","","","","","","","","","",""
"","","","","","image-keyboard-response","102","324755","0.0-77.0","5ddeed7ba4aa26f9afcd1ef6","665500ab8938657b03fbdba8","665798f551cf2402886e651e","4801","stimuli/0001100.jpg","0","","prediction_trial","0","","true","","0","false","true","true","true","false","true","[0]","001","100","1","","","","","","",""
"","","","","","image-keyboard-response","103","325918","0.0-78.0","5ddeed7ba4aa26f9afcd1ef6","665500ab8938657b03fbdba8","665798f551cf2402886e651e","1162","stimuli/00011000.jpg"," ","","feedback_trial","0","","","","","","","","","","","","","","","","","","","","",""
"","","","","","image-keyboard-response","104","328411","0.0-79.0","5ddeed7ba4aa26f9afcd1ef6","665500ab8938657b03fbdba8","665798f551cf2402886e651e","2491","stimuli/1001110.jpg","0","","prediction_trial","1","","false","","1","false","false","true","true","false","false","[1]","001","110","0","","","","","","",""
"","","","","","image-keyboard-response","105","330189","0.0-80.0","5ddeed7ba4aa26f9afcd1ef6","665500ab8938657b03fbdba8","665798f551cf2402886e651e","1777","stimuli/10011101.jpg"," ","","feedback_trial","1","","","","","","","","","","","","","","","","","","","","",""
"","","","","","image-keyboard-response","106","331116","0.0-81.0","5ddeed7ba4aa26f9afcd1ef6","665500ab8938657b03fbdba8","665798f551cf2402886e651e","925","stimuli/0111101.jpg","2","","prediction_trial","2","","true","","0","false","false","false","false","false","false","[2,0,1]","111","101","1","","","","","","",""
"","","","","","image-keyboard-response","107","332044","0.0-82.0","5ddeed7ba4aa26f9afcd1ef6","665500ab8938657b03fbdba8","665798f551cf2402886e651e","926","stimuli/01111012.jpg"," ","","feedback_trial","2","","","","","","","","","","","","","","","","","","","","",""
"","","","","","image-keyboard-response","108","332926","0.0-83.0","5ddeed7ba4aa26f9afcd1ef6","665500ab8938657b03fbdba8","665798f551cf2402886e651e","870","stimuli/1011011.jpg","0","","prediction_trial","2","","false","","1","false","false","false","false","false","false","[1,2]","011","011","0","","","","","","",""
"","","","","","image-keyboard-response","109","333937","0.0-84.0","5ddeed7ba4aa26f9afcd1ef6","665500ab8938657b03fbdba8","665798f551cf2402886e651e","1009","stimuli/10110112.jpg"," ","","feedback_trial","1","","","","","","","","","","","","","","","","","","","","",""
"","","","","","image-keyboard-response","110","334668","0.0-85.0","5ddeed7ba4aa26f9afcd1ef6","665500ab8938657b03fbdba8","665798f551cf2402886e651e","730","stimuli/0001011.jpg","0","","prediction_trial","0","","true","","0","true","true","true","true","true","true","[0]","001","011","1","","","","","","",""
"","","","","","image-keyboard-response","111","336910","0.0-86.0","5ddeed7ba4aa26f9afcd1ef6","665500ab8938657b03fbdba8","665798f551cf2402886e651e","2240","stimuli/00010110.jpg"," ","","feedback_trial","0","","","","","","","","","","","","","","","","","","","","",""
"","","","","","image-keyboard-response","112","338325","0.0-87.0","5ddeed7ba4aa26f9afcd1ef6","665500ab8938657b03fbdba8","665798f551cf2402886e651e","1413","stimuli/2111000.jpg","2","","prediction_trial","1","","false","","2","true","true","false","false","false","false","[0,2,1]","111","000","0","","","","","","",""
"","","","","","image-keyboard-response","113","339133","0.0-88.0","5ddeed7ba4aa26f9afcd1ef6","665500ab8938657b03fbdba8","665798f551cf2402886e651e","806","stimuli/21110001.jpg"," ","","feedback_trial","0","","","","","","","","","","","","","","","","","","","","",""
"","","","","","image-keyboard-response","114","340159","0.0-89.0","5ddeed7ba4aa26f9afcd1ef6","665500ab8938657b03fbdba8","665798f551cf2402886e651e","1025","stimuli/0100000.jpg","0","","prediction_trial","0","","true","","0","true","true","false","true","false","true","[0]","100","000","1","","","","","","",""
"","","","","","image-keyboard-response","115","340733","0.0-90.0","5ddeed7ba4aa26f9afcd1ef6","665500ab8938657b03fbdba8","665798f551cf2402886e651e","572","stimuli/01000000.jpg"," ","","feedback_trial","0","","","","","","","","","","","","","","","","","","","","",""
"","","","","","image-keyboard-response","116","342109","0.0-91.0","5ddeed7ba4aa26f9afcd1ef6","665500ab8938657b03fbdba8","665798f551cf2402886e651e","1375","stimuli/1000011.jpg","1","","prediction_trial","1","","true","","1","false","false","true","true","false","false","[1]","000","011","1","","","","","","",""
"","","","","","image-keyboard-response","117","342858","0.0-92.0","5ddeed7ba4aa26f9afcd1ef6","665500ab8938657b03fbdba8","665798f551cf2402886e651e","748","stimuli/10000111.jpg"," ","","feedback_trial","1","","","","","","","","","","","","","","","","","","","","",""
"","","","","","image-keyboard-response","118","344113","0.0-93.0","5ddeed7ba4aa26f9afcd1ef6","665500ab8938657b03fbdba8","665798f551cf2402886e651e","1254","stimuli/1111110.jpg","2","","prediction_trial","1","","false","","1","false","false","false","false","false","false","[1,0,2]","111","110","0","","","","","","",""
"","","","","","image-keyboard-response","119","344970","0.0-94.0","5ddeed7ba4aa26f9afcd1ef6","665500ab8938657b03fbdba8","665798f551cf2402886e651e","856","stimuli/11111101.jpg"," ","","feedback_trial","1","","","","","","","","","","","","","","","","","","","","",""
"","","","","","image-keyboard-response","120","346503","0.0-95.0","5ddeed7ba4aa26f9afcd1ef6","665500ab8938657b03fbdba8","665798f551cf2402886e651e","1531","stimuli/0101100.jpg","0","","prediction_trial","0","","true","","0","false","true","false","false","false","false","[2,0]","101","100","1","","","","","","",""
"","","","","","image-keyboard-response","121","347268","0.0-96.0","5ddeed7ba4aa26f9afcd1ef6","665500ab8938657b03fbdba8","665798f551cf2402886e651e","763","stimuli/01011000.jpg"," ","","feedback_trial","2","","","","","","","","","","","","","","","","","","","","",""
"","","","","","image-keyboard-response","122","349637","0.0-97.0","5ddeed7ba4aa26f9afcd1ef6","665500ab8938657b03fbdba8","665798f551cf2402886e651e","2367","stimuli/0010111.jpg","2","","prediction_trial","0","","false","","0","false","false","true","true","false","false","[0]","010","111","0","","","","","","",""
"","","","","","image-keyboard-response","123","350644","0.0-98.0","5ddeed7ba4aa26f9afcd1ef6","665500ab8938657b03fbdba8","665798f551cf2402886e651e","1006","stimuli/00101110.jpg"," ","","feedback_trial","0","","","","","","","","","","","","","","","","","","","","",""
"","","","","","image-keyboard-response","124","352132","0.0-99.0","5ddeed7ba4aa26f9afcd1ef6","665500ab8938657b03fbdba8","665798f551cf2402886e651e","1485","stimuli/2111010.jpg","2","","prediction_trial","2","","true","","2","true","true","false","false","false","false","[2,0,1]","111","010","1","","","","","","",""
"","","","","","image-keyboard-response","125","352743","0.0-100.0","5ddeed7ba4aa26f9afcd1ef6","665500ab8938657b03fbdba8","665798f551cf2402886e651e","610","stimuli/21110102.jpg"," ","","feedback_trial","2","","","","","","","","","","","","","","","","","","","","",""
"","","","","","image-keyboard-response","126","353849","0.0-101.0","5ddeed7ba4aa26f9afcd1ef6","665500ab8938657b03fbdba8","665798f551cf2402886e651e","1104","stimuli/0101000.jpg","0","","prediction_trial","2","","false","","0","true","true","false","false","false","false","[0,2]","101","000","0","","","","","","",""
"","","","","","image-keyboard-response","127","354606","0.0-102.0","5ddeed7ba4aa26f9afcd1ef6","665500ab8938657b03fbdba8","665798f551cf2402886e651e","755","stimuli/01010002.jpg"," ","","feedback_trial","0","","","","","","","","","","","","","","","","","","","","",""
"","","","","","image-keyboard-response","128","355938","0.0-103.0","5ddeed7ba4aa26f9afcd1ef6","665500ab8938657b03fbdba8","665798f551cf2402886e651e","1331","stimuli/2100110.jpg","2","","prediction_trial","2","","true","","2","true","true","true","true","true","true","[2]","100","110","1","","","","","","",""
"","","","","","image-keyboard-response","129","356558","0.0-104.0","5ddeed7ba4aa26f9afcd1ef6","665500ab8938657b03fbdba8","665798f551cf2402886e651e","619","stimuli/21001102.jpg"," ","","feedback_trial","2","","","","","","","","","","","","","","","","","","","","",""
"","","","","","image-keyboard-response","130","358465","0.0-105.0","5ddeed7ba4aa26f9afcd1ef6","665500ab8938657b03fbdba8","665798f551cf2402886e651e","1906","stimuli/2011000.jpg","2","","prediction_trial","2","","true","","2","true","true","false","false","false","false","[1,2]","011","000","1","","","","","","",""
"","","","","","image-keyboard-response","131","359157","0.0-106.0","5ddeed7ba4aa26f9afcd1ef6","665500ab8938657b03fbdba8","665798f551cf2402886e651e","690","stimuli/20110002.jpg"," ","","feedback_trial","1","","","","","","","","","","","","","","","","","","","","",""
"","","","","","image-keyboard-response","132","361033","0.0-107.0","5ddeed7ba4aa26f9afcd1ef6","665500ab8938657b03fbdba8","665798f551cf2402886e651e","1875","stimuli/0110111.jpg","1","","prediction_trial","0","","false","","0","false","false","false","false","false","false","[0,1]","110","111","0","","","","","","",""
"","","","","","image-keyboard-response","133","361719","0.0-108.0","5ddeed7ba4aa26f9afcd1ef6","665500ab8938657b03fbdba8","665798f551cf2402886e651e","684","stimuli/01101110.jpg"," ","","feedback_trial","0","","","","","","","","","","","","","","","","","","","","",""
"","","","","","image-keyboard-response","134","362766","0.0-109.0","5ddeed7ba4aa26f9afcd1ef6","665500ab8938657b03fbdba8","665798f551cf2402886e651e","1048","stimuli/1011001.jpg","1","","prediction_trial","2","","false","","1","true","true","false","false","false","false","[1,2]","011","001","0","","","","","","",""
"","","","","","image-keyboard-response","135","363606","0.0-110.0","5ddeed7ba4aa26f9afcd1ef6","665500ab8938657b03fbdba8","665798f551cf2402886e651e","838","stimuli/10110012.jpg"," ","","feedback_trial","1","","","","","","","","","","","","","","","","","","","","",""
"","","","","","image-keyboard-response","136","365969","0.0-111.0","5ddeed7ba4aa26f9afcd1ef6","665500ab8938657b03fbdba8","665798f551cf2402886e651e","2361","stimuli/2111001.jpg","2","","prediction_trial","0","","false","","2","false","true","false","false","false","false","[0,1,2]","111","001","0","","","","","","",""
"","","","","","image-keyboard-response","137","366840","0.0-112.0","5ddeed7ba4aa26f9afcd1ef6","665500ab8938657b03fbdba8","665798f551cf2402886e651e","870","stimuli/21110010.jpg"," ","","feedback_trial","0","","","","","","","","","","","","","","","","","","","","",""
"","","","","","image-keyboard-response","138","368106","0.0-113.0","5ddeed7ba4aa26f9afcd1ef6","665500ab8938657b03fbdba8","665798f551cf2402886e651e","1264","stimuli/1110010.jpg","1","","prediction_trial","0","","false","","1","false","true","false","false","false","false","[0,1]","110","010","0","","","","","","",""
"","","","","","image-keyboard-response","139","369128","0.0-114.0","5ddeed7ba4aa26f9afcd1ef6","665500ab8938657b03fbdba8","665798f551cf2402886e651e","1022","stimuli/11100100.jpg"," ","","feedback_trial","0","","","","","","","","","","","","","","","","","","","","",""
"","","","","","image-keyboard-response","140","370165","0.0-115.0","5ddeed7ba4aa26f9afcd1ef6","665500ab8938657b03fbdba8","665798f551cf2402886e651e","1035","stimuli/0001101.jpg","2","","prediction_trial","0","","false","","0","false","false","true","true","false","false","[0]","001","101","0","","","","","","",""
"","","","","","image-keyboard-response","141","370844","0.0-116.0","5ddeed7ba4aa26f9afcd1ef6","665500ab8938657b03fbdba8","665798f551cf2402886e651e","677","stimuli/00011010.jpg"," ","","feedback_trial","0","","","","","","","","","","","","","","","","","","","","",""
"","","","","","image-keyboard-response","142","372284","0.0-117.0","5ddeed7ba4aa26f9afcd1ef6","665500ab8938657b03fbdba8","665798f551cf2402886e651e","1438","stimuli/1011101.jpg","1","","prediction_trial","1","","true","","1","true","true","false","false","false","false","[1,2]","011","101","1","","","","","","",""
"","","","","","image-keyboard-response","143","372791","0.0-118.0","5ddeed7ba4aa26f9afcd1ef6","665500ab8938657b03fbdba8","665798f551cf2402886e651e","506","stimuli/10111011.jpg"," ","","feedback_trial","1","","","","","","","","","","","","","","","","","","","","",""
"","","","","","image-keyboard-response","144","374161","0.0-119.0","5ddeed7ba4aa26f9afcd1ef6","665500ab8938657b03fbdba8","665798f551cf2402886e651e","1368","stimuli/1110110.jpg","1","","prediction_trial","1","","true","","1","false","false","false","false","false","false","[1,0]","110","110","1","","","","","","",""
"","","","","","image-keyboard-response","145","374788","0.0-120.0","5ddeed7ba4aa26f9afcd1ef6","665500ab8938657b03fbdba8","665798f551cf2402886e651e","625","stimuli/11101101.jpg"," ","","feedback_trial","1","","","","","","","","","","","","","","","","","","","","",""
"","","","","","image-keyboard-response","146","376517","0.0-121.0","5ddeed7ba4aa26f9afcd1ef6","665500ab8938657b03fbdba8","665798f551cf2402886e651e","1727","stimuli/2010001.jpg","2","","prediction_trial","2","","true","","2","false","true","true","true","false","true","[2]","010","001","1","","","","","","",""
"","","","","","image-keyboard-response","147","377199","0.0-122.0","5ddeed7ba4aa26f9afcd1ef6","665500ab8938657b03fbdba8","665798f551cf2402886e651e","681","stimuli/20100012.jpg"," ","","feedback_trial","2","","","","","","","","","","","","","","","","","","","","",""
"","","","","","image-keyboard-response","148","379440","0.0-123.0","5ddeed7ba4aa26f9afcd1ef6","665500ab8938657b03fbdba8","665798f551cf2402886e651e","2240","stimuli/1011110.jpg","1","","prediction_trial","1","","true","","1","false","false","false","false","false","false","[2,1]","011","110","1","","","","","","",""
"","","","","","image-keyboard-response","149","380047","0.0-124.0","5ddeed7ba4aa26f9afcd1ef6","665500ab8938657b03fbdba8","665798f551cf2402886e651e","605","stimuli/10111101.jpg"," ","","feedback_trial","2","","","","","","","","","","","","","","","","","","","","",""
"","","","","","image-keyboard-response","150","381139","0.0-125.0","5ddeed7ba4aa26f9afcd1ef6","665500ab8938657b03fbdba8","665798f551cf2402886e651e","1091","stimuli/2110111.jpg","1","","prediction_trial","2","","false","","2","false","false","true","true","false","false","[2]","110","111","0","","","","","","",""
"","","","","","image-keyboard-response","151","382046","0.0-126.0","5ddeed7ba4aa26f9afcd1ef6","665500ab8938657b03fbdba8","665798f551cf2402886e651e","905","stimuli/21101112.jpg"," ","","feedback_trial","2","","","","","","","","","","","","","","","","","","","","",""
"","","","","","image-keyboard-response","152","383314","0.0-127.0","5ddeed7ba4aa26f9afcd1ef6","665500ab8938657b03fbdba8","665798f551cf2402886e651e","1267","stimuli/1010001.jpg","1","","prediction_trial","1","","true","","1","true","true","false","true","false","true","[1]","010","001","1","","","","","","",""
"","","","","","image-keyboard-response","153","384064","0.0-128.0","5ddeed7ba4aa26f9afcd1ef6","665500ab8938657b03fbdba8","665798f551cf2402886e651e","748","stimuli/10100011.jpg"," ","","feedback_trial","1","","","","","","","","","","","","","","","","","","","","",""
"","","","","","image-keyboard-response","154","385124","0.0-129.0","5ddeed7ba4aa26f9afcd1ef6","665500ab8938657b03fbdba8","665798f551cf2402886e651e","1059","stimuli/0000011.jpg","0","","prediction_trial","0","","true","","0","true","true","true","true","true","true","[0]","000","011","1","","","","","","",""
"","","","","","image-keyboard-response","155","385722","0.0-130.0","5ddeed7ba4aa26f9afcd1ef6","665500ab8938657b03fbdba8","665798f551cf2402886e651e","596","stimuli/00000110.jpg"," ","","feedback_trial","0","","","","","","","","","","","","","","","","","","","","",""
"","","","","","image-keyboard-response","156","386881","0.0-131.0","5ddeed7ba4aa26f9afcd1ef6","665500ab8938657b03fbdba8","665798f551cf2402886e651e","1158","stimuli/1000000.jpg","1","","prediction_trial","1","","true","","1","true","true","true","true","true","true","[1]","000","000","1","","","","","","",""
"","","","","","image-keyboard-response","157","387440","0.0-132.0","5ddeed7ba4aa26f9afcd1ef6","665500ab8938657b03fbdba8","665798f551cf2402886e651e","557","stimuli/10000001.jpg"," ","","feedback_trial","1","","","","","","","","","","","","","","","","","","","","",""
"","","","","","image-keyboard-response","158","388511","0.0-133.0","5ddeed7ba4aa26f9afcd1ef6","665500ab8938657b03fbdba8","665798f551cf2402886e651e","1069","stimuli/0100111.jpg","0","","prediction_trial","0","","true","","0","false","false","false","true","false","false","[0]","100","111","1","","","","","","",""
"","","","","","image-keyboard-response","159","389104","0.0-134.0","5ddeed7ba4aa26f9afcd1ef6","665500ab8938657b03fbdba8","665798f551cf2402886e651e","591","stimuli/01001110.jpg"," ","","feedback_trial","0","","","","","","","","","","","","","","","","","","","","",""
"","","","","","image-keyboard-response","160","390419","0.0-135.0","5ddeed7ba4aa26f9afcd1ef6","665500ab8938657b03fbdba8","665798f551cf2402886e651e","1302","stimuli/0010110.jpg","1","","prediction_trial","0","","false","","0","false","false","true","true","false","false","[0]","010","110","0","","","","","","",""
"","","","","","image-keyboard-response","161","391397","0.0-136.0","5ddeed7ba4aa26f9afcd1ef6","665500ab8938657b03fbdba8","665798f551cf2402886e651e","976","stimuli/00101100.jpg"," ","","feedback_trial","0","","","","","","","","","","","","","","","","","","","","",""
"","","","","","image-keyboard-response","162","392372","0.0-137.0","5ddeed7ba4aa26f9afcd1ef6","665500ab8938657b03fbdba8","665798f551cf2402886e651e","973","stimuli/1001000.jpg","1","","prediction_trial","1","","true","","1","true","true","true","true","true","true","[1]","001","000","1","","","","","","",""
"","","","","","image-keyboard-response","163","392885","0.0-138.0","5ddeed7ba4aa26f9afcd1ef6","665500ab8938657b03fbdba8","665798f551cf2402886e651e","511","stimuli/10010001.jpg"," ","","feedback_trial","1","","","","","","","","","","","","","","","","","","","","",""
"","","","","","image-keyboard-response","164","395031","0.0-139.0","5ddeed7ba4aa26f9afcd1ef6","665500ab8938657b03fbdba8","665798f551cf2402886e651e","2145","stimuli/0001111.jpg","2","","prediction_trial","0","","false","","0","false","false","true","true","false","false","[0]","001","111","0","","","","","","",""
"","","","","","image-keyboard-response","165","396156","0.0-140.0","5ddeed7ba4aa26f9afcd1ef6","665500ab8938657b03fbdba8","665798f551cf2402886e651e","1123","stimuli/00011110.jpg"," ","","feedback_trial","0","","","","","","","","","","","","","","","","","","","","",""
"","","","","","image-keyboard-response","166","397816","0.0-141.0","5ddeed7ba4aa26f9afcd1ef6","665500ab8938657b03fbdba8","665798f551cf2402886e651e","1659","stimuli/0010100.jpg","0","","prediction_trial","0","","true","","0","false","true","true","true","false","true","[0]","010","100","1","","","","","","",""
"","","","","","image-keyboard-response","167","398469","0.0-142.0","5ddeed7ba4aa26f9afcd1ef6","665500ab8938657b03fbdba8","665798f551cf2402886e651e","651","stimuli/00101000.jpg"," ","","feedback_trial","0","","","","","","","","","","","","","","","","","","","","",""
"","","","","","image-keyboard-response","168","399631","0.0-143.0","5ddeed7ba4aa26f9afcd1ef6","665500ab8938657b03fbdba8","665798f551cf2402886e651e","1160","stimuli/0011011.jpg","0","","prediction_trial","0","","true","","0","true","true","true","true","true","true","[0]","011","011","1","","","","","","",""
"","","","","","image-keyboard-response","169","400117","0.0-144.0","5ddeed7ba4aa26f9afcd1ef6","665500ab8938657b03fbdba8","665798f551cf2402886e651e","485","stimuli/00110110.jpg"," ","","feedback_trial","0","","","","","","","","","","","","","","","","","","","","",""
"","","","","","image-keyboard-response","170","401279","0.0-145.0","5ddeed7ba4aa26f9afcd1ef6","665500ab8938657b03fbdba8","665798f551cf2402886e651e","1160","stimuli/2011011.jpg","2","","prediction_trial","1","","false","","2","false","false","false","false","false","false","[2,1]","011","011","0","","","","","","",""
"","","","","","image-keyboard-response","171","402065","0.0-146.0","5ddeed7ba4aa26f9afcd1ef6","665500ab8938657b03fbdba8","665798f551cf2402886e651e","785","stimuli/20110111.jpg"," ","","feedback_trial","2","","","","","","","","","","","","","","","","","","","","",""
"","","","","","image-keyboard-response","172","403845","0.0-147.0","5ddeed7ba4aa26f9afcd1ef6","665500ab8938657b03fbdba8","665798f551cf2402886e651e","1778","stimuli/1111011.jpg","1","","prediction_trial","2","","false","","1","false","false","false","false","false","false","[1,0,2]","111","011","0","","","","","","",""
"","","","","","image-keyboard-response","173","404787","0.0-148.0","5ddeed7ba4aa26f9afcd1ef6","665500ab8938657b03fbdba8","665798f551cf2402886e651e","940","stimuli/11110112.jpg"," ","","feedback_trial","1","","","","","","","","","","","","","","","","","","","","",""
"","","","","","image-keyboard-response","174","405854","0.0-149.0","5ddeed7ba4aa26f9afcd1ef6","665500ab8938657b03fbdba8","665798f551cf2402886e651e","1065","stimuli/0111110.jpg","2","","prediction_trial","0","","false","","0","false","false","false","false","false","false","[2,1,0]","111","110","0","","","","","","",""
"","","","","","image-keyboard-response","175","406650","0.0-150.0","5ddeed7ba4aa26f9afcd1ef6","665500ab8938657b03fbdba8","665798f551cf2402886e651e","794","stimuli/01111100.jpg"," ","","feedback_trial","2","","","","","","","","","","","","","","","","","","","","",""
"","","","","","image-keyboard-response","176","407422","0.0-151.0","5ddeed7ba4aa26f9afcd1ef6","665500ab8938657b03fbdba8","665798f551cf2402886e651e","771","stimuli/2011111.jpg","1","","prediction_trial","1","","true","","2","false","false","false","false","false","false","[1,2]","011","111","1","","","","","","",""
"","","","","","image-keyboard-response","177","408153","0.0-152.0","5ddeed7ba4aa26f9afcd1ef6","665500ab8938657b03fbdba8","665798f551cf2402886e651e","728","stimuli/20111111.jpg"," ","","feedback_trial","1","","","","","","","","","","","","","","","","","","","","",""
"","","","","","image-keyboard-response","178","409133","0.0-153.0","5ddeed7ba4aa26f9afcd1ef6","665500ab8938657b03fbdba8","665798f551cf2402886e651e","979","stimuli/0011000.jpg","0","","prediction_trial","0","","true","","0","true","true","true","true","true","true","[0]","011","000","1","","","","","","",""
"","","","","","image-keyboard-response","179","409722","0.0-154.0","5ddeed7ba4aa26f9afcd1ef6","665500ab8938657b03fbdba8","665798f551cf2402886e651e","587","stimuli/00110000.jpg"," ","","feedback_trial","0","","","","","","","","","","","","","","","","","","","","",""
"","","","","","image-keyboard-response","180","410693","0.0-155.0","5ddeed7ba4aa26f9afcd1ef6","665500ab8938657b03fbdba8","665798f551cf2402886e651e","970","stimuli/1010111.jpg","2","","prediction_trial","1","","false","","1","false","false","false","true","false","false","[1]","010","111","0","","","","","","",""
"","","","","","image-keyboard-response","181","411276","0.0-156.0","5ddeed7ba4aa26f9afcd1ef6","665500ab8938657b03fbdba8","665798f551cf2402886e651e","581","stimuli/10101111.jpg"," ","","feedback_trial","1","","","","","","","","","","","","","","","","","","","","",""
"","","","","","image-keyboard-response","182","412453","0.0-157.0","5ddeed7ba4aa26f9afcd1ef6","665500ab8938657b03fbdba8","665798f551cf2402886e651e","1176","stimuli/2101110.jpg","2","","prediction_trial","0","","false","","2","true","true","false","false","false","false","[0,2]","101","110","0","","","","","","",""
"","","","","","image-keyboard-response","183","413723","0.0-158.0","5ddeed7ba4aa26f9afcd1ef6","665500ab8938657b03fbdba8","665798f551cf2402886e651e","1268","stimuli/21011100.jpg"," ","","feedback_trial","0","","","","","","","","","","","","","","","","","","","","",""
"","","","","","image-keyboard-response","184","415474","0.0-159.0","5ddeed7ba4aa26f9afcd1ef6","665500ab8938657b03fbdba8","665798f551cf2402886e651e","1750","stimuli/0011111.jpg","1","","prediction_trial","0","","false","","0","false","false","true","true","false","false","[0]","011","111","0","","","","","","",""
"","","","","","image-keyboard-response","185","416068","0.0-160.0","5ddeed7ba4aa26f9afcd1ef6","665500ab8938657b03fbdba8","665798f551cf2402886e651e","592","stimuli/00111110.jpg"," ","","feedback_trial","0","","","","","","","","","","","","","","","","","","","","",""
"","","","","","image-keyboard-response","186","417394","0.0-161.0","5ddeed7ba4aa26f9afcd1ef6","665500ab8938657b03fbdba8","665798f551cf2402886e651e","1324","stimuli/2111101.jpg","0","","prediction_trial","0","","true","","2","false","false","false","false","false","false","[0,1,2]","111","101","1","","","","","","",""
"","","","","","image-keyboard-response","187","417853","0.0-162.0","5ddeed7ba4aa26f9afcd1ef6","665500ab8938657b03fbdba8","665798f551cf2402886e651e","458","stimuli/21111010.jpg"," ","","feedback_trial","0","","","","","","","","","","","","","","","","","","","","",""
"","","","","","image-keyboard-response","188","420027","0.0-163.0","5ddeed7ba4aa26f9afcd1ef6","665500ab8938657b03fbdba8","665798f551cf2402886e651e","2172","stimuli/0100110.jpg","1","","prediction_trial","0","","false","","0","false","false","false","true","false","false","[0]","100","110","0","","","","","","",""
"","","","","","image-keyboard-response","189","420809","0.0-164.0","5ddeed7ba4aa26f9afcd1ef6","665500ab8938657b03fbdba8","665798f551cf2402886e651e","781","stimuli/01001100.jpg"," ","","feedback_trial","0","","","","","","","","","","","","","","","","","","","","",""
"","","","","","image-keyboard-response","190","421540","0.0-165.0","5ddeed7ba4aa26f9afcd1ef6","665500ab8938657b03fbdba8","665798f551cf2402886e651e","730","stimuli/0000000.jpg","0","","prediction_trial","0","","true","","0","true","true","true","true","true","true","[0]","000","000","1","","","","","","",""
"","","","","","image-keyboard-response","191","422042","0.0-166.0","5ddeed7ba4aa26f9afcd1ef6","665500ab8938657b03fbdba8","665798f551cf2402886e651e","501","stimuli/00000000.jpg"," ","","feedback_trial","0","","","","","","","","","","","","","","","","","","","","",""
"","","","","","image-keyboard-response","192","423266","0.0-167.0","5ddeed7ba4aa26f9afcd1ef6","665500ab8938657b03fbdba8","665798f551cf2402886e651e","1235","stimuli/1101101.jpg","1","","prediction_trial","1","","true","","1","true","true","true","true","true","true","[1]","101","101","1","","","","","","",""
"","","","","","image-keyboard-response","193","423738","0.0-168.0","5ddeed7ba4aa26f9afcd1ef6","665500ab8938657b03fbdba8","665798f551cf2402886e651e","471","stimuli/11011011.jpg"," ","","feedback_trial","1","","","","","","","","","","","","","","","","","","","","",""
"","","","","","image-keyboard-response","194","425439","0.0-169.0","5ddeed7ba4aa26f9afcd1ef6","665500ab8938657b03fbdba8","665798f551cf2402886e651e","1700","stimuli/1010010.jpg","1","","prediction_trial","1","","true","","1","false","true","false","true","false","true","[1]","010","010","1","","","","","","",""
"","","","","","image-keyboard-response","195","426001","0.0-170.0","5ddeed7ba4aa26f9afcd1ef6","665500ab8938657b03fbdba8","665798f551cf2402886e651e","561","stimuli/10100101.jpg"," ","","feedback_trial","1","","","","","","","","","","","","","","","","","","","","",""
"","","","","","image-keyboard-response","196","427173","0.0-171.0","5ddeed7ba4aa26f9afcd1ef6","665500ab8938657b03fbdba8","665798f551cf2402886e651e","1171","stimuli/1011010.jpg","1","","prediction_trial","2","","false","","1","false","true","false","false","false","false","[2,1]","011","010","0","","","","","","",""
"","","","","","image-keyboard-response","197","427679","0.0-172.0","5ddeed7ba4aa26f9afcd1ef6","665500ab8938657b03fbdba8","665798f551cf2402886e651e","505","stimuli/10110102.jpg"," ","","feedback_trial","2","","","","","","","","","","","","","","","","","","","","",""
"","","","","","image-keyboard-response","198","428880","0.0-173.0","5ddeed7ba4aa26f9afcd1ef6","665500ab8938657b03fbdba8","665798f551cf2402886e651e","1200","stimuli/2111100.jpg","2","","prediction_trial","0","","false","","2","true","true","false","false","false","false","[2,0,1]","111","100","0","","","","","","",""
"","","","","","image-keyboard-response","199","430646","0.0-174.0","5ddeed7ba4aa26f9afcd1ef6","665500ab8938657b03fbdba8","665798f551cf2402886e651e","1765","stimuli/21111000.jpg"," ","","feedback_trial","2","","","","","","","","","","","","","","","","","","","","",""
"","","","","","image-keyboard-response","200","431571","0.0-175.0","5ddeed7ba4aa26f9afcd1ef6","665500ab8938657b03fbdba8","665798f551cf2402886e651e","924","stimuli/0101111.jpg","1","","prediction_trial","2","","false","","0","false","false","false","false","false","false","[2,0]","101","111","0","","","","","","",""
"","","","","","image-keyboard-response","201","432210","0.0-176.0","5ddeed7ba4aa26f9afcd1ef6","665500ab8938657b03fbdba8","665798f551cf2402886e651e","637","stimuli/01011112.jpg"," ","","feedback_trial","2","","","","","","","","","","","","","","","","","","","","",""
"","","","","","image-keyboard-response","202","433036","0.0-177.0","5ddeed7ba4aa26f9afcd1ef6","665500ab8938657b03fbdba8","665798f551cf2402886e651e","825","stimuli/2100101.jpg","1","","prediction_trial","2","","false","","2","false","false","true","true","false","false","[2]","100","101","0","","","","","","",""
"","","","","","image-keyboard-response","203","434218","0.0-178.0","5ddeed7ba4aa26f9afcd1ef6","665500ab8938657b03fbdba8","665798f551cf2402886e651e","1181","stimuli/21001012.jpg"," ","","feedback_trial","2","","","","","","","","","","","","","","","","","","","","",""
"","","","","","image-keyboard-response","204","435469","0.0-179.0","5ddeed7ba4aa26f9afcd1ef6","665500ab8938657b03fbdba8","665798f551cf2402886e651e","1251","stimuli/0101011.jpg","2","","prediction_trial","2","","true","","0","true","true","false","false","false","false","[2,0]","101","011","1","","","","","","",""
"","","","","","image-keyboard-response","205","436146","0.0-180.0","5ddeed7ba4aa26f9afcd1ef6","665500ab8938657b03fbdba8","665798f551cf2402886e651e","676","stimuli/01010112.jpg"," ","","feedback_trial","2","","","","","","","","","","","","","","","","","","","","",""
"","","","","","image-keyboard-response","206","437443","0.0-181.0","5ddeed7ba4aa26f9afcd1ef6","665500ab8938657b03fbdba8","665798f551cf2402886e651e","1295","stimuli/1000100.jpg","1","","prediction_trial","1","","true","","1","true","true","true","true","true","true","[1]","000","100","1","","","","","","",""
"","","","","","image-keyboard-response","207","437974","0.0-182.0","5ddeed7ba4aa26f9afcd1ef6","665500ab8938657b03fbdba8","665798f551cf2402886e651e","530","stimuli/10001001.jpg"," ","","feedback_trial","1","","","","","","","","","","","","","","","","","","","","",""
"","","","","","image-keyboard-response","208","438942","0.0-183.0","5ddeed7ba4aa26f9afcd1ef6","665500ab8938657b03fbdba8","665798f551cf2402886e651e","967","stimuli/0110000.jpg","0","","prediction_trial","0","","true","","0","true","true","false","false","false","false","[1,0]","110","000","1","","","","","","",""
"","","","","","image-keyboard-response","209","439662","0.0-184.0","5ddeed7ba4aa26f9afcd1ef6","665500ab8938657b03fbdba8","665798f551cf2402886e651e","719","stimuli/01100000.jpg"," ","","feedback_trial","1","","","","","","","","","","","","","","","","","","","","",""
"","","","","","image-keyboard-response","210","441206","0.0-185.0","5ddeed7ba4aa26f9afcd1ef6","665500ab8938657b03fbdba8","665798f551cf2402886e651e","1543","stimuli/2011010.jpg","1","","prediction_trial","2","","false","","2","true","true","false","false","false","false","[1,2]","011","010","0","","","","","","",""
"","","","","","image-keyboard-response","211","442374","0.0-186.0","5ddeed7ba4aa26f9afcd1ef6","665500ab8938657b03fbdba8","665798f551cf2402886e651e","1167","stimuli/20110102.jpg"," ","","feedback_trial","1","","","","","","","","","","","","","","","","","","","","",""
"","","","","","image-keyboard-response","212","443955","0.0-187.0","5ddeed7ba4aa26f9afcd1ef6","665500ab8938657b03fbdba8","665798f551cf2402886e651e","1579","stimuli/2100100.jpg","2","","prediction_trial","2","","true","","2","true","true","true","true","true","true","[2]","100","100","1","","","","","","",""
"","","","","","image-keyboard-response","213","444517","0.0-188.0","5ddeed7ba4aa26f9afcd1ef6","665500ab8938657b03fbdba8","665798f551cf2402886e651e","561","stimuli/21001002.jpg"," ","","feedback_trial","2","","","","","","","","","","","","","","","","","","","","",""
"","","","","","image-keyboard-response","214","445294","0.0-189.0","5ddeed7ba4aa26f9afcd1ef6","665500ab8938657b03fbdba8","665798f551cf2402886e651e","776","stimuli/1001101.jpg","1","","prediction_trial","1","","true","","1","true","true","true","true","true","true","[1]","001","101","1","","","","","","",""
"","","","","","image-keyboard-response","215","445720","0.0-190.0","5ddeed7ba4aa26f9afcd1ef6","665500ab8938657b03fbdba8","665798f551cf2402886e651e","426","stimuli/10011011.jpg"," ","","feedback_trial","1","","","","","","","","","","","","","","","","","","","","",""
"","","","","","image-keyboard-response","216","447033","0.0-191.0","5ddeed7ba4aa26f9afcd1ef6","665500ab8938657b03fbdba8","665798f551cf2402886e651e","1312","stimuli/2101101.jpg","2","","prediction_trial","2","","true","","2","false","false","false","false","false","false","[2,0]","101","101","1","","","","","","",""
"","","","","","image-keyboard-response","217","448093","0.0-192.0","5ddeed7ba4aa26f9afcd1ef6","665500ab8938657b03fbdba8","665798f551cf2402886e651e","1058","stimuli/21011012.jpg"," ","","feedback_trial","2","","","","","","","","","","","","","","","","","","","","",""
"","","","","","image-keyboard-response","218","450068","0.0-193.0","5ddeed7ba4aa26f9afcd1ef6","665500ab8938657b03fbdba8","665798f551cf2402886e651e","1975","stimuli/2000111.jpg","0","","prediction_trial","2","","false","","2","false","false","true","true","false","false","[2]","000","111","0","","","","","","",""
"","","","","","image-keyboard-response","219","451190","0.0-194.0","5ddeed7ba4aa26f9afcd1ef6","665500ab8938657b03fbdba8","665798f551cf2402886e651e","1120","stimuli/20001112.jpg"," ","","feedback_trial","2","","","","","","","","","","","","","","","","","","","","",""
"","","","","","image-keyboard-response","220","453280","0.0-195.0","5ddeed7ba4aa26f9afcd1ef6","665500ab8938657b03fbdba8","665798f551cf2402886e651e","2090","stimuli/2001111.jpg","2","","prediction_trial","2","","true","","2","false","false","false","true","false","false","[2]","001","111","1","","","","","","",""
"","","","","","image-keyboard-response","221","454182","0.0-196.0","5ddeed7ba4aa26f9afcd1ef6","665500ab8938657b03fbdba8","665798f551cf2402886e651e","900","stimuli/20011112.jpg"," ","","feedback_trial","2","","","","","","","","","","","","","","","","","","","","",""
"","","","","","image-keyboard-response","222","455173","0.0-197.0","5ddeed7ba4aa26f9afcd1ef6","665500ab8938657b03fbdba8","665798f551cf2402886e651e","990","stimuli/0010010.jpg","0","","prediction_trial","0","","true","","0","true","true","true","true","true","true","[0]","010","010","1","","","","","","",""
"","","","","","image-keyboard-response","223","455751","0.0-198.0","5ddeed7ba4aa26f9afcd1ef6","665500ab8938657b03fbdba8","665798f551cf2402886e651e","577","stimuli/00100100.jpg"," ","","feedback_trial","0","","","","","","","","","","","","","","","","","","","","",""
"","","","","","image-keyboard-response","224","456532","0.0-199.0","5ddeed7ba4aa26f9afcd1ef6","665500ab8938657b03fbdba8","665798f551cf2402886e651e","779","stimuli/2110101.jpg","2","","prediction_trial","2","","true","","2","false","false","true","true","false","false","[2]","110","101","1","","","","","","",""
"","","","","","image-keyboard-response","225","457239","0.0-200.0","5ddeed7ba4aa26f9afcd1ef6","665500ab8938657b03fbdba8","665798f551cf2402886e651e","706","stimuli/21101012.jpg"," ","","feedback_trial","2","","","","","","","","","","","","","","","","","","","","",""
"","","","","","image-keyboard-response","226","458634","0.0-201.0","5ddeed7ba4aa26f9afcd1ef6","665500ab8938657b03fbdba8","665798f551cf2402886e651e","1394","stimuli/0100101.jpg","2","","prediction_trial","0","","false","","0","false","false","false","true","false","false","[0]","100","101","0","","","","","","",""
"","","","","","image-keyboard-response","227","459532","0.0-202.0","5ddeed7ba4aa26f9afcd1ef6","665500ab8938657b03fbdba8","665798f551cf2402886e651e","896","stimuli/01001010.jpg"," ","","feedback_trial","0","","","","","","","","","","","","","","","","","","","","",""
"","","","","","image-keyboard-response","228","460539","0.0-203.0","5ddeed7ba4aa26f9afcd1ef6","665500ab8938657b03fbdba8","665798f551cf2402886e651e","1007","stimuli/1111010.jpg","1","","prediction_trial","1","","true","","1","false","true","false","false","false","false","[1,0,2]","111","010","1","","","","","","",""
"","","","","","image-keyboard-response","229","461400","0.0-204.0","5ddeed7ba4aa26f9afcd1ef6","665500ab8938657b03fbdba8","665798f551cf2402886e651e","860","stimuli/11110101.jpg"," ","","feedback_trial","1","","","","","","","","","","","","","","","","","","","","",""
"","","","","","image-keyboard-response","230","462232","0.0-205.0","5ddeed7ba4aa26f9afcd1ef6","665500ab8938657b03fbdba8","665798f551cf2402886e651e","831","stimuli/1010100.jpg","1","","prediction_trial","1","","true","","1","true","true","false","true","false","true","[1]","010","100","1","","","","","","",""
"","","","","","image-keyboard-response","231","462909","0.0-206.0","5ddeed7ba4aa26f9afcd1ef6","665500ab8938657b03fbdba8","665798f551cf2402886e651e","675","stimuli/10101001.jpg"," ","","feedback_trial","1","","","","","","","","","","","","","","","","","","","","",""
"","","","","","image-keyboard-response","232","463994","0.0-207.0","5ddeed7ba4aa26f9afcd1ef6","665500ab8938657b03fbdba8","665798f551cf2402886e651e","1085","stimuli/2010101.jpg","2","","prediction_trial","2","","true","","2","false","false","true","true","false","false","[2]","010","101","1","","","","","","",""
"","","","","","image-keyboard-response","233","464661","0.0-208.0","5ddeed7ba4aa26f9afcd1ef6","665500ab8938657b03fbdba8","665798f551cf2402886e651e","666","stimuli/20101012.jpg"," ","","feedback_trial","2","","","","","","","","","","","","","","","","","","","","",""
"","","","","","image-keyboard-response","234","465799","0.0-209.0","5ddeed7ba4aa26f9afcd1ef6","665500ab8938657b03fbdba8","665798f551cf2402886e651e","1137","stimuli/1001100.jpg","1","","prediction_trial","1","","true","","1","true","true","true","true","true","true","[1]","001","100","1","","","","","","",""
"","","","","","image-keyboard-response","235","466366","0.0-210.0","5ddeed7ba4aa26f9afcd1ef6","665500ab8938657b03fbdba8","665798f551cf2402886e651e","567","stimuli/10011001.jpg"," ","","feedback_trial","1","","","","","","","","","","","","","","","","","","","","",""
"","","","","","image-keyboard-response","236","467156","0.0-211.0","5ddeed7ba4aa26f9afcd1ef6","665500ab8938657b03fbdba8","665798f551cf2402886e651e","788","stimuli/2100111.jpg","0","","prediction_trial","2","","false","","2","false","false","true","true","false","false","[2]","100","111","0","","","","","","",""
"","","","","","image-keyboard-response","237","468083","0.0-212.0","5ddeed7ba4aa26f9afcd1ef6","665500ab8938657b03fbdba8","665798f551cf2402886e651e","926","stimuli/21001112.jpg"," ","","feedback_trial","2","","","","","","","","","","","","","","","","","","","","",""
"","","","","","image-keyboard-response","238","468799","0.0-213.0","5ddeed7ba4aa26f9afcd1ef6","665500ab8938657b03fbdba8","665798f551cf2402886e651e","715","stimuli/0100010.jpg","2","","prediction_trial","0","","false","","0","true","true","false","true","false","true","[0]","100","010","0","","","","","","",""
"","","","","","image-keyboard-response","239","469576","0.0-214.0","5ddeed7ba4aa26f9afcd1ef6","665500ab8938657b03fbdba8","665798f551cf2402886e651e","775","stimuli/01000100.jpg"," ","","feedback_trial","0","","","","","","","","","","","","","","","","","","","","",""
"","","","","","image-keyboard-response","240","470567","0.0-215.0","5ddeed7ba4aa26f9afcd1ef6","665500ab8938657b03fbdba8","665798f551cf2402886e651e","991","stimuli/2101001.jpg","2","","prediction_trial","0","","false","","2","false","true","false","false","false","false","[2,0]","101","001","0","","","","","","",""
"","","","","","image-keyboard-response","241","471354","0.0-216.0","5ddeed7ba4aa26f9afcd1ef6","665500ab8938657b03fbdba8","665798f551cf2402886e651e","786","stimuli/21010010.jpg"," ","","feedback_trial","2","","","","","","","","","","","","","","","","","","","","",""
"","","","","","image-keyboard-response","242","472121","0.0-217.0","5ddeed7ba4aa26f9afcd1ef6","665500ab8938657b03fbdba8","665798f551cf2402886e651e","765","stimuli/2100000.jpg","2","","prediction_trial","2","","true","","2","true","true","true","true","true","true","[2]","100","000","1","","","","","","",""
"","","","","","image-keyboard-response","243","472777","0.0-218.0","5ddeed7ba4aa26f9afcd1ef6","665500ab8938657b03fbdba8","665798f551cf2402886e651e","656","stimuli/21000002.jpg"," ","","feedback_trial","2","","","","","","","","","","","","","","","","","","","","",""
"","","","","","image-keyboard-response","244","473537","0.0-219.0","5ddeed7ba4aa26f9afcd1ef6","665500ab8938657b03fbdba8","665798f551cf2402886e651e","759","stimuli/2110000.jpg","2","","prediction_trial","2","","true","","2","true","true","true","true","true","true","[2]","110","000","1","","","","","","",""
"","","","","","image-keyboard-response","245","474131","0.0-220.0","5ddeed7ba4aa26f9afcd1ef6","665500ab8938657b03fbdba8","665798f551cf2402886e651e","593","stimuli/21100002.jpg"," ","","feedback_trial","2","","","","","","","","","","","","","","","","","","","","",""
"","","","","","image-keyboard-response","246","475072","0.0-221.0","5ddeed7ba4aa26f9afcd1ef6","665500ab8938657b03fbdba8","665798f551cf2402886e651e","940","stimuli/2000010.jpg","1","","prediction_trial","2","","false","","2","true","true","true","true","true","true","[2]","000","010","0","","","","","","",""
"","","","","","image-keyboard-response","247","475855","0.0-222.0","5ddeed7ba4aa26f9afcd1ef6","665500ab8938657b03fbdba8","665798f551cf2402886e651e","781","stimuli/20000102.jpg"," ","","feedback_trial","2","","","","","","","","","","","","","","","","","","","","",""
"","","","","","image-keyboard-response","248","476587","0.0-223.0","5ddeed7ba4aa26f9afcd1ef6","665500ab8938657b03fbdba8","665798f551cf2402886e651e","731","stimuli/1001001.jpg","1","","prediction_trial","1","","true","","1","true","true","true","true","true","true","[1]","001","001","1","","","","","","",""
"","","","","","image-keyboard-response","249","477134","0.0-224.0","5ddeed7ba4aa26f9afcd1ef6","665500ab8938657b03fbdba8","665798f551cf2402886e651e","545","stimuli/10010011.jpg"," ","","feedback_trial","1","","","","","","","","","","","","","","","","","","","","",""
"","","","","","image-keyboard-response","250","478535","0.0-225.0","5ddeed7ba4aa26f9afcd1ef6","665500ab8938657b03fbdba8","665798f551cf2402886e651e","1400","stimuli/0111001.jpg","2","","prediction_trial","2","","true","","0","true","true","false","false","false","false","[0,2,1]","111","001","1","","","","","","",""
"","","","","","image-keyboard-response","251","479315","0.0-226.0","5ddeed7ba4aa26f9afcd1ef6","665500ab8938657b03fbdba8","665798f551cf2402886e651e","779","stimuli/01110012.jpg"," ","","feedback_trial","0","","","","","","","","","","","","","","","","","","","","",""
"","","","","","image-keyboard-response","252","480287","0.0-227.0","5ddeed7ba4aa26f9afcd1ef6","665500ab8938657b03fbdba8","665798f551cf2402886e651e","971","stimuli/1111111.jpg","1","","prediction_trial","2","","false","","1","false","false","false","false","false","false","[1,2,0]","111","111","0","","","","","","",""
"","","","","","image-keyboard-response","253","480939","0.0-228.0","5ddeed7ba4aa26f9afcd1ef6","665500ab8938657b03fbdba8","665798f551cf2402886e651e","651","stimuli/11111112.jpg"," ","","feedback_trial","1","","","","","","","","","","","","","","","","","","","","",""
"","","","","","image-keyboard-response","254","481626","0.0-229.0","5ddeed7ba4aa26f9afcd1ef6","665500ab8938657b03fbdba8","665798f551cf2402886e651e","685","stimuli/1111100.jpg","1","","prediction_trial","1","","true","","1","true","true","false","false","false","false","[2,0,1]","111","100","1","","","","","","",""
"","","","","","image-keyboard-response","255","482112","0.0-230.0","5ddeed7ba4aa26f9afcd1ef6","665500ab8938657b03fbdba8","665798f551cf2402886e651e","486","stimuli/11111001.jpg"," ","","feedback_trial","2","","","","","","","","","","","","","","","","","","","","",""
"","","","","","image-keyboard-response","256","483031","0.0-231.0","5ddeed7ba4aa26f9afcd1ef6","665500ab8938657b03fbdba8","665798f551cf2402886e651e","917","stimuli/0110100.jpg","0","","prediction_trial","0","","true","","0","false","true","false","false","false","false","[1,0]","110","100","1","","","","","","",""
"","","","","","image-keyboard-response","257","483788","0.0-232.0","5ddeed7ba4aa26f9afcd1ef6","665500ab8938657b03fbdba8","665798f551cf2402886e651e","749","stimuli/01101000.jpg"," ","","feedback_trial","1","","","","","","","","","","","","","","","","","","","","",""
"","","","","","image-keyboard-response","258","485148","0.0-233.0","5ddeed7ba4aa26f9afcd1ef6","665500ab8938657b03fbdba8","665798f551cf2402886e651e","1360","stimuli/0110101.jpg","1","","prediction_trial","0","","false","","0","false","false","false","false","false","false","[1,0]","110","101","0","","","","","","",""
"","","","","","image-keyboard-response","259","485880","0.0-234.0","5ddeed7ba4aa26f9afcd1ef6","665500ab8938657b03fbdba8","665798f551cf2402886e651e","731","stimuli/01101010.jpg"," ","","feedback_trial","1","","","","","","","","","","","","","","","","","","","","",""
"","","","","","image-keyboard-response","260","486887","0.0-235.0","5ddeed7ba4aa26f9afcd1ef6","665500ab8938657b03fbdba8","665798f551cf2402886e651e","1006","stimuli/0011001.jpg","0","","prediction_trial","0","","true","","0","true","true","true","true","true","true","[0]","011","001","1","","","","","","",""
"","","","","","image-keyboard-response","261","487709","0.0-236.0","5ddeed7ba4aa26f9afcd1ef6","665500ab8938657b03fbdba8","665798f551cf2402886e651e","821","stimuli/00110010.jpg"," ","","feedback_trial","0","","","","","","","","","","","","","","","","","","","","",""
"","","","","","image-keyboard-response","262","489135","0.0-237.0","5ddeed7ba4aa26f9afcd1ef6","665500ab8938657b03fbdba8","665798f551cf2402886e651e","1425","stimuli/2000001.jpg","2","","prediction_trial","2","","true","","2","false","true","true","true","false","true","[2]","000","001","1","","","","","","",""
"","","","","","image-keyboard-response","263","489686","0.0-238.0","5ddeed7ba4aa26f9afcd1ef6","665500ab8938657b03fbdba8","665798f551cf2402886e651e","550","stimuli/20000012.jpg"," ","","feedback_trial","2","","","","","","","","","","","","","","","","","","","","",""
"","","","","","image-keyboard-response","264","490847","0.0-239.0","5ddeed7ba4aa26f9afcd1ef6","665500ab8938657b03fbdba8","665798f551cf2402886e651e","1152","stimuli/0000100.jpg","2","","prediction_trial","0","","false","","0","false","true","true","true","false","true","[0]","000","100","0","","","","","","",""
"","","","","","image-keyboard-response","265","491604","0.0-240.0","5ddeed7ba4aa26f9afcd1ef6","665500ab8938657b03fbdba8","665798f551cf2402886e651e","756","stimuli/00001000.jpg"," ","","feedback_trial","0","","","","","","","","","","","","","","","","","","","","",""
"","","","","","image-keyboard-response","266","492788","0.0-241.0","5ddeed7ba4aa26f9afcd1ef6","665500ab8938657b03fbdba8","665798f551cf2402886e651e","1182","stimuli/2010000.jpg","2","","prediction_trial","2","","true","","2","true","true","true","true","true","true","[2]","010","000","1","","","","","","",""
"","","","","","image-keyboard-response","267","493412","0.0-242.0","5ddeed7ba4aa26f9afcd1ef6","665500ab8938657b03fbdba8","665798f551cf2402886e651e","624","stimuli/20100002.jpg"," ","","feedback_trial","2","","","","","","","","","","","","","","","","","","","","",""
"","","","","","image-keyboard-response","268","494704","0.0-243.0","5ddeed7ba4aa26f9afcd1ef6","665500ab8938657b03fbdba8","665798f551cf2402886e651e","1290","stimuli/0111111.jpg","1","","prediction_trial","2","","false","","0","false","false","false","false","false","false","[0,2,1]","111","111","0","","","","","","",""
"","","","","","image-keyboard-response","269","495660","0.0-244.0","5ddeed7ba4aa26f9afcd1ef6","665500ab8938657b03fbdba8","665798f551cf2402886e651e","955","stimuli/01111112.jpg"," ","","feedback_trial","0","","","","","","","","","","","","","","","","","","","","",""
"","","","","","image-keyboard-response","270","497076","0.0-245.0","5ddeed7ba4aa26f9afcd1ef6","665500ab8938657b03fbdba8","665798f551cf2402886e651e","1415","stimuli/0111010.jpg","0","","prediction_trial","2","","false","","0","true","true","false","false","false","false","[0,1,2]","111","010","0","","","","","","",""
"","","","","","image-keyboard-response","271","499022","0.0-246.0","5ddeed7ba4aa26f9afcd1ef6","665500ab8938657b03fbdba8","665798f551cf2402886e651e","1944","stimuli/01110102.jpg"," ","","feedback_trial","0","","","","","","","","","","","","","","","","","","","","",""
"","","","","","image-keyboard-response","272","499609","0.0-247.0","5ddeed7ba4aa26f9afcd1ef6","665500ab8938657b03fbdba8","665798f551cf2402886e651e","585","stimuli/2101011.jpg","1","","prediction_trial","0","","false","","2","false","false","false","false","false","false","[0,2]","101","011","0","","","","","","",""
"","","","","","image-keyboard-response","273","501106","0.0-248.0","5ddeed7ba4aa26f9afcd1ef6","665500ab8938657b03fbdba8","665798f551cf2402886e651e","1496","stimuli/21010110.jpg"," ","","feedback_trial","0","","","","","","","","","","","","","","","","","","","","",""
"","","","","","image-keyboard-response","274","502956","0.0-249.0","5ddeed7ba4aa26f9afcd1ef6","665500ab8938657b03fbdba8","665798f551cf2402886e651e","1848","stimuli/0000110.jpg","1","","prediction_trial","0","","false","","0","false","false","true","true","false","false","[0]","000","110","0","","","","","","",""
"","","","","","image-keyboard-response","275","503657","0.0-250.0","5ddeed7ba4aa26f9afcd1ef6","665500ab8938657b03fbdba8","665798f551cf2402886e651e","700","stimuli/00001100.jpg"," ","","feedback_trial","0","","","","","","","","","","","","","","","","","","","","",""
"","","","","","image-keyboard-response","276","504430","0.0-251.0","5ddeed7ba4aa26f9afcd1ef6","665500ab8938657b03fbdba8","665798f551cf2402886e651e","772","stimuli/1100110.jpg","1","","prediction_trial","1","","true","","1","false","false","true","true","false","false","[1]","100","110","1","","","","","","",""
"","","","","","image-keyboard-response","277","505066","0.0-252.0","5ddeed7ba4aa26f9afcd1ef6","665500ab8938657b03fbdba8","665798f551cf2402886e651e","635","stimuli/11001101.jpg"," ","","feedback_trial","1","","","","","","","","","","","","","","","","","","","","",""
"","","","","","image-keyboard-response","278","506053","0.0-253.0","5ddeed7ba4aa26f9afcd1ef6","665500ab8938657b03fbdba8","665798f551cf2402886e651e","985","stimuli/0010000.jpg","0","","prediction_trial","0","","true","","0","true","true","true","true","true","true","[0]","010","000","1","","","","","","",""
"","","","","","image-keyboard-response","279","506509","0.0-254.0","5ddeed7ba4aa26f9afcd1ef6","665500ab8938657b03fbdba8","665798f551cf2402886e651e","455","stimuli/00100000.jpg"," ","","feedback_trial","0","","","","","","","","","","","","","","","","","","","","",""
"","","","","","image-keyboard-response","280","507325","0.0-255.0","5ddeed7ba4aa26f9afcd1ef6","665500ab8938657b03fbdba8","665798f551cf2402886e651e","815","stimuli/2000100.jpg","2","","prediction_trial","2","","true","","2","true","true","true","true","true","true","[2]","000","100","1","","","","","","",""
"","","","","","image-keyboard-response","281","507719","0.0-256.0","5ddeed7ba4aa26f9afcd1ef6","665500ab8938657b03fbdba8","665798f551cf2402886e651e","393","stimuli/20001002.jpg"," ","","feedback_trial","2","","","","","","","","","","","","","","","","","","","","",""
"","","","","","image-keyboard-response","282","509389","0.0-257.0","5ddeed7ba4aa26f9afcd1ef6","665500ab8938657b03fbdba8","665798f551cf2402886e651e","1669","stimuli/1010101.jpg","1","","prediction_trial","1","","true","","1","true","true","false","true","false","true","[1]","010","101","1","","","","","","",""
"","","","","","image-keyboard-response","283","510342","0.0-258.0","5ddeed7ba4aa26f9afcd1ef6","665500ab8938657b03fbdba8","665798f551cf2402886e651e","952","stimuli/10101011.jpg"," ","","feedback_trial","1","","","","","","","","","","","","","","","","","","","","",""
"","","","","","image-keyboard-response","284","512631","0.0-259.0","5ddeed7ba4aa26f9afcd1ef6","665500ab8938657b03fbdba8","665798f551cf2402886e651e","2287","stimuli/1000101.jpg","1","","prediction_trial","1","","true","","1","true","true","true","true","true","true","[1]","000","101","1","","","","","","",""
"","","","","","image-keyboard-response","285","513153","0.0-260.0","5ddeed7ba4aa26f9afcd1ef6","665500ab8938657b03fbdba8","665798f551cf2402886e651e","521","stimuli/10001011.jpg"," ","","feedback_trial","1","","","","","","","","","","","","","","","","","","","","",""
"","","","","","image-keyboard-response","286","514249","0.0-261.0","5ddeed7ba4aa26f9afcd1ef6","665500ab8938657b03fbdba8","665798f551cf2402886e651e","1095","stimuli/2000000.jpg","2","","prediction_trial","2","","true","","2","true","true","true","true","true","true","[2]","000","000","1","","","","","","",""
"","","","","","image-keyboard-response","287","514811","0.0-262.0","5ddeed7ba4aa26f9afcd1ef6","665500ab8938657b03fbdba8","665798f551cf2402886e651e","562","stimuli/20000002.jpg"," ","","feedback_trial","2","","","","","","","","","","","","","","","","","","","","",""
"","","","","","image-keyboard-response","288","515722","0.0-263.0","5ddeed7ba4aa26f9afcd1ef6","665500ab8938657b03fbdba8","665798f551cf2402886e651e","909","stimuli/1010110.jpg","1","","prediction_trial","1","","true","","1","false","false","false","true","false","false","[1]","010","110","1","","","","","","",""
"","","","","","image-keyboard-response","289","516240","0.0-264.0","5ddeed7ba4aa26f9afcd1ef6","665500ab8938657b03fbdba8","665798f551cf2402886e651e","516","stimuli/10101101.jpg"," ","","feedback_trial","1","","","","","","","","","","","","","","","","","","","","",""
"","","","","","image-keyboard-response","290","517368","0.0-265.0","5ddeed7ba4aa26f9afcd1ef6","665500ab8938657b03fbdba8","665798f551cf2402886e651e","1118","stimuli/0000111.jpg","2","","prediction_trial","0","","false","","0","false","false","true","true","false","false","[0]","000","111","0","","","","","","",""
"","","","","","image-keyboard-response","291","518318","0.0-266.0","5ddeed7ba4aa26f9afcd1ef6","665500ab8938657b03fbdba8","665798f551cf2402886e651e","948","stimuli/00001110.jpg"," ","","feedback_trial","0","","","","","","","","","","","","","","","","","","","","",""
"","","","","","image-keyboard-response","292","519014","0.0-267.0","5ddeed7ba4aa26f9afcd1ef6","665500ab8938657b03fbdba8","665798f551cf2402886e651e","695","stimuli/2000110.jpg","2","","prediction_trial","2","","true","","2","true","true","true","true","true","true","[2]","000","110","1","","","","","","",""
"","","","","","image-keyboard-response","293","519497","0.0-268.0","5ddeed7ba4aa26f9afcd1ef6","665500ab8938657b03fbdba8","665798f551cf2402886e651e","482","stimuli/20001102.jpg"," ","","feedback_trial","2","","","","","","","","","","","","","","","","","","","","",""
"","","","","","image-keyboard-response","294","520607","0.0-269.0","5ddeed7ba4aa26f9afcd1ef6","665500ab8938657b03fbdba8","665798f551cf2402886e651e","1109","stimuli/2011001.jpg","2","","prediction_trial","1","","false","","2","false","true","false","false","false","false","[2,1]","011","001","0","","","","","","",""
"","","","","","image-keyboard-response","295","521495","0.0-270.0","5ddeed7ba4aa26f9afcd1ef6","665500ab8938657b03fbdba8","665798f551cf2402886e651e","886","stimuli/20110011.jpg"," ","","feedback_trial","2","","","","","","","","","","","","","","","","","","","","",""
"","","","","","image-keyboard-response","296","522188","0.0-271.0","5ddeed7ba4aa26f9afcd1ef6","665500ab8938657b03fbdba8","665798f551cf2402886e651e","693","stimuli/2100001.jpg","1","","prediction_trial","2","","false","","2","false","true","true","true","false","true","[2]","100","001","0","","","","","","",""
"","","","","","image-keyboard-response","297","523369","0.0-272.0","5ddeed7ba4aa26f9afcd1ef6","665500ab8938657b03fbdba8","665798f551cf2402886e651e","1180","stimuli/21000012.jpg"," ","","feedback_trial","2","","","","","","","","","","","","","","","","","","","","",""
"","","","","","image-keyboard-response","298","525404","0.0-273.0","5ddeed7ba4aa26f9afcd1ef6","665500ab8938657b03fbdba8","665798f551cf2402886e651e","2033","stimuli/2101100.jpg","0","","prediction_trial","0","","true","","2","true","true","false","false","false","false","[2,0]","101","100","1","","","","","","",""
"","","","","","image-keyboard-response","299","526224","0.0-274.0","5ddeed7ba4aa26f9afcd1ef6","665500ab8938657b03fbdba8","665798f551cf2402886e651e","820","stimuli/21011000.jpg"," ","","feedback_trial","2","","","","","","","","","","","","","","","","","","","","",""
"","","","","","image-keyboard-response","300","527012","0.0-275.0","5ddeed7ba4aa26f9afcd1ef6","665500ab8938657b03fbdba8","665798f551cf2402886e651e","786","stimuli/0110001.jpg","2","","prediction_trial","1","","false","","0","true","true","false","false","false","false","[0,1]","110","001","0","","","","","","",""
"","","","","","image-keyboard-response","301","529866","0.0-276.0","5ddeed7ba4aa26f9afcd1ef6","665500ab8938657b03fbdba8","665798f551cf2402886e651e","2854","stimuli/01100011.jpg"," ","","feedback_trial","0","","","","","","","","","","","","","","","","","","","","",""
"","","","","","image-keyboard-response","302","530574","0.0-277.0","5ddeed7ba4aa26f9afcd1ef6","665500ab8938657b03fbdba8","665798f551cf2402886e651e","707","stimuli/2100010.jpg","2","","prediction_trial","2","","true","","2","true","true","true","true","true","true","[2]","100","010","1","","","","","","",""
"","","","","","image-keyboard-response","303","531047","0.0-278.0","5ddeed7ba4aa26f9afcd1ef6","665500ab8938657b03fbdba8","665798f551cf2402886e651e","471","stimuli/21000102.jpg"," ","","feedback_trial","2","","","","","","","","","","","","","","","","","","","","",""
"","","","","","image-keyboard-response","304","535509","0.0-279.0","5ddeed7ba4aa26f9afcd1ef6","665500ab8938657b03fbdba8","665798f551cf2402886e651e","4460","stimuli/2001010.jpg","2","","prediction_trial","2","","true","","2","true","true","false","true","false","true","[2]","001","010","1","","","","","","",""
"","","","","","image-keyboard-response","305","536696","0.0-280.0","5ddeed7ba4aa26f9afcd1ef6","665500ab8938657b03fbdba8","665798f551cf2402886e651e","1185","stimuli/20010102.jpg"," ","","feedback_trial","2","","","","","","","","","","","","","","","","","","","","",""
"","","","","","image-keyboard-response","306","537926","0.0-281.0","5ddeed7ba4aa26f9afcd1ef6","665500ab8938657b03fbdba8","665798f551cf2402886e651e","1228","stimuli/1111000.jpg","1","","prediction_trial","2","","false","","1","true","true","false","false","false","false","[1,0,2]","111","000","0","","","","","","",""
"","","","","","image-keyboard-response","307","538259","0.0-282.0","5ddeed7ba4aa26f9afcd1ef6","665500ab8938657b03fbdba8","665798f551cf2402886e651e","332","stimuli/11110002.jpg"," ","","feedback_trial","1","","","","","","","","","","","","","","","","","","","","",""
"","","","","","image-keyboard-response","308","538837","0.0-283.0","5ddeed7ba4aa26f9afcd1ef6","665500ab8938657b03fbdba8","665798f551cf2402886e651e","577","stimuli/1110111.jpg","2","","prediction_trial","1","","false","","1","false","false","false","false","false","false","[0,1]","110","111","0","","","","","","",""
"","","","","","image-keyboard-response","309","540004","0.0-284.0","5ddeed7ba4aa26f9afcd1ef6","665500ab8938657b03fbdba8","665798f551cf2402886e651e","1166","stimuli/11101111.jpg"," ","","feedback_trial","0","","","","","","","","","","","","","","","","","","","","",""
"","","","","","image-keyboard-response","310","541230","0.0-285.0","5ddeed7ba4aa26f9afcd1ef6","665500ab8938657b03fbdba8","665798f551cf2402886e651e","1225","stimuli/2100011.jpg","1","","prediction_trial","2","","false","","2","false","false","true","true","false","false","[2]","100","011","0","","","","","","",""
"","","","","","image-keyboard-response","311","541731","0.0-286.0","5ddeed7ba4aa26f9afcd1ef6","665500ab8938657b03fbdba8","665798f551cf2402886e651e","499","stimuli/21000112.jpg"," ","","feedback_trial","2","","","","","","","","","","","","","","","","","","","","",""
"","","","","","image-keyboard-response","312","542664","0.0-287.0","5ddeed7ba4aa26f9afcd1ef6","665500ab8938657b03fbdba8","665798f551cf2402886e651e","931","stimuli/1101100.jpg","1","","prediction_trial","1","","true","","1","true","true","true","true","true","true","[1]","101","100","1","","","","","","",""
"","","","","","image-keyboard-response","313","542975","0.0-288.0","5ddeed7ba4aa26f9afcd1ef6","665500ab8938657b03fbdba8","665798f551cf2402886e651e","310","stimuli/11011001.jpg"," ","","feedback_trial","1","","","","","","","","","","","","","","","","","","","","",""
"","","","","","image-keyboard-response","314","545028","0.0-289.0","5ddeed7ba4aa26f9afcd1ef6","665500ab8938657b03fbdba8","665798f551cf2402886e651e","2055","stimuli/0011010.jpg","0","","prediction_trial","0","","true","","0","true","true","true","true","true","true","[0]","011","010","1","","","","","","",""
"","","","","","image-keyboard-response","315","546064","0.0-290.0","5ddeed7ba4aa26f9afcd1ef6","665500ab8938657b03fbdba8","665798f551cf2402886e651e","1035","stimuli/00110100.jpg"," ","","feedback_trial","0","","","","","","","","","","","","","","","","","","","","",""
"","","","","","image-keyboard-response","316","547232","0.0-291.0","5ddeed7ba4aa26f9afcd1ef6","665500ab8938657b03fbdba8","665798f551cf2402886e651e","1156","stimuli/0101110.jpg","2","","prediction_trial","0","","false","","0","false","false","false","false","false","false","[2,0]","101","110","0","","","","","","",""
"","","","","","image-keyboard-response","317","552743","0.0-292.0","5ddeed7ba4aa26f9afcd1ef6","665500ab8938657b03fbdba8","665798f551cf2402886e651e","5510","stimuli/01011100.jpg"," ","","feedback_trial","2","","","","","","","","","","","","","","","","","","","","",""
"","","","","","survey-html-form","318","590808","0.0-293.0","5ddeed7ba4aa26f9afcd1ef6","665500ab8938657b03fbdba8","665798f551cf2402886e651e","38062","","{""feedback"":"""",""age"":""57"",""gender"":""Female"",""other_gender"":"""",""race"":""White"",""other_race"":"""",""ethnicity"":""Non-Hispanic""}","","exit_survey","","","","","","","","","","","","","","","","","57","Non-Hispanic","Female","White","0.5694444444444444","0.5694444444444444"
