"success","timeout","failed_images","failed_audio","failed_video","trial_type","trial_index","time_elapsed","internal_node_id","prolific_id","prolific_study_id","prolific_session_id","rt","stimulus","response","view_history","trial","character_choice","stimulus_dict","accuracy","correct_response","ball_pos","ego_ball_visible","ego_can_infer","alter_ball_visible","alter_can_infer","collective_ball_visible","collective_can_infer","search_locations","alter_occluders","ego_occluders","accuracy_bool","feedback","age","ethnicity","gender","race","overall_accuracy","bonus"
"true","false","[]","[]","[]","preload","0","3714","0.0-0.0","63b6dab91b4487aede17f891","665500ab8938657b03fbdba8","665780e1690d595920a69f74","","","","","","","","","","","","","","","","","","","","","","","","","","",""
"true","","","","","fullscreen","1","6497","0.0-1.0","63b6dab91b4487aede17f891","665500ab8938657b03fbdba8","665780e1690d595920a69f74","","","","","","","","","","","","","","","","","","","","","","","","","","",""
"","","","","","html-button-response","2","14406","0.0-2.0","63b6dab91b4487aede17f891","665500ab8938657b03fbdba8","665780e1690d595920a69f74","7905","<p><b>Consent Form</b></p> <div style=""text-align:left;background-color:lightgrey; padding:20px; max-width:900px;""><p>Please consider this information carefully before deciding whether to participate in this research.</p> <p>The purpose of this research is to examine which factors influence social judgment and decision-making. You will be asked to make judgements about individuals and actions in social scenarios. We are simply interested in your judgement. The study will take less than 1 hour to complete, and you will receive less than $20 on Prolific. Your compensation and time commitment are specified in the study description. There are no anticipated risks associated with participating in this study. The effects of participating should be comparable to those you would ordinarily experience from viewing a computer monitor and using a mouse or keyboard for a similar amount of time. At the end of the study, we will provide an explanation of the questions that motivate this line of research and will describe the potential implications. </p><p> Your participation in this study is completely voluntary and you may refuse to participate or you may choose to withdraw at any time without penalty or loss of benefits to you which are otherwise entitled. Your participation in this study will remain confidential. No personally identifiable information will be associated with your data. Also, all analyses of the data will be averaged across all the participants, so your individual responses will never be specifically analyzed. </p><p> If you have questions or concerns about your participation or payment, or want to request a summary of research findings, please contact Dr. Jonathan Phillips at Jonathan.S.Phillips@dartmouth.edu. </p><p> Please save a copy of this form for your records. </p><p><b>Agreement: </b>The nature and purpose of this research have been sufficiently explained and I agree to participate in this study. I understand that I am free to withdraw at any time without incurring any penalty. Please consent by clicking the button below to continue. Otherwise, please exit the study at any time. </p>","0","","","","","","","","","","","","","","","","","","","","","","","",""
"","","","","","instructions","3","96379","0.0-3.0-0.0","63b6dab91b4487aede17f891","665500ab8938657b03fbdba8","665780e1690d595920a69f74","81969","","","[{""page_index"":0,""viewing_time"":1649},{""page_index"":1,""viewing_time"":2423},{""page_index"":2,""viewing_time"":3323},{""page_index"":3,""viewing_time"":6142},{""page_index"":4,""viewing_time"":3608},{""page_index"":5,""viewing_time"":3120},{""page_index"":6,""viewing_time"":9076},{""page_index"":7,""viewing_time"":10717},{""page_index"":8,""viewing_time"":6546},{""page_index"":9,""viewing_time"":5400},{""page_index"":10,""viewing_time"":11993},{""page_index"":11,""viewing_time"":9661},{""page_index"":12,""viewing_time"":6832},{""page_index"":13,""viewing_time"":1478}]","intro","","","","","","","","","","","","","","","","","","","","","",""
"","","","","","image-keyboard-response","4","99993","0.0-3.0-1.0","63b6dab91b4487aede17f891","665500ab8938657b03fbdba8","665780e1690d595920a69f74","3610","stimuli/0101101.jpg","2","","prediction_practice","0","{""filepath"":""stimuli/0101101.jpg"",""ball_pos"":0,""ego_ball_visible"":false,""ego_can_infer"":false,""alter_ball_visible"":false,""alter_can_infer"":false,""collective_ball_visible"":false,""collective_can_infer"":false,""search_locations"":[0,2],""alter_occluders"":""101"",""ego_occluders"":""101""}","false","","","","","","","","","","","","","","","","","","",""
"","","","","","image-keyboard-response","5","102353","0.0-3.0-2.0","63b6dab91b4487aede17f891","665500ab8938657b03fbdba8","665780e1690d595920a69f74","2357","stimuli/01011010.jpg"," ","","practrice_feedback","0","","","","","","","","","","","","","","","","","","","","",""
"","","","","","image-keyboard-response","6","104717","0.0-3.0-3.0","63b6dab91b4487aede17f891","665500ab8938657b03fbdba8","665780e1690d595920a69f74","2363","stimuli/0101100.jpg","0","","prediction_practice","2","{""filepath"":""stimuli/0101100.jpg"",""ball_pos"":0,""ego_ball_visible"":false,""ego_can_infer"":true,""alter_ball_visible"":false,""alter_can_infer"":false,""collective_ball_visible"":false,""collective_can_infer"":false,""search_locations"":[0,2],""alter_occluders"":""101"",""ego_occluders"":""100""}","false","","","","","","","","","","","","","","","","","","",""
"","","","","","image-keyboard-response","7","107011","0.0-3.0-4.0","63b6dab91b4487aede17f891","665500ab8938657b03fbdba8","665780e1690d595920a69f74","2292","stimuli/01011002.jpg"," ","","practrice_feedback","0","","","","","","","","","","","","","","","","","","","","",""
"","","","","","image-keyboard-response","8","108709","0.0-3.0-5.0","63b6dab91b4487aede17f891","665500ab8938657b03fbdba8","665780e1690d595920a69f74","1697","stimuli/0100010.jpg","0","","prediction_practice","0","{""filepath"":""stimuli/0100010.jpg"",""ball_pos"":0,""ego_ball_visible"":true,""ego_can_infer"":true,""alter_ball_visible"":false,""alter_can_infer"":true,""collective_ball_visible"":false,""collective_can_infer"":true,""search_locations"":[0],""alter_occluders"":""100"",""ego_occluders"":""010""}","true","","","","","","","","","","","","","","","","","","",""
"","","","","","image-keyboard-response","9","110056","0.0-3.0-6.0","63b6dab91b4487aede17f891","665500ab8938657b03fbdba8","665780e1690d595920a69f74","1346","stimuli/01000100.jpg"," ","","practrice_feedback","0","","","","","","","","","","","","","","","","","","","","",""
"","","","","","image-keyboard-response","10","112653","0.0-3.0-7.0","63b6dab91b4487aede17f891","665500ab8938657b03fbdba8","665780e1690d595920a69f74","2595","stimuli/1110111.jpg","1","","prediction_practice","0","{""filepath"":""stimuli/1110111.jpg"",""ball_pos"":1,""ego_ball_visible"":false,""ego_can_infer"":false,""alter_ball_visible"":false,""alter_can_infer"":false,""collective_ball_visible"":false,""collective_can_infer"":false,""search_locations"":[1,0],""alter_occluders"":""110"",""ego_occluders"":""111""}","false","","","","","","","","","","","","","","","","","","",""
"","","","","","image-keyboard-response","11","114012","0.0-3.0-8.0","63b6dab91b4487aede17f891","665500ab8938657b03fbdba8","665780e1690d595920a69f74","1357","stimuli/11101110.jpg"," ","","practrice_feedback","1","","","","","","","","","","","","","","","","","","","","",""
"","","","","","image-keyboard-response","12","117442","0.0-3.0-9.0","63b6dab91b4487aede17f891","665500ab8938657b03fbdba8","665780e1690d595920a69f74","3428","stimuli/1110110.jpg","1","","prediction_practice","0","{""filepath"":""stimuli/1110110.jpg"",""ball_pos"":1,""ego_ball_visible"":false,""ego_can_infer"":false,""alter_ball_visible"":false,""alter_can_infer"":false,""collective_ball_visible"":false,""collective_can_infer"":false,""search_locations"":[1,0],""alter_occluders"":""110"",""ego_occluders"":""110""}","false","","","","","","","","","","","","","","","","","","",""
"","","","","","image-keyboard-response","13","118321","0.0-3.0-10.0","63b6dab91b4487aede17f891","665500ab8938657b03fbdba8","665780e1690d595920a69f74","877","stimuli/11101100.jpg"," ","","practrice_feedback","1","","","","","","","","","","","","","","","","","","","","",""
"","","","","","image-keyboard-response","14","119991","0.0-3.0-11.0","63b6dab91b4487aede17f891","665500ab8938657b03fbdba8","665780e1690d595920a69f74","1668","stimuli/0000011.jpg","0","","prediction_practice","0","{""filepath"":""stimuli/0000011.jpg"",""ball_pos"":0,""ego_ball_visible"":true,""ego_can_infer"":true,""alter_ball_visible"":true,""alter_can_infer"":true,""collective_ball_visible"":true,""collective_can_infer"":true,""search_locations"":[0],""alter_occluders"":""000"",""ego_occluders"":""011""}","true","","","","","","","","","","","","","","","","","","",""
"","","","","","image-keyboard-response","15","120972","0.0-3.0-12.0","63b6dab91b4487aede17f891","665500ab8938657b03fbdba8","665780e1690d595920a69f74","979","stimuli/00000110.jpg"," ","","practrice_feedback","0","","","","","","","","","","","","","","","","","","","","",""
"","","","","","image-keyboard-response","16","124689","0.0-3.0-13.0","63b6dab91b4487aede17f891","665500ab8938657b03fbdba8","665780e1690d595920a69f74","3716","stimuli/2100101.jpg","2","","prediction_practice","2","{""filepath"":""stimuli/2100101.jpg"",""ball_pos"":2,""ego_ball_visible"":false,""ego_can_infer"":false,""alter_ball_visible"":true,""alter_can_infer"":true,""collective_ball_visible"":false,""collective_can_infer"":false,""search_locations"":[2],""alter_occluders"":""100"",""ego_occluders"":""101""}","true","","","","","","","","","","","","","","","","","","",""
"","","","","","image-keyboard-response","17","125897","0.0-3.0-14.0","63b6dab91b4487aede17f891","665500ab8938657b03fbdba8","665780e1690d595920a69f74","1206","stimuli/21001012.jpg"," ","","practrice_feedback","2","","","","","","","","","","","","","","","","","","","","",""
"","","","","","image-keyboard-response","18","129211","0.0-3.0-15.0","63b6dab91b4487aede17f891","665500ab8938657b03fbdba8","665780e1690d595920a69f74","3313","stimuli/0010110.jpg","0","","prediction_practice","0","{""filepath"":""stimuli/0010110.jpg"",""ball_pos"":0,""ego_ball_visible"":false,""ego_can_infer"":false,""alter_ball_visible"":true,""alter_can_infer"":true,""collective_ball_visible"":false,""collective_can_infer"":false,""search_locations"":[0],""alter_occluders"":""010"",""ego_occluders"":""110""}","true","","","","","","","","","","","","","","","","","","",""
"","","","","","image-keyboard-response","19","130161","0.0-3.0-16.0","63b6dab91b4487aede17f891","665500ab8938657b03fbdba8","665780e1690d595920a69f74","948","stimuli/00101100.jpg"," ","","practrice_feedback","0","","","","","","","","","","","","","","","","","","","","",""
"","","","","","image-keyboard-response","20","133494","0.0-3.0-17.0","63b6dab91b4487aede17f891","665500ab8938657b03fbdba8","665780e1690d595920a69f74","3331","stimuli/1011010.jpg","1","","prediction_practice","1","{""filepath"":""stimuli/1011010.jpg"",""ball_pos"":1,""ego_ball_visible"":false,""ego_can_infer"":true,""alter_ball_visible"":false,""alter_can_infer"":false,""collective_ball_visible"":false,""collective_can_infer"":false,""search_locations"":[2,1],""alter_occluders"":""011"",""ego_occluders"":""010""}","true","","","","","","","","","","","","","","","","","","",""
"","","","","","image-keyboard-response","21","134527","0.0-3.0-18.0","63b6dab91b4487aede17f891","665500ab8938657b03fbdba8","665780e1690d595920a69f74","1031","stimuli/10110101.jpg"," ","","practrice_feedback","2","","","","","","","","","","","","","","","","","","","","",""
"","","","","","image-keyboard-response","22","136943","0.0-3.0-19.0","63b6dab91b4487aede17f891","665500ab8938657b03fbdba8","665780e1690d595920a69f74","2415","stimuli/2011101.jpg","2","","prediction_practice","2","{""filepath"":""stimuli/2011101.jpg"",""ball_pos"":2,""ego_ball_visible"":false,""ego_can_infer"":false,""alter_ball_visible"":false,""alter_can_infer"":false,""collective_ball_visible"":false,""collective_can_infer"":false,""search_locations"":[1,2],""alter_occluders"":""011"",""ego_occluders"":""101""}","true","","","","","","","","","","","","","","","","","","",""
"","","","","","image-keyboard-response","23","137820","0.0-3.0-20.0","63b6dab91b4487aede17f891","665500ab8938657b03fbdba8","665780e1690d595920a69f74","875","stimuli/20111012.jpg"," ","","practrice_feedback","1","","","","","","","","","","","","","","","","","","","","",""
"","","","","","html-button-response","24","148746","0.0-3.0-21.0","63b6dab91b4487aede17f891","665500ab8938657b03fbdba8","665780e1690d595920a69f74","10925","Now that you've had some practice, you'll be tested with a couple of easy trials. If you correctly predict Sam's choice, you'll move on to complete the experiment!","0","","","","","","","","","","","","","","","","","","","","","","","",""
"","","","","","image-keyboard-response","25","150796","0.0-3.0-22.0-0.0","63b6dab91b4487aede17f891","665500ab8938657b03fbdba8","665780e1690d595920a69f74","2049","stimuli/0000011.jpg","arrowleft","","comprehension_quiz","","","true","arrowleft","","","","","","","","","","","","","","","","","",""
"","","","","","image-keyboard-response","26","151920","0.0-3.0-22.0-1.0","63b6dab91b4487aede17f891","665500ab8938657b03fbdba8","665780e1690d595920a69f74","1121","stimuli/00000110.jpg"," ","","comprehension_quiz","","","true"," ","","","","","","","","","","","","","","","","","",""
"","","","","","image-keyboard-response","27","153776","0.0-3.0-22.0-2.0","63b6dab91b4487aede17f891","665500ab8938657b03fbdba8","665780e1690d595920a69f74","1855","stimuli/1010010.jpg","arrowdown","","comprehension_quiz","","","true","arrowdown","","","","","","","","","","","","","","","","","",""
"","","","","","image-keyboard-response","28","154521","0.0-3.0-22.0-3.0","63b6dab91b4487aede17f891","665500ab8938657b03fbdba8","665780e1690d595920a69f74","743","stimuli/10100101.jpg"," ","","comprehension_quiz","","","true"," ","","","","","","","","","","","","","","","","","",""
"","","","","","html-button-response","29","156877","0.0-4.0","63b6dab91b4487aede17f891","665500ab8938657b03fbdba8","665780e1690d595920a69f74","2354","The experiment will now begin.","0","","","","","","","","","","","","","","","","","","","","","","","",""
"","","","","","image-keyboard-response","30","159314","0.0-5.0","63b6dab91b4487aede17f891","665500ab8938657b03fbdba8","665780e1690d595920a69f74","2436","stimuli/0001101.jpg","0","","prediction_trial","0","","true","","0","false","false","true","true","false","false","[0]","001","101","1","","","","","","",""
"","","","","","image-keyboard-response","31","160089","0.0-6.0","63b6dab91b4487aede17f891","665500ab8938657b03fbdba8","665780e1690d595920a69f74","772","stimuli/00011010.jpg"," ","","feedback_trial","0","","","","","","","","","","","","","","","","","","","","",""
"","","","","","image-keyboard-response","32","161876","0.0-7.0","63b6dab91b4487aede17f891","665500ab8938657b03fbdba8","665780e1690d595920a69f74","1784","stimuli/2000101.jpg","2","","prediction_trial","2","","true","","2","false","false","true","true","false","false","[2]","000","101","1","","","","","","",""
"","","","","","image-keyboard-response","33","162477","0.0-8.0","63b6dab91b4487aede17f891","665500ab8938657b03fbdba8","665780e1690d595920a69f74","600","stimuli/20001012.jpg"," ","","feedback_trial","2","","","","","","","","","","","","","","","","","","","","",""
"","","","","","image-keyboard-response","34","164559","0.0-9.0","63b6dab91b4487aede17f891","665500ab8938657b03fbdba8","665780e1690d595920a69f74","2067","stimuli/1101010.jpg","1","","prediction_trial","1","","true","","1","false","true","true","true","false","true","[1]","101","010","1","","","","","","",""
"","","","","","image-keyboard-response","35","164970","0.0-10.0","63b6dab91b4487aede17f891","665500ab8938657b03fbdba8","665780e1690d595920a69f74","409","stimuli/11010101.jpg"," ","","feedback_trial","1","","","","","","","","","","","","","","","","","","","","",""
"","","","","","image-keyboard-response","36","166399","0.0-11.0","63b6dab91b4487aede17f891","665500ab8938657b03fbdba8","665780e1690d595920a69f74","1427","stimuli/1100010.jpg","1","","prediction_trial","1","","true","","1","false","true","true","true","false","true","[1]","100","010","1","","","","","","",""
"","","","","","image-keyboard-response","37","166799","0.0-12.0","63b6dab91b4487aede17f891","665500ab8938657b03fbdba8","665780e1690d595920a69f74","399","stimuli/11000101.jpg"," ","","feedback_trial","1","","","","","","","","","","","","","","","","","","","","",""
"","","","","","image-keyboard-response","38","168293","0.0-13.0","63b6dab91b4487aede17f891","665500ab8938657b03fbdba8","665780e1690d595920a69f74","1492","stimuli/2100111.jpg","0","","prediction_trial","2","","false","","2","false","false","true","true","false","false","[2]","100","111","0","","","","","","",""
"","","","","","image-keyboard-response","39","169083","0.0-14.0","63b6dab91b4487aede17f891","665500ab8938657b03fbdba8","665780e1690d595920a69f74","789","stimuli/21001112.jpg"," ","","feedback_trial","2","","","","","","","","","","","","","","","","","","","","",""
"","","","","","image-keyboard-response","40","170287","0.0-15.0","63b6dab91b4487aede17f891","665500ab8938657b03fbdba8","665780e1690d595920a69f74","1203","stimuli/0100000.jpg","0","","prediction_trial","0","","true","","0","true","true","false","true","false","true","[0]","100","000","1","","","","","","",""
"","","","","","image-keyboard-response","41","170968","0.0-16.0","63b6dab91b4487aede17f891","665500ab8938657b03fbdba8","665780e1690d595920a69f74","679","stimuli/01000000.jpg"," ","","feedback_trial","0","","","","","","","","","","","","","","","","","","","","",""
"","","","","","image-keyboard-response","42","171972","0.0-17.0","63b6dab91b4487aede17f891","665500ab8938657b03fbdba8","665780e1690d595920a69f74","1002","stimuli/2111111.jpg","1","","prediction_trial","1","","true","","2","false","false","false","false","false","false","[2,1,0]","111","111","1","","","","","","",""
"","","","","","image-keyboard-response","43","172654","0.0-18.0","63b6dab91b4487aede17f891","665500ab8938657b03fbdba8","665780e1690d595920a69f74","681","stimuli/21111111.jpg"," ","","feedback_trial","2","","","","","","","","","","","","","","","","","","","","",""
"","","","","","image-keyboard-response","44","173447","0.0-19.0","63b6dab91b4487aede17f891","665500ab8938657b03fbdba8","665780e1690d595920a69f74","791","stimuli/0111101.jpg","2","","prediction_trial","0","","false","","0","false","false","false","false","false","false","[2,0,1]","111","101","0","","","","","","",""
"","","","","","image-keyboard-response","45","174138","0.0-20.0","63b6dab91b4487aede17f891","665500ab8938657b03fbdba8","665780e1690d595920a69f74","690","stimuli/01111010.jpg"," ","","feedback_trial","2","","","","","","","","","","","","","","","","","","","","",""
"","","","","","image-keyboard-response","46","175265","0.0-21.0","63b6dab91b4487aede17f891","665500ab8938657b03fbdba8","665780e1690d595920a69f74","1126","stimuli/1101001.jpg","1","","prediction_trial","1","","true","","1","true","true","true","true","true","true","[1]","101","001","1","","","","","","",""
"","","","","","image-keyboard-response","47","175908","0.0-22.0","63b6dab91b4487aede17f891","665500ab8938657b03fbdba8","665780e1690d595920a69f74","627","stimuli/11010011.jpg"," ","","feedback_trial","1","","","","","","","","","","","","","","","","","","","","",""
"","","","","","image-keyboard-response","48","176670","0.0-23.0","63b6dab91b4487aede17f891","665500ab8938657b03fbdba8","665780e1690d595920a69f74","761","stimuli/2100010.jpg","2","","prediction_trial","2","","true","","2","true","true","true","true","true","true","[2]","100","010","1","","","","","","",""
"","","","","","image-keyboard-response","49","177204","0.0-24.0","63b6dab91b4487aede17f891","665500ab8938657b03fbdba8","665780e1690d595920a69f74","532","stimuli/21000102.jpg"," ","","feedback_trial","2","","","","","","","","","","","","","","","","","","","","",""
"","","","","","image-keyboard-response","50","178187","0.0-25.0","63b6dab91b4487aede17f891","665500ab8938657b03fbdba8","665780e1690d595920a69f74","982","stimuli/0111111.jpg","1","","prediction_trial","0","","false","","0","false","false","false","false","false","false","[0,2,1]","111","111","0","","","","","","",""
"","","","","","image-keyboard-response","51","179176","0.0-26.0","63b6dab91b4487aede17f891","665500ab8938657b03fbdba8","665780e1690d595920a69f74","987","stimuli/01111110.jpg"," ","","feedback_trial","0","","","","","","","","","","","","","","","","","","","","",""
"","","","","","image-keyboard-response","52","179940","0.0-27.0","63b6dab91b4487aede17f891","665500ab8938657b03fbdba8","665780e1690d595920a69f74","762","stimuli/1101111.jpg","0","","prediction_trial","1","","false","","1","false","false","true","true","false","false","[1]","101","111","0","","","","","","",""
"","","","","","image-keyboard-response","53","180946","0.0-28.0","63b6dab91b4487aede17f891","665500ab8938657b03fbdba8","665780e1690d595920a69f74","1004","stimuli/11011111.jpg"," ","","feedback_trial","1","","","","","","","","","","","","","","","","","","","","",""
"","","","","","image-keyboard-response","54","182002","0.0-29.0","63b6dab91b4487aede17f891","665500ab8938657b03fbdba8","665780e1690d595920a69f74","1061","stimuli/0111001.jpg","0","","prediction_trial","1","","false","","0","true","true","false","false","false","false","[2,0,1]","111","001","0","","","","","","",""
"","","","","","image-keyboard-response","55","182744","0.0-30.0","63b6dab91b4487aede17f891","665500ab8938657b03fbdba8","665780e1690d595920a69f74","741","stimuli/01110011.jpg"," ","","feedback_trial","2","","","","","","","","","","","","","","","","","","","","",""
"","","","","","image-keyboard-response","56","183818","0.0-31.0","63b6dab91b4487aede17f891","665500ab8938657b03fbdba8","665780e1690d595920a69f74","1072","stimuli/1010000.jpg","1","","prediction_trial","1","","true","","1","true","true","false","true","false","true","[1]","010","000","1","","","","","","",""
"","","","","","image-keyboard-response","57","184441","0.0-32.0","63b6dab91b4487aede17f891","665500ab8938657b03fbdba8","665780e1690d595920a69f74","622","stimuli/10100001.jpg"," ","","feedback_trial","1","","","","","","","","","","","","","","","","","","","","",""
"","","","","","image-keyboard-response","58","185850","0.0-33.0","63b6dab91b4487aede17f891","665500ab8938657b03fbdba8","665780e1690d595920a69f74","1408","stimuli/2101101.jpg","2","","prediction_trial","2","","true","","2","false","false","false","false","false","false","[0,2]","101","101","1","","","","","","",""
"","","","","","image-keyboard-response","59","186430","0.0-34.0","63b6dab91b4487aede17f891","665500ab8938657b03fbdba8","665780e1690d595920a69f74","578","stimuli/21011012.jpg"," ","","feedback_trial","0","","","","","","","","","","","","","","","","","","","","",""
"","","","","","image-keyboard-response","60","187530","0.0-35.0","63b6dab91b4487aede17f891","665500ab8938657b03fbdba8","665780e1690d595920a69f74","1086","stimuli/2001010.jpg","2","","prediction_trial","2","","true","","2","true","true","false","true","false","true","[2]","001","010","1","","","","","","",""
"","","","","","image-keyboard-response","61","188123","0.0-36.0","63b6dab91b4487aede17f891","665500ab8938657b03fbdba8","665780e1690d595920a69f74","590","stimuli/20010102.jpg"," ","","feedback_trial","2","","","","","","","","","","","","","","","","","","","","",""
"","","","","","image-keyboard-response","62","189547","0.0-37.0","63b6dab91b4487aede17f891","665500ab8938657b03fbdba8","665780e1690d595920a69f74","1423","stimuli/1010010.jpg","1","","prediction_trial","1","","true","","1","false","true","false","true","false","true","[1]","010","010","1","","","","","","",""
"","","","","","image-keyboard-response","63","190000","0.0-38.0","63b6dab91b4487aede17f891","665500ab8938657b03fbdba8","665780e1690d595920a69f74","452","stimuli/10100101.jpg"," ","","feedback_trial","1","","","","","","","","","","","","","","","","","","","","",""
"","","","","","image-keyboard-response","64","191270","0.0-39.0","63b6dab91b4487aede17f891","665500ab8938657b03fbdba8","665780e1690d595920a69f74","1268","stimuli/0000110.jpg","1","","prediction_trial","0","","false","","0","false","false","true","true","false","false","[0]","000","110","0","","","","","","",""
"","","","","","image-keyboard-response","65","192146","0.0-40.0","63b6dab91b4487aede17f891","665500ab8938657b03fbdba8","665780e1690d595920a69f74","875","stimuli/00001100.jpg"," ","","feedback_trial","0","","","","","","","","","","","","","","","","","","","","",""
"","","","","","image-keyboard-response","66","193371","0.0-41.0","63b6dab91b4487aede17f891","665500ab8938657b03fbdba8","665780e1690d595920a69f74","1223","stimuli/1100110.jpg","0","","prediction_trial","1","","false","","1","false","false","true","true","false","false","[1]","100","110","0","","","","","","",""
"","","","","","image-keyboard-response","67","194825","0.0-42.0","63b6dab91b4487aede17f891","665500ab8938657b03fbdba8","665780e1690d595920a69f74","1453","stimuli/11001101.jpg"," ","","feedback_trial","1","","","","","","","","","","","","","","","","","","","","",""
"","","","","","image-keyboard-response","68","197967","0.0-43.0","63b6dab91b4487aede17f891","665500ab8938657b03fbdba8","665780e1690d595920a69f74","3140","stimuli/0111110.jpg","0","","prediction_trial","1","","false","","0","false","false","false","false","false","false","[2,0,1]","111","110","0","","","","","","",""
"","","","","","image-keyboard-response","69","198614","0.0-44.0","63b6dab91b4487aede17f891","665500ab8938657b03fbdba8","665780e1690d595920a69f74","646","stimuli/01111101.jpg"," ","","feedback_trial","2","","","","","","","","","","","","","","","","","","","","",""
"","","","","","image-keyboard-response","70","199391","0.0-45.0","63b6dab91b4487aede17f891","665500ab8938657b03fbdba8","665780e1690d595920a69f74","775","stimuli/1001100.jpg","1","","prediction_trial","1","","true","","1","true","true","true","true","true","true","[1]","001","100","1","","","","","","",""
"","","","","","image-keyboard-response","71","199827","0.0-46.0","63b6dab91b4487aede17f891","665500ab8938657b03fbdba8","665780e1690d595920a69f74","435","stimuli/10011001.jpg"," ","","feedback_trial","1","","","","","","","","","","","","","","","","","","","","",""
"","","","","","image-keyboard-response","72","200829","0.0-47.0","63b6dab91b4487aede17f891","665500ab8938657b03fbdba8","665780e1690d595920a69f74","1000","stimuli/2011111.jpg","2","","prediction_trial","1","","false","","2","false","false","false","false","false","false","[2,1]","011","111","0","","","","","","",""
"","","","","","image-keyboard-response","73","201646","0.0-48.0","63b6dab91b4487aede17f891","665500ab8938657b03fbdba8","665780e1690d595920a69f74","804","stimuli/20111111.jpg"," ","","feedback_trial","2","","","","","","","","","","","","","","","","","","","","",""
"","","","","","image-keyboard-response","74","202343","0.0-49.0","63b6dab91b4487aede17f891","665500ab8938657b03fbdba8","665780e1690d595920a69f74","695","stimuli/0010011.jpg","0","","prediction_trial","0","","true","","0","true","true","true","true","true","true","[0]","010","011","1","","","","","","",""
"","","","","","image-keyboard-response","75","202842","0.0-50.0","63b6dab91b4487aede17f891","665500ab8938657b03fbdba8","665780e1690d595920a69f74","498","stimuli/00100110.jpg"," ","","feedback_trial","0","","","","","","","","","","","","","","","","","","","","",""
"","","","","","image-keyboard-response","76","204425","0.0-51.0","63b6dab91b4487aede17f891","665500ab8938657b03fbdba8","665780e1690d595920a69f74","1581","stimuli/2110001.jpg","2","","prediction_trial","2","","true","","2","false","true","true","true","false","true","[2]","110","001","1","","","","","","",""
"","","","","","image-keyboard-response","77","205131","0.0-52.0","63b6dab91b4487aede17f891","665500ab8938657b03fbdba8","665780e1690d595920a69f74","705","stimuli/21100012.jpg"," ","","feedback_trial","2","","","","","","","","","","","","","","","","","","","","",""
"","","","","","image-keyboard-response","78","208197","0.0-53.0","63b6dab91b4487aede17f891","665500ab8938657b03fbdba8","665780e1690d595920a69f74","3064","stimuli/1001110.jpg","0","","prediction_trial","1","","false","","1","false","false","true","true","false","false","[1]","001","110","0","","","","","","",""
"","","","","","image-keyboard-response","79","208955","0.0-54.0","63b6dab91b4487aede17f891","665500ab8938657b03fbdba8","665780e1690d595920a69f74","757","stimuli/10011101.jpg"," ","","feedback_trial","1","","","","","","","","","","","","","","","","","","","","",""
"","","","","","image-keyboard-response","80","210211","0.0-55.0","63b6dab91b4487aede17f891","665500ab8938657b03fbdba8","665780e1690d595920a69f74","1254","stimuli/2101110.jpg","2","","prediction_trial","2","","true","","2","true","true","false","false","false","false","[0,2]","101","110","1","","","","","","",""
"","","","","","image-keyboard-response","81","211280","0.0-56.0","63b6dab91b4487aede17f891","665500ab8938657b03fbdba8","665780e1690d595920a69f74","1068","stimuli/21011102.jpg"," ","","feedback_trial","0","","","","","","","","","","","","","","","","","","","","",""
"","","","","","image-keyboard-response","82","212527","0.0-57.0","63b6dab91b4487aede17f891","665500ab8938657b03fbdba8","665780e1690d595920a69f74","1245","stimuli/0001111.jpg","1","","prediction_trial","0","","false","","0","false","false","true","true","false","false","[0]","001","111","0","","","","","","",""
"","","","","","image-keyboard-response","83","213133","0.0-58.0","63b6dab91b4487aede17f891","665500ab8938657b03fbdba8","665780e1690d595920a69f74","604","stimuli/00011110.jpg"," ","","feedback_trial","0","","","","","","","","","","","","","","","","","","","","",""
"","","","","","image-keyboard-response","84","214127","0.0-59.0","63b6dab91b4487aede17f891","665500ab8938657b03fbdba8","665780e1690d595920a69f74","993","stimuli/1100000.jpg","1","","prediction_trial","1","","true","","1","true","true","true","true","true","true","[1]","100","000","1","","","","","","",""
"","","","","","image-keyboard-response","85","214565","0.0-60.0","63b6dab91b4487aede17f891","665500ab8938657b03fbdba8","665780e1690d595920a69f74","437","stimuli/11000001.jpg"," ","","feedback_trial","1","","","","","","","","","","","","","","","","","","","","",""
"","","","","","image-keyboard-response","86","216769","0.0-61.0","63b6dab91b4487aede17f891","665500ab8938657b03fbdba8","665780e1690d595920a69f74","2189","stimuli/2011101.jpg","2","","prediction_trial","2","","true","","2","false","false","false","false","false","false","[1,2]","011","101","1","","","","","","",""
"","","","","","image-keyboard-response","87","217305","0.0-62.0","63b6dab91b4487aede17f891","665500ab8938657b03fbdba8","665780e1690d595920a69f74","534","stimuli/20111012.jpg"," ","","feedback_trial","1","","","","","","","","","","","","","","","","","","","","",""
"","","","","","image-keyboard-response","88","217992","0.0-63.0","63b6dab91b4487aede17f891","665500ab8938657b03fbdba8","665780e1690d595920a69f74","685","stimuli/0011000.jpg","0","","prediction_trial","0","","true","","0","true","true","true","true","true","true","[0]","011","000","1","","","","","","",""
"","","","","","image-keyboard-response","89","218473","0.0-64.0","63b6dab91b4487aede17f891","665500ab8938657b03fbdba8","665780e1690d595920a69f74","480","stimuli/00110000.jpg"," ","","feedback_trial","0","","","","","","","","","","","","","","","","","","","","",""
"","","","","","image-keyboard-response","90","219001","0.0-65.0","63b6dab91b4487aede17f891","665500ab8938657b03fbdba8","665780e1690d595920a69f74","526","stimuli/2010100.jpg","2","","prediction_trial","2","","true","","2","true","true","true","true","true","true","[2]","010","100","1","","","","","","",""
"","","","","","image-keyboard-response","91","219352","0.0-66.0","63b6dab91b4487aede17f891","665500ab8938657b03fbdba8","665780e1690d595920a69f74","350","stimuli/20101002.jpg"," ","","feedback_trial","2","","","","","","","","","","","","","","","","","","","","",""
"","","","","","image-keyboard-response","92","221037","0.0-67.0","63b6dab91b4487aede17f891","665500ab8938657b03fbdba8","665780e1690d595920a69f74","1683","stimuli/1110110.jpg","0","","prediction_trial","1","","false","","1","false","false","false","false","false","false","[1,0]","110","110","0","","","","","","",""
"","","","","","image-keyboard-response","93","221664","0.0-68.0","63b6dab91b4487aede17f891","665500ab8938657b03fbdba8","665780e1690d595920a69f74","625","stimuli/11101101.jpg"," ","","feedback_trial","1","","","","","","","","","","","","","","","","","","","","",""
"","","","","","image-keyboard-response","94","222315","0.0-69.0","63b6dab91b4487aede17f891","665500ab8938657b03fbdba8","665780e1690d595920a69f74","650","stimuli/0001000.jpg","0","","prediction_trial","0","","true","","0","true","true","true","true","true","true","[0]","001","000","1","","","","","","",""
"","","","","","image-keyboard-response","95","222700","0.0-70.0","63b6dab91b4487aede17f891","665500ab8938657b03fbdba8","665780e1690d595920a69f74","383","stimuli/00010000.jpg"," ","","feedback_trial","0","","","","","","","","","","","","","","","","","","","","",""
"","","","","","image-keyboard-response","96","223716","0.0-71.0","63b6dab91b4487aede17f891","665500ab8938657b03fbdba8","665780e1690d595920a69f74","1014","stimuli/0110001.jpg","0","","prediction_trial","0","","true","","0","true","true","false","false","false","false","[1,0]","110","001","1","","","","","","",""
"","","","","","image-keyboard-response","97","224267","0.0-72.0","63b6dab91b4487aede17f891","665500ab8938657b03fbdba8","665780e1690d595920a69f74","550","stimuli/01100010.jpg"," ","","feedback_trial","1","","","","","","","","","","","","","","","","","","","","",""
"","","","","","image-keyboard-response","98","225008","0.0-73.0","63b6dab91b4487aede17f891","665500ab8938657b03fbdba8","665780e1690d595920a69f74","740","stimuli/0110110.jpg","1","","prediction_trial","1","","true","","0","false","false","false","false","false","false","[0,1]","110","110","1","","","","","","",""
"","","","","","image-keyboard-response","99","225734","0.0-74.0","63b6dab91b4487aede17f891","665500ab8938657b03fbdba8","665780e1690d595920a69f74","711","stimuli/01101101.jpg"," ","","feedback_trial","0","","","","","","","","","","","","","","","","","","","","",""
"","","","","","image-keyboard-response","100","226396","0.0-75.0","63b6dab91b4487aede17f891","665500ab8938657b03fbdba8","665780e1690d595920a69f74","661","stimuli/0110010.jpg","0","","prediction_trial","1","","false","","0","true","true","false","false","false","false","[0,1]","110","010","0","","","","","","",""
"","","","","","image-keyboard-response","101","227363","0.0-76.0","63b6dab91b4487aede17f891","665500ab8938657b03fbdba8","665780e1690d595920a69f74","965","stimuli/01100101.jpg"," ","","feedback_trial","0","","","","","","","","","","","","","","","","","","","","",""
"","","","","","image-keyboard-response","102","228375","0.0-77.0","63b6dab91b4487aede17f891","665500ab8938657b03fbdba8","665780e1690d595920a69f74","1011","stimuli/0100100.jpg","0","","prediction_trial","0","","true","","0","false","true","false","true","false","true","[0]","100","100","1","","","","","","",""
"","","","","","image-keyboard-response","103","228787","0.0-78.0","63b6dab91b4487aede17f891","665500ab8938657b03fbdba8","665780e1690d595920a69f74","411","stimuli/01001000.jpg"," ","","feedback_trial","0","","","","","","","","","","","","","","","","","","","","",""
"","","","","","image-keyboard-response","104","229822","0.0-79.0","63b6dab91b4487aede17f891","665500ab8938657b03fbdba8","665780e1690d595920a69f74","1033","stimuli/1111000.jpg","0","","prediction_trial","0","","true","","1","true","true","false","false","false","false","[1,2,0]","111","000","1","","","","","","",""
"","","","","","image-keyboard-response","105","230450","0.0-80.0","63b6dab91b4487aede17f891","665500ab8938657b03fbdba8","665780e1690d595920a69f74","626","stimuli/11110000.jpg"," ","","feedback_trial","1","","","","","","","","","","","","","","","","","","","","",""
"","","","","","image-keyboard-response","106","231962","0.0-81.0","63b6dab91b4487aede17f891","665500ab8938657b03fbdba8","665780e1690d595920a69f74","1511","stimuli/2110111.jpg","1","","prediction_trial","2","","false","","2","false","false","true","true","false","false","[2]","110","111","0","","","","","","",""
"","","","","","image-keyboard-response","107","232881","0.0-82.0","63b6dab91b4487aede17f891","665500ab8938657b03fbdba8","665780e1690d595920a69f74","917","stimuli/21101112.jpg"," ","","feedback_trial","2","","","","","","","","","","","","","","","","","","","","",""
"","","","","","image-keyboard-response","108","235455","0.0-83.0","63b6dab91b4487aede17f891","665500ab8938657b03fbdba8","665780e1690d595920a69f74","2573","stimuli/0101110.jpg","0","","prediction_trial","0","","true","","0","false","false","false","false","false","false","[2,0]","101","110","1","","","","","","",""
"","","","","","image-keyboard-response","109","235992","0.0-84.0","63b6dab91b4487aede17f891","665500ab8938657b03fbdba8","665780e1690d595920a69f74","535","stimuli/01011100.jpg"," ","","feedback_trial","2","","","","","","","","","","","","","","","","","","","","",""
"","","","","","image-keyboard-response","110","237810","0.0-85.0","63b6dab91b4487aede17f891","665500ab8938657b03fbdba8","665780e1690d595920a69f74","1817","stimuli/0111010.jpg","1","","prediction_trial","0","","false","","0","true","true","false","false","false","false","[2,1,0]","111","010","0","","","","","","",""
"","","","","","image-keyboard-response","111","238324","0.0-86.0","63b6dab91b4487aede17f891","665500ab8938657b03fbdba8","665780e1690d595920a69f74","513","stimuli/01110100.jpg"," ","","feedback_trial","2","","","","","","","","","","","","","","","","","","","","",""
"","","","","","image-keyboard-response","112","239922","0.0-87.0","63b6dab91b4487aede17f891","665500ab8938657b03fbdba8","665780e1690d595920a69f74","1583","stimuli/1111111.jpg","1","","prediction_trial","1","","true","","1","false","false","false","false","false","false","[2,0,1]","111","111","1","","","","","","",""
"","","","","","image-keyboard-response","113","240438","0.0-88.0","63b6dab91b4487aede17f891","665500ab8938657b03fbdba8","665780e1690d595920a69f74","514","stimuli/11111111.jpg"," ","","feedback_trial","2","","","","","","","","","","","","","","","","","","","","",""
"","","","","","image-keyboard-response","114","241390","0.0-89.0","63b6dab91b4487aede17f891","665500ab8938657b03fbdba8","665780e1690d595920a69f74","945","stimuli/1000001.jpg","1","","prediction_trial","1","","true","","1","true","true","true","true","true","true","[1]","000","001","1","","","","","","",""
"","","","","","image-keyboard-response","115","241796","0.0-90.0","63b6dab91b4487aede17f891","665500ab8938657b03fbdba8","665780e1690d595920a69f74","404","stimuli/10000011.jpg"," ","","feedback_trial","1","","","","","","","","","","","","","","","","","","","","",""
"","","","","","image-keyboard-response","116","242666","0.0-91.0","63b6dab91b4487aede17f891","665500ab8938657b03fbdba8","665780e1690d595920a69f74","868","stimuli/1100100.jpg","1","","prediction_trial","1","","true","","1","true","true","true","true","true","true","[1]","100","100","1","","","","","","",""
"","","","","","image-keyboard-response","117","242991","0.0-92.0","63b6dab91b4487aede17f891","665500ab8938657b03fbdba8","665780e1690d595920a69f74","323","stimuli/11001001.jpg"," ","","feedback_trial","1","","","","","","","","","","","","","","","","","","","","",""
"","","","","","image-keyboard-response","118","244449","0.0-93.0","63b6dab91b4487aede17f891","665500ab8938657b03fbdba8","665780e1690d595920a69f74","1456","stimuli/1110010.jpg","1","","prediction_trial","1","","true","","1","false","true","false","false","false","false","[1,0]","110","010","1","","","","","","",""
"","","","","","image-keyboard-response","119","244827","0.0-94.0","63b6dab91b4487aede17f891","665500ab8938657b03fbdba8","665780e1690d595920a69f74","377","stimuli/11100101.jpg"," ","","feedback_trial","1","","","","","","","","","","","","","","","","","","","","",""
"","","","","","image-keyboard-response","120","246259","0.0-95.0","63b6dab91b4487aede17f891","665500ab8938657b03fbdba8","665780e1690d595920a69f74","1430","stimuli/1011010.jpg","1","","prediction_trial","2","","false","","1","false","true","false","false","false","false","[2,1]","011","010","0","","","","","","",""
"","","","","","image-keyboard-response","121","246795","0.0-96.0","63b6dab91b4487aede17f891","665500ab8938657b03fbdba8","665780e1690d595920a69f74","534","stimuli/10110102.jpg"," ","","feedback_trial","2","","","","","","","","","","","","","","","","","","","","",""
"","","","","","image-keyboard-response","122","247388","0.0-97.0","63b6dab91b4487aede17f891","665500ab8938657b03fbdba8","665780e1690d595920a69f74","592","stimuli/1001101.jpg","1","","prediction_trial","1","","true","","1","true","true","true","true","true","true","[1]","001","101","1","","","","","","",""
"","","","","","image-keyboard-response","123","247745","0.0-98.0","63b6dab91b4487aede17f891","665500ab8938657b03fbdba8","665780e1690d595920a69f74","355","stimuli/10011011.jpg"," ","","feedback_trial","1","","","","","","","","","","","","","","","","","","","","",""
"","","","","","image-keyboard-response","124","248680","0.0-99.0","63b6dab91b4487aede17f891","665500ab8938657b03fbdba8","665780e1690d595920a69f74","934","stimuli/0101101.jpg","0","","prediction_trial","2","","false","","0","false","false","false","false","false","false","[0,2]","101","101","0","","","","","","",""
"","","","","","image-keyboard-response","125","249682","0.0-100.0","63b6dab91b4487aede17f891","665500ab8938657b03fbdba8","665780e1690d595920a69f74","999","stimuli/01011012.jpg"," ","","feedback_trial","0","","","","","","","","","","","","","","","","","","","","",""
"","","","","","image-keyboard-response","126","250696","0.0-101.0","63b6dab91b4487aede17f891","665500ab8938657b03fbdba8","665780e1690d595920a69f74","1013","stimuli/0010110.jpg","1","","prediction_trial","0","","false","","0","false","false","true","true","false","false","[0]","010","110","0","","","","","","",""
"","","","","","image-keyboard-response","127","251225","0.0-102.0","63b6dab91b4487aede17f891","665500ab8938657b03fbdba8","665780e1690d595920a69f74","528","stimuli/00101100.jpg"," ","","feedback_trial","0","","","","","","","","","","","","","","","","","","","","",""
"","","","","","image-keyboard-response","128","251934","0.0-103.0","63b6dab91b4487aede17f891","665500ab8938657b03fbdba8","665780e1690d595920a69f74","707","stimuli/1111100.jpg","1","","prediction_trial","2","","false","","1","true","true","false","false","false","false","[2,0,1]","111","100","0","","","","","","",""
"","","","","","image-keyboard-response","129","252410","0.0-104.0","63b6dab91b4487aede17f891","665500ab8938657b03fbdba8","665780e1690d595920a69f74","475","stimuli/11111002.jpg"," ","","feedback_trial","2","","","","","","","","","","","","","","","","","","","","",""
"","","","","","image-keyboard-response","130","253021","0.0-105.0","63b6dab91b4487aede17f891","665500ab8938657b03fbdba8","665780e1690d595920a69f74","609","stimuli/2000100.jpg","2","","prediction_trial","2","","true","","2","true","true","true","true","true","true","[2]","000","100","1","","","","","","",""
"","","","","","image-keyboard-response","131","253445","0.0-106.0","63b6dab91b4487aede17f891","665500ab8938657b03fbdba8","665780e1690d595920a69f74","422","stimuli/20001002.jpg"," ","","feedback_trial","2","","","","","","","","","","","","","","","","","","","","",""
"","","","","","image-keyboard-response","132","254252","0.0-107.0","63b6dab91b4487aede17f891","665500ab8938657b03fbdba8","665780e1690d595920a69f74","805","stimuli/1011011.jpg","2","","prediction_trial","2","","true","","1","false","false","false","false","false","false","[1,2]","011","011","1","","","","","","",""
"","","","","","image-keyboard-response","133","254836","0.0-108.0","63b6dab91b4487aede17f891","665500ab8938657b03fbdba8","665780e1690d595920a69f74","583","stimuli/10110112.jpg"," ","","feedback_trial","1","","","","","","","","","","","","","","","","","","","","",""
"","","","","","image-keyboard-response","134","255413","0.0-109.0","63b6dab91b4487aede17f891","665500ab8938657b03fbdba8","665780e1690d595920a69f74","576","stimuli/0110011.jpg","0","","prediction_trial","0","","true","","0","true","true","false","false","false","false","[1,0]","110","011","1","","","","","","",""
"","","","","","image-keyboard-response","135","255882","0.0-110.0","63b6dab91b4487aede17f891","665500ab8938657b03fbdba8","665780e1690d595920a69f74","467","stimuli/01100110.jpg"," ","","feedback_trial","1","","","","","","","","","","","","","","","","","","","","",""
"","","","","","image-keyboard-response","136","256566","0.0-111.0","63b6dab91b4487aede17f891","665500ab8938657b03fbdba8","665780e1690d595920a69f74","683","stimuli/2100100.jpg","2","","prediction_trial","2","","true","","2","true","true","true","true","true","true","[2]","100","100","1","","","","","","",""
"","","","","","image-keyboard-response","137","256960","0.0-112.0","63b6dab91b4487aede17f891","665500ab8938657b03fbdba8","665780e1690d595920a69f74","393","stimuli/21001002.jpg"," ","","feedback_trial","2","","","","","","","","","","","","","","","","","","","","",""
"","","","","","image-keyboard-response","138","257453","0.0-113.0","63b6dab91b4487aede17f891","665500ab8938657b03fbdba8","665780e1690d595920a69f74","477","stimuli/0100010.jpg","0","","prediction_trial","0","","true","","0","true","true","false","true","false","true","[0]","100","010","1","","","","","","",""
"","","","","","image-keyboard-response","139","257872","0.0-114.0","63b6dab91b4487aede17f891","665500ab8938657b03fbdba8","665780e1690d595920a69f74","418","stimuli/01000100.jpg"," ","","feedback_trial","0","","","","","","","","","","","","","","","","","","","","",""
"","","","","","image-keyboard-response","140","259655","0.0-115.0","63b6dab91b4487aede17f891","665500ab8938657b03fbdba8","665780e1690d595920a69f74","1782","stimuli/1000111.jpg","1","","prediction_trial","1","","true","","1","false","false","true","true","false","false","[1]","000","111","1","","","","","","",""
"","","","","","image-keyboard-response","141","260339","0.0-116.0","63b6dab91b4487aede17f891","665500ab8938657b03fbdba8","665780e1690d595920a69f74","682","stimuli/10001111.jpg"," ","","feedback_trial","1","","","","","","","","","","","","","","","","","","","","",""
"","","","","","image-keyboard-response","142","260993","0.0-117.0","63b6dab91b4487aede17f891","665500ab8938657b03fbdba8","665780e1690d595920a69f74","653","stimuli/0111000.jpg","0","","prediction_trial","1","","false","","0","true","true","false","false","false","false","[1,0,2]","111","000","0","","","","","","",""
"","","","","","image-keyboard-response","143","261676","0.0-118.0","63b6dab91b4487aede17f891","665500ab8938657b03fbdba8","665780e1690d595920a69f74","682","stimuli/01110001.jpg"," ","","feedback_trial","1","","","","","","","","","","","","","","","","","","","","",""
"","","","","","image-keyboard-response","144","265162","0.0-119.0","63b6dab91b4487aede17f891","665500ab8938657b03fbdba8","665780e1690d595920a69f74","3484","stimuli/0010101.jpg","2","","prediction_trial","0","","false","","0","false","false","true","true","false","false","[0]","010","101","0","","","","","","",""
"","","","","","image-keyboard-response","145","265874","0.0-120.0","63b6dab91b4487aede17f891","665500ab8938657b03fbdba8","665780e1690d595920a69f74","711","stimuli/00101010.jpg"," ","","feedback_trial","0","","","","","","","","","","","","","","","","","","","","",""
"","","","","","image-keyboard-response","146","266585","0.0-121.0","63b6dab91b4487aede17f891","665500ab8938657b03fbdba8","665780e1690d595920a69f74","710","stimuli/0000010.jpg","0","","prediction_trial","0","","true","","0","true","true","true","true","true","true","[0]","000","010","1","","","","","","",""
"","","","","","image-keyboard-response","147","266946","0.0-122.0","63b6dab91b4487aede17f891","665500ab8938657b03fbdba8","665780e1690d595920a69f74","359","stimuli/00000100.jpg"," ","","feedback_trial","0","","","","","","","","","","","","","","","","","","","","",""
"","","","","","image-keyboard-response","148","267726","0.0-123.0","63b6dab91b4487aede17f891","665500ab8938657b03fbdba8","665780e1690d595920a69f74","778","stimuli/0011010.jpg","0","","prediction_trial","0","","true","","0","true","true","true","true","true","true","[0]","011","010","1","","","","","","",""
"","","","","","image-keyboard-response","149","268165","0.0-124.0","63b6dab91b4487aede17f891","665500ab8938657b03fbdba8","665780e1690d595920a69f74","438","stimuli/00110100.jpg"," ","","feedback_trial","0","","","","","","","","","","","","","","","","","","","","",""
"","","","","","image-keyboard-response","150","269108","0.0-125.0","63b6dab91b4487aede17f891","665500ab8938657b03fbdba8","665780e1690d595920a69f74","942","stimuli/0100011.jpg","0","","prediction_trial","0","","true","","0","true","true","false","true","false","true","[0]","100","011","1","","","","","","",""
"","","","","","image-keyboard-response","151","269504","0.0-126.0","63b6dab91b4487aede17f891","665500ab8938657b03fbdba8","665780e1690d595920a69f74","394","stimuli/01000110.jpg"," ","","feedback_trial","0","","","","","","","","","","","","","","","","","","","","",""
"","","","","","image-keyboard-response","152","270098","0.0-127.0","63b6dab91b4487aede17f891","665500ab8938657b03fbdba8","665780e1690d595920a69f74","592","stimuli/2000110.jpg","2","","prediction_trial","2","","true","","2","true","true","true","true","true","true","[2]","000","110","1","","","","","","",""
"","","","","","image-keyboard-response","153","270461","0.0-128.0","63b6dab91b4487aede17f891","665500ab8938657b03fbdba8","665780e1690d595920a69f74","362","stimuli/20001102.jpg"," ","","feedback_trial","2","","","","","","","","","","","","","","","","","","","","",""
"","","","","","image-keyboard-response","154","271156","0.0-129.0","63b6dab91b4487aede17f891","665500ab8938657b03fbdba8","665780e1690d595920a69f74","694","stimuli/2111000.jpg","2","","prediction_trial","2","","true","","2","true","true","false","false","false","false","[1,2,0]","111","000","1","","","","","","",""
"","","","","","image-keyboard-response","155","271549","0.0-130.0","63b6dab91b4487aede17f891","665500ab8938657b03fbdba8","665780e1690d595920a69f74","391","stimuli/21110002.jpg"," ","","feedback_trial","1","","","","","","","","","","","","","","","","","","","","",""
"","","","","","image-keyboard-response","156","272914","0.0-131.0","63b6dab91b4487aede17f891","665500ab8938657b03fbdba8","665780e1690d595920a69f74","1364","stimuli/1010110.jpg","1","","prediction_trial","1","","true","","1","false","false","false","true","false","false","[1]","010","110","1","","","","","","",""
"","","","","","image-keyboard-response","157","273319","0.0-132.0","63b6dab91b4487aede17f891","665500ab8938657b03fbdba8","665780e1690d595920a69f74","404","stimuli/10101101.jpg"," ","","feedback_trial","1","","","","","","","","","","","","","","","","","","","","",""
"","","","","","image-keyboard-response","158","274215","0.0-133.0","63b6dab91b4487aede17f891","665500ab8938657b03fbdba8","665780e1690d595920a69f74","895","stimuli/2101000.jpg","2","","prediction_trial","0","","false","","2","true","true","false","false","false","false","[0,2]","101","000","0","","","","","","",""
"","","","","","image-keyboard-response","159","274728","0.0-134.0","63b6dab91b4487aede17f891","665500ab8938657b03fbdba8","665780e1690d595920a69f74","512","stimuli/21010000.jpg"," ","","feedback_trial","0","","","","","","","","","","","","","","","","","","","","",""
"","","","","","image-keyboard-response","160","275682","0.0-135.0","63b6dab91b4487aede17f891","665500ab8938657b03fbdba8","665780e1690d595920a69f74","952","stimuli/0101010.jpg","0","","prediction_trial","0","","true","","0","true","true","false","false","false","false","[0,2]","101","010","1","","","","","","",""
"","","","","","image-keyboard-response","161","276076","0.0-136.0","63b6dab91b4487aede17f891","665500ab8938657b03fbdba8","665780e1690d595920a69f74","392","stimuli/01010100.jpg"," ","","feedback_trial","0","","","","","","","","","","","","","","","","","","","","",""
"","","","","","image-keyboard-response","162","278841","0.0-137.0","63b6dab91b4487aede17f891","665500ab8938657b03fbdba8","665780e1690d595920a69f74","2764","stimuli/2001101.jpg","2","","prediction_trial","2","","true","","2","false","false","false","true","false","false","[2]","001","101","1","","","","","","",""
"","","","","","image-keyboard-response","163","279185","0.0-138.0","63b6dab91b4487aede17f891","665500ab8938657b03fbdba8","665780e1690d595920a69f74","342","stimuli/20011012.jpg"," ","","feedback_trial","2","","","","","","","","","","","","","","","","","","","","",""
"","","","","","image-keyboard-response","164","281231","0.0-139.0","63b6dab91b4487aede17f891","665500ab8938657b03fbdba8","665780e1690d595920a69f74","2029","stimuli/1101110.jpg","1","","prediction_trial","1","","true","","1","false","false","true","true","false","false","[1]","101","110","1","","","","","","",""
"","","","","","image-keyboard-response","165","281597","0.0-140.0","63b6dab91b4487aede17f891","665500ab8938657b03fbdba8","665780e1690d595920a69f74","364","stimuli/11011101.jpg"," ","","feedback_trial","1","","","","","","","","","","","","","","","","","","","","",""
"","","","","","image-keyboard-response","166","282883","0.0-141.0","63b6dab91b4487aede17f891","665500ab8938657b03fbdba8","665780e1690d595920a69f74","1285","stimuli/0110111.jpg","0","","prediction_trial","0","","true","","0","false","false","false","false","false","false","[0,1]","110","111","1","","","","","","",""
"","","","","","image-keyboard-response","167","283361","0.0-142.0","63b6dab91b4487aede17f891","665500ab8938657b03fbdba8","665780e1690d595920a69f74","476","stimuli/01101110.jpg"," ","","feedback_trial","0","","","","","","","","","","","","","","","","","","","","",""
"","","","","","image-keyboard-response","168","284828","0.0-143.0","63b6dab91b4487aede17f891","665500ab8938657b03fbdba8","665780e1690d595920a69f74","1465","stimuli/2000001.jpg","2","","prediction_trial","2","","true","","2","false","true","true","true","false","true","[2]","000","001","1","","","","","","",""
"","","","","","image-keyboard-response","169","285186","0.0-144.0","63b6dab91b4487aede17f891","665500ab8938657b03fbdba8","665780e1690d595920a69f74","357","stimuli/20000012.jpg"," ","","feedback_trial","2","","","","","","","","","","","","","","","","","","","","",""
"","","","","","image-keyboard-response","170","286869","0.0-145.0","63b6dab91b4487aede17f891","665500ab8938657b03fbdba8","665780e1690d595920a69f74","1680","stimuli/2100001.jpg","2","","prediction_trial","2","","true","","2","false","true","true","true","false","true","[2]","100","001","1","","","","","","",""
"","","","","","image-keyboard-response","171","287196","0.0-146.0","63b6dab91b4487aede17f891","665500ab8938657b03fbdba8","665780e1690d595920a69f74","326","stimuli/21000012.jpg"," ","","feedback_trial","2","","","","","","","","","","","","","","","","","","","","",""
"","","","","","image-keyboard-response","172","288759","0.0-147.0","63b6dab91b4487aede17f891","665500ab8938657b03fbdba8","665780e1690d595920a69f74","1561","stimuli/2011011.jpg","2","","prediction_trial","2","","true","","2","false","false","false","false","false","false","[1,2]","011","011","1","","","","","","",""
"","","","","","image-keyboard-response","173","289104","0.0-148.0","63b6dab91b4487aede17f891","665500ab8938657b03fbdba8","665780e1690d595920a69f74","344","stimuli/20110112.jpg"," ","","feedback_trial","1","","","","","","","","","","","","","","","","","","","","",""
"","","","","","image-keyboard-response","174","290726","0.0-149.0","63b6dab91b4487aede17f891","665500ab8938657b03fbdba8","665780e1690d595920a69f74","1620","stimuli/1111110.jpg","0","","prediction_trial","0","","true","","1","false","false","false","false","false","false","[2,1,0]","111","110","1","","","","","","",""
"","","","","","image-keyboard-response","175","291038","0.0-150.0","63b6dab91b4487aede17f891","665500ab8938657b03fbdba8","665780e1690d595920a69f74","311","stimuli/11111100.jpg"," ","","feedback_trial","2","","","","","","","","","","","","","","","","","","","","",""
"","","","","","image-keyboard-response","176","292223","0.0-151.0","63b6dab91b4487aede17f891","665500ab8938657b03fbdba8","665780e1690d595920a69f74","1183","stimuli/0011110.jpg","1","","prediction_trial","0","","false","","0","false","false","true","true","false","false","[0]","011","110","0","","","","","","",""
"","","","","","image-keyboard-response","177","294000","0.0-152.0","63b6dab91b4487aede17f891","665500ab8938657b03fbdba8","665780e1690d595920a69f74","1775","stimuli/00111100.jpg"," ","","feedback_trial","0","","","","","","","","","","","","","","","","","","","","",""
"","","","","","image-keyboard-response","178","294697","0.0-153.0","63b6dab91b4487aede17f891","665500ab8938657b03fbdba8","665780e1690d595920a69f74","695","stimuli/1110100.jpg","1","","prediction_trial","0","","false","","1","true","true","false","false","false","false","[0,1]","110","100","0","","","","","","",""
"","","","","","image-keyboard-response","179","295330","0.0-154.0","63b6dab91b4487aede17f891","665500ab8938657b03fbdba8","665780e1690d595920a69f74","632","stimuli/11101000.jpg"," ","","feedback_trial","0","","","","","","","","","","","","","","","","","","","","",""
"","","","","","image-keyboard-response","180","296050","0.0-155.0","63b6dab91b4487aede17f891","665500ab8938657b03fbdba8","665780e1690d595920a69f74","717","stimuli/2011000.jpg","2","","prediction_trial","1","","false","","2","true","true","false","false","false","false","[1,2]","011","000","0","","","","","","",""
"","","","","","image-keyboard-response","181","296986","0.0-156.0","63b6dab91b4487aede17f891","665500ab8938657b03fbdba8","665780e1690d595920a69f74","935","stimuli/20110001.jpg"," ","","feedback_trial","1","","","","","","","","","","","","","","","","","","","","",""
"","","","","","image-keyboard-response","182","297660","0.0-157.0","63b6dab91b4487aede17f891","665500ab8938657b03fbdba8","665780e1690d595920a69f74","673","stimuli/1111001.jpg","1","","prediction_trial","1","","true","","1","true","true","false","false","false","false","[2,1,0]","111","001","1","","","","","","",""
"","","","","","image-keyboard-response","183","298153","0.0-158.0","63b6dab91b4487aede17f891","665500ab8938657b03fbdba8","665780e1690d595920a69f74","492","stimuli/11110011.jpg"," ","","feedback_trial","2","","","","","","","","","","","","","","","","","","","","",""
"","","","","","image-keyboard-response","184","299282","0.0-159.0","63b6dab91b4487aede17f891","665500ab8938657b03fbdba8","665780e1690d595920a69f74","1127","stimuli/2101111.jpg","1","","prediction_trial","2","","false","","2","false","false","false","false","false","false","[0,2]","101","111","0","","","","","","",""
"","","","","","image-keyboard-response","185","299956","0.0-160.0","63b6dab91b4487aede17f891","665500ab8938657b03fbdba8","665780e1690d595920a69f74","672","stimuli/21011112.jpg"," ","","feedback_trial","0","","","","","","","","","","","","","","","","","","","","",""
"","","","","","image-keyboard-response","186","300596","0.0-161.0","63b6dab91b4487aede17f891","665500ab8938657b03fbdba8","665780e1690d595920a69f74","639","stimuli/0001011.jpg","0","","prediction_trial","0","","true","","0","true","true","true","true","true","true","[0]","001","011","1","","","","","","",""
"","","","","","image-keyboard-response","187","300980","0.0-162.0","63b6dab91b4487aede17f891","665500ab8938657b03fbdba8","665780e1690d595920a69f74","382","stimuli/00010110.jpg"," ","","feedback_trial","0","","","","","","","","","","","","","","","","","","","","",""
"","","","","","image-keyboard-response","188","301649","0.0-163.0","63b6dab91b4487aede17f891","665500ab8938657b03fbdba8","665780e1690d595920a69f74","667","stimuli/1001001.jpg","1","","prediction_trial","1","","true","","1","true","true","true","true","true","true","[1]","001","001","1","","","","","","",""
"","","","","","image-keyboard-response","189","301994","0.0-164.0","63b6dab91b4487aede17f891","665500ab8938657b03fbdba8","665780e1690d595920a69f74","343","stimuli/10010011.jpg"," ","","feedback_trial","1","","","","","","","","","","","","","","","","","","","","",""
"","","","","","image-keyboard-response","190","303596","0.0-165.0","63b6dab91b4487aede17f891","665500ab8938657b03fbdba8","665780e1690d595920a69f74","1587","stimuli/1001111.jpg","2","","prediction_trial","1","","false","","1","false","false","true","true","false","false","[1]","001","111","0","","","","","","",""
"","","","","","image-keyboard-response","191","304517","0.0-166.0","63b6dab91b4487aede17f891","665500ab8938657b03fbdba8","665780e1690d595920a69f74","919","stimuli/10011111.jpg"," ","","feedback_trial","1","","","","","","","","","","","","","","","","","","","","",""
"","","","","","image-keyboard-response","192","306177","0.0-167.0","63b6dab91b4487aede17f891","665500ab8938657b03fbdba8","665780e1690d595920a69f74","1659","stimuli/2010001.jpg","2","","prediction_trial","2","","true","","2","false","true","true","true","false","true","[2]","010","001","1","","","","","","",""
"","","","","","image-keyboard-response","193","306544","0.0-168.0","63b6dab91b4487aede17f891","665500ab8938657b03fbdba8","665780e1690d595920a69f74","365","stimuli/20100012.jpg"," ","","feedback_trial","2","","","","","","","","","","","","","","","","","","","","",""
"","","","","","image-keyboard-response","194","307195","0.0-169.0","63b6dab91b4487aede17f891","665500ab8938657b03fbdba8","665780e1690d595920a69f74","649","stimuli/2000000.jpg","2","","prediction_trial","2","","true","","2","true","true","true","true","true","true","[2]","000","000","1","","","","","","",""
"","","","","","image-keyboard-response","195","307535","0.0-170.0","63b6dab91b4487aede17f891","665500ab8938657b03fbdba8","665780e1690d595920a69f74","339","stimuli/20000002.jpg"," ","","feedback_trial","2","","","","","","","","","","","","","","","","","","","","",""
"","","","","","image-keyboard-response","196","308131","0.0-171.0","63b6dab91b4487aede17f891","665500ab8938657b03fbdba8","665780e1690d595920a69f74","593","stimuli/0010010.jpg","0","","prediction_trial","0","","true","","0","true","true","true","true","true","true","[0]","010","010","1","","","","","","",""
"","","","","","image-keyboard-response","197","308470","0.0-172.0","63b6dab91b4487aede17f891","665500ab8938657b03fbdba8","665780e1690d595920a69f74","337","stimuli/00100100.jpg"," ","","feedback_trial","0","","","","","","","","","","","","","","","","","","","","",""
"","","","","","image-keyboard-response","198","309272","0.0-173.0","63b6dab91b4487aede17f891","665500ab8938657b03fbdba8","665780e1690d595920a69f74","801","stimuli/2001110.jpg","2","","prediction_trial","2","","true","","2","true","true","false","true","false","true","[2]","001","110","1","","","","","","",""
"","","","","","image-keyboard-response","199","309662","0.0-174.0","63b6dab91b4487aede17f891","665500ab8938657b03fbdba8","665780e1690d595920a69f74","389","stimuli/20011102.jpg"," ","","feedback_trial","2","","","","","","","","","","","","","","","","","","","","",""
"","","","","","image-keyboard-response","200","310265","0.0-175.0","63b6dab91b4487aede17f891","665500ab8938657b03fbdba8","665780e1690d595920a69f74","601","stimuli/2010000.jpg","2","","prediction_trial","2","","true","","2","true","true","true","true","true","true","[2]","010","000","1","","","","","","",""
"","","","","","image-keyboard-response","201","310598","0.0-176.0","63b6dab91b4487aede17f891","665500ab8938657b03fbdba8","665780e1690d595920a69f74","331","stimuli/20100002.jpg"," ","","feedback_trial","2","","","","","","","","","","","","","","","","","","","","",""
"","","","","","image-keyboard-response","202","311730","0.0-177.0","63b6dab91b4487aede17f891","665500ab8938657b03fbdba8","665780e1690d595920a69f74","1130","stimuli/2000011.jpg","1","","prediction_trial","2","","false","","2","false","false","true","true","false","false","[2]","000","011","0","","","","","","",""
"","","","","","image-keyboard-response","203","312245","0.0-178.0","63b6dab91b4487aede17f891","665500ab8938657b03fbdba8","665780e1690d595920a69f74","513","stimuli/20000112.jpg"," ","","feedback_trial","2","","","","","","","","","","","","","","","","","","","","",""
"","","","","","image-keyboard-response","204","312957","0.0-179.0","63b6dab91b4487aede17f891","665500ab8938657b03fbdba8","665780e1690d595920a69f74","710","stimuli/1010111.jpg","0","","prediction_trial","1","","false","","1","false","false","false","true","false","false","[1]","010","111","0","","","","","","",""
"","","","","","image-keyboard-response","205","313850","0.0-180.0","63b6dab91b4487aede17f891","665500ab8938657b03fbdba8","665780e1690d595920a69f74","892","stimuli/10101111.jpg"," ","","feedback_trial","1","","","","","","","","","","","","","","","","","","","","",""
"","","","","","image-keyboard-response","206","314396","0.0-181.0","63b6dab91b4487aede17f891","665500ab8938657b03fbdba8","665780e1690d595920a69f74","544","stimuli/0100001.jpg","0","","prediction_trial","0","","true","","0","true","true","false","true","false","true","[0]","100","001","1","","","","","","",""
"","","","","","image-keyboard-response","207","314723","0.0-182.0","63b6dab91b4487aede17f891","665500ab8938657b03fbdba8","665780e1690d595920a69f74","325","stimuli/01000010.jpg"," ","","feedback_trial","0","","","","","","","","","","","","","","","","","","","","",""
"","","","","","image-keyboard-response","208","316233","0.0-183.0","63b6dab91b4487aede17f891","665500ab8938657b03fbdba8","665780e1690d595920a69f74","1508","stimuli/0111100.jpg","0","","prediction_trial","0","","true","","0","false","true","false","false","false","false","[2,0,1]","111","100","1","","","","","","",""
"","","","","","image-keyboard-response","209","316592","0.0-184.0","63b6dab91b4487aede17f891","665500ab8938657b03fbdba8","665780e1690d595920a69f74","358","stimuli/01111000.jpg"," ","","feedback_trial","2","","","","","","","","","","","","","","","","","","","","",""
"","","","","","image-keyboard-response","210","317217","0.0-185.0","63b6dab91b4487aede17f891","665500ab8938657b03fbdba8","665780e1690d595920a69f74","623","stimuli/1010101.jpg","1","","prediction_trial","1","","true","","1","true","true","false","true","false","true","[1]","010","101","1","","","","","","",""
"","","","","","image-keyboard-response","211","317597","0.0-186.0","63b6dab91b4487aede17f891","665500ab8938657b03fbdba8","665780e1690d595920a69f74","379","stimuli/10101011.jpg"," ","","feedback_trial","1","","","","","","","","","","","","","","","","","","","","",""
"","","","","","image-keyboard-response","212","319071","0.0-187.0","63b6dab91b4487aede17f891","665500ab8938657b03fbdba8","665780e1690d595920a69f74","1472","stimuli/2001011.jpg","2","","prediction_trial","2","","true","","2","false","false","false","true","false","false","[2]","001","011","1","","","","","","",""
"","","","","","image-keyboard-response","213","319438","0.0-188.0","63b6dab91b4487aede17f891","665500ab8938657b03fbdba8","665780e1690d595920a69f74","366","stimuli/20010112.jpg"," ","","feedback_trial","2","","","","","","","","","","","","","","","","","","","","",""
"","","","","","image-keyboard-response","214","321430","0.0-189.0","63b6dab91b4487aede17f891","665500ab8938657b03fbdba8","665780e1690d595920a69f74","1990","stimuli/1111010.jpg","1","","prediction_trial","0","","false","","1","false","true","false","false","false","false","[1,2,0]","111","010","0","","","","","","",""
"","","","","","image-keyboard-response","215","322257","0.0-190.0","63b6dab91b4487aede17f891","665500ab8938657b03fbdba8","665780e1690d595920a69f74","826","stimuli/11110100.jpg"," ","","feedback_trial","1","","","","","","","","","","","","","","","","","","","","",""
"","","","","","image-keyboard-response","216","323126","0.0-191.0","63b6dab91b4487aede17f891","665500ab8938657b03fbdba8","665780e1690d595920a69f74","855","stimuli/2110101.jpg","0","","prediction_trial","2","","false","","2","false","false","true","true","false","false","[2]","110","101","0","","","","","","",""
"","","","","","image-keyboard-response","217","324120","0.0-192.0","63b6dab91b4487aede17f891","665500ab8938657b03fbdba8","665780e1690d595920a69f74","992","stimuli/21101012.jpg"," ","","feedback_trial","2","","","","","","","","","","","","","","","","","","","","",""
"","","","","","image-keyboard-response","218","325520","0.0-193.0","63b6dab91b4487aede17f891","665500ab8938657b03fbdba8","665780e1690d595920a69f74","1399","stimuli/1110011.jpg","1","","prediction_trial","0","","false","","1","false","false","false","false","false","false","[1,0]","110","011","0","","","","","","",""
"","","","","","image-keyboard-response","219","326026","0.0-194.0","63b6dab91b4487aede17f891","665500ab8938657b03fbdba8","665780e1690d595920a69f74","504","stimuli/11100110.jpg"," ","","feedback_trial","1","","","","","","","","","","","","","","","","","","","","",""
"","","","","","image-keyboard-response","220","327319","0.0-195.0","63b6dab91b4487aede17f891","665500ab8938657b03fbdba8","665780e1690d595920a69f74","1292","stimuli/0011101.jpg","2","","prediction_trial","0","","false","","0","false","false","true","true","false","false","[0]","011","101","0","","","","","","",""
"","","","","","image-keyboard-response","221","328153","0.0-196.0","63b6dab91b4487aede17f891","665500ab8938657b03fbdba8","665780e1690d595920a69f74","832","stimuli/00111010.jpg"," ","","feedback_trial","0","","","","","","","","","","","","","","","","","","","","",""
"","","","","","image-keyboard-response","222","328958","0.0-197.0","63b6dab91b4487aede17f891","665500ab8938657b03fbdba8","665780e1690d595920a69f74","803","stimuli/2001000.jpg","2","","prediction_trial","2","","true","","2","true","true","false","true","false","true","[2]","001","000","1","","","","","","",""
"","","","","","image-keyboard-response","223","329367","0.0-198.0","63b6dab91b4487aede17f891","665500ab8938657b03fbdba8","665780e1690d595920a69f74","408","stimuli/20010002.jpg"," ","","feedback_trial","2","","","","","","","","","","","","","","","","","","","","",""
"","","","","","image-keyboard-response","224","331712","0.0-199.0","63b6dab91b4487aede17f891","665500ab8938657b03fbdba8","665780e1690d595920a69f74","2344","stimuli/2001100.jpg","2","","prediction_trial","2","","true","","2","true","true","false","true","false","true","[2]","001","100","1","","","","","","",""
"","","","","","image-keyboard-response","225","332043","0.0-200.0","63b6dab91b4487aede17f891","665500ab8938657b03fbdba8","665780e1690d595920a69f74","329","stimuli/20011002.jpg"," ","","feedback_trial","2","","","","","","","","","","","","","","","","","","","","",""
"","","","","","image-keyboard-response","226","333830","0.0-201.0","63b6dab91b4487aede17f891","665500ab8938657b03fbdba8","665780e1690d595920a69f74","1786","stimuli/0100101.jpg","0","","prediction_trial","0","","true","","0","false","false","false","true","false","false","[0]","100","101","1","","","","","","",""
"","","","","","image-keyboard-response","227","334193","0.0-202.0","63b6dab91b4487aede17f891","665500ab8938657b03fbdba8","665780e1690d595920a69f74","362","stimuli/01001010.jpg"," ","","feedback_trial","0","","","","","","","","","","","","","","","","","","","","",""
"","","","","","image-keyboard-response","228","335280","0.0-203.0","63b6dab91b4487aede17f891","665500ab8938657b03fbdba8","665780e1690d595920a69f74","1085","stimuli/1000011.jpg","1","","prediction_trial","1","","true","","1","false","false","true","true","false","false","[1]","000","011","1","","","","","","",""
"","","","","","image-keyboard-response","229","335663","0.0-204.0","63b6dab91b4487aede17f891","665500ab8938657b03fbdba8","665780e1690d595920a69f74","368","stimuli/10000111.jpg"," ","","feedback_trial","1","","","","","","","","","","","","","","","","","","","","",""
"","","","","","image-keyboard-response","230","336478","0.0-205.0","63b6dab91b4487aede17f891","665500ab8938657b03fbdba8","665780e1690d595920a69f74","814","stimuli/0111011.jpg","0","","prediction_trial","0","","true","","0","true","true","false","false","false","false","[1,2,0]","111","011","1","","","","","","",""
"","","","","","image-keyboard-response","231","336857","0.0-206.0","63b6dab91b4487aede17f891","665500ab8938657b03fbdba8","665780e1690d595920a69f74","377","stimuli/01110110.jpg"," ","","feedback_trial","1","","","","","","","","","","","","","","","","","","","","",""
"","","","","","image-keyboard-response","232","337619","0.0-207.0","63b6dab91b4487aede17f891","665500ab8938657b03fbdba8","665780e1690d595920a69f74","761","stimuli/0101001.jpg","0","","prediction_trial","2","","false","","0","true","true","false","false","false","false","[2,0]","101","001","0","","","","","","",""
"","","","","","image-keyboard-response","233","338104","0.0-208.0","63b6dab91b4487aede17f891","665500ab8938657b03fbdba8","665780e1690d595920a69f74","482","stimuli/01010012.jpg"," ","","feedback_trial","2","","","","","","","","","","","","","","","","","","","","",""
"","","","","","image-keyboard-response","234","339323","0.0-209.0","63b6dab91b4487aede17f891","665500ab8938657b03fbdba8","665780e1690d595920a69f74","1218","stimuli/2100101.jpg","0","","prediction_trial","2","","false","","2","false","false","true","true","false","false","[2]","100","101","0","","","","","","",""
"","","","","","image-keyboard-response","235","340272","0.0-210.0","63b6dab91b4487aede17f891","665500ab8938657b03fbdba8","665780e1690d595920a69f74","947","stimuli/21001012.jpg"," ","","feedback_trial","2","","","","","","","","","","","","","","","","","","","","",""
"","","","","","image-keyboard-response","236","340959","0.0-211.0","63b6dab91b4487aede17f891","665500ab8938657b03fbdba8","665780e1690d595920a69f74","685","stimuli/2110010.jpg","2","","prediction_trial","2","","true","","2","true","true","true","true","true","true","[2]","110","010","1","","","","","","",""
"","","","","","image-keyboard-response","237","341320","0.0-212.0","63b6dab91b4487aede17f891","665500ab8938657b03fbdba8","665780e1690d595920a69f74","360","stimuli/21100102.jpg"," ","","feedback_trial","2","","","","","","","","","","","","","","","","","","","","",""
"","","","","","image-keyboard-response","238","342235","0.0-213.0","63b6dab91b4487aede17f891","665500ab8938657b03fbdba8","665780e1690d595920a69f74","913","stimuli/0000101.jpg","2","","prediction_trial","0","","false","","0","false","false","true","true","false","false","[0]","000","101","0","","","","","","",""
"","","","","","image-keyboard-response","239","342824","0.0-214.0","63b6dab91b4487aede17f891","665500ab8938657b03fbdba8","665780e1690d595920a69f74","587","stimuli/00001010.jpg"," ","","feedback_trial","0","","","","","","","","","","","","","","","","","","","","",""
"","","","","","image-keyboard-response","240","343780","0.0-215.0","63b6dab91b4487aede17f891","665500ab8938657b03fbdba8","665780e1690d595920a69f74","954","stimuli/2111011.jpg","1","","prediction_trial","2","","false","","2","false","false","false","false","false","false","[2,0,1]","111","011","0","","","","","","",""
"","","","","","image-keyboard-response","241","344302","0.0-216.0","63b6dab91b4487aede17f891","665500ab8938657b03fbdba8","665780e1690d595920a69f74","521","stimuli/21110112.jpg"," ","","feedback_trial","2","","","","","","","","","","","","","","","","","","","","",""
"","","","","","image-keyboard-response","242","345113","0.0-217.0","63b6dab91b4487aede17f891","665500ab8938657b03fbdba8","665780e1690d595920a69f74","810","stimuli/1001011.jpg","2","","prediction_trial","1","","false","","1","false","false","true","true","false","false","[1]","001","011","0","","","","","","",""
"","","","","","image-keyboard-response","243","345682","0.0-218.0","63b6dab91b4487aede17f891","665500ab8938657b03fbdba8","665780e1690d595920a69f74","567","stimuli/10010111.jpg"," ","","feedback_trial","1","","","","","","","","","","","","","","","","","","","","",""
"","","","","","image-keyboard-response","244","346403","0.0-219.0","63b6dab91b4487aede17f891","665500ab8938657b03fbdba8","665780e1690d595920a69f74","719","stimuli/2011110.jpg","2","","prediction_trial","1","","false","","2","true","true","false","false","false","false","[2,1]","011","110","0","","","","","","",""
"","","","","","image-keyboard-response","245","347139","0.0-220.0","63b6dab91b4487aede17f891","665500ab8938657b03fbdba8","665780e1690d595920a69f74","734","stimuli/20111101.jpg"," ","","feedback_trial","2","","","","","","","","","","","","","","","","","","","","",""
"","","","","","image-keyboard-response","246","348050","0.0-221.0","63b6dab91b4487aede17f891","665500ab8938657b03fbdba8","665780e1690d595920a69f74","910","stimuli/0110100.jpg","0","","prediction_trial","0","","true","","0","false","true","false","false","false","false","[0,1]","110","100","1","","","","","","",""
"","","","","","image-keyboard-response","247","348487","0.0-222.0","63b6dab91b4487aede17f891","665500ab8938657b03fbdba8","665780e1690d595920a69f74","435","stimuli/01101000.jpg"," ","","feedback_trial","0","","","","","","","","","","","","","","","","","","","","",""
"","","","","","image-keyboard-response","248","349290","0.0-223.0","63b6dab91b4487aede17f891","665500ab8938657b03fbdba8","665780e1690d595920a69f74","800","stimuli/1111101.jpg","1","","prediction_trial","2","","false","","1","true","true","false","false","false","false","[1,0,2]","111","101","0","","","","","","",""
"","","","","","image-keyboard-response","249","349763","0.0-224.0","63b6dab91b4487aede17f891","665500ab8938657b03fbdba8","665780e1690d595920a69f74","472","stimuli/11111012.jpg"," ","","feedback_trial","1","","","","","","","","","","","","","","","","","","","","",""
"","","","","","image-keyboard-response","250","350750","0.0-225.0","63b6dab91b4487aede17f891","665500ab8938657b03fbdba8","665780e1690d595920a69f74","986","stimuli/1100111.jpg","0","","prediction_trial","1","","false","","1","false","false","true","true","false","false","[1]","100","111","0","","","","","","",""
"","","","","","image-keyboard-response","251","351687","0.0-226.0","63b6dab91b4487aede17f891","665500ab8938657b03fbdba8","665780e1690d595920a69f74","936","stimuli/11001111.jpg"," ","","feedback_trial","1","","","","","","","","","","","","","","","","","","","","",""
"","","","","","image-keyboard-response","252","352872","0.0-227.0","63b6dab91b4487aede17f891","665500ab8938657b03fbdba8","665780e1690d595920a69f74","1184","stimuli/0000111.jpg","1","","prediction_trial","0","","false","","0","false","false","true","true","false","false","[0]","000","111","0","","","","","","",""
"","","","","","image-keyboard-response","253","353384","0.0-228.0","63b6dab91b4487aede17f891","665500ab8938657b03fbdba8","665780e1690d595920a69f74","509","stimuli/00001110.jpg"," ","","feedback_trial","0","","","","","","","","","","","","","","","","","","","","",""
"","","","","","image-keyboard-response","254","353946","0.0-229.0","63b6dab91b4487aede17f891","665500ab8938657b03fbdba8","665780e1690d595920a69f74","560","stimuli/1000000.jpg","1","","prediction_trial","1","","true","","1","true","true","true","true","true","true","[1]","000","000","1","","","","","","",""
"","","","","","image-keyboard-response","255","354315","0.0-230.0","63b6dab91b4487aede17f891","665500ab8938657b03fbdba8","665780e1690d595920a69f74","367","stimuli/10000001.jpg"," ","","feedback_trial","1","","","","","","","","","","","","","","","","","","","","",""
"","","","","","image-keyboard-response","256","355696","0.0-231.0","63b6dab91b4487aede17f891","665500ab8938657b03fbdba8","665780e1690d595920a69f74","1379","stimuli/2010111.jpg","1","","prediction_trial","2","","false","","2","false","false","true","true","false","false","[2]","010","111","0","","","","","","",""
"","","","","","image-keyboard-response","257","356535","0.0-232.0","63b6dab91b4487aede17f891","665500ab8938657b03fbdba8","665780e1690d595920a69f74","838","stimuli/20101112.jpg"," ","","feedback_trial","2","","","","","","","","","","","","","","","","","","","","",""
"","","","","","image-keyboard-response","258","357064","0.0-233.0","63b6dab91b4487aede17f891","665500ab8938657b03fbdba8","665780e1690d595920a69f74","527","stimuli/2011010.jpg","2","","prediction_trial","1","","false","","2","true","true","false","false","false","false","[1,2]","011","010","0","","","","","","",""
"","","","","","image-keyboard-response","259","357648","0.0-234.0","63b6dab91b4487aede17f891","665500ab8938657b03fbdba8","665780e1690d595920a69f74","582","stimuli/20110101.jpg"," ","","feedback_trial","1","","","","","","","","","","","","","","","","","","","","",""
"","","","","","image-keyboard-response","260","358341","0.0-235.0","63b6dab91b4487aede17f891","665500ab8938657b03fbdba8","665780e1690d595920a69f74","692","stimuli/1010001.jpg","1","","prediction_trial","1","","true","","1","true","true","false","true","false","true","[1]","010","001","1","","","","","","",""
"","","","","","image-keyboard-response","261","358841","0.0-236.0","63b6dab91b4487aede17f891","665500ab8938657b03fbdba8","665780e1690d595920a69f74","499","stimuli/10100011.jpg"," ","","feedback_trial","1","","","","","","","","","","","","","","","","","","","","",""
"","","","","","image-keyboard-response","262","359839","0.0-237.0","63b6dab91b4487aede17f891","665500ab8938657b03fbdba8","665780e1690d595920a69f74","996","stimuli/1111011.jpg","2","","prediction_trial","1","","false","","1","false","false","false","false","false","false","[0,2,1]","111","011","0","","","","","","",""
"","","","","","image-keyboard-response","263","360366","0.0-238.0","63b6dab91b4487aede17f891","665500ab8938657b03fbdba8","665780e1690d595920a69f74","525","stimuli/11110111.jpg"," ","","feedback_trial","0","","","","","","","","","","","","","","","","","","","","",""
"","","","","","image-keyboard-response","264","360950","0.0-239.0","63b6dab91b4487aede17f891","665500ab8938657b03fbdba8","665780e1690d595920a69f74","583","stimuli/2000010.jpg","2","","prediction_trial","2","","true","","2","true","true","true","true","true","true","[2]","000","010","1","","","","","","",""
"","","","","","image-keyboard-response","265","361363","0.0-240.0","63b6dab91b4487aede17f891","665500ab8938657b03fbdba8","665780e1690d595920a69f74","412","stimuli/20000102.jpg"," ","","feedback_trial","2","","","","","","","","","","","","","","","","","","","","",""
"","","","","","image-keyboard-response","266","362216","0.0-241.0","63b6dab91b4487aede17f891","665500ab8938657b03fbdba8","665780e1690d595920a69f74","850","stimuli/0001100.jpg","0","","prediction_trial","0","","true","","0","false","true","true","true","false","true","[0]","001","100","1","","","","","","",""
"","","","","","image-keyboard-response","267","363133","0.0-242.0","63b6dab91b4487aede17f891","665500ab8938657b03fbdba8","665780e1690d595920a69f74","916","stimuli/00011000.jpg"," ","","feedback_trial","0","","","","","","","","","","","","","","","","","","","","",""
"","","","","","image-keyboard-response","268","364100","0.0-243.0","63b6dab91b4487aede17f891","665500ab8938657b03fbdba8","665780e1690d595920a69f74","952","stimuli/1011100.jpg","1","","prediction_trial","2","","false","","1","true","true","false","false","false","false","[1,2]","011","100","0","","","","","","",""
"","","","","","image-keyboard-response","269","364988","0.0-244.0","63b6dab91b4487aede17f891","665500ab8938657b03fbdba8","665780e1690d595920a69f74","887","stimuli/10111002.jpg"," ","","feedback_trial","1","","","","","","","","","","","","","","","","","","","","",""
"","","","","","image-keyboard-response","270","366150","0.0-245.0","63b6dab91b4487aede17f891","665500ab8938657b03fbdba8","665780e1690d595920a69f74","1160","stimuli/1100001.jpg","1","","prediction_trial","1","","true","","1","true","true","true","true","true","true","[1]","100","001","1","","","","","","",""
"","","","","","image-keyboard-response","271","366603","0.0-246.0","63b6dab91b4487aede17f891","665500ab8938657b03fbdba8","665780e1690d595920a69f74","451","stimuli/11000011.jpg"," ","","feedback_trial","1","","","","","","","","","","","","","","","","","","","","",""
"","","","","","image-keyboard-response","272","367200","0.0-247.0","63b6dab91b4487aede17f891","665500ab8938657b03fbdba8","665780e1690d595920a69f74","595","stimuli/0011011.jpg","0","","prediction_trial","0","","true","","0","true","true","true","true","true","true","[0]","011","011","1","","","","","","",""
"","","","","","image-keyboard-response","273","367582","0.0-248.0","63b6dab91b4487aede17f891","665500ab8938657b03fbdba8","665780e1690d595920a69f74","380","stimuli/00110110.jpg"," ","","feedback_trial","0","","","","","","","","","","","","","","","","","","","","",""
"","","","","","image-keyboard-response","274","368869","0.0-249.0","63b6dab91b4487aede17f891","665500ab8938657b03fbdba8","665780e1690d595920a69f74","1286","stimuli/2111101.jpg","0","","prediction_trial","1","","false","","2","false","false","false","false","false","false","[2,1,0]","111","101","0","","","","","","",""
"","","","","","image-keyboard-response","275","370582","0.0-250.0","63b6dab91b4487aede17f891","665500ab8938657b03fbdba8","665780e1690d595920a69f74","1711","stimuli/21111011.jpg"," ","","feedback_trial","2","","","","","","","","","","","","","","","","","","","","",""
"","","","","","image-keyboard-response","276","375184","0.0-251.0","63b6dab91b4487aede17f891","665500ab8938657b03fbdba8","665780e1690d595920a69f74","4601","stimuli/0101100.jpg","0","","prediction_trial","2","","false","","0","false","true","false","false","false","false","[0,2]","101","100","0","","","","","","",""
"","","","","","image-keyboard-response","277","376144","0.0-252.0","63b6dab91b4487aede17f891","665500ab8938657b03fbdba8","665780e1690d595920a69f74","959","stimuli/01011002.jpg"," ","","feedback_trial","0","","","","","","","","","","","","","","","","","","","","",""
"","","","","","image-keyboard-response","278","376779","0.0-253.0","63b6dab91b4487aede17f891","665500ab8938657b03fbdba8","665780e1690d595920a69f74","633","stimuli/2000111.jpg","2","","prediction_trial","2","","true","","2","false","false","true","true","false","false","[2]","000","111","1","","","","","","",""
"","","","","","image-keyboard-response","279","377496","0.0-254.0","63b6dab91b4487aede17f891","665500ab8938657b03fbdba8","665780e1690d595920a69f74","715","stimuli/20001112.jpg"," ","","feedback_trial","2","","","","","","","","","","","","","","","","","","","","",""
"","","","","","image-keyboard-response","280","378140","0.0-255.0","63b6dab91b4487aede17f891","665500ab8938657b03fbdba8","665780e1690d595920a69f74","643","stimuli/0000011.jpg","0","","prediction_trial","0","","true","","0","true","true","true","true","true","true","[0]","000","011","1","","","","","","",""
"","","","","","image-keyboard-response","281","378564","0.0-256.0","63b6dab91b4487aede17f891","665500ab8938657b03fbdba8","665780e1690d595920a69f74","422","stimuli/00000110.jpg"," ","","feedback_trial","0","","","","","","","","","","","","","","","","","","","","",""
"","","","","","image-keyboard-response","282","379197","0.0-257.0","63b6dab91b4487aede17f891","665500ab8938657b03fbdba8","665780e1690d595920a69f74","631","stimuli/1101000.jpg","1","","prediction_trial","1","","true","","1","true","true","true","true","true","true","[1]","101","000","1","","","","","","",""
"","","","","","image-keyboard-response","283","379530","0.0-258.0","63b6dab91b4487aede17f891","665500ab8938657b03fbdba8","665780e1690d595920a69f74","331","stimuli/11010001.jpg"," ","","feedback_trial","1","","","","","","","","","","","","","","","","","","","","",""
"","","","","","image-keyboard-response","284","380372","0.0-259.0","63b6dab91b4487aede17f891","665500ab8938657b03fbdba8","665780e1690d595920a69f74","840","stimuli/2011100.jpg","2","","prediction_trial","1","","false","","2","true","true","false","false","false","false","[1,2]","011","100","0","","","","","","",""
"","","","","","image-keyboard-response","285","380796","0.0-260.0","63b6dab91b4487aede17f891","665500ab8938657b03fbdba8","665780e1690d595920a69f74","422","stimuli/20111001.jpg"," ","","feedback_trial","1","","","","","","","","","","","","","","","","","","","","",""
"","","","","","image-keyboard-response","286","381480","0.0-261.0","63b6dab91b4487aede17f891","665500ab8938657b03fbdba8","665780e1690d595920a69f74","682","stimuli/2111010.jpg","2","","prediction_trial","2","","true","","2","true","true","false","false","false","false","[1,0,2]","111","010","1","","","","","","",""
"","","","","","image-keyboard-response","287","381864","0.0-262.0","63b6dab91b4487aede17f891","665500ab8938657b03fbdba8","665780e1690d595920a69f74","382","stimuli/21110102.jpg"," ","","feedback_trial","1","","","","","","","","","","","","","","","","","","","","",""
"","","","","","image-keyboard-response","288","382613","0.0-263.0","63b6dab91b4487aede17f891","665500ab8938657b03fbdba8","665780e1690d595920a69f74","748","stimuli/0101000.jpg","0","","prediction_trial","0","","true","","0","true","true","false","false","false","false","[2,0]","101","000","1","","","","","","",""
"","","","","","image-keyboard-response","289","382987","0.0-264.0","63b6dab91b4487aede17f891","665500ab8938657b03fbdba8","665780e1690d595920a69f74","372","stimuli/01010000.jpg"," ","","feedback_trial","2","","","","","","","","","","","","","","","","","","","","",""
"","","","","","image-keyboard-response","290","383861","0.0-265.0","63b6dab91b4487aede17f891","665500ab8938657b03fbdba8","665780e1690d595920a69f74","873","stimuli/1100101.jpg","1","","prediction_trial","1","","true","","1","true","true","true","true","true","true","[1]","100","101","1","","","","","","",""
"","","","","","image-keyboard-response","291","384182","0.0-266.0","63b6dab91b4487aede17f891","665500ab8938657b03fbdba8","665780e1690d595920a69f74","319","stimuli/11001011.jpg"," ","","feedback_trial","1","","","","","","","","","","","","","","","","","","","","",""
"","","","","","image-keyboard-response","292","384786","0.0-267.0","63b6dab91b4487aede17f891","665500ab8938657b03fbdba8","665780e1690d595920a69f74","603","stimuli/2111110.jpg","2","","prediction_trial","1","","false","","2","true","true","false","false","false","false","[1,0,2]","111","110","0","","","","","","",""
"","","","","","image-keyboard-response","293","385369","0.0-268.0","63b6dab91b4487aede17f891","665500ab8938657b03fbdba8","665780e1690d595920a69f74","582","stimuli/21111101.jpg"," ","","feedback_trial","1","","","","","","","","","","","","","","","","","","","","",""
"","","","","","image-keyboard-response","294","387192","0.0-269.0","63b6dab91b4487aede17f891","665500ab8938657b03fbdba8","665780e1690d595920a69f74","1808","stimuli/1001010.jpg","1","","prediction_trial","1","","true","","1","false","true","true","true","false","true","[1]","001","010","1","","","","","","",""
"","","","","","image-keyboard-response","295","387539","0.0-270.0","63b6dab91b4487aede17f891","665500ab8938657b03fbdba8","665780e1690d595920a69f74","346","stimuli/10010101.jpg"," ","","feedback_trial","1","","","","","","","","","","","","","","","","","","","","",""
"","","","","","image-keyboard-response","296","388724","0.0-271.0","63b6dab91b4487aede17f891","665500ab8938657b03fbdba8","665780e1690d595920a69f74","1183","stimuli/2100011.jpg","1","","prediction_trial","2","","false","","2","false","false","true","true","false","false","[2]","100","011","0","","","","","","",""
"","","","","","image-keyboard-response","297","389155","0.0-272.0","63b6dab91b4487aede17f891","665500ab8938657b03fbdba8","665780e1690d595920a69f74","429","stimuli/21000112.jpg"," ","","feedback_trial","2","","","","","","","","","","","","","","","","","","","","",""
"","","","","","image-keyboard-response","298","389777","0.0-273.0","63b6dab91b4487aede17f891","665500ab8938657b03fbdba8","665780e1690d595920a69f74","620","stimuli/2110000.jpg","2","","prediction_trial","2","","true","","2","true","true","true","true","true","true","[2]","110","000","1","","","","","","",""
"","","","","","image-keyboard-response","299","390100","0.0-274.0","63b6dab91b4487aede17f891","665500ab8938657b03fbdba8","665780e1690d595920a69f74","321","stimuli/21100002.jpg"," ","","feedback_trial","2","","","","","","","","","","","","","","","","","","","","",""
"","","","","","image-keyboard-response","300","390667","0.0-275.0","63b6dab91b4487aede17f891","665500ab8938657b03fbdba8","665780e1690d595920a69f74","566","stimuli/0011001.jpg","0","","prediction_trial","0","","true","","0","true","true","true","true","true","true","[0]","011","001","1","","","","","","",""
"","","","","","image-keyboard-response","301","390969","0.0-276.0","63b6dab91b4487aede17f891","665500ab8938657b03fbdba8","665780e1690d595920a69f74","300","stimuli/00110010.jpg"," ","","feedback_trial","0","","","","","","","","","","","","","","","","","","","","",""
"","","","","","image-keyboard-response","302","391627","0.0-277.0","63b6dab91b4487aede17f891","665500ab8938657b03fbdba8","665780e1690d595920a69f74","657","stimuli/1000100.jpg","1","","prediction_trial","1","","true","","1","true","true","true","true","true","true","[1]","000","100","1","","","","","","",""
"","","","","","image-keyboard-response","303","391984","0.0-278.0","63b6dab91b4487aede17f891","665500ab8938657b03fbdba8","665780e1690d595920a69f74","355","stimuli/10001001.jpg"," ","","feedback_trial","1","","","","","","","","","","","","","","","","","","","","",""
"","","","","","image-keyboard-response","304","393245","0.0-279.0","63b6dab91b4487aede17f891","665500ab8938657b03fbdba8","665780e1690d595920a69f74","1260","stimuli/0011111.jpg","1","","prediction_trial","0","","false","","0","false","false","true","true","false","false","[0]","011","111","0","","","","","","",""
"","","","","","image-keyboard-response","305","393750","0.0-280.0","63b6dab91b4487aede17f891","665500ab8938657b03fbdba8","665780e1690d595920a69f74","503","stimuli/00111110.jpg"," ","","feedback_trial","0","","","","","","","","","","","","","","","","","","","","",""
"","","","","","image-keyboard-response","306","394828","0.0-281.0","63b6dab91b4487aede17f891","665500ab8938657b03fbdba8","665780e1690d595920a69f74","1077","stimuli/1011101.jpg","1","","prediction_trial","2","","false","","1","true","true","false","false","false","false","[2,1]","011","101","0","","","","","","",""
"","","","","","image-keyboard-response","307","395312","0.0-282.0","63b6dab91b4487aede17f891","665500ab8938657b03fbdba8","665780e1690d595920a69f74","481","stimuli/10111012.jpg"," ","","feedback_trial","2","","","","","","","","","","","","","","","","","","","","",""
"","","","","","image-keyboard-response","308","395882","0.0-283.0","63b6dab91b4487aede17f891","665500ab8938657b03fbdba8","665780e1690d595920a69f74","569","stimuli/1010011.jpg","2","","prediction_trial","1","","false","","1","false","false","false","true","false","false","[1]","010","011","0","","","","","","",""
"","","","","","image-keyboard-response","309","398109","0.0-284.0","63b6dab91b4487aede17f891","665500ab8938657b03fbdba8","665780e1690d595920a69f74","2225","stimuli/10100111.jpg"," ","","feedback_trial","1","","","","","","","","","","","","","","","","","","","","",""
"","","","","","image-keyboard-response","310","399257","0.0-285.0","63b6dab91b4487aede17f891","665500ab8938657b03fbdba8","665780e1690d595920a69f74","1147","stimuli/2010011.jpg","2","","prediction_trial","2","","true","","2","false","false","true","true","false","false","[2]","010","011","1","","","","","","",""
"","","","","","image-keyboard-response","311","399820","0.0-286.0","63b6dab91b4487aede17f891","665500ab8938657b03fbdba8","665780e1690d595920a69f74","561","stimuli/20100112.jpg"," ","","feedback_trial","2","","","","","","","","","","","","","","","","","","","","",""
"","","","","","image-keyboard-response","312","400785","0.0-287.0","63b6dab91b4487aede17f891","665500ab8938657b03fbdba8","665780e1690d595920a69f74","964","stimuli/2111001.jpg","2","","prediction_trial","0","","false","","2","false","true","false","false","false","false","[1,0,2]","111","001","0","","","","","","",""
"","","","","","image-keyboard-response","313","402077","0.0-288.0","63b6dab91b4487aede17f891","665500ab8938657b03fbdba8","665780e1690d595920a69f74","1291","stimuli/21110010.jpg"," ","","feedback_trial","1","","","","","","","","","","","","","","","","","","","","",""
"","","","","","image-keyboard-response","314","402894","0.0-289.0","63b6dab91b4487aede17f891","665500ab8938657b03fbdba8","665780e1690d595920a69f74","814","stimuli/0001001.jpg","0","","prediction_trial","0","","true","","0","true","true","true","true","true","true","[0]","001","001","1","","","","","","",""
"","","","","","image-keyboard-response","315","403366","0.0-290.0","63b6dab91b4487aede17f891","665500ab8938657b03fbdba8","665780e1690d595920a69f74","471","stimuli/00010010.jpg"," ","","feedback_trial","0","","","","","","","","","","","","","","","","","","","","",""
"","","","","","image-keyboard-response","316","404186","0.0-291.0","63b6dab91b4487aede17f891","665500ab8938657b03fbdba8","665780e1690d595920a69f74","818","stimuli/1110001.jpg","1","","prediction_trial","1","","true","","1","true","true","false","false","false","false","[1,0]","110","001","1","","","","","","",""
"","","","","","image-keyboard-response","317","404652","0.0-292.0","63b6dab91b4487aede17f891","665500ab8938657b03fbdba8","665780e1690d595920a69f74","465","stimuli/11100011.jpg"," ","","feedback_trial","1","","","","","","","","","","","","","","","","","","","","",""
"","","","","","survey-html-form","318","433593","0.0-293.0","63b6dab91b4487aede17f891","665500ab8938657b03fbdba8","665780e1690d595920a69f74","28940","","{""feedback"":""I was trying to find any type of pattern."",""age"":""36"",""gender"":""Female"",""other_gender"":"""",""race"":""White"",""other_race"":"""",""ethnicity"":""Non-Hispanic""}","","exit_survey","","","","","","","","","","","","","","","","I was trying to find any type of pattern.","36","Non-Hispanic","Female","White","0.6180555555555556","0.6180555555555556"
