"success","timeout","failed_images","failed_audio","failed_video","trial_type","trial_index","time_elapsed","internal_node_id","prolific_id","prolific_study_id","prolific_session_id","rt","stimulus","response","view_history","trial","character_choice","stimulus_dict","accuracy","correct_response","ball_pos","ego_ball_visible","ego_can_infer","alter_ball_visible","alter_can_infer","collective_ball_visible","collective_can_infer","search_locations","alter_occluders","ego_occluders","accuracy_bool","feedback","age","ethnicity","gender","race","overall_accuracy","bonus"
"true","false","[]","[]","[]","preload","0","2119","0.0-0.0","5f52c941fc18905c7e8f78fd","665500ab8938657b03fbdba8","66577fc991f71cd7317b954e","","","","","","","","","","","","","","","","","","","","","","","","","","",""
"true","","","","","fullscreen","1","15191","0.0-1.0","5f52c941fc18905c7e8f78fd","665500ab8938657b03fbdba8","66577fc991f71cd7317b954e","","","","","","","","","","","","","","","","","","","","","","","","","","",""
"","","","","","html-button-response","2","17956","0.0-2.0","5f52c941fc18905c7e8f78fd","665500ab8938657b03fbdba8","66577fc991f71cd7317b954e","2764","<p><b>Consent Form</b></p> <div style=""text-align:left;background-color:lightgrey; padding:20px; max-width:900px;""><p>Please consider this information carefully before deciding whether to participate in this research.</p> <p>The purpose of this research is to examine which factors influence social judgment and decision-making. You will be asked to make judgements about individuals and actions in social scenarios. We are simply interested in your judgement. The study will take less than 1 hour to complete, and you will receive less than $20 on Prolific. Your compensation and time commitment are specified in the study description. There are no anticipated risks associated with participating in this study. The effects of participating should be comparable to those you would ordinarily experience from viewing a computer monitor and using a mouse or keyboard for a similar amount of time. At the end of the study, we will provide an explanation of the questions that motivate this line of research and will describe the potential implications. </p><p> Your participation in this study is completely voluntary and you may refuse to participate or you may choose to withdraw at any time without penalty or loss of benefits to you which are otherwise entitled. Your participation in this study will remain confidential. No personally identifiable information will be associated with your data. Also, all analyses of the data will be averaged across all the participants, so your individual responses will never be specifically analyzed. </p><p> If you have questions or concerns about your participation or payment, or want to request a summary of research findings, please contact Dr. Jonathan Phillips at Jonathan.S.Phillips@dartmouth.edu. </p><p> Please save a copy of this form for your records. </p><p><b>Agreement: </b>The nature and purpose of this research have been sufficiently explained and I agree to participate in this study. I understand that I am free to withdraw at any time without incurring any penalty. Please consent by clicking the button below to continue. Otherwise, please exit the study at any time. </p>","0","","","","","","","","","","","","","","","","","","","","","","","",""
"","","","","","instructions","3","64818","0.0-3.0-0.0","5f52c941fc18905c7e8f78fd","665500ab8938657b03fbdba8","66577fc991f71cd7317b954e","46861","","","[{""page_index"":0,""viewing_time"":1993},{""page_index"":1,""viewing_time"":2344},{""page_index"":2,""viewing_time"":1830},{""page_index"":3,""viewing_time"":3034},{""page_index"":4,""viewing_time"":2470},{""page_index"":5,""viewing_time"":2400},{""page_index"":6,""viewing_time"":3316},{""page_index"":7,""viewing_time"":2580},{""page_index"":8,""viewing_time"":4326},{""page_index"":9,""viewing_time"":2250},{""page_index"":10,""viewing_time"":10898},{""page_index"":11,""viewing_time"":4214},{""page_index"":12,""viewing_time"":4049},{""page_index"":13,""viewing_time"":1157}]","intro","","","","","","","","","","","","","","","","","","","","","",""
"","","","","","image-keyboard-response","4","75087","0.0-3.0-1.0","5f52c941fc18905c7e8f78fd","665500ab8938657b03fbdba8","66577fc991f71cd7317b954e","10267","stimuli/0101111.jpg","1","","prediction_practice","2","{""filepath"":""stimuli/0101111.jpg"",""ball_pos"":0,""ego_ball_visible"":false,""ego_can_infer"":false,""alter_ball_visible"":false,""alter_can_infer"":false,""collective_ball_visible"":false,""collective_can_infer"":false,""search_locations"":[2,0],""alter_occluders"":""101"",""ego_occluders"":""111""}","false","","","","","","","","","","","","","","","","","","",""
"","","","","","image-keyboard-response","5","76678","0.0-3.0-2.0","5f52c941fc18905c7e8f78fd","665500ab8938657b03fbdba8","66577fc991f71cd7317b954e","1590","stimuli/01011112.jpg"," ","","practrice_feedback","2","","","","","","","","","","","","","","","","","","","","",""
"","","","","","image-keyboard-response","6","79502","0.0-3.0-3.0","5f52c941fc18905c7e8f78fd","665500ab8938657b03fbdba8","66577fc991f71cd7317b954e","2824","stimuli/1001001.jpg","1","","prediction_practice","1","{""filepath"":""stimuli/1001001.jpg"",""ball_pos"":1,""ego_ball_visible"":true,""ego_can_infer"":true,""alter_ball_visible"":true,""alter_can_infer"":true,""collective_ball_visible"":true,""collective_can_infer"":true,""search_locations"":[1],""alter_occluders"":""001"",""ego_occluders"":""001""}","true","","","","","","","","","","","","","","","","","","",""
"","","","","","image-keyboard-response","7","80448","0.0-3.0-4.0","5f52c941fc18905c7e8f78fd","665500ab8938657b03fbdba8","66577fc991f71cd7317b954e","945","stimuli/10010011.jpg"," ","","practrice_feedback","1","","","","","","","","","","","","","","","","","","","","",""
"","","","","","image-keyboard-response","8","86685","0.0-3.0-5.0","5f52c941fc18905c7e8f78fd","665500ab8938657b03fbdba8","66577fc991f71cd7317b954e","6236","stimuli/2101011.jpg","2","","prediction_practice","2","{""filepath"":""stimuli/2101011.jpg"",""ball_pos"":2,""ego_ball_visible"":false,""ego_can_infer"":false,""alter_ball_visible"":false,""alter_can_infer"":false,""collective_ball_visible"":false,""collective_can_infer"":false,""search_locations"":[0,2],""alter_occluders"":""101"",""ego_occluders"":""011""}","true","","","","","","","","","","","","","","","","","","",""
"","","","","","image-keyboard-response","9","89533","0.0-3.0-6.0","5f52c941fc18905c7e8f78fd","665500ab8938657b03fbdba8","66577fc991f71cd7317b954e","2847","stimuli/21010112.jpg"," ","","practrice_feedback","0","","","","","","","","","","","","","","","","","","","","",""
"","","","","","image-keyboard-response","10","92373","0.0-3.0-7.0","5f52c941fc18905c7e8f78fd","665500ab8938657b03fbdba8","66577fc991f71cd7317b954e","2840","stimuli/0000001.jpg","0","","prediction_practice","0","{""filepath"":""stimuli/0000001.jpg"",""ball_pos"":0,""ego_ball_visible"":true,""ego_can_infer"":true,""alter_ball_visible"":true,""alter_can_infer"":true,""collective_ball_visible"":true,""collective_can_infer"":true,""search_locations"":[0],""alter_occluders"":""000"",""ego_occluders"":""001""}","true","","","","","","","","","","","","","","","","","","",""
"","","","","","image-keyboard-response","11","93493","0.0-3.0-8.0","5f52c941fc18905c7e8f78fd","665500ab8938657b03fbdba8","66577fc991f71cd7317b954e","1119","stimuli/00000010.jpg"," ","","practrice_feedback","0","","","","","","","","","","","","","","","","","","","","",""
"","","","","","image-keyboard-response","12","100709","0.0-3.0-9.0","5f52c941fc18905c7e8f78fd","665500ab8938657b03fbdba8","66577fc991f71cd7317b954e","7215","stimuli/1111001.jpg","1","","prediction_practice","2","{""filepath"":""stimuli/1111001.jpg"",""ball_pos"":1,""ego_ball_visible"":true,""ego_can_infer"":true,""alter_ball_visible"":false,""alter_can_infer"":false,""collective_ball_visible"":false,""collective_can_infer"":false,""search_locations"":[2,1,0],""alter_occluders"":""111"",""ego_occluders"":""001""}","false","","","","","","","","","","","","","","","","","","",""
"","","","","","image-keyboard-response","13","104565","0.0-3.0-10.0","5f52c941fc18905c7e8f78fd","665500ab8938657b03fbdba8","66577fc991f71cd7317b954e","3855","stimuli/11110012.jpg"," ","","practrice_feedback","2","","","","","","","","","","","","","","","","","","","","",""
"","","","","","image-keyboard-response","14","108318","0.0-3.0-11.0","5f52c941fc18905c7e8f78fd","665500ab8938657b03fbdba8","66577fc991f71cd7317b954e","3752","stimuli/1100110.jpg","0","","prediction_practice","1","{""filepath"":""stimuli/1100110.jpg"",""ball_pos"":1,""ego_ball_visible"":false,""ego_can_infer"":false,""alter_ball_visible"":true,""alter_can_infer"":true,""collective_ball_visible"":false,""collective_can_infer"":false,""search_locations"":[1],""alter_occluders"":""100"",""ego_occluders"":""110""}","false","","","","","","","","","","","","","","","","","","",""
"","","","","","image-keyboard-response","15","112901","0.0-3.0-12.0","5f52c941fc18905c7e8f78fd","665500ab8938657b03fbdba8","66577fc991f71cd7317b954e","4583","stimuli/11001101.jpg"," ","","practrice_feedback","1","","","","","","","","","","","","","","","","","","","","",""
"","","","","","image-keyboard-response","16","117029","0.0-3.0-13.0","5f52c941fc18905c7e8f78fd","665500ab8938657b03fbdba8","66577fc991f71cd7317b954e","4127","stimuli/1001111.jpg","2","","prediction_practice","1","{""filepath"":""stimuli/1001111.jpg"",""ball_pos"":1,""ego_ball_visible"":false,""ego_can_infer"":false,""alter_ball_visible"":true,""alter_can_infer"":true,""collective_ball_visible"":false,""collective_can_infer"":false,""search_locations"":[1],""alter_occluders"":""001"",""ego_occluders"":""111""}","false","","","","","","","","","","","","","","","","","","",""
"","","","","","image-keyboard-response","17","118973","0.0-3.0-14.0","5f52c941fc18905c7e8f78fd","665500ab8938657b03fbdba8","66577fc991f71cd7317b954e","1944","stimuli/10011111.jpg"," ","","practrice_feedback","1","","","","","","","","","","","","","","","","","","","","",""
"","","","","","image-keyboard-response","18","123421","0.0-3.0-15.0","5f52c941fc18905c7e8f78fd","665500ab8938657b03fbdba8","66577fc991f71cd7317b954e","4447","stimuli/0001100.jpg","0","","prediction_practice","0","{""filepath"":""stimuli/0001100.jpg"",""ball_pos"":0,""ego_ball_visible"":false,""ego_can_infer"":true,""alter_ball_visible"":true,""alter_can_infer"":true,""collective_ball_visible"":false,""collective_can_infer"":true,""search_locations"":[0],""alter_occluders"":""001"",""ego_occluders"":""100""}","true","","","","","","","","","","","","","","","","","","",""
"","","","","","image-keyboard-response","19","124192","0.0-3.0-16.0","5f52c941fc18905c7e8f78fd","665500ab8938657b03fbdba8","66577fc991f71cd7317b954e","770","stimuli/00011000.jpg"," ","","practrice_feedback","0","","","","","","","","","","","","","","","","","","","","",""
"","","","","","image-keyboard-response","20","128949","0.0-3.0-17.0","5f52c941fc18905c7e8f78fd","665500ab8938657b03fbdba8","66577fc991f71cd7317b954e","4756","stimuli/1011100.jpg","1","","prediction_practice","1","{""filepath"":""stimuli/1011100.jpg"",""ball_pos"":1,""ego_ball_visible"":true,""ego_can_infer"":true,""alter_ball_visible"":false,""alter_can_infer"":false,""collective_ball_visible"":false,""collective_can_infer"":false,""search_locations"":[2,1],""alter_occluders"":""011"",""ego_occluders"":""100""}","true","","","","","","","","","","","","","","","","","","",""
"","","","","","image-keyboard-response","21","129965","0.0-3.0-18.0","5f52c941fc18905c7e8f78fd","665500ab8938657b03fbdba8","66577fc991f71cd7317b954e","1016","stimuli/10111001.jpg"," ","","practrice_feedback","2","","","","","","","","","","","","","","","","","","","","",""
"","","","","","image-keyboard-response","22","131485","0.0-3.0-19.0","5f52c941fc18905c7e8f78fd","665500ab8938657b03fbdba8","66577fc991f71cd7317b954e","1519","stimuli/0000100.jpg","0","","prediction_practice","0","{""filepath"":""stimuli/0000100.jpg"",""ball_pos"":0,""ego_ball_visible"":false,""ego_can_infer"":true,""alter_ball_visible"":true,""alter_can_infer"":true,""collective_ball_visible"":false,""collective_can_infer"":true,""search_locations"":[0],""alter_occluders"":""000"",""ego_occluders"":""100""}","true","","","","","","","","","","","","","","","","","","",""
"","","","","","image-keyboard-response","23","132125","0.0-3.0-20.0","5f52c941fc18905c7e8f78fd","665500ab8938657b03fbdba8","66577fc991f71cd7317b954e","639","stimuli/00001000.jpg"," ","","practrice_feedback","0","","","","","","","","","","","","","","","","","","","","",""
"","","","","","html-button-response","24","139201","0.0-3.0-21.0","5f52c941fc18905c7e8f78fd","665500ab8938657b03fbdba8","66577fc991f71cd7317b954e","7076","Now that you've had some practice, you'll be tested with a couple of easy trials. If you correctly predict Sam's choice, you'll move on to complete the experiment!","0","","","","","","","","","","","","","","","","","","","","","","","",""
"","","","","","image-keyboard-response","25","141415","0.0-3.0-22.0-0.0","5f52c941fc18905c7e8f78fd","665500ab8938657b03fbdba8","66577fc991f71cd7317b954e","2213","stimuli/0000011.jpg","arrowleft","","comprehension_quiz","","","true","arrowleft","","","","","","","","","","","","","","","","","",""
"","","","","","image-keyboard-response","26","142325","0.0-3.0-22.0-1.0","5f52c941fc18905c7e8f78fd","665500ab8938657b03fbdba8","66577fc991f71cd7317b954e","908","stimuli/00000110.jpg"," ","","comprehension_quiz","","","true"," ","","","","","","","","","","","","","","","","","",""
"","","","","","image-keyboard-response","27","143805","0.0-3.0-22.0-2.0","5f52c941fc18905c7e8f78fd","665500ab8938657b03fbdba8","66577fc991f71cd7317b954e","1479","stimuli/1010010.jpg","arrowdown","","comprehension_quiz","","","true","arrowdown","","","","","","","","","","","","","","","","","",""
"","","","","","image-keyboard-response","28","144597","0.0-3.0-22.0-3.0","5f52c941fc18905c7e8f78fd","665500ab8938657b03fbdba8","66577fc991f71cd7317b954e","792","stimuli/10100101.jpg"," ","","comprehension_quiz","","","true"," ","","","","","","","","","","","","","","","","","",""
"","","","","","html-button-response","29","146731","0.0-4.0","5f52c941fc18905c7e8f78fd","665500ab8938657b03fbdba8","66577fc991f71cd7317b954e","2133","The experiment will now begin.","0","","","","","","","","","","","","","","","","","","","","","","","",""
"","","","","","image-keyboard-response","30","151813","0.0-5.0","5f52c941fc18905c7e8f78fd","665500ab8938657b03fbdba8","66577fc991f71cd7317b954e","5081","stimuli/2000111.jpg","1","","prediction_trial","2","","false","","2","false","false","true","true","false","false","[2]","000","111","0","","","","","","",""
"","","","","","image-keyboard-response","31","153998","0.0-6.0","5f52c941fc18905c7e8f78fd","665500ab8938657b03fbdba8","66577fc991f71cd7317b954e","2184","stimuli/20001112.jpg"," ","","feedback_trial","2","","","","","","","","","","","","","","","","","","","","",""
"","","","","","image-keyboard-response","32","157381","0.0-7.0","5f52c941fc18905c7e8f78fd","665500ab8938657b03fbdba8","66577fc991f71cd7317b954e","3382","stimuli/2000100.jpg","2","","prediction_trial","2","","true","","2","true","true","true","true","true","true","[2]","000","100","1","","","","","","",""
"","","","","","image-keyboard-response","33","158085","0.0-8.0","5f52c941fc18905c7e8f78fd","665500ab8938657b03fbdba8","66577fc991f71cd7317b954e","704","stimuli/20001002.jpg"," ","","feedback_trial","2","","","","","","","","","","","","","","","","","","","","",""
"","","","","","image-keyboard-response","34","158733","0.0-9.0","5f52c941fc18905c7e8f78fd","665500ab8938657b03fbdba8","66577fc991f71cd7317b954e","647","stimuli/0000000.jpg","0","","prediction_trial","0","","true","","0","true","true","true","true","true","true","[0]","000","000","1","","","","","","",""
"","","","","","image-keyboard-response","35","159189","0.0-10.0","5f52c941fc18905c7e8f78fd","665500ab8938657b03fbdba8","66577fc991f71cd7317b954e","455","stimuli/00000000.jpg"," ","","feedback_trial","0","","","","","","","","","","","","","","","","","","","","",""
"","","","","","image-keyboard-response","36","161798","0.0-11.0","5f52c941fc18905c7e8f78fd","665500ab8938657b03fbdba8","66577fc991f71cd7317b954e","2608","stimuli/2001010.jpg","2","","prediction_trial","2","","true","","2","true","true","false","true","false","true","[2]","001","010","1","","","","","","",""
"","","","","","image-keyboard-response","37","162358","0.0-12.0","5f52c941fc18905c7e8f78fd","665500ab8938657b03fbdba8","66577fc991f71cd7317b954e","559","stimuli/20010102.jpg"," ","","feedback_trial","2","","","","","","","","","","","","","","","","","","","","",""
"","","","","","image-keyboard-response","38","166374","0.0-13.0","5f52c941fc18905c7e8f78fd","665500ab8938657b03fbdba8","66577fc991f71cd7317b954e","4015","stimuli/0001110.jpg","1","","prediction_trial","0","","false","","0","false","false","true","true","false","false","[0]","001","110","0","","","","","","",""
"","","","","","image-keyboard-response","39","167334","0.0-14.0","5f52c941fc18905c7e8f78fd","665500ab8938657b03fbdba8","66577fc991f71cd7317b954e","960","stimuli/00011100.jpg"," ","","feedback_trial","0","","","","","","","","","","","","","","","","","","","","",""
"","","","","","image-keyboard-response","40","171982","0.0-15.0","5f52c941fc18905c7e8f78fd","665500ab8938657b03fbdba8","66577fc991f71cd7317b954e","4647","stimuli/2011000.jpg","2","","prediction_trial","2","","true","","2","true","true","false","false","false","false","[1,2]","011","000","1","","","","","","",""
"","","","","","image-keyboard-response","41","172726","0.0-16.0","5f52c941fc18905c7e8f78fd","665500ab8938657b03fbdba8","66577fc991f71cd7317b954e","744","stimuli/20110002.jpg"," ","","feedback_trial","1","","","","","","","","","","","","","","","","","","","","",""
"","","","","","image-keyboard-response","42","174542","0.0-17.0","5f52c941fc18905c7e8f78fd","665500ab8938657b03fbdba8","66577fc991f71cd7317b954e","1815","stimuli/2111000.jpg","2","","prediction_trial","1","","false","","2","true","true","false","false","false","false","[2,0,1]","111","000","0","","","","","","",""
"","","","","","image-keyboard-response","43","176064","0.0-18.0","5f52c941fc18905c7e8f78fd","665500ab8938657b03fbdba8","66577fc991f71cd7317b954e","1522","stimuli/21110001.jpg"," ","","feedback_trial","2","","","","","","","","","","","","","","","","","","","","",""
"","","","","","image-keyboard-response","44","179566","0.0-19.0","5f52c941fc18905c7e8f78fd","665500ab8938657b03fbdba8","66577fc991f71cd7317b954e","3500","stimuli/2110011.jpg","1","","prediction_trial","2","","false","","2","false","false","true","true","false","false","[2]","110","011","0","","","","","","",""
"","","","","","image-keyboard-response","45","183177","0.0-20.0","5f52c941fc18905c7e8f78fd","665500ab8938657b03fbdba8","66577fc991f71cd7317b954e","3611","stimuli/21100112.jpg"," ","","feedback_trial","2","","","","","","","","","","","","","","","","","","","","",""
"","","","","","image-keyboard-response","46","184254","0.0-21.0","5f52c941fc18905c7e8f78fd","665500ab8938657b03fbdba8","66577fc991f71cd7317b954e","1074","stimuli/1000101.jpg","1","","prediction_trial","1","","true","","1","true","true","true","true","true","true","[1]","000","101","1","","","","","","",""
"","","","","","image-keyboard-response","47","184901","0.0-22.0","5f52c941fc18905c7e8f78fd","665500ab8938657b03fbdba8","66577fc991f71cd7317b954e","647","stimuli/10001011.jpg"," ","","feedback_trial","1","","","","","","","","","","","","","","","","","","","","",""
"","","","","","image-keyboard-response","48","189310","0.0-23.0","5f52c941fc18905c7e8f78fd","665500ab8938657b03fbdba8","66577fc991f71cd7317b954e","4408","stimuli/1001010.jpg","1","","prediction_trial","1","","true","","1","false","true","true","true","false","true","[1]","001","010","1","","","","","","",""
"","","","","","image-keyboard-response","49","189950","0.0-24.0","5f52c941fc18905c7e8f78fd","665500ab8938657b03fbdba8","66577fc991f71cd7317b954e","640","stimuli/10010101.jpg"," ","","feedback_trial","1","","","","","","","","","","","","","","","","","","","","",""
"","","","","","image-keyboard-response","50","194632","0.0-25.0","5f52c941fc18905c7e8f78fd","665500ab8938657b03fbdba8","66577fc991f71cd7317b954e","4682","stimuli/1110110.jpg","1","","prediction_trial","1","","true","","1","false","false","false","false","false","false","[0,1]","110","110","1","","","","","","",""
"","","","","","image-keyboard-response","51","195254","0.0-26.0","5f52c941fc18905c7e8f78fd","665500ab8938657b03fbdba8","66577fc991f71cd7317b954e","619","stimuli/11101101.jpg"," ","","feedback_trial","0","","","","","","","","","","","","","","","","","","","","",""
"","","","","","image-keyboard-response","52","197777","0.0-27.0","5f52c941fc18905c7e8f78fd","665500ab8938657b03fbdba8","66577fc991f71cd7317b954e","2523","stimuli/0101011.jpg","0","","prediction_trial","2","","false","","0","true","true","false","false","false","false","[2,0]","101","011","0","","","","","","",""
"","","","","","image-keyboard-response","53","199102","0.0-28.0","5f52c941fc18905c7e8f78fd","665500ab8938657b03fbdba8","66577fc991f71cd7317b954e","1323","stimuli/01010112.jpg"," ","","feedback_trial","2","","","","","","","","","","","","","","","","","","","","",""
"","","","","","image-keyboard-response","54","204894","0.0-29.0","5f52c941fc18905c7e8f78fd","665500ab8938657b03fbdba8","66577fc991f71cd7317b954e","5792","stimuli/0101001.jpg","0","","prediction_trial","2","","false","","0","true","true","false","false","false","false","[2,0]","101","001","0","","","","","","",""
"","","","","","image-keyboard-response","55","205646","0.0-30.0","5f52c941fc18905c7e8f78fd","665500ab8938657b03fbdba8","66577fc991f71cd7317b954e","751","stimuli/01010012.jpg"," ","","feedback_trial","2","","","","","","","","","","","","","","","","","","","","",""
"","","","","","image-keyboard-response","56","208246","0.0-31.0","5f52c941fc18905c7e8f78fd","665500ab8938657b03fbdba8","66577fc991f71cd7317b954e","2600","stimuli/2101110.jpg","2","","prediction_trial","0","","false","","2","true","true","false","false","false","false","[2,0]","101","110","0","","","","","","",""
"","","","","","image-keyboard-response","57","208881","0.0-32.0","5f52c941fc18905c7e8f78fd","665500ab8938657b03fbdba8","66577fc991f71cd7317b954e","634","stimuli/21011100.jpg"," ","","feedback_trial","2","","","","","","","","","","","","","","","","","","","","",""
"","","","","","image-keyboard-response","58","210230","0.0-33.0","5f52c941fc18905c7e8f78fd","665500ab8938657b03fbdba8","66577fc991f71cd7317b954e","1348","stimuli/0000001.jpg","0","","prediction_trial","0","","true","","0","true","true","true","true","true","true","[0]","000","001","1","","","","","","",""
"","","","","","image-keyboard-response","59","210622","0.0-34.0","5f52c941fc18905c7e8f78fd","665500ab8938657b03fbdba8","66577fc991f71cd7317b954e","391","stimuli/00000010.jpg"," ","","feedback_trial","0","","","","","","","","","","","","","","","","","","","","",""
"","","","","","image-keyboard-response","60","211734","0.0-35.0","5f52c941fc18905c7e8f78fd","665500ab8938657b03fbdba8","66577fc991f71cd7317b954e","1111","stimuli/1111000.jpg","1","","prediction_trial","2","","false","","1","true","true","false","false","false","false","[2,0,1]","111","000","0","","","","","","",""
"","","","","","image-keyboard-response","61","212567","0.0-36.0","5f52c941fc18905c7e8f78fd","665500ab8938657b03fbdba8","66577fc991f71cd7317b954e","833","stimuli/11110002.jpg"," ","","feedback_trial","2","","","","","","","","","","","","","","","","","","","","",""
"","","","","","image-keyboard-response","62","214062","0.0-37.0","5f52c941fc18905c7e8f78fd","665500ab8938657b03fbdba8","66577fc991f71cd7317b954e","1493","stimuli/2010001.jpg","2","","prediction_trial","2","","true","","2","false","true","true","true","false","true","[2]","010","001","1","","","","","","",""
"","","","","","image-keyboard-response","63","214710","0.0-38.0","5f52c941fc18905c7e8f78fd","665500ab8938657b03fbdba8","66577fc991f71cd7317b954e","647","stimuli/20100012.jpg"," ","","feedback_trial","2","","","","","","","","","","","","","","","","","","","","",""
"","","","","","image-keyboard-response","64","216446","0.0-39.0","5f52c941fc18905c7e8f78fd","665500ab8938657b03fbdba8","66577fc991f71cd7317b954e","1735","stimuli/0001100.jpg","0","","prediction_trial","0","","true","","0","false","true","true","true","false","true","[0]","001","100","1","","","","","","",""
"","","","","","image-keyboard-response","65","216830","0.0-40.0","5f52c941fc18905c7e8f78fd","665500ab8938657b03fbdba8","66577fc991f71cd7317b954e","383","stimuli/00011000.jpg"," ","","feedback_trial","0","","","","","","","","","","","","","","","","","","","","",""
"","","","","","image-keyboard-response","66","221726","0.0-41.0","5f52c941fc18905c7e8f78fd","665500ab8938657b03fbdba8","66577fc991f71cd7317b954e","4896","stimuli/2001101.jpg","0","","prediction_trial","2","","false","","2","false","false","false","true","false","false","[2]","001","101","0","","","","","","",""
"","","","","","image-keyboard-response","67","222805","0.0-42.0","5f52c941fc18905c7e8f78fd","665500ab8938657b03fbdba8","66577fc991f71cd7317b954e","1079","stimuli/20011012.jpg"," ","","feedback_trial","2","","","","","","","","","","","","","","","","","","","","",""
"","","","","","image-keyboard-response","68","223925","0.0-43.0","5f52c941fc18905c7e8f78fd","665500ab8938657b03fbdba8","66577fc991f71cd7317b954e","1119","stimuli/2101001.jpg","2","","prediction_trial","0","","false","","2","false","true","false","false","false","false","[2,0]","101","001","0","","","","","","",""
"","","","","","image-keyboard-response","69","225097","0.0-44.0","5f52c941fc18905c7e8f78fd","665500ab8938657b03fbdba8","66577fc991f71cd7317b954e","1171","stimuli/21010010.jpg"," ","","feedback_trial","2","","","","","","","","","","","","","","","","","","","","",""
"","","","","","image-keyboard-response","70","226101","0.0-45.0","5f52c941fc18905c7e8f78fd","665500ab8938657b03fbdba8","66577fc991f71cd7317b954e","1002","stimuli/0011011.jpg","0","","prediction_trial","0","","true","","0","true","true","true","true","true","true","[0]","011","011","1","","","","","","",""
"","","","","","image-keyboard-response","71","226429","0.0-46.0","5f52c941fc18905c7e8f78fd","665500ab8938657b03fbdba8","66577fc991f71cd7317b954e","328","stimuli/00110110.jpg"," ","","feedback_trial","0","","","","","","","","","","","","","","","","","","","","",""
"","","","","","image-keyboard-response","72","228797","0.0-47.0","5f52c941fc18905c7e8f78fd","665500ab8938657b03fbdba8","66577fc991f71cd7317b954e","2368","stimuli/2001011.jpg","2","","prediction_trial","2","","true","","2","false","false","false","true","false","false","[2]","001","011","1","","","","","","",""
"","","","","","image-keyboard-response","73","229261","0.0-48.0","5f52c941fc18905c7e8f78fd","665500ab8938657b03fbdba8","66577fc991f71cd7317b954e","463","stimuli/20010112.jpg"," ","","feedback_trial","2","","","","","","","","","","","","","","","","","","","","",""
"","","","","","image-keyboard-response","74","230621","0.0-49.0","5f52c941fc18905c7e8f78fd","665500ab8938657b03fbdba8","66577fc991f71cd7317b954e","1360","stimuli/0111000.jpg","0","","prediction_trial","0","","true","","0","true","true","false","false","false","false","[0,2,1]","111","000","1","","","","","","",""
"","","","","","image-keyboard-response","75","231237","0.0-50.0","5f52c941fc18905c7e8f78fd","665500ab8938657b03fbdba8","66577fc991f71cd7317b954e","615","stimuli/01110000.jpg"," ","","feedback_trial","0","","","","","","","","","","","","","","","","","","","","",""
"","","","","","image-keyboard-response","76","232621","0.0-51.0","5f52c941fc18905c7e8f78fd","665500ab8938657b03fbdba8","66577fc991f71cd7317b954e","1383","stimuli/0001010.jpg","0","","prediction_trial","0","","true","","0","true","true","true","true","true","true","[0]","001","010","1","","","","","","",""
"","","","","","image-keyboard-response","77","232981","0.0-52.0","5f52c941fc18905c7e8f78fd","665500ab8938657b03fbdba8","66577fc991f71cd7317b954e","360","stimuli/00010100.jpg"," ","","feedback_trial","0","","","","","","","","","","","","","","","","","","","","",""
"","","","","","image-keyboard-response","78","234317","0.0-53.0","5f52c941fc18905c7e8f78fd","665500ab8938657b03fbdba8","66577fc991f71cd7317b954e","1335","stimuli/0100001.jpg","0","","prediction_trial","0","","true","","0","true","true","false","true","false","true","[0]","100","001","1","","","","","","",""
"","","","","","image-keyboard-response","79","234813","0.0-54.0","5f52c941fc18905c7e8f78fd","665500ab8938657b03fbdba8","66577fc991f71cd7317b954e","496","stimuli/01000010.jpg"," ","","feedback_trial","0","","","","","","","","","","","","","","","","","","","","",""
"","","","","","image-keyboard-response","80","237174","0.0-55.0","5f52c941fc18905c7e8f78fd","665500ab8938657b03fbdba8","66577fc991f71cd7317b954e","2360","stimuli/2011011.jpg","1","","prediction_trial","2","","false","","2","false","false","false","false","false","false","[2,1]","011","011","0","","","","","","",""
"","","","","","image-keyboard-response","81","237893","0.0-56.0","5f52c941fc18905c7e8f78fd","665500ab8938657b03fbdba8","66577fc991f71cd7317b954e","719","stimuli/20110112.jpg"," ","","feedback_trial","2","","","","","","","","","","","","","","","","","","","","",""
"","","","","","image-keyboard-response","82","240214","0.0-57.0","5f52c941fc18905c7e8f78fd","665500ab8938657b03fbdba8","66577fc991f71cd7317b954e","2320","stimuli/2001100.jpg","2","","prediction_trial","2","","true","","2","true","true","false","true","false","true","[2]","001","100","1","","","","","","",""
"","","","","","image-keyboard-response","83","240797","0.0-58.0","5f52c941fc18905c7e8f78fd","665500ab8938657b03fbdba8","66577fc991f71cd7317b954e","583","stimuli/20011002.jpg"," ","","feedback_trial","2","","","","","","","","","","","","","","","","","","","","",""
"","","","","","image-keyboard-response","84","241885","0.0-59.0","5f52c941fc18905c7e8f78fd","665500ab8938657b03fbdba8","66577fc991f71cd7317b954e","1088","stimuli/1000010.jpg","1","","prediction_trial","1","","true","","1","false","true","true","true","false","true","[1]","000","010","1","","","","","","",""
"","","","","","image-keyboard-response","85","242261","0.0-60.0","5f52c941fc18905c7e8f78fd","665500ab8938657b03fbdba8","66577fc991f71cd7317b954e","375","stimuli/10000101.jpg"," ","","feedback_trial","1","","","","","","","","","","","","","","","","","","","","",""
"","","","","","image-keyboard-response","86","245918","0.0-61.0","5f52c941fc18905c7e8f78fd","665500ab8938657b03fbdba8","66577fc991f71cd7317b954e","3656","stimuli/0000111.jpg","2","","prediction_trial","0","","false","","0","false","false","true","true","false","false","[0]","000","111","0","","","","","","",""
"","","","","","image-keyboard-response","87","246718","0.0-62.0","5f52c941fc18905c7e8f78fd","665500ab8938657b03fbdba8","66577fc991f71cd7317b954e","800","stimuli/00001110.jpg"," ","","feedback_trial","0","","","","","","","","","","","","","","","","","","","","",""
"","","","","","image-keyboard-response","88","247511","0.0-63.0","5f52c941fc18905c7e8f78fd","665500ab8938657b03fbdba8","66577fc991f71cd7317b954e","791","stimuli/2100010.jpg","2","","prediction_trial","2","","true","","2","true","true","true","true","true","true","[2]","100","010","1","","","","","","",""
"","","","","","image-keyboard-response","89","248150","0.0-64.0","5f52c941fc18905c7e8f78fd","665500ab8938657b03fbdba8","66577fc991f71cd7317b954e","638","stimuli/21000102.jpg"," ","","feedback_trial","2","","","","","","","","","","","","","","","","","","","","",""
"","","","","","image-keyboard-response","90","256821","0.0-65.0","5f52c941fc18905c7e8f78fd","665500ab8938657b03fbdba8","66577fc991f71cd7317b954e","8671","stimuli/0011110.jpg","0","","prediction_trial","0","","true","","0","false","false","true","true","false","false","[0]","011","110","1","","","","","","",""
"","","","","","image-keyboard-response","91","257565","0.0-66.0","5f52c941fc18905c7e8f78fd","665500ab8938657b03fbdba8","66577fc991f71cd7317b954e","743","stimuli/00111100.jpg"," ","","feedback_trial","0","","","","","","","","","","","","","","","","","","","","",""
"","","","","","image-keyboard-response","92","261318","0.0-67.0","5f52c941fc18905c7e8f78fd","665500ab8938657b03fbdba8","66577fc991f71cd7317b954e","3752","stimuli/0000110.jpg","1","","prediction_trial","0","","false","","0","false","false","true","true","false","false","[0]","000","110","0","","","","","","",""
"","","","","","image-keyboard-response","93","262015","0.0-68.0","5f52c941fc18905c7e8f78fd","665500ab8938657b03fbdba8","66577fc991f71cd7317b954e","697","stimuli/00001100.jpg"," ","","feedback_trial","0","","","","","","","","","","","","","","","","","","","","",""
"","","","","","image-keyboard-response","94","262864","0.0-69.0","5f52c941fc18905c7e8f78fd","665500ab8938657b03fbdba8","66577fc991f71cd7317b954e","846","stimuli/1011000.jpg","1","","prediction_trial","1","","true","","1","true","true","false","false","false","false","[2,1]","011","000","1","","","","","","",""
"","","","","","image-keyboard-response","95","263469","0.0-70.0","5f52c941fc18905c7e8f78fd","665500ab8938657b03fbdba8","66577fc991f71cd7317b954e","603","stimuli/10110001.jpg"," ","","feedback_trial","2","","","","","","","","","","","","","","","","","","","","",""
"","","","","","image-keyboard-response","96","264485","0.0-71.0","5f52c941fc18905c7e8f78fd","665500ab8938657b03fbdba8","66577fc991f71cd7317b954e","1016","stimuli/2001110.jpg","2","","prediction_trial","2","","true","","2","true","true","false","true","false","true","[2]","001","110","1","","","","","","",""
"","","","","","image-keyboard-response","97","264837","0.0-72.0","5f52c941fc18905c7e8f78fd","665500ab8938657b03fbdba8","66577fc991f71cd7317b954e","352","stimuli/20011102.jpg"," ","","feedback_trial","2","","","","","","","","","","","","","","","","","","","","",""
"","","","","","image-keyboard-response","98","265429","0.0-73.0","5f52c941fc18905c7e8f78fd","665500ab8938657b03fbdba8","66577fc991f71cd7317b954e","592","stimuli/1111001.jpg","1","","prediction_trial","0","","false","","1","true","true","false","false","false","false","[2,1,0]","111","001","0","","","","","","",""
"","","","","","image-keyboard-response","99","266373","0.0-74.0","5f52c941fc18905c7e8f78fd","665500ab8938657b03fbdba8","66577fc991f71cd7317b954e","943","stimuli/11110010.jpg"," ","","feedback_trial","2","","","","","","","","","","","","","","","","","","","","",""
"","","","","","image-keyboard-response","100","269085","0.0-75.0","5f52c941fc18905c7e8f78fd","665500ab8938657b03fbdba8","66577fc991f71cd7317b954e","2711","stimuli/1111111.jpg","1","","prediction_trial","1","","true","","1","false","false","false","false","false","false","[1,0,2]","111","111","1","","","","","","",""
"","","","","","image-keyboard-response","101","269653","0.0-76.0","5f52c941fc18905c7e8f78fd","665500ab8938657b03fbdba8","66577fc991f71cd7317b954e","568","stimuli/11111111.jpg"," ","","feedback_trial","1","","","","","","","","","","","","","","","","","","","","",""
"","","","","","image-keyboard-response","102","270477","0.0-77.0","5f52c941fc18905c7e8f78fd","665500ab8938657b03fbdba8","66577fc991f71cd7317b954e","823","stimuli/2100100.jpg","2","","prediction_trial","2","","true","","2","true","true","true","true","true","true","[2]","100","100","1","","","","","","",""
"","","","","","image-keyboard-response","103","270797","0.0-78.0","5f52c941fc18905c7e8f78fd","665500ab8938657b03fbdba8","66577fc991f71cd7317b954e","320","stimuli/21001002.jpg"," ","","feedback_trial","2","","","","","","","","","","","","","","","","","","","","",""
"","","","","","image-keyboard-response","104","271493","0.0-79.0","5f52c941fc18905c7e8f78fd","665500ab8938657b03fbdba8","66577fc991f71cd7317b954e","695","stimuli/0010001.jpg","0","","prediction_trial","0","","true","","0","true","true","true","true","true","true","[0]","010","001","1","","","","","","",""
"","","","","","image-keyboard-response","105","271821","0.0-80.0","5f52c941fc18905c7e8f78fd","665500ab8938657b03fbdba8","66577fc991f71cd7317b954e","328","stimuli/00100010.jpg"," ","","feedback_trial","0","","","","","","","","","","","","","","","","","","","","",""
"","","","","","image-keyboard-response","106","274317","0.0-81.0","5f52c941fc18905c7e8f78fd","665500ab8938657b03fbdba8","66577fc991f71cd7317b954e","2496","stimuli/2101011.jpg","1","","prediction_trial","2","","false","","2","false","false","false","false","false","false","[0,2]","101","011","0","","","","","","",""
"","","","","","image-keyboard-response","107","275013","0.0-82.0","5f52c941fc18905c7e8f78fd","665500ab8938657b03fbdba8","66577fc991f71cd7317b954e","696","stimuli/21010112.jpg"," ","","feedback_trial","0","","","","","","","","","","","","","","","","","","","","",""
"","","","","","image-keyboard-response","108","277365","0.0-83.0","5f52c941fc18905c7e8f78fd","665500ab8938657b03fbdba8","66577fc991f71cd7317b954e","2351","stimuli/1011110.jpg","0","","prediction_trial","1","","false","","1","false","false","false","false","false","false","[2,1]","011","110","0","","","","","","",""
"","","","","","image-keyboard-response","109","277989","0.0-84.0","5f52c941fc18905c7e8f78fd","665500ab8938657b03fbdba8","66577fc991f71cd7317b954e","624","stimuli/10111101.jpg"," ","","feedback_trial","2","","","","","","","","","","","","","","","","","","","","",""
"","","","","","image-keyboard-response","110","279085","0.0-85.0","5f52c941fc18905c7e8f78fd","665500ab8938657b03fbdba8","66577fc991f71cd7317b954e","1095","stimuli/0110110.jpg","1","","prediction_trial","1","","true","","0","false","false","false","false","false","false","[1,0]","110","110","1","","","","","","",""
"","","","","","image-keyboard-response","111","279568","0.0-86.0","5f52c941fc18905c7e8f78fd","665500ab8938657b03fbdba8","66577fc991f71cd7317b954e","482","stimuli/01101101.jpg"," ","","feedback_trial","1","","","","","","","","","","","","","","","","","","","","",""
"","","","","","image-keyboard-response","112","280421","0.0-87.0","5f52c941fc18905c7e8f78fd","665500ab8938657b03fbdba8","66577fc991f71cd7317b954e","851","stimuli/0011000.jpg","0","","prediction_trial","0","","true","","0","true","true","true","true","true","true","[0]","011","000","1","","","","","","",""
"","","","","","image-keyboard-response","113","280760","0.0-88.0","5f52c941fc18905c7e8f78fd","665500ab8938657b03fbdba8","66577fc991f71cd7317b954e","339","stimuli/00110000.jpg"," ","","feedback_trial","0","","","","","","","","","","","","","","","","","","","","",""
"","","","","","image-keyboard-response","114","286133","0.0-89.0","5f52c941fc18905c7e8f78fd","665500ab8938657b03fbdba8","66577fc991f71cd7317b954e","5372","stimuli/2010011.jpg","2","","prediction_trial","2","","true","","2","false","false","true","true","false","false","[2]","010","011","1","","","","","","",""
"","","","","","image-keyboard-response","115","286693","0.0-90.0","5f52c941fc18905c7e8f78fd","665500ab8938657b03fbdba8","66577fc991f71cd7317b954e","559","stimuli/20100112.jpg"," ","","feedback_trial","2","","","","","","","","","","","","","","","","","","","","",""
"","","","","","image-keyboard-response","116","287941","0.0-91.0","5f52c941fc18905c7e8f78fd","665500ab8938657b03fbdba8","66577fc991f71cd7317b954e","1247","stimuli/1010000.jpg","1","","prediction_trial","1","","true","","1","true","true","false","true","false","true","[1]","010","000","1","","","","","","",""
"","","","","","image-keyboard-response","117","288157","0.0-92.0","5f52c941fc18905c7e8f78fd","665500ab8938657b03fbdba8","66577fc991f71cd7317b954e","216","stimuli/10100001.jpg"," ","","feedback_trial","1","","","","","","","","","","","","","","","","","","","","",""
"","","","","","image-keyboard-response","118","290941","0.0-93.0","5f52c941fc18905c7e8f78fd","665500ab8938657b03fbdba8","66577fc991f71cd7317b954e","2784","stimuli/1110100.jpg","1","","prediction_trial","0","","false","","1","true","true","false","false","false","false","[1,0]","110","100","0","","","","","","",""
"","","","","","image-keyboard-response","119","291166","0.0-94.0","5f52c941fc18905c7e8f78fd","665500ab8938657b03fbdba8","66577fc991f71cd7317b954e","225","stimuli/11101000.jpg"," ","","feedback_trial","1","","","","","","","","","","","","","","","","","","","","",""
"","","","","","image-keyboard-response","120","291984","0.0-95.0","5f52c941fc18905c7e8f78fd","665500ab8938657b03fbdba8","66577fc991f71cd7317b954e","815","stimuli/1101000.jpg","1","","prediction_trial","1","","true","","1","true","true","true","true","true","true","[1]","101","000","1","","","","","","",""
"","","","","","image-keyboard-response","121","292141","0.0-96.0","5f52c941fc18905c7e8f78fd","665500ab8938657b03fbdba8","66577fc991f71cd7317b954e","155","stimuli/11010001.jpg"," ","","feedback_trial","1","","","","","","","","","","","","","","","","","","","","",""
"","","","","","image-keyboard-response","122","293118","0.0-97.0","5f52c941fc18905c7e8f78fd","665500ab8938657b03fbdba8","66577fc991f71cd7317b954e","977","stimuli/0111100.jpg","0","","prediction_trial","2","","false","","0","false","true","false","false","false","false","[1,0,2]","111","100","0","","","","","","",""
"","","","","","image-keyboard-response","123","293336","0.0-98.0","5f52c941fc18905c7e8f78fd","665500ab8938657b03fbdba8","66577fc991f71cd7317b954e","216","stimuli/01111002.jpg"," ","","feedback_trial","1","","","","","","","","","","","","","","","","","","","","",""
"","","","","","image-keyboard-response","124","295533","0.0-99.0","5f52c941fc18905c7e8f78fd","665500ab8938657b03fbdba8","66577fc991f71cd7317b954e","2195","stimuli/0110010.jpg","0","","prediction_trial","0","","true","","0","true","true","false","false","false","false","[0,1]","110","010","1","","","","","","",""
"","","","","","image-keyboard-response","125","295869","0.0-100.0","5f52c941fc18905c7e8f78fd","665500ab8938657b03fbdba8","66577fc991f71cd7317b954e","335","stimuli/01100100.jpg"," ","","feedback_trial","0","","","","","","","","","","","","","","","","","","","","",""
"","","","","","image-keyboard-response","126","297061","0.0-101.0","5f52c941fc18905c7e8f78fd","665500ab8938657b03fbdba8","66577fc991f71cd7317b954e","1191","stimuli/0001001.jpg","0","","prediction_trial","0","","true","","0","true","true","true","true","true","true","[0]","001","001","1","","","","","","",""
"","","","","","image-keyboard-response","127","297269","0.0-102.0","5f52c941fc18905c7e8f78fd","665500ab8938657b03fbdba8","66577fc991f71cd7317b954e","207","stimuli/00010010.jpg"," ","","feedback_trial","0","","","","","","","","","","","","","","","","","","","","",""
"","","","","","image-keyboard-response","128","299413","0.0-103.0","5f52c941fc18905c7e8f78fd","665500ab8938657b03fbdba8","66577fc991f71cd7317b954e","2143","stimuli/1001110.jpg","1","","prediction_trial","1","","true","","1","false","false","true","true","false","false","[1]","001","110","1","","","","","","",""
"","","","","","image-keyboard-response","129","299671","0.0-104.0","5f52c941fc18905c7e8f78fd","665500ab8938657b03fbdba8","66577fc991f71cd7317b954e","258","stimuli/10011101.jpg"," ","","feedback_trial","1","","","","","","","","","","","","","","","","","","","","",""
"","","","","","image-keyboard-response","130","300904","0.0-105.0","5f52c941fc18905c7e8f78fd","665500ab8938657b03fbdba8","66577fc991f71cd7317b954e","1231","stimuli/2110010.jpg","2","","prediction_trial","2","","true","","2","true","true","true","true","true","true","[2]","110","010","1","","","","","","",""
"","","","","","image-keyboard-response","131","301225","0.0-106.0","5f52c941fc18905c7e8f78fd","665500ab8938657b03fbdba8","66577fc991f71cd7317b954e","319","stimuli/21100102.jpg"," ","","feedback_trial","2","","","","","","","","","","","","","","","","","","","","",""
"","","","","","image-keyboard-response","132","303215","0.0-107.0","5f52c941fc18905c7e8f78fd","665500ab8938657b03fbdba8","66577fc991f71cd7317b954e","1989","stimuli/0100011.jpg","0","","prediction_trial","0","","true","","0","true","true","false","true","false","true","[0]","100","011","1","","","","","","",""
"","","","","","image-keyboard-response","133","303485","0.0-108.0","5f52c941fc18905c7e8f78fd","665500ab8938657b03fbdba8","66577fc991f71cd7317b954e","268","stimuli/01000110.jpg"," ","","feedback_trial","0","","","","","","","","","","","","","","","","","","","","",""
"","","","","","image-keyboard-response","134","306501","0.0-109.0","5f52c941fc18905c7e8f78fd","665500ab8938657b03fbdba8","66577fc991f71cd7317b954e","3015","stimuli/2110101.jpg","0","","prediction_trial","2","","false","","2","false","false","true","true","false","false","[2]","110","101","0","","","","","","",""
"","","","","","image-keyboard-response","135","307184","0.0-110.0","5f52c941fc18905c7e8f78fd","665500ab8938657b03fbdba8","66577fc991f71cd7317b954e","682","stimuli/21101012.jpg"," ","","feedback_trial","2","","","","","","","","","","","","","","","","","","","","",""
"","","","","","image-keyboard-response","136","312815","0.0-111.0","5f52c941fc18905c7e8f78fd","665500ab8938657b03fbdba8","66577fc991f71cd7317b954e","5629","stimuli/0001101.jpg","0","","prediction_trial","0","","true","","0","false","false","true","true","false","false","[0]","001","101","1","","","","","","",""
"","","","","","image-keyboard-response","137","313407","0.0-112.0","5f52c941fc18905c7e8f78fd","665500ab8938657b03fbdba8","66577fc991f71cd7317b954e","591","stimuli/00011010.jpg"," ","","feedback_trial","0","","","","","","","","","","","","","","","","","","","","",""
"","","","","","image-keyboard-response","138","314245","0.0-113.0","5f52c941fc18905c7e8f78fd","665500ab8938657b03fbdba8","66577fc991f71cd7317b954e","836","stimuli/1111101.jpg","1","","prediction_trial","2","","false","","1","true","true","false","false","false","false","[0,1,2]","111","101","0","","","","","","",""
"","","","","","image-keyboard-response","139","316077","0.0-114.0","5f52c941fc18905c7e8f78fd","665500ab8938657b03fbdba8","66577fc991f71cd7317b954e","1831","stimuli/11111012.jpg"," ","","feedback_trial","0","","","","","","","","","","","","","","","","","","","","",""
"","","","","","image-keyboard-response","140","319512","0.0-115.0","5f52c941fc18905c7e8f78fd","665500ab8938657b03fbdba8","66577fc991f71cd7317b954e","3434","stimuli/2100110.jpg","2","","prediction_trial","2","","true","","2","true","true","true","true","true","true","[2]","100","110","1","","","","","","",""
"","","","","","image-keyboard-response","141","319861","0.0-116.0","5f52c941fc18905c7e8f78fd","665500ab8938657b03fbdba8","66577fc991f71cd7317b954e","347","stimuli/21001102.jpg"," ","","feedback_trial","2","","","","","","","","","","","","","","","","","","","","",""
"","","","","","image-keyboard-response","142","322717","0.0-117.0","5f52c941fc18905c7e8f78fd","665500ab8938657b03fbdba8","66577fc991f71cd7317b954e","2855","stimuli/1010111.jpg","1","","prediction_trial","1","","true","","1","false","false","false","true","false","false","[1]","010","111","1","","","","","","",""
"","","","","","image-keyboard-response","143","323293","0.0-118.0","5f52c941fc18905c7e8f78fd","665500ab8938657b03fbdba8","66577fc991f71cd7317b954e","576","stimuli/10101111.jpg"," ","","feedback_trial","1","","","","","","","","","","","","","","","","","","","","",""
"","","","","","image-keyboard-response","144","326397","0.0-119.0","5f52c941fc18905c7e8f78fd","665500ab8938657b03fbdba8","66577fc991f71cd7317b954e","3103","stimuli/0100110.jpg","1","","prediction_trial","0","","false","","0","false","false","false","true","false","false","[0]","100","110","0","","","","","","",""
"","","","","","image-keyboard-response","145","327029","0.0-120.0","5f52c941fc18905c7e8f78fd","665500ab8938657b03fbdba8","66577fc991f71cd7317b954e","631","stimuli/01001100.jpg"," ","","feedback_trial","0","","","","","","","","","","","","","","","","","","","","",""
"","","","","","image-keyboard-response","146","331253","0.0-121.0","5f52c941fc18905c7e8f78fd","665500ab8938657b03fbdba8","66577fc991f71cd7317b954e","4223","stimuli/2100101.jpg","2","","prediction_trial","2","","true","","2","false","false","true","true","false","false","[2]","100","101","1","","","","","","",""
"","","","","","image-keyboard-response","147","331695","0.0-122.0","5f52c941fc18905c7e8f78fd","665500ab8938657b03fbdba8","66577fc991f71cd7317b954e","442","stimuli/21001012.jpg"," ","","feedback_trial","2","","","","","","","","","","","","","","","","","","","","",""
"","","","","","image-keyboard-response","148","335941","0.0-123.0","5f52c941fc18905c7e8f78fd","665500ab8938657b03fbdba8","66577fc991f71cd7317b954e","4244","stimuli/0011111.jpg","0","","prediction_trial","0","","true","","0","false","false","true","true","false","false","[0]","011","111","1","","","","","","",""
"","","","","","image-keyboard-response","149","336422","0.0-124.0","5f52c941fc18905c7e8f78fd","665500ab8938657b03fbdba8","66577fc991f71cd7317b954e","480","stimuli/00111110.jpg"," ","","feedback_trial","0","","","","","","","","","","","","","","","","","","","","",""
"","","","","","image-keyboard-response","150","337309","0.0-125.0","5f52c941fc18905c7e8f78fd","665500ab8938657b03fbdba8","66577fc991f71cd7317b954e","887","stimuli/1101110.jpg","1","","prediction_trial","1","","true","","1","false","false","true","true","false","false","[1]","101","110","1","","","","","","",""
"","","","","","image-keyboard-response","151","337727","0.0-126.0","5f52c941fc18905c7e8f78fd","665500ab8938657b03fbdba8","66577fc991f71cd7317b954e","418","stimuli/11011101.jpg"," ","","feedback_trial","1","","","","","","","","","","","","","","","","","","","","",""
"","","","","","image-keyboard-response","152","338477","0.0-127.0","5f52c941fc18905c7e8f78fd","665500ab8938657b03fbdba8","66577fc991f71cd7317b954e","748","stimuli/1000001.jpg","1","","prediction_trial","1","","true","","1","true","true","true","true","true","true","[1]","000","001","1","","","","","","",""
"","","","","","image-keyboard-response","153","338765","0.0-128.0","5f52c941fc18905c7e8f78fd","665500ab8938657b03fbdba8","66577fc991f71cd7317b954e","288","stimuli/10000011.jpg"," ","","feedback_trial","1","","","","","","","","","","","","","","","","","","","","",""
"","","","","","image-keyboard-response","154","343253","0.0-129.0","5f52c941fc18905c7e8f78fd","665500ab8938657b03fbdba8","66577fc991f71cd7317b954e","4487","stimuli/0101110.jpg","0","","prediction_trial","2","","false","","0","false","false","false","false","false","false","[0,2]","101","110","0","","","","","","",""
"","","","","","image-keyboard-response","155","344021","0.0-130.0","5f52c941fc18905c7e8f78fd","665500ab8938657b03fbdba8","66577fc991f71cd7317b954e","767","stimuli/01011102.jpg"," ","","feedback_trial","0","","","","","","","","","","","","","","","","","","","","",""
"","","","","","image-keyboard-response","156","345517","0.0-131.0","5f52c941fc18905c7e8f78fd","665500ab8938657b03fbdba8","66577fc991f71cd7317b954e","1495","stimuli/2011110.jpg","2","","prediction_trial","1","","false","","2","true","true","false","false","false","false","[2,1]","011","110","0","","","","","","",""
"","","","","","image-keyboard-response","157","346205","0.0-132.0","5f52c941fc18905c7e8f78fd","665500ab8938657b03fbdba8","66577fc991f71cd7317b954e","688","stimuli/20111101.jpg"," ","","feedback_trial","2","","","","","","","","","","","","","","","","","","","","",""
"","","","","","image-keyboard-response","158","347968","0.0-133.0","5f52c941fc18905c7e8f78fd","665500ab8938657b03fbdba8","66577fc991f71cd7317b954e","1761","stimuli/2011010.jpg","1","","prediction_trial","1","","true","","2","true","true","false","false","false","false","[2,1]","011","010","1","","","","","","",""
"","","","","","image-keyboard-response","159","348549","0.0-134.0","5f52c941fc18905c7e8f78fd","665500ab8938657b03fbdba8","66577fc991f71cd7317b954e","579","stimuli/20110101.jpg"," ","","feedback_trial","2","","","","","","","","","","","","","","","","","","","","",""
"","","","","","image-keyboard-response","160","349533","0.0-135.0","5f52c941fc18905c7e8f78fd","665500ab8938657b03fbdba8","66577fc991f71cd7317b954e","983","stimuli/2110100.jpg","2","","prediction_trial","2","","true","","2","true","true","true","true","true","true","[2]","110","100","1","","","","","","",""
"","","","","","image-keyboard-response","161","349813","0.0-136.0","5f52c941fc18905c7e8f78fd","665500ab8938657b03fbdba8","66577fc991f71cd7317b954e","280","stimuli/21101002.jpg"," ","","feedback_trial","2","","","","","","","","","","","","","","","","","","","","",""
"","","","","","image-keyboard-response","162","350461","0.0-137.0","5f52c941fc18905c7e8f78fd","665500ab8938657b03fbdba8","66577fc991f71cd7317b954e","647","stimuli/0011001.jpg","0","","prediction_trial","0","","true","","0","true","true","true","true","true","true","[0]","011","001","1","","","","","","",""
"","","","","","image-keyboard-response","163","350678","0.0-138.0","5f52c941fc18905c7e8f78fd","665500ab8938657b03fbdba8","66577fc991f71cd7317b954e","216","stimuli/00110010.jpg"," ","","feedback_trial","0","","","","","","","","","","","","","","","","","","","","",""
"","","","","","image-keyboard-response","164","351574","0.0-139.0","5f52c941fc18905c7e8f78fd","665500ab8938657b03fbdba8","66577fc991f71cd7317b954e","895","stimuli/0010011.jpg","0","","prediction_trial","0","","true","","0","true","true","true","true","true","true","[0]","010","011","1","","","","","","",""
"","","","","","image-keyboard-response","165","351685","0.0-140.0","5f52c941fc18905c7e8f78fd","665500ab8938657b03fbdba8","66577fc991f71cd7317b954e","110","stimuli/00100110.jpg"," ","","feedback_trial","0","","","","","","","","","","","","","","","","","","","","",""
"","","","","","image-keyboard-response","166","352359","0.0-141.0","5f52c941fc18905c7e8f78fd","665500ab8938657b03fbdba8","66577fc991f71cd7317b954e","673","stimuli/2010100.jpg","2","","prediction_trial","2","","true","","2","true","true","true","true","true","true","[2]","010","100","1","","","","","","",""
"","","","","","image-keyboard-response","167","352527","0.0-142.0","5f52c941fc18905c7e8f78fd","665500ab8938657b03fbdba8","66577fc991f71cd7317b954e","166","stimuli/20101002.jpg"," ","","feedback_trial","2","","","","","","","","","","","","","","","","","","","","",""
"","","","","","image-keyboard-response","168","353470","0.0-143.0","5f52c941fc18905c7e8f78fd","665500ab8938657b03fbdba8","66577fc991f71cd7317b954e","941","stimuli/1100100.jpg","1","","prediction_trial","1","","true","","1","true","true","true","true","true","true","[1]","100","100","1","","","","","","",""
"","","","","","image-keyboard-response","169","353606","0.0-144.0","5f52c941fc18905c7e8f78fd","665500ab8938657b03fbdba8","66577fc991f71cd7317b954e","135","stimuli/11001001.jpg"," ","","feedback_trial","1","","","","","","","","","","","","","","","","","","","","",""
"","","","","","image-keyboard-response","170","357605","0.0-145.0","5f52c941fc18905c7e8f78fd","665500ab8938657b03fbdba8","66577fc991f71cd7317b954e","3997","stimuli/0110100.jpg","0","","prediction_trial","0","","true","","0","false","true","false","false","false","false","[1,0]","110","100","1","","","","","","",""
"","","","","","image-keyboard-response","171","358368","0.0-146.0","5f52c941fc18905c7e8f78fd","665500ab8938657b03fbdba8","66577fc991f71cd7317b954e","762","stimuli/01101000.jpg"," ","","feedback_trial","1","","","","","","","","","","","","","","","","","","","","",""
"","","","","","image-keyboard-response","172","360593","0.0-147.0","5f52c941fc18905c7e8f78fd","665500ab8938657b03fbdba8","66577fc991f71cd7317b954e","2223","stimuli/1110010.jpg","1","","prediction_trial","1","","true","","1","false","true","false","false","false","false","[0,1]","110","010","1","","","","","","",""
"","","","","","image-keyboard-response","173","361237","0.0-148.0","5f52c941fc18905c7e8f78fd","665500ab8938657b03fbdba8","66577fc991f71cd7317b954e","643","stimuli/11100101.jpg"," ","","feedback_trial","0","","","","","","","","","","","","","","","","","","","","",""
"","","","","","image-keyboard-response","174","367744","0.0-149.0","5f52c941fc18905c7e8f78fd","665500ab8938657b03fbdba8","66577fc991f71cd7317b954e","6507","stimuli/0010111.jpg","1","","prediction_trial","0","","false","","0","false","false","true","true","false","false","[0]","010","111","0","","","","","","",""
"","","","","","image-keyboard-response","175","369013","0.0-150.0","5f52c941fc18905c7e8f78fd","665500ab8938657b03fbdba8","66577fc991f71cd7317b954e","1267","stimuli/00101110.jpg"," ","","feedback_trial","0","","","","","","","","","","","","","","","","","","","","",""
"","","","","","image-keyboard-response","176","374261","0.0-151.0","5f52c941fc18905c7e8f78fd","665500ab8938657b03fbdba8","66577fc991f71cd7317b954e","5247","stimuli/1011011.jpg","1","","prediction_trial","1","","true","","1","false","false","false","false","false","false","[1,2]","011","011","1","","","","","","",""
"","","","","","image-keyboard-response","177","374863","0.0-152.0","5f52c941fc18905c7e8f78fd","665500ab8938657b03fbdba8","66577fc991f71cd7317b954e","602","stimuli/10110111.jpg"," ","","feedback_trial","1","","","","","","","","","","","","","","","","","","","","",""
"","","","","","image-keyboard-response","178","375541","0.0-153.0","5f52c941fc18905c7e8f78fd","665500ab8938657b03fbdba8","66577fc991f71cd7317b954e","676","stimuli/1000000.jpg","1","","prediction_trial","1","","true","","1","true","true","true","true","true","true","[1]","000","000","1","","","","","","",""
"","","","","","image-keyboard-response","179","375760","0.0-154.0","5f52c941fc18905c7e8f78fd","665500ab8938657b03fbdba8","66577fc991f71cd7317b954e","219","stimuli/10000001.jpg"," ","","feedback_trial","1","","","","","","","","","","","","","","","","","","","","",""
"","","","","","image-keyboard-response","180","377389","0.0-155.0","5f52c941fc18905c7e8f78fd","665500ab8938657b03fbdba8","66577fc991f71cd7317b954e","1628","stimuli/1011101.jpg","1","","prediction_trial","2","","false","","1","true","true","false","false","false","false","[1,2]","011","101","0","","","","","","",""
"","","","","","image-keyboard-response","181","377951","0.0-156.0","5f52c941fc18905c7e8f78fd","665500ab8938657b03fbdba8","66577fc991f71cd7317b954e","561","stimuli/10111012.jpg"," ","","feedback_trial","1","","","","","","","","","","","","","","","","","","","","",""
"","","","","","image-keyboard-response","182","381853","0.0-157.0","5f52c941fc18905c7e8f78fd","665500ab8938657b03fbdba8","66577fc991f71cd7317b954e","3901","stimuli/0001111.jpg","1","","prediction_trial","0","","false","","0","false","false","true","true","false","false","[0]","001","111","0","","","","","","",""
"","","","","","image-keyboard-response","183","382429","0.0-158.0","5f52c941fc18905c7e8f78fd","665500ab8938657b03fbdba8","66577fc991f71cd7317b954e","575","stimuli/00011110.jpg"," ","","feedback_trial","0","","","","","","","","","","","","","","","","","","","","",""
"","","","","","image-keyboard-response","184","383061","0.0-159.0","5f52c941fc18905c7e8f78fd","665500ab8938657b03fbdba8","66577fc991f71cd7317b954e","631","stimuli/2000010.jpg","2","","prediction_trial","2","","true","","2","true","true","true","true","true","true","[2]","000","010","1","","","","","","",""
"","","","","","image-keyboard-response","185","383309","0.0-160.0","5f52c941fc18905c7e8f78fd","665500ab8938657b03fbdba8","66577fc991f71cd7317b954e","248","stimuli/20000102.jpg"," ","","feedback_trial","2","","","","","","","","","","","","","","","","","","","","",""
"","","","","","image-keyboard-response","186","386669","0.0-161.0","5f52c941fc18905c7e8f78fd","665500ab8938657b03fbdba8","66577fc991f71cd7317b954e","3359","stimuli/0011100.jpg","2","","prediction_trial","0","","false","","0","false","true","true","true","false","true","[0]","011","100","0","","","","","","",""
"","","","","","image-keyboard-response","187","387405","0.0-162.0","5f52c941fc18905c7e8f78fd","665500ab8938657b03fbdba8","66577fc991f71cd7317b954e","735","stimuli/00111000.jpg"," ","","feedback_trial","0","","","","","","","","","","","","","","","","","","","","",""
"","","","","","image-keyboard-response","188","390445","0.0-163.0","5f52c941fc18905c7e8f78fd","665500ab8938657b03fbdba8","66577fc991f71cd7317b954e","3040","stimuli/1000110.jpg","2","","prediction_trial","1","","false","","1","false","false","true","true","false","false","[1]","000","110","0","","","","","","",""
"","","","","","image-keyboard-response","189","391149","0.0-164.0","5f52c941fc18905c7e8f78fd","665500ab8938657b03fbdba8","66577fc991f71cd7317b954e","704","stimuli/10001101.jpg"," ","","feedback_trial","1","","","","","","","","","","","","","","","","","","","","",""
"","","","","","image-keyboard-response","190","392127","0.0-165.0","5f52c941fc18905c7e8f78fd","665500ab8938657b03fbdba8","66577fc991f71cd7317b954e","978","stimuli/1000111.jpg","1","","prediction_trial","1","","true","","1","false","false","true","true","false","false","[1]","000","111","1","","","","","","",""
"","","","","","image-keyboard-response","191","392725","0.0-166.0","5f52c941fc18905c7e8f78fd","665500ab8938657b03fbdba8","66577fc991f71cd7317b954e","596","stimuli/10001111.jpg"," ","","feedback_trial","1","","","","","","","","","","","","","","","","","","","","",""
"","","","","","image-keyboard-response","192","394717","0.0-167.0","5f52c941fc18905c7e8f78fd","665500ab8938657b03fbdba8","66577fc991f71cd7317b954e","1991","stimuli/2111101.jpg","1","","prediction_trial","1","","true","","2","false","false","false","false","false","false","[2,0,1]","111","101","1","","","","","","",""
"","","","","","image-keyboard-response","193","395256","0.0-168.0","5f52c941fc18905c7e8f78fd","665500ab8938657b03fbdba8","66577fc991f71cd7317b954e","539","stimuli/21111011.jpg"," ","","feedback_trial","2","","","","","","","","","","","","","","","","","","","","",""
"","","","","","image-keyboard-response","194","397845","0.0-169.0","5f52c941fc18905c7e8f78fd","665500ab8938657b03fbdba8","66577fc991f71cd7317b954e","2587","stimuli/0000100.jpg","0","","prediction_trial","0","","true","","0","false","true","true","true","false","true","[0]","000","100","1","","","","","","",""
"","","","","","image-keyboard-response","195","398125","0.0-170.0","5f52c941fc18905c7e8f78fd","665500ab8938657b03fbdba8","66577fc991f71cd7317b954e","279","stimuli/00001000.jpg"," ","","feedback_trial","0","","","","","","","","","","","","","","","","","","","","",""
"","","","","","image-keyboard-response","196","402103","0.0-171.0","5f52c941fc18905c7e8f78fd","665500ab8938657b03fbdba8","66577fc991f71cd7317b954e","3977","stimuli/2111111.jpg","1","","prediction_trial","0","","false","","2","false","false","false","false","false","false","[0,2,1]","111","111","0","","","","","","",""
"","","","","","image-keyboard-response","197","402637","0.0-172.0","5f52c941fc18905c7e8f78fd","665500ab8938657b03fbdba8","66577fc991f71cd7317b954e","533","stimuli/21111110.jpg"," ","","feedback_trial","0","","","","","","","","","","","","","","","","","","","","",""
"","","","","","image-keyboard-response","198","403365","0.0-173.0","5f52c941fc18905c7e8f78fd","665500ab8938657b03fbdba8","66577fc991f71cd7317b954e","727","stimuli/1110001.jpg","1","","prediction_trial","0","","false","","1","true","true","false","false","false","false","[0,1]","110","001","0","","","","","","",""
"","","","","","image-keyboard-response","199","403549","0.0-174.0","5f52c941fc18905c7e8f78fd","665500ab8938657b03fbdba8","66577fc991f71cd7317b954e","184","stimuli/11100010.jpg"," ","","feedback_trial","0","","","","","","","","","","","","","","","","","","","","",""
"","","","","","image-keyboard-response","200","404525","0.0-175.0","5f52c941fc18905c7e8f78fd","665500ab8938657b03fbdba8","66577fc991f71cd7317b954e","975","stimuli/1100001.jpg","1","","prediction_trial","1","","true","","1","true","true","true","true","true","true","[1]","100","001","1","","","","","","",""
"","","","","","image-keyboard-response","201","404669","0.0-176.0","5f52c941fc18905c7e8f78fd","665500ab8938657b03fbdba8","66577fc991f71cd7317b954e","143","stimuli/11000011.jpg"," ","","feedback_trial","1","","","","","","","","","","","","","","","","","","","","",""
"","","","","","image-keyboard-response","202","405357","0.0-177.0","5f52c941fc18905c7e8f78fd","665500ab8938657b03fbdba8","66577fc991f71cd7317b954e","688","stimuli/2010110.jpg","2","","prediction_trial","2","","true","","2","true","true","true","true","true","true","[2]","010","110","1","","","","","","",""
"","","","","","image-keyboard-response","203","405509","0.0-178.0","5f52c941fc18905c7e8f78fd","665500ab8938657b03fbdba8","66577fc991f71cd7317b954e","152","stimuli/20101102.jpg"," ","","feedback_trial","2","","","","","","","","","","","","","","","","","","","","",""
"","","","","","image-keyboard-response","204","406213","0.0-179.0","5f52c941fc18905c7e8f78fd","665500ab8938657b03fbdba8","66577fc991f71cd7317b954e","703","stimuli/1001000.jpg","1","","prediction_trial","1","","true","","1","true","true","true","true","true","true","[1]","001","000","1","","","","","","",""
"","","","","","image-keyboard-response","205","406325","0.0-180.0","5f52c941fc18905c7e8f78fd","665500ab8938657b03fbdba8","66577fc991f71cd7317b954e","111","stimuli/10010001.jpg"," ","","feedback_trial","1","","","","","","","","","","","","","","","","","","","","",""
"","","","","","image-keyboard-response","206","407693","0.0-181.0","5f52c941fc18905c7e8f78fd","665500ab8938657b03fbdba8","66577fc991f71cd7317b954e","1367","stimuli/0111111.jpg","1","","prediction_trial","1","","true","","0","false","false","false","false","false","false","[0,2,1]","111","111","1","","","","","","",""
"","","","","","image-keyboard-response","207","407989","0.0-182.0","5f52c941fc18905c7e8f78fd","665500ab8938657b03fbdba8","66577fc991f71cd7317b954e","296","stimuli/01111111.jpg"," ","","feedback_trial","0","","","","","","","","","","","","","","","","","","","","",""
"","","","","","image-keyboard-response","208","409149","0.0-183.0","5f52c941fc18905c7e8f78fd","665500ab8938657b03fbdba8","66577fc991f71cd7317b954e","1159","stimuli/1101010.jpg","1","","prediction_trial","1","","true","","1","false","true","true","true","false","true","[1]","101","010","1","","","","","","",""
"","","","","","image-keyboard-response","209","409334","0.0-184.0","5f52c941fc18905c7e8f78fd","665500ab8938657b03fbdba8","66577fc991f71cd7317b954e","184","stimuli/11010101.jpg"," ","","feedback_trial","1","","","","","","","","","","","","","","","","","","","","",""
"","","","","","image-keyboard-response","210","411462","0.0-185.0","5f52c941fc18905c7e8f78fd","665500ab8938657b03fbdba8","66577fc991f71cd7317b954e","2127","stimuli/0010110.jpg","1","","prediction_trial","0","","false","","0","false","false","true","true","false","false","[0]","010","110","0","","","","","","",""
"","","","","","image-keyboard-response","211","411605","0.0-186.0","5f52c941fc18905c7e8f78fd","665500ab8938657b03fbdba8","66577fc991f71cd7317b954e","143","stimuli/00101100.jpg"," ","","feedback_trial","0","","","","","","","","","","","","","","","","","","","","",""
"","","","","","image-keyboard-response","212","413504","0.0-187.0","5f52c941fc18905c7e8f78fd","665500ab8938657b03fbdba8","66577fc991f71cd7317b954e","1898","stimuli/2111110.jpg","2","","prediction_trial","1","","false","","2","true","true","false","false","false","false","[0,1,2]","111","110","0","","","","","","",""
"","","","","","image-keyboard-response","213","413973","0.0-188.0","5f52c941fc18905c7e8f78fd","665500ab8938657b03fbdba8","66577fc991f71cd7317b954e","467","stimuli/21111101.jpg"," ","","feedback_trial","0","","","","","","","","","","","","","","","","","","","","",""
"","","","","","image-keyboard-response","214","414759","0.0-189.0","5f52c941fc18905c7e8f78fd","665500ab8938657b03fbdba8","66577fc991f71cd7317b954e","785","stimuli/2100000.jpg","2","","prediction_trial","2","","true","","2","true","true","true","true","true","true","[2]","100","000","1","","","","","","",""
"","","","","","image-keyboard-response","215","414886","0.0-190.0","5f52c941fc18905c7e8f78fd","665500ab8938657b03fbdba8","66577fc991f71cd7317b954e","126","stimuli/21000002.jpg"," ","","feedback_trial","2","","","","","","","","","","","","","","","","","","","","",""
"","","","","","image-keyboard-response","216","418061","0.0-191.0","5f52c941fc18905c7e8f78fd","665500ab8938657b03fbdba8","66577fc991f71cd7317b954e","3175","stimuli/0111010.jpg","0","","prediction_trial","1","","false","","0","true","true","false","false","false","false","[1,2,0]","111","010","0","","","","","","",""
"","","","","","image-keyboard-response","217","418790","0.0-192.0","5f52c941fc18905c7e8f78fd","665500ab8938657b03fbdba8","66577fc991f71cd7317b954e","728","stimuli/01110101.jpg"," ","","feedback_trial","1","","","","","","","","","","","","","","","","","","","","",""
"","","","","","image-keyboard-response","218","419702","0.0-193.0","5f52c941fc18905c7e8f78fd","665500ab8938657b03fbdba8","66577fc991f71cd7317b954e","911","stimuli/0111110.jpg","1","","prediction_trial","2","","false","","0","false","false","false","false","false","false","[2,0,1]","111","110","0","","","","","","",""
"","","","","","image-keyboard-response","219","420094","0.0-194.0","5f52c941fc18905c7e8f78fd","665500ab8938657b03fbdba8","66577fc991f71cd7317b954e","390","stimuli/01111102.jpg"," ","","feedback_trial","2","","","","","","","","","","","","","","","","","","","","",""
"","","","","","image-keyboard-response","220","420728","0.0-195.0","5f52c941fc18905c7e8f78fd","665500ab8938657b03fbdba8","66577fc991f71cd7317b954e","633","stimuli/2010000.jpg","2","","prediction_trial","2","","true","","2","true","true","true","true","true","true","[2]","010","000","1","","","","","","",""
"","","","","","image-keyboard-response","221","420909","0.0-196.0","5f52c941fc18905c7e8f78fd","665500ab8938657b03fbdba8","66577fc991f71cd7317b954e","179","stimuli/20100002.jpg"," ","","feedback_trial","2","","","","","","","","","","","","","","","","","","","","",""
"","","","","","image-keyboard-response","222","422061","0.0-197.0","5f52c941fc18905c7e8f78fd","665500ab8938657b03fbdba8","66577fc991f71cd7317b954e","1151","stimuli/2011100.jpg","0","","prediction_trial","2","","false","","2","true","true","false","false","false","false","[1,2]","011","100","0","","","","","","",""
"","","","","","image-keyboard-response","223","422837","0.0-198.0","5f52c941fc18905c7e8f78fd","665500ab8938657b03fbdba8","66577fc991f71cd7317b954e","775","stimuli/20111002.jpg"," ","","feedback_trial","1","","","","","","","","","","","","","","","","","","","","",""
"","","","","","image-keyboard-response","224","423589","0.0-199.0","5f52c941fc18905c7e8f78fd","665500ab8938657b03fbdba8","66577fc991f71cd7317b954e","752","stimuli/1001001.jpg","1","","prediction_trial","1","","true","","1","true","true","true","true","true","true","[1]","001","001","1","","","","","","",""
"","","","","","image-keyboard-response","225","423742","0.0-200.0","5f52c941fc18905c7e8f78fd","665500ab8938657b03fbdba8","66577fc991f71cd7317b954e","151","stimuli/10010011.jpg"," ","","feedback_trial","1","","","","","","","","","","","","","","","","","","","","",""
"","","","","","image-keyboard-response","226","424591","0.0-201.0","5f52c941fc18905c7e8f78fd","665500ab8938657b03fbdba8","66577fc991f71cd7317b954e","849","stimuli/1101001.jpg","1","","prediction_trial","1","","true","","1","true","true","true","true","true","true","[1]","101","001","1","","","","","","",""
"","","","","","image-keyboard-response","227","424709","0.0-202.0","5f52c941fc18905c7e8f78fd","665500ab8938657b03fbdba8","66577fc991f71cd7317b954e","116","stimuli/11010011.jpg"," ","","feedback_trial","1","","","","","","","","","","","","","","","","","","","","",""
"","","","","","image-keyboard-response","228","428126","0.0-203.0","5f52c941fc18905c7e8f78fd","665500ab8938657b03fbdba8","66577fc991f71cd7317b954e","3416","stimuli/1011001.jpg","1","","prediction_trial","1","","true","","1","true","true","false","false","false","false","[1,2]","011","001","1","","","","","","",""
"","","","","","image-keyboard-response","229","428712","0.0-204.0","5f52c941fc18905c7e8f78fd","665500ab8938657b03fbdba8","66577fc991f71cd7317b954e","586","stimuli/10110011.jpg"," ","","feedback_trial","1","","","","","","","","","","","","","","","","","","","","",""
"","","","","","image-keyboard-response","230","434389","0.0-205.0","5f52c941fc18905c7e8f78fd","665500ab8938657b03fbdba8","66577fc991f71cd7317b954e","5675","stimuli/0110000.jpg","0","","prediction_trial","0","","true","","0","true","true","false","false","false","false","[1,0]","110","000","1","","","","","","",""
"","","","","","image-keyboard-response","231","434625","0.0-206.0","5f52c941fc18905c7e8f78fd","665500ab8938657b03fbdba8","66577fc991f71cd7317b954e","234","stimuli/01100000.jpg"," ","","feedback_trial","1","","","","","","","","","","","","","","","","","","","","",""
"","","","","","image-keyboard-response","232","435685","0.0-207.0","5f52c941fc18905c7e8f78fd","665500ab8938657b03fbdba8","66577fc991f71cd7317b954e","1059","stimuli/0011010.jpg","0","","prediction_trial","0","","true","","0","true","true","true","true","true","true","[0]","011","010","1","","","","","","",""
"","","","","","image-keyboard-response","233","435837","0.0-208.0","5f52c941fc18905c7e8f78fd","665500ab8938657b03fbdba8","66577fc991f71cd7317b954e","152","stimuli/00110100.jpg"," ","","feedback_trial","0","","","","","","","","","","","","","","","","","","","","",""
"","","","","","image-keyboard-response","234","437877","0.0-209.0","5f52c941fc18905c7e8f78fd","665500ab8938657b03fbdba8","66577fc991f71cd7317b954e","2039","stimuli/0110101.jpg","0","","prediction_trial","0","","true","","0","false","false","false","false","false","false","[0,1]","110","101","1","","","","","","",""
"","","","","","image-keyboard-response","235","438093","0.0-210.0","5f52c941fc18905c7e8f78fd","665500ab8938657b03fbdba8","66577fc991f71cd7317b954e","215","stimuli/01101010.jpg"," ","","feedback_trial","0","","","","","","","","","","","","","","","","","","","","",""
"","","","","","image-keyboard-response","236","439829","0.0-211.0","5f52c941fc18905c7e8f78fd","665500ab8938657b03fbdba8","66577fc991f71cd7317b954e","1735","stimuli/1111010.jpg","1","","prediction_trial","1","","true","","1","false","true","false","false","false","false","[0,1,2]","111","010","1","","","","","","",""
"","","","","","image-keyboard-response","237","440029","0.0-212.0","5f52c941fc18905c7e8f78fd","665500ab8938657b03fbdba8","66577fc991f71cd7317b954e","199","stimuli/11110101.jpg"," ","","feedback_trial","0","","","","","","","","","","","","","","","","","","","","",""
"","","","","","image-keyboard-response","238","440901","0.0-213.0","5f52c941fc18905c7e8f78fd","665500ab8938657b03fbdba8","66577fc991f71cd7317b954e","871","stimuli/0100000.jpg","0","","prediction_trial","0","","true","","0","true","true","false","true","false","true","[0]","100","000","1","","","","","","",""
"","","","","","image-keyboard-response","239","441120","0.0-214.0","5f52c941fc18905c7e8f78fd","665500ab8938657b03fbdba8","66577fc991f71cd7317b954e","218","stimuli/01000000.jpg"," ","","feedback_trial","0","","","","","","","","","","","","","","","","","","","","",""
"","","","","","image-keyboard-response","240","444301","0.0-215.0","5f52c941fc18905c7e8f78fd","665500ab8938657b03fbdba8","66577fc991f71cd7317b954e","3180","stimuli/1111110.jpg","0","","prediction_trial","0","","true","","1","false","false","false","false","false","false","[1,2,0]","111","110","1","","","","","","",""
"","","","","","image-keyboard-response","241","444608","0.0-216.0","5f52c941fc18905c7e8f78fd","665500ab8938657b03fbdba8","66577fc991f71cd7317b954e","306","stimuli/11111100.jpg"," ","","feedback_trial","1","","","","","","","","","","","","","","","","","","","","",""
"","","","","","image-keyboard-response","242","447288","0.0-217.0","5f52c941fc18905c7e8f78fd","665500ab8938657b03fbdba8","66577fc991f71cd7317b954e","2677","stimuli/2101100.jpg","2","","prediction_trial","2","","true","","2","true","true","false","false","false","false","[2,0]","101","100","1","","","","","","",""
"","","","","","image-keyboard-response","243","447637","0.0-218.0","5f52c941fc18905c7e8f78fd","665500ab8938657b03fbdba8","66577fc991f71cd7317b954e","348","stimuli/21011002.jpg"," ","","feedback_trial","2","","","","","","","","","","","","","","","","","","","","",""
"","","","","","image-keyboard-response","244","448655","0.0-219.0","5f52c941fc18905c7e8f78fd","665500ab8938657b03fbdba8","66577fc991f71cd7317b954e","1017","stimuli/1110101.jpg","1","","prediction_trial","1","","true","","1","true","true","false","false","false","false","[0,1]","110","101","1","","","","","","",""
"","","","","","image-keyboard-response","245","448942","0.0-220.0","5f52c941fc18905c7e8f78fd","665500ab8938657b03fbdba8","66577fc991f71cd7317b954e","284","stimuli/11101011.jpg"," ","","feedback_trial","0","","","","","","","","","","","","","","","","","","","","",""
"","","","","","image-keyboard-response","246","453645","0.0-221.0","5f52c941fc18905c7e8f78fd","665500ab8938657b03fbdba8","66577fc991f71cd7317b954e","4703","stimuli/2111011.jpg","2","","prediction_trial","2","","true","","2","false","false","false","false","false","false","[1,2,0]","111","011","1","","","","","","",""
"","","","","","image-keyboard-response","247","454046","0.0-222.0","5f52c941fc18905c7e8f78fd","665500ab8938657b03fbdba8","66577fc991f71cd7317b954e","400","stimuli/21110112.jpg"," ","","feedback_trial","1","","","","","","","","","","","","","","","","","","","","",""
"","","","","","image-keyboard-response","248","455125","0.0-223.0","5f52c941fc18905c7e8f78fd","665500ab8938657b03fbdba8","66577fc991f71cd7317b954e","1079","stimuli/2100001.jpg","2","","prediction_trial","2","","true","","2","false","true","true","true","false","true","[2]","100","001","1","","","","","","",""
"","","","","","image-keyboard-response","249","455318","0.0-224.0","5f52c941fc18905c7e8f78fd","665500ab8938657b03fbdba8","66577fc991f71cd7317b954e","192","stimuli/21000012.jpg"," ","","feedback_trial","2","","","","","","","","","","","","","","","","","","","","",""
"","","","","","image-keyboard-response","250","458261","0.0-225.0","5f52c941fc18905c7e8f78fd","665500ab8938657b03fbdba8","66577fc991f71cd7317b954e","2942","stimuli/0101000.jpg","0","","prediction_trial","2","","false","","0","true","true","false","false","false","false","[2,0]","101","000","0","","","","","","",""
"","","","","","image-keyboard-response","251","458966","0.0-226.0","5f52c941fc18905c7e8f78fd","665500ab8938657b03fbdba8","66577fc991f71cd7317b954e","704","stimuli/01010002.jpg"," ","","feedback_trial","2","","","","","","","","","","","","","","","","","","","","",""
"","","","","","image-keyboard-response","252","461607","0.0-227.0","5f52c941fc18905c7e8f78fd","665500ab8938657b03fbdba8","66577fc991f71cd7317b954e","2639","stimuli/2011101.jpg","0","","prediction_trial","2","","false","","2","false","false","false","false","false","false","[2,1]","011","101","0","","","","","","",""
"","","","","","image-keyboard-response","253","461821","0.0-228.0","5f52c941fc18905c7e8f78fd","665500ab8938657b03fbdba8","66577fc991f71cd7317b954e","214","stimuli/20111012.jpg"," ","","feedback_trial","2","","","","","","","","","","","","","","","","","","","","",""
"","","","","","image-keyboard-response","254","464245","0.0-229.0","5f52c941fc18905c7e8f78fd","665500ab8938657b03fbdba8","66577fc991f71cd7317b954e","2423","stimuli/2010111.jpg","1","","prediction_trial","2","","false","","2","false","false","true","true","false","false","[2]","010","111","0","","","","","","",""
"","","","","","image-keyboard-response","255","464789","0.0-230.0","5f52c941fc18905c7e8f78fd","665500ab8938657b03fbdba8","66577fc991f71cd7317b954e","544","stimuli/20101112.jpg"," ","","feedback_trial","2","","","","","","","","","","","","","","","","","","","","",""
"","","","","","image-keyboard-response","256","465686","0.0-231.0","5f52c941fc18905c7e8f78fd","665500ab8938657b03fbdba8","66577fc991f71cd7317b954e","896","stimuli/1111100.jpg","1","","prediction_trial","0","","false","","1","true","true","false","false","false","false","[1,2,0]","111","100","0","","","","","","",""
"","","","","","image-keyboard-response","257","466110","0.0-232.0","5f52c941fc18905c7e8f78fd","665500ab8938657b03fbdba8","66577fc991f71cd7317b954e","423","stimuli/11111000.jpg"," ","","feedback_trial","1","","","","","","","","","","","","","","","","","","","","",""
"","","","","","image-keyboard-response","258","467383","0.0-233.0","5f52c941fc18905c7e8f78fd","665500ab8938657b03fbdba8","66577fc991f71cd7317b954e","1273","stimuli/1001100.jpg","1","","prediction_trial","1","","true","","1","true","true","true","true","true","true","[1]","001","100","1","","","","","","",""
"","","","","","image-keyboard-response","259","467557","0.0-234.0","5f52c941fc18905c7e8f78fd","665500ab8938657b03fbdba8","66577fc991f71cd7317b954e","172","stimuli/10011001.jpg"," ","","feedback_trial","1","","","","","","","","","","","","","","","","","","","","",""
"","","","","","image-keyboard-response","260","468848","0.0-235.0","5f52c941fc18905c7e8f78fd","665500ab8938657b03fbdba8","66577fc991f71cd7317b954e","1289","stimuli/0101100.jpg","0","","prediction_trial","2","","false","","0","false","true","false","false","false","false","[2,0]","101","100","0","","","","","","",""
"","","","","","image-keyboard-response","261","469976","0.0-236.0","5f52c941fc18905c7e8f78fd","665500ab8938657b03fbdba8","66577fc991f71cd7317b954e","1126","stimuli/01011002.jpg"," ","","feedback_trial","2","","","","","","","","","","","","","","","","","","","","",""
"","","","","","image-keyboard-response","262","471958","0.0-237.0","5f52c941fc18905c7e8f78fd","665500ab8938657b03fbdba8","66577fc991f71cd7317b954e","1980","stimuli/1011010.jpg","1","","prediction_trial","2","","false","","1","false","true","false","false","false","false","[1,2]","011","010","0","","","","","","",""
"","","","","","image-keyboard-response","263","472170","0.0-238.0","5f52c941fc18905c7e8f78fd","665500ab8938657b03fbdba8","66577fc991f71cd7317b954e","211","stimuli/10110102.jpg"," ","","feedback_trial","1","","","","","","","","","","","","","","","","","","","","",""
"","","","","","image-keyboard-response","264","473485","0.0-239.0","5f52c941fc18905c7e8f78fd","665500ab8938657b03fbdba8","66577fc991f71cd7317b954e","1313","stimuli/1011100.jpg","1","","prediction_trial","1","","true","","1","true","true","false","false","false","false","[2,1]","011","100","1","","","","","","",""
"","","","","","image-keyboard-response","265","474896","0.0-240.0","5f52c941fc18905c7e8f78fd","665500ab8938657b03fbdba8","66577fc991f71cd7317b954e","1409","stimuli/10111001.jpg"," ","","feedback_trial","2","","","","","","","","","","","","","","","","","","","","",""
"","","","","","image-keyboard-response","266","478678","0.0-241.0","5f52c941fc18905c7e8f78fd","665500ab8938657b03fbdba8","66577fc991f71cd7317b954e","3780","stimuli/1110011.jpg","0","","prediction_trial","0","","true","","1","false","false","false","false","false","false","[1,0]","110","011","1","","","","","","",""
"","","","","","image-keyboard-response","267","479662","0.0-242.0","5f52c941fc18905c7e8f78fd","665500ab8938657b03fbdba8","66577fc991f71cd7317b954e","983","stimuli/11100110.jpg"," ","","feedback_trial","1","","","","","","","","","","","","","","","","","","","","",""
"","","","","","image-keyboard-response","268","480357","0.0-243.0","5f52c941fc18905c7e8f78fd","665500ab8938657b03fbdba8","66577fc991f71cd7317b954e","694","stimuli/1101101.jpg","1","","prediction_trial","1","","true","","1","true","true","true","true","true","true","[1]","101","101","1","","","","","","",""
"","","","","","image-keyboard-response","269","480645","0.0-244.0","5f52c941fc18905c7e8f78fd","665500ab8938657b03fbdba8","66577fc991f71cd7317b954e","287","stimuli/11011011.jpg"," ","","feedback_trial","1","","","","","","","","","","","","","","","","","","","","",""
"","","","","","image-keyboard-response","270","483749","0.0-245.0","5f52c941fc18905c7e8f78fd","665500ab8938657b03fbdba8","66577fc991f71cd7317b954e","3103","stimuli/2110001.jpg","2","","prediction_trial","2","","true","","2","false","true","true","true","false","true","[2]","110","001","1","","","","","","",""
"","","","","","image-keyboard-response","271","484151","0.0-246.0","5f52c941fc18905c7e8f78fd","665500ab8938657b03fbdba8","66577fc991f71cd7317b954e","401","stimuli/21100012.jpg"," ","","feedback_trial","2","","","","","","","","","","","","","","","","","","","","",""
"","","","","","image-keyboard-response","272","486541","0.0-247.0","5f52c941fc18905c7e8f78fd","665500ab8938657b03fbdba8","66577fc991f71cd7317b954e","2388","stimuli/1010110.jpg","0","","prediction_trial","1","","false","","1","false","false","false","true","false","false","[1]","010","110","0","","","","","","",""
"","","","","","image-keyboard-response","273","486997","0.0-248.0","5f52c941fc18905c7e8f78fd","665500ab8938657b03fbdba8","66577fc991f71cd7317b954e","455","stimuli/10101101.jpg"," ","","feedback_trial","1","","","","","","","","","","","","","","","","","","","","",""
"","","","","","image-keyboard-response","274","489752","0.0-249.0","5f52c941fc18905c7e8f78fd","665500ab8938657b03fbdba8","66577fc991f71cd7317b954e","2754","stimuli/0111101.jpg","2","","prediction_trial","1","","false","","0","false","false","false","false","false","false","[1,0,2]","111","101","0","","","","","","",""
"","","","","","image-keyboard-response","275","490205","0.0-250.0","5f52c941fc18905c7e8f78fd","665500ab8938657b03fbdba8","66577fc991f71cd7317b954e","451","stimuli/01111011.jpg"," ","","feedback_trial","1","","","","","","","","","","","","","","","","","","","","",""
"","","","","","image-keyboard-response","276","494621","0.0-251.0","5f52c941fc18905c7e8f78fd","665500ab8938657b03fbdba8","66577fc991f71cd7317b954e","4415","stimuli/1100111.jpg","0","","prediction_trial","1","","false","","1","false","false","true","true","false","false","[1]","100","111","0","","","","","","",""
"","","","","","image-keyboard-response","277","495205","0.0-252.0","5f52c941fc18905c7e8f78fd","665500ab8938657b03fbdba8","66577fc991f71cd7317b954e","583","stimuli/11001111.jpg"," ","","feedback_trial","1","","","","","","","","","","","","","","","","","","","","",""
"","","","","","image-keyboard-response","278","495934","0.0-253.0","5f52c941fc18905c7e8f78fd","665500ab8938657b03fbdba8","66577fc991f71cd7317b954e","728","stimuli/0010000.jpg","0","","prediction_trial","0","","true","","0","true","true","true","true","true","true","[0]","010","000","1","","","","","","",""
"","","","","","image-keyboard-response","279","496061","0.0-254.0","5f52c941fc18905c7e8f78fd","665500ab8938657b03fbdba8","66577fc991f71cd7317b954e","125","stimuli/00100000.jpg"," ","","feedback_trial","0","","","","","","","","","","","","","","","","","","","","",""
"","","","","","image-keyboard-response","280","499109","0.0-255.0","5f52c941fc18905c7e8f78fd","665500ab8938657b03fbdba8","66577fc991f71cd7317b954e","3047","stimuli/1100011.jpg","1","","prediction_trial","1","","true","","1","false","false","true","true","false","false","[1]","100","011","1","","","","","","",""
"","","","","","image-keyboard-response","281","499565","0.0-256.0","5f52c941fc18905c7e8f78fd","665500ab8938657b03fbdba8","66577fc991f71cd7317b954e","456","stimuli/11000111.jpg"," ","","feedback_trial","1","","","","","","","","","","","","","","","","","","","","",""
"","","","","","image-keyboard-response","282","502673","0.0-257.0","5f52c941fc18905c7e8f78fd","665500ab8938657b03fbdba8","66577fc991f71cd7317b954e","3107","stimuli/1001111.jpg","1","","prediction_trial","1","","true","","1","false","false","true","true","false","false","[1]","001","111","1","","","","","","",""
"","","","","","image-keyboard-response","283","502951","0.0-258.0","5f52c941fc18905c7e8f78fd","665500ab8938657b03fbdba8","66577fc991f71cd7317b954e","276","stimuli/10011111.jpg"," ","","feedback_trial","1","","","","","","","","","","","","","","","","","","","","",""
"","","","","","image-keyboard-response","284","505269","0.0-259.0","5f52c941fc18905c7e8f78fd","665500ab8938657b03fbdba8","66577fc991f71cd7317b954e","2316","stimuli/0100111.jpg","1","","prediction_trial","0","","false","","0","false","false","false","true","false","false","[0]","100","111","0","","","","","","",""
"","","","","","image-keyboard-response","285","505629","0.0-260.0","5f52c941fc18905c7e8f78fd","665500ab8938657b03fbdba8","66577fc991f71cd7317b954e","359","stimuli/01001110.jpg"," ","","feedback_trial","0","","","","","","","","","","","","","","","","","","","","",""
"","","","","","image-keyboard-response","286","506982","0.0-261.0","5f52c941fc18905c7e8f78fd","665500ab8938657b03fbdba8","66577fc991f71cd7317b954e","1352","stimuli/2001000.jpg","2","","prediction_trial","2","","true","","2","true","true","false","true","false","true","[2]","001","000","1","","","","","","",""
"","","","","","image-keyboard-response","287","507133","0.0-262.0","5f52c941fc18905c7e8f78fd","665500ab8938657b03fbdba8","66577fc991f71cd7317b954e","150","stimuli/20010002.jpg"," ","","feedback_trial","2","","","","","","","","","","","","","","","","","","","","",""
"","","","","","image-keyboard-response","288","529620","0.0-263.0","5f52c941fc18905c7e8f78fd","665500ab8938657b03fbdba8","66577fc991f71cd7317b954e","22487","stimuli/0101101.jpg","0","","prediction_trial","2","","false","","0","false","false","false","false","false","false","[2,0]","101","101","0","","","","","","",""
"","","","","","image-keyboard-response","289","530384","0.0-264.0","5f52c941fc18905c7e8f78fd","665500ab8938657b03fbdba8","66577fc991f71cd7317b954e","763","stimuli/01011012.jpg"," ","","feedback_trial","2","","","","","","","","","","","","","","","","","","","","",""
"","","","","","image-keyboard-response","290","532128","0.0-265.0","5f52c941fc18905c7e8f78fd","665500ab8938657b03fbdba8","66577fc991f71cd7317b954e","1742","stimuli/1101100.jpg","1","","prediction_trial","1","","true","","1","true","true","true","true","true","true","[1]","101","100","1","","","","","","",""
"","","","","","image-keyboard-response","291","532608","0.0-266.0","5f52c941fc18905c7e8f78fd","665500ab8938657b03fbdba8","66577fc991f71cd7317b954e","477","stimuli/11011001.jpg"," ","","feedback_trial","1","","","","","","","","","","","","","","","","","","","","",""
"","","","","","image-keyboard-response","292","534872","0.0-267.0","5f52c941fc18905c7e8f78fd","665500ab8938657b03fbdba8","66577fc991f71cd7317b954e","2262","stimuli/0110111.jpg","2","","prediction_trial","1","","false","","0","false","false","false","false","false","false","[0,1]","110","111","0","","","","","","",""
"","","","","","image-keyboard-response","293","535480","0.0-268.0","5f52c941fc18905c7e8f78fd","665500ab8938657b03fbdba8","66577fc991f71cd7317b954e","606","stimuli/01101111.jpg"," ","","feedback_trial","0","","","","","","","","","","","","","","","","","","","","",""
"","","","","","image-keyboard-response","294","536120","0.0-269.0","5f52c941fc18905c7e8f78fd","665500ab8938657b03fbdba8","66577fc991f71cd7317b954e","638","stimuli/2000000.jpg","2","","prediction_trial","2","","true","","2","true","true","true","true","true","true","[2]","000","000","1","","","","","","",""
"","","","","","image-keyboard-response","295","536533","0.0-270.0","5f52c941fc18905c7e8f78fd","665500ab8938657b03fbdba8","66577fc991f71cd7317b954e","410","stimuli/20000002.jpg"," ","","feedback_trial","2","","","","","","","","","","","","","","","","","","","","",""
"","","","","","image-keyboard-response","296","539008","0.0-271.0","5f52c941fc18905c7e8f78fd","665500ab8938657b03fbdba8","66577fc991f71cd7317b954e","2474","stimuli/2101000.jpg","2","","prediction_trial","0","","false","","2","true","true","false","false","false","false","[0,2]","101","000","0","","","","","","",""
"","","","","","image-keyboard-response","297","543488","0.0-272.0","5f52c941fc18905c7e8f78fd","665500ab8938657b03fbdba8","66577fc991f71cd7317b954e","4478","stimuli/21010000.jpg"," ","","feedback_trial","0","","","","","","","","","","","","","","","","","","","","",""
"","","","","","image-keyboard-response","298","544384","0.0-273.0","5f52c941fc18905c7e8f78fd","665500ab8938657b03fbdba8","66577fc991f71cd7317b954e","895","stimuli/2101111.jpg","1","","prediction_trial","0","","false","","2","false","false","false","false","false","false","[2,0]","101","111","0","","","","","","",""
"","","","","","image-keyboard-response","299","545047","0.0-274.0","5f52c941fc18905c7e8f78fd","665500ab8938657b03fbdba8","66577fc991f71cd7317b954e","661","stimuli/21011110.jpg"," ","","feedback_trial","2","","","","","","","","","","","","","","","","","","","","",""
"","","","","","image-keyboard-response","300","546455","0.0-275.0","5f52c941fc18905c7e8f78fd","665500ab8938657b03fbdba8","66577fc991f71cd7317b954e","1406","stimuli/1111011.jpg","1","","prediction_trial","2","","false","","1","false","false","false","false","false","false","[0,2,1]","111","011","0","","","","","","",""
"","","","","","image-keyboard-response","301","547278","0.0-276.0","5f52c941fc18905c7e8f78fd","665500ab8938657b03fbdba8","66577fc991f71cd7317b954e","821","stimuli/11110112.jpg"," ","","feedback_trial","0","","","","","","","","","","","","","","","","","","","","",""
"","","","","","image-keyboard-response","302","552192","0.0-277.0","5f52c941fc18905c7e8f78fd","665500ab8938657b03fbdba8","66577fc991f71cd7317b954e","4913","stimuli/2110111.jpg","2","","prediction_trial","2","","true","","2","false","false","true","true","false","false","[2]","110","111","1","","","","","","",""
"","","","","","image-keyboard-response","303","552752","0.0-278.0","5f52c941fc18905c7e8f78fd","665500ab8938657b03fbdba8","66577fc991f71cd7317b954e","557","stimuli/21101112.jpg"," ","","feedback_trial","2","","","","","","","","","","","","","","","","","","","","",""
"","","","","","image-keyboard-response","304","553401","0.0-279.0","5f52c941fc18905c7e8f78fd","665500ab8938657b03fbdba8","66577fc991f71cd7317b954e","647","stimuli/0001000.jpg","0","","prediction_trial","0","","true","","0","true","true","true","true","true","true","[0]","001","000","1","","","","","","",""
"","","","","","image-keyboard-response","305","553792","0.0-280.0","5f52c941fc18905c7e8f78fd","665500ab8938657b03fbdba8","66577fc991f71cd7317b954e","389","stimuli/00010000.jpg"," ","","feedback_trial","0","","","","","","","","","","","","","","","","","","","","",""
"","","","","","image-keyboard-response","306","559368","0.0-281.0","5f52c941fc18905c7e8f78fd","665500ab8938657b03fbdba8","66577fc991f71cd7317b954e","5573","stimuli/0101111.jpg","1","","prediction_trial","2","","false","","0","false","false","false","false","false","false","[2,0]","101","111","0","","","","","","",""
"","","","","","image-keyboard-response","307","559889","0.0-282.0","5f52c941fc18905c7e8f78fd","665500ab8938657b03fbdba8","66577fc991f71cd7317b954e","517","stimuli/01011112.jpg"," ","","feedback_trial","2","","","","","","","","","","","","","","","","","","","","",""
"","","","","","image-keyboard-response","308","561112","0.0-283.0","5f52c941fc18905c7e8f78fd","665500ab8938657b03fbdba8","66577fc991f71cd7317b954e","1221","stimuli/1101011.jpg","1","","prediction_trial","1","","true","","1","false","false","true","true","false","false","[1]","101","011","1","","","","","","",""
"","","","","","image-keyboard-response","309","561616","0.0-284.0","5f52c941fc18905c7e8f78fd","665500ab8938657b03fbdba8","66577fc991f71cd7317b954e","501","stimuli/11010111.jpg"," ","","feedback_trial","1","","","","","","","","","","","","","","","","","","","","",""
"","","","","","image-keyboard-response","310","562441","0.0-285.0","5f52c941fc18905c7e8f78fd","665500ab8938657b03fbdba8","66577fc991f71cd7317b954e","822","stimuli/1010101.jpg","1","","prediction_trial","1","","true","","1","true","true","false","true","false","true","[1]","010","101","1","","","","","","",""
"","","","","","image-keyboard-response","311","562880","0.0-286.0","5f52c941fc18905c7e8f78fd","665500ab8938657b03fbdba8","66577fc991f71cd7317b954e","437","stimuli/10101011.jpg"," ","","feedback_trial","1","","","","","","","","","","","","","","","","","","","","",""
"","","","","","image-keyboard-response","312","563688","0.0-287.0","5f52c941fc18905c7e8f78fd","665500ab8938657b03fbdba8","66577fc991f71cd7317b954e","806","stimuli/1100101.jpg","1","","prediction_trial","1","","true","","1","true","true","true","true","true","true","[1]","100","101","1","","","","","","",""
"","","","","","image-keyboard-response","313","563864","0.0-288.0","5f52c941fc18905c7e8f78fd","665500ab8938657b03fbdba8","66577fc991f71cd7317b954e","174","stimuli/11001011.jpg"," ","","feedback_trial","1","","","","","","","","","","","","","","","","","","","","",""
"","","","","","image-keyboard-response","314","565255","0.0-289.0","5f52c941fc18905c7e8f78fd","665500ab8938657b03fbdba8","66577fc991f71cd7317b954e","1389","stimuli/2000101.jpg","2","","prediction_trial","2","","true","","2","false","false","true","true","false","false","[2]","000","101","1","","","","","","",""
"","","","","","image-keyboard-response","315","565728","0.0-290.0","5f52c941fc18905c7e8f78fd","665500ab8938657b03fbdba8","66577fc991f71cd7317b954e","470","stimuli/20001012.jpg"," ","","feedback_trial","2","","","","","","","","","","","","","","","","","","","","",""
"","","","","","image-keyboard-response","316","567800","0.0-291.0","5f52c941fc18905c7e8f78fd","665500ab8938657b03fbdba8","66577fc991f71cd7317b954e","2070","stimuli/2101010.jpg","2","","prediction_trial","2","","true","","2","true","true","false","false","false","false","[0,2]","101","010","1","","","","","","",""
"","","","","","image-keyboard-response","317","568224","0.0-292.0","5f52c941fc18905c7e8f78fd","665500ab8938657b03fbdba8","66577fc991f71cd7317b954e","421","stimuli/21010102.jpg"," ","","feedback_trial","0","","","","","","","","","","","","","","","","","","","","",""
"","","","","","survey-html-form","318","685249","0.0-293.0","5f52c941fc18905c7e8f78fd","665500ab8938657b03fbdba8","66577fc991f71cd7317b954e","117020","","{""feedback"":""Whether the other character could see the ball and tried to look for patterns when they could not. "",""age"":""45"",""gender"":""Male"",""other_gender"":"""",""race"":""White"",""other_race"":"""",""ethnicity"":""Non-Hispanic""}","","exit_survey","","","","","","","","","","","","","","","","Whether the other character could see the ball and tried to look for patterns when they could not. ","45","Non-Hispanic","Male","White","0.6458333333333334","0.6458333333333334"
