"success","timeout","failed_images","failed_audio","failed_video","trial_type","trial_index","time_elapsed","internal_node_id","prolific_id","prolific_study_id","prolific_session_id","rt","stimulus","response","view_history","trial","character_choice","stimulus_dict","accuracy","correct_response","ball_pos","ego_ball_visible","ego_can_infer","alter_ball_visible","alter_can_infer","collective_ball_visible","collective_can_infer","search_locations","alter_occluders","ego_occluders","accuracy_bool","feedback","age","ethnicity","gender","race","overall_accuracy","bonus"
"true","false","[]","[]","[]","preload","0","4335","0.0-0.0","600dd1ea271cf06201979123","665500ab8938657b03fbdba8","665792264d8acc7211fce09f","","","","","","","","","","","","","","","","","","","","","","","","","","",""
"true","","","","","fullscreen","1","57628","0.0-1.0","600dd1ea271cf06201979123","665500ab8938657b03fbdba8","665792264d8acc7211fce09f","","","","","","","","","","","","","","","","","","","","","","","","","","",""
"","","","","","html-button-response","2","68092","0.0-2.0","600dd1ea271cf06201979123","665500ab8938657b03fbdba8","665792264d8acc7211fce09f","10461","<p><b>Consent Form</b></p> <div style=""text-align:left;background-color:lightgrey; padding:20px; max-width:900px;""><p>Please consider this information carefully before deciding whether to participate in this research.</p> <p>The purpose of this research is to examine which factors influence social judgment and decision-making. You will be asked to make judgements about individuals and actions in social scenarios. We are simply interested in your judgement. The study will take less than 1 hour to complete, and you will receive less than $20 on Prolific. Your compensation and time commitment are specified in the study description. There are no anticipated risks associated with participating in this study. The effects of participating should be comparable to those you would ordinarily experience from viewing a computer monitor and using a mouse or keyboard for a similar amount of time. At the end of the study, we will provide an explanation of the questions that motivate this line of research and will describe the potential implications. </p><p> Your participation in this study is completely voluntary and you may refuse to participate or you may choose to withdraw at any time without penalty or loss of benefits to you which are otherwise entitled. Your participation in this study will remain confidential. No personally identifiable information will be associated with your data. Also, all analyses of the data will be averaged across all the participants, so your individual responses will never be specifically analyzed. </p><p> If you have questions or concerns about your participation or payment, or want to request a summary of research findings, please contact Dr. Jonathan Phillips at Jonathan.S.Phillips@dartmouth.edu. </p><p> Please save a copy of this form for your records. </p><p><b>Agreement: </b>The nature and purpose of this research have been sufficiently explained and I agree to participate in this study. I understand that I am free to withdraw at any time without incurring any penalty. Please consent by clicking the button below to continue. Otherwise, please exit the study at any time. </p>","0","","","","","","","","","","","","","","","","","","","","","","","",""
"","","","","","instructions","3","125268","0.0-3.0-0.0","600dd1ea271cf06201979123","665500ab8938657b03fbdba8","665792264d8acc7211fce09f","57175","","","[{""page_index"":0,""viewing_time"":1819},{""page_index"":1,""viewing_time"":2573},{""page_index"":2,""viewing_time"":2076},{""page_index"":3,""viewing_time"":3428},{""page_index"":4,""viewing_time"":1485},{""page_index"":5,""viewing_time"":1772},{""page_index"":6,""viewing_time"":1795},{""page_index"":7,""viewing_time"":1502},{""page_index"":8,""viewing_time"":3222},{""page_index"":9,""viewing_time"":2053},{""page_index"":10,""viewing_time"":10512},{""page_index"":11,""viewing_time"":11435},{""page_index"":12,""viewing_time"":10845},{""page_index"":13,""viewing_time"":2658}]","intro","","","","","","","","","","","","","","","","","","","","","",""
"","","","","","image-keyboard-response","4","127620","0.0-3.0-1.0","600dd1ea271cf06201979123","665500ab8938657b03fbdba8","665792264d8acc7211fce09f","2349","stimuli/1100001.jpg","1","","prediction_practice","1","{""filepath"":""stimuli/1100001.jpg"",""ball_pos"":1,""ego_ball_visible"":true,""ego_can_infer"":true,""alter_ball_visible"":true,""alter_can_infer"":true,""collective_ball_visible"":true,""collective_can_infer"":true,""search_locations"":[1],""alter_occluders"":""100"",""ego_occluders"":""001""}","true","","","","","","","","","","","","","","","","","","",""
"","","","","","image-keyboard-response","5","129138","0.0-3.0-2.0","600dd1ea271cf06201979123","665500ab8938657b03fbdba8","665792264d8acc7211fce09f","1517","stimuli/11000011.jpg"," ","","practrice_feedback","1","","","","","","","","","","","","","","","","","","","","",""
"","","","","","image-keyboard-response","6","135027","0.0-3.0-3.0","600dd1ea271cf06201979123","665500ab8938657b03fbdba8","665792264d8acc7211fce09f","5888","stimuli/0100010.jpg","0","","prediction_practice","0","{""filepath"":""stimuli/0100010.jpg"",""ball_pos"":0,""ego_ball_visible"":true,""ego_can_infer"":true,""alter_ball_visible"":false,""alter_can_infer"":true,""collective_ball_visible"":false,""collective_can_infer"":true,""search_locations"":[0],""alter_occluders"":""100"",""ego_occluders"":""010""}","true","","","","","","","","","","","","","","","","","","",""
"","","","","","image-keyboard-response","7","136266","0.0-3.0-4.0","600dd1ea271cf06201979123","665500ab8938657b03fbdba8","665792264d8acc7211fce09f","1237","stimuli/01000100.jpg"," ","","practrice_feedback","0","","","","","","","","","","","","","","","","","","","","",""
"","","","","","image-keyboard-response","8","137451","0.0-3.0-5.0","600dd1ea271cf06201979123","665500ab8938657b03fbdba8","665792264d8acc7211fce09f","1179","stimuli/0010011.jpg","0","","prediction_practice","0","{""filepath"":""stimuli/0010011.jpg"",""ball_pos"":0,""ego_ball_visible"":true,""ego_can_infer"":true,""alter_ball_visible"":true,""alter_can_infer"":true,""collective_ball_visible"":true,""collective_can_infer"":true,""search_locations"":[0],""alter_occluders"":""010"",""ego_occluders"":""011""}","true","","","","","","","","","","","","","","","","","","",""
"","","","","","image-keyboard-response","9","138162","0.0-3.0-6.0","600dd1ea271cf06201979123","665500ab8938657b03fbdba8","665792264d8acc7211fce09f","710","stimuli/00100110.jpg"," ","","practrice_feedback","0","","","","","","","","","","","","","","","","","","","","",""
"","","","","","image-keyboard-response","10","141387","0.0-3.0-7.0","600dd1ea271cf06201979123","665500ab8938657b03fbdba8","665792264d8acc7211fce09f","3224","stimuli/2111101.jpg","0","","prediction_practice","1","{""filepath"":""stimuli/2111101.jpg"",""ball_pos"":2,""ego_ball_visible"":false,""ego_can_infer"":false,""alter_ball_visible"":false,""alter_can_infer"":false,""collective_ball_visible"":false,""collective_can_infer"":false,""search_locations"":[1,0,2],""alter_occluders"":""111"",""ego_occluders"":""101""}","false","","","","","","","","","","","","","","","","","","",""
"","","","","","image-keyboard-response","11","142962","0.0-3.0-8.0","600dd1ea271cf06201979123","665500ab8938657b03fbdba8","665792264d8acc7211fce09f","1574","stimuli/21111011.jpg"," ","","practrice_feedback","1","","","","","","","","","","","","","","","","","","","","",""
"","","","","","image-keyboard-response","12","147642","0.0-3.0-9.0","600dd1ea271cf06201979123","665500ab8938657b03fbdba8","665792264d8acc7211fce09f","4675","stimuli/1011010.jpg","1","","prediction_practice","1","{""filepath"":""stimuli/1011010.jpg"",""ball_pos"":1,""ego_ball_visible"":false,""ego_can_infer"":true,""alter_ball_visible"":false,""alter_can_infer"":false,""collective_ball_visible"":false,""collective_can_infer"":false,""search_locations"":[1,2],""alter_occluders"":""011"",""ego_occluders"":""010""}","true","","","","","","","","","","","","","","","","","","",""
"","","","","","image-keyboard-response","13","148642","0.0-3.0-10.0","600dd1ea271cf06201979123","665500ab8938657b03fbdba8","665792264d8acc7211fce09f","999","stimuli/10110101.jpg"," ","","practrice_feedback","1","","","","","","","","","","","","","","","","","","","","",""
"","","","","","image-keyboard-response","14","150210","0.0-3.0-11.0","600dd1ea271cf06201979123","665500ab8938657b03fbdba8","665792264d8acc7211fce09f","1568","stimuli/0101101.jpg","2","","prediction_practice","2","{""filepath"":""stimuli/0101101.jpg"",""ball_pos"":0,""ego_ball_visible"":false,""ego_can_infer"":false,""alter_ball_visible"":false,""alter_can_infer"":false,""collective_ball_visible"":false,""collective_can_infer"":false,""search_locations"":[0,2],""alter_occluders"":""101"",""ego_occluders"":""101""}","true","","","","","","","","","","","","","","","","","","",""
"","","","","","image-keyboard-response","15","150553","0.0-3.0-12.0","600dd1ea271cf06201979123","665500ab8938657b03fbdba8","665792264d8acc7211fce09f","342","stimuli/01011012.jpg"," ","","practrice_feedback","0","","","","","","","","","","","","","","","","","","","","",""
"","","","","","image-keyboard-response","16","152458","0.0-3.0-13.0","600dd1ea271cf06201979123","665500ab8938657b03fbdba8","665792264d8acc7211fce09f","1900","stimuli/0001000.jpg","0","","prediction_practice","0","{""filepath"":""stimuli/0001000.jpg"",""ball_pos"":0,""ego_ball_visible"":true,""ego_can_infer"":true,""alter_ball_visible"":true,""alter_can_infer"":true,""collective_ball_visible"":true,""collective_can_infer"":true,""search_locations"":[0],""alter_occluders"":""001"",""ego_occluders"":""000""}","true","","","","","","","","","","","","","","","","","","",""
"","","","","","image-keyboard-response","17","152777","0.0-3.0-14.0","600dd1ea271cf06201979123","665500ab8938657b03fbdba8","665792264d8acc7211fce09f","318","stimuli/00010000.jpg"," ","","practrice_feedback","0","","","","","","","","","","","","","","","","","","","","",""
"","","","","","image-keyboard-response","18","153378","0.0-3.0-15.0","600dd1ea271cf06201979123","665500ab8938657b03fbdba8","665792264d8acc7211fce09f","600","stimuli/2110110.jpg","2","","prediction_practice","2","{""filepath"":""stimuli/2110110.jpg"",""ball_pos"":2,""ego_ball_visible"":true,""ego_can_infer"":true,""alter_ball_visible"":true,""alter_can_infer"":true,""collective_ball_visible"":true,""collective_can_infer"":true,""search_locations"":[2],""alter_occluders"":""110"",""ego_occluders"":""110""}","true","","","","","","","","","","","","","","","","","","",""
"","","","","","image-keyboard-response","19","153745","0.0-3.0-16.0","600dd1ea271cf06201979123","665500ab8938657b03fbdba8","665792264d8acc7211fce09f","366","stimuli/21101102.jpg"," ","","practrice_feedback","2","","","","","","","","","","","","","","","","","","","","",""
"","","","","","image-keyboard-response","20","154322","0.0-3.0-17.0","600dd1ea271cf06201979123","665500ab8938657b03fbdba8","665792264d8acc7211fce09f","571","stimuli/2110000.jpg","2","","prediction_practice","2","{""filepath"":""stimuli/2110000.jpg"",""ball_pos"":2,""ego_ball_visible"":true,""ego_can_infer"":true,""alter_ball_visible"":true,""alter_can_infer"":true,""collective_ball_visible"":true,""collective_can_infer"":true,""search_locations"":[2],""alter_occluders"":""110"",""ego_occluders"":""000""}","true","","","","","","","","","","","","","","","","","","",""
"","","","","","image-keyboard-response","21","154649","0.0-3.0-18.0","600dd1ea271cf06201979123","665500ab8938657b03fbdba8","665792264d8acc7211fce09f","326","stimuli/21100002.jpg"," ","","practrice_feedback","2","","","","","","","","","","","","","","","","","","","","",""
"","","","","","image-keyboard-response","22","156866","0.0-3.0-19.0","600dd1ea271cf06201979123","665500ab8938657b03fbdba8","665792264d8acc7211fce09f","2216","stimuli/2111011.jpg","2","","prediction_practice","1","{""filepath"":""stimuli/2111011.jpg"",""ball_pos"":2,""ego_ball_visible"":false,""ego_can_infer"":false,""alter_ball_visible"":false,""alter_can_infer"":false,""collective_ball_visible"":false,""collective_can_infer"":false,""search_locations"":[2,1,0],""alter_occluders"":""111"",""ego_occluders"":""011""}","false","","","","","","","","","","","","","","","","","","",""
"","","","","","image-keyboard-response","23","157674","0.0-3.0-20.0","600dd1ea271cf06201979123","665500ab8938657b03fbdba8","665792264d8acc7211fce09f","806","stimuli/21110111.jpg"," ","","practrice_feedback","2","","","","","","","","","","","","","","","","","","","","",""
"","","","","","html-button-response","24","212488","0.0-3.0-21.0","600dd1ea271cf06201979123","665500ab8938657b03fbdba8","665792264d8acc7211fce09f","54813","Now that you've had some practice, you'll be tested with a couple of easy trials. If you correctly predict Sam's choice, you'll move on to complete the experiment!","0","","","","","","","","","","","","","","","","","","","","","","","",""
"","","","","","image-keyboard-response","25","215833","0.0-3.0-22.0-0.0","600dd1ea271cf06201979123","665500ab8938657b03fbdba8","665792264d8acc7211fce09f","3340","stimuli/0000011.jpg","arrowleft","","comprehension_quiz","","","true","arrowleft","","","","","","","","","","","","","","","","","",""
"","","","","","image-keyboard-response","26","216177","0.0-3.0-22.0-1.0","600dd1ea271cf06201979123","665500ab8938657b03fbdba8","665792264d8acc7211fce09f","343","stimuli/00000110.jpg"," ","","comprehension_quiz","","","true"," ","","","","","","","","","","","","","","","","","",""
"","","","","","image-keyboard-response","27","217794","0.0-3.0-22.0-2.0","600dd1ea271cf06201979123","665500ab8938657b03fbdba8","665792264d8acc7211fce09f","1616","stimuli/1010010.jpg","arrowdown","","comprehension_quiz","","","true","arrowdown","","","","","","","","","","","","","","","","","",""
"","","","","","image-keyboard-response","28","218121","0.0-3.0-22.0-3.0","600dd1ea271cf06201979123","665500ab8938657b03fbdba8","665792264d8acc7211fce09f","326","stimuli/10100101.jpg"," ","","comprehension_quiz","","","true"," ","","","","","","","","","","","","","","","","","",""
"","","","","","html-button-response","29","221000","0.0-4.0","600dd1ea271cf06201979123","665500ab8938657b03fbdba8","665792264d8acc7211fce09f","2877","The experiment will now begin.","0","","","","","","","","","","","","","","","","","","","","","","","",""
"","","","","","image-keyboard-response","30","222602","0.0-5.0","600dd1ea271cf06201979123","665500ab8938657b03fbdba8","665792264d8acc7211fce09f","1598","stimuli/0000011.jpg","0","","prediction_trial","0","","true","","0","true","true","true","true","true","true","[0]","000","011","1","","","","","","",""
"","","","","","image-keyboard-response","31","222897","0.0-6.0","600dd1ea271cf06201979123","665500ab8938657b03fbdba8","665792264d8acc7211fce09f","294","stimuli/00000110.jpg"," ","","feedback_trial","0","","","","","","","","","","","","","","","","","","","","",""
"","","","","","image-keyboard-response","32","225210","0.0-7.0","600dd1ea271cf06201979123","665500ab8938657b03fbdba8","665792264d8acc7211fce09f","2312","stimuli/1010111.jpg","1","","prediction_trial","1","","true","","1","false","false","false","true","false","false","[1]","010","111","1","","","","","","",""
"","","","","","image-keyboard-response","33","226681","0.0-8.0","600dd1ea271cf06201979123","665500ab8938657b03fbdba8","665792264d8acc7211fce09f","1470","stimuli/10101111.jpg"," ","","feedback_trial","1","","","","","","","","","","","","","","","","","","","","",""
"","","","","","image-keyboard-response","34","227218","0.0-9.0","600dd1ea271cf06201979123","665500ab8938657b03fbdba8","665792264d8acc7211fce09f","531","stimuli/2001110.jpg","2","","prediction_trial","2","","true","","2","true","true","false","true","false","true","[2]","001","110","1","","","","","","",""
"","","","","","image-keyboard-response","35","227873","0.0-10.0","600dd1ea271cf06201979123","665500ab8938657b03fbdba8","665792264d8acc7211fce09f","654","stimuli/20011102.jpg"," ","","feedback_trial","2","","","","","","","","","","","","","","","","","","","","",""
"","","","","","image-keyboard-response","36","228778","0.0-11.0","600dd1ea271cf06201979123","665500ab8938657b03fbdba8","665792264d8acc7211fce09f","904","stimuli/0101000.jpg","0","","prediction_trial","0","","true","","0","true","true","false","false","false","false","[0,2]","101","000","1","","","","","","",""
"","","","","","image-keyboard-response","37","229129","0.0-12.0","600dd1ea271cf06201979123","665500ab8938657b03fbdba8","665792264d8acc7211fce09f","350","stimuli/01010000.jpg"," ","","feedback_trial","0","","","","","","","","","","","","","","","","","","","","",""
"","","","","","image-keyboard-response","38","229714","0.0-13.0","600dd1ea271cf06201979123","665500ab8938657b03fbdba8","665792264d8acc7211fce09f","579","stimuli/0010010.jpg","0","","prediction_trial","0","","true","","0","true","true","true","true","true","true","[0]","010","010","1","","","","","","",""
"","","","","","image-keyboard-response","39","230057","0.0-14.0","600dd1ea271cf06201979123","665500ab8938657b03fbdba8","665792264d8acc7211fce09f","342","stimuli/00100100.jpg"," ","","feedback_trial","0","","","","","","","","","","","","","","","","","","","","",""
"","","","","","image-keyboard-response","40","231066","0.0-15.0","600dd1ea271cf06201979123","665500ab8938657b03fbdba8","665792264d8acc7211fce09f","1008","stimuli/1101010.jpg","1","","prediction_trial","1","","true","","1","false","true","true","true","false","true","[1]","101","010","1","","","","","","",""
"","","","","","image-keyboard-response","41","231945","0.0-16.0","600dd1ea271cf06201979123","665500ab8938657b03fbdba8","665792264d8acc7211fce09f","878","stimuli/11010101.jpg"," ","","feedback_trial","1","","","","","","","","","","","","","","","","","","","","",""
"","","","","","image-keyboard-response","42","232714","0.0-17.0","600dd1ea271cf06201979123","665500ab8938657b03fbdba8","665792264d8acc7211fce09f","763","stimuli/0101100.jpg","0","","prediction_trial","2","","false","","0","false","true","false","false","false","false","[0,2]","101","100","0","","","","","","",""
"","","","","","image-keyboard-response","43","234289","0.0-18.0","600dd1ea271cf06201979123","665500ab8938657b03fbdba8","665792264d8acc7211fce09f","1574","stimuli/01011002.jpg"," ","","feedback_trial","0","","","","","","","","","","","","","","","","","","","","",""
"","","","","","image-keyboard-response","44","236162","0.0-19.0","600dd1ea271cf06201979123","665500ab8938657b03fbdba8","665792264d8acc7211fce09f","1872","stimuli/2000101.jpg","0","","prediction_trial","2","","false","","2","false","false","true","true","false","false","[2]","000","101","0","","","","","","",""
"","","","","","image-keyboard-response","45","236801","0.0-20.0","600dd1ea271cf06201979123","665500ab8938657b03fbdba8","665792264d8acc7211fce09f","638","stimuli/20001012.jpg"," ","","feedback_trial","2","","","","","","","","","","","","","","","","","","","","",""
"","","","","","image-keyboard-response","46","237530","0.0-21.0","600dd1ea271cf06201979123","665500ab8938657b03fbdba8","665792264d8acc7211fce09f","724","stimuli/1101000.jpg","1","","prediction_trial","1","","true","","1","true","true","true","true","true","true","[1]","101","000","1","","","","","","",""
"","","","","","image-keyboard-response","47","237841","0.0-22.0","600dd1ea271cf06201979123","665500ab8938657b03fbdba8","665792264d8acc7211fce09f","310","stimuli/11010001.jpg"," ","","feedback_trial","1","","","","","","","","","","","","","","","","","","","","",""
"","","","","","image-keyboard-response","48","238754","0.0-23.0","600dd1ea271cf06201979123","665500ab8938657b03fbdba8","665792264d8acc7211fce09f","912","stimuli/2111000.jpg","2","","prediction_trial","0","","false","","2","true","true","false","false","false","false","[2,1,0]","111","000","0","","","","","","",""
"","","","","","image-keyboard-response","49","239297","0.0-24.0","600dd1ea271cf06201979123","665500ab8938657b03fbdba8","665792264d8acc7211fce09f","542","stimuli/21110000.jpg"," ","","feedback_trial","2","","","","","","","","","","","","","","","","","","","","",""
"","","","","","image-keyboard-response","50","242049","0.0-25.0","600dd1ea271cf06201979123","665500ab8938657b03fbdba8","665792264d8acc7211fce09f","2746","stimuli/2100011.jpg","1","","prediction_trial","2","","false","","2","false","false","true","true","false","false","[2]","100","011","0","","","","","","",""
"","","","","","image-keyboard-response","51","242545","0.0-26.0","600dd1ea271cf06201979123","665500ab8938657b03fbdba8","665792264d8acc7211fce09f","495","stimuli/21000112.jpg"," ","","feedback_trial","2","","","","","","","","","","","","","","","","","","","","",""
"","","","","","image-keyboard-response","52","246266","0.0-27.0","600dd1ea271cf06201979123","665500ab8938657b03fbdba8","665792264d8acc7211fce09f","3720","stimuli/2010111.jpg","0","","prediction_trial","2","","false","","2","false","false","true","true","false","false","[2]","010","111","0","","","","","","",""
"","","","","","image-keyboard-response","53","246753","0.0-28.0","600dd1ea271cf06201979123","665500ab8938657b03fbdba8","665792264d8acc7211fce09f","486","stimuli/20101112.jpg"," ","","feedback_trial","2","","","","","","","","","","","","","","","","","","","","",""
"","","","","","image-keyboard-response","54","248138","0.0-29.0","600dd1ea271cf06201979123","665500ab8938657b03fbdba8","665792264d8acc7211fce09f","1379","stimuli/2111011.jpg","2","","prediction_trial","1","","false","","2","false","false","false","false","false","false","[2,1,0]","111","011","0","","","","","","",""
"","","","","","image-keyboard-response","55","248769","0.0-30.0","600dd1ea271cf06201979123","665500ab8938657b03fbdba8","665792264d8acc7211fce09f","630","stimuli/21110111.jpg"," ","","feedback_trial","2","","","","","","","","","","","","","","","","","","","","",""
"","","","","","image-keyboard-response","56","249874","0.0-31.0","600dd1ea271cf06201979123","665500ab8938657b03fbdba8","665792264d8acc7211fce09f","1104","stimuli/0110000.jpg","0","","prediction_trial","0","","true","","0","true","true","false","false","false","false","[0,1]","110","000","1","","","","","","",""
"","","","","","image-keyboard-response","57","250249","0.0-32.0","600dd1ea271cf06201979123","665500ab8938657b03fbdba8","665792264d8acc7211fce09f","374","stimuli/01100000.jpg"," ","","feedback_trial","0","","","","","","","","","","","","","","","","","","","","",""
"","","","","","image-keyboard-response","58","251738","0.0-33.0","600dd1ea271cf06201979123","665500ab8938657b03fbdba8","665792264d8acc7211fce09f","1483","stimuli/2110111.jpg","1","","prediction_trial","2","","false","","2","false","false","true","true","false","false","[2]","110","111","0","","","","","","",""
"","","","","","image-keyboard-response","59","252361","0.0-34.0","600dd1ea271cf06201979123","665500ab8938657b03fbdba8","665792264d8acc7211fce09f","622","stimuli/21101112.jpg"," ","","feedback_trial","2","","","","","","","","","","","","","","","","","","","","",""
"","","","","","image-keyboard-response","60","253106","0.0-35.0","600dd1ea271cf06201979123","665500ab8938657b03fbdba8","665792264d8acc7211fce09f","744","stimuli/1010000.jpg","1","","prediction_trial","1","","true","","1","true","true","false","true","false","true","[1]","010","000","1","","","","","","",""
"","","","","","image-keyboard-response","61","253473","0.0-36.0","600dd1ea271cf06201979123","665500ab8938657b03fbdba8","665792264d8acc7211fce09f","366","stimuli/10100001.jpg"," ","","feedback_trial","1","","","","","","","","","","","","","","","","","","","","",""
"","","","","","image-keyboard-response","62","254154","0.0-37.0","600dd1ea271cf06201979123","665500ab8938657b03fbdba8","665792264d8acc7211fce09f","680","stimuli/1001101.jpg","1","","prediction_trial","1","","true","","1","true","true","true","true","true","true","[1]","001","101","1","","","","","","",""
"","","","","","image-keyboard-response","63","254457","0.0-38.0","600dd1ea271cf06201979123","665500ab8938657b03fbdba8","665792264d8acc7211fce09f","302","stimuli/10011011.jpg"," ","","feedback_trial","1","","","","","","","","","","","","","","","","","","","","",""
"","","","","","image-keyboard-response","64","255042","0.0-39.0","600dd1ea271cf06201979123","665500ab8938657b03fbdba8","665792264d8acc7211fce09f","584","stimuli/0001001.jpg","0","","prediction_trial","0","","true","","0","true","true","true","true","true","true","[0]","001","001","1","","","","","","",""
"","","","","","image-keyboard-response","65","255345","0.0-40.0","600dd1ea271cf06201979123","665500ab8938657b03fbdba8","665792264d8acc7211fce09f","302","stimuli/00010010.jpg"," ","","feedback_trial","0","","","","","","","","","","","","","","","","","","","","",""
"","","","","","image-keyboard-response","66","255898","0.0-41.0","600dd1ea271cf06201979123","665500ab8938657b03fbdba8","665792264d8acc7211fce09f","547","stimuli/0010011.jpg","0","","prediction_trial","0","","true","","0","true","true","true","true","true","true","[0]","010","011","1","","","","","","",""
"","","","","","image-keyboard-response","67","256217","0.0-42.0","600dd1ea271cf06201979123","665500ab8938657b03fbdba8","665792264d8acc7211fce09f","318","stimuli/00100110.jpg"," ","","feedback_trial","0","","","","","","","","","","","","","","","","","","","","",""
"","","","","","image-keyboard-response","68","256770","0.0-43.0","600dd1ea271cf06201979123","665500ab8938657b03fbdba8","665792264d8acc7211fce09f","552","stimuli/0000000.jpg","0","","prediction_trial","0","","true","","0","true","true","true","true","true","true","[0]","000","000","1","","","","","","",""
"","","","","","image-keyboard-response","69","257113","0.0-44.0","600dd1ea271cf06201979123","665500ab8938657b03fbdba8","665792264d8acc7211fce09f","341","stimuli/00000000.jpg"," ","","feedback_trial","0","","","","","","","","","","","","","","","","","","","","",""
"","","","","","image-keyboard-response","70","258897","0.0-45.0","600dd1ea271cf06201979123","665500ab8938657b03fbdba8","665792264d8acc7211fce09f","1779","stimuli/1110101.jpg","0","","prediction_trial","1","","false","","1","true","true","false","false","false","false","[1,0]","110","101","0","","","","","","",""
"","","","","","image-keyboard-response","71","259433","0.0-46.0","600dd1ea271cf06201979123","665500ab8938657b03fbdba8","665792264d8acc7211fce09f","535","stimuli/11101011.jpg"," ","","feedback_trial","1","","","","","","","","","","","","","","","","","","","","",""
"","","","","","image-keyboard-response","72","260842","0.0-47.0","600dd1ea271cf06201979123","665500ab8938657b03fbdba8","665792264d8acc7211fce09f","1408","stimuli/1001001.jpg","1","","prediction_trial","1","","true","","1","true","true","true","true","true","true","[1]","001","001","1","","","","","","",""
"","","","","","image-keyboard-response","73","261193","0.0-48.0","600dd1ea271cf06201979123","665500ab8938657b03fbdba8","665792264d8acc7211fce09f","350","stimuli/10010011.jpg"," ","","feedback_trial","1","","","","","","","","","","","","","","","","","","","","",""
"","","","","","image-keyboard-response","74","262354","0.0-49.0","600dd1ea271cf06201979123","665500ab8938657b03fbdba8","665792264d8acc7211fce09f","1159","stimuli/0001100.jpg","0","","prediction_trial","0","","true","","0","false","true","true","true","false","true","[0]","001","100","1","","","","","","",""
"","","","","","image-keyboard-response","75","262673","0.0-50.0","600dd1ea271cf06201979123","665500ab8938657b03fbdba8","665792264d8acc7211fce09f","318","stimuli/00011000.jpg"," ","","feedback_trial","0","","","","","","","","","","","","","","","","","","","","",""
"","","","","","image-keyboard-response","76","263458","0.0-51.0","600dd1ea271cf06201979123","665500ab8938657b03fbdba8","665792264d8acc7211fce09f","784","stimuli/1001100.jpg","1","","prediction_trial","1","","true","","1","true","true","true","true","true","true","[1]","001","100","1","","","","","","",""
"","","","","","image-keyboard-response","77","263841","0.0-52.0","600dd1ea271cf06201979123","665500ab8938657b03fbdba8","665792264d8acc7211fce09f","382","stimuli/10011001.jpg"," ","","feedback_trial","1","","","","","","","","","","","","","","","","","","","","",""
"","","","","","image-keyboard-response","78","264985","0.0-53.0","600dd1ea271cf06201979123","665500ab8938657b03fbdba8","665792264d8acc7211fce09f","1139","stimuli/1000100.jpg","1","","prediction_trial","1","","true","","1","true","true","true","true","true","true","[1]","000","100","1","","","","","","",""
"","","","","","image-keyboard-response","79","265289","0.0-54.0","600dd1ea271cf06201979123","665500ab8938657b03fbdba8","665792264d8acc7211fce09f","303","stimuli/10001001.jpg"," ","","feedback_trial","1","","","","","","","","","","","","","","","","","","","","",""
"","","","","","image-keyboard-response","80","266530","0.0-55.0","600dd1ea271cf06201979123","665500ab8938657b03fbdba8","665792264d8acc7211fce09f","1240","stimuli/0100111.jpg","1","","prediction_trial","0","","false","","0","false","false","false","true","false","false","[0]","100","111","0","","","","","","",""
"","","","","","image-keyboard-response","81","267009","0.0-56.0","600dd1ea271cf06201979123","665500ab8938657b03fbdba8","665792264d8acc7211fce09f","478","stimuli/01001110.jpg"," ","","feedback_trial","0","","","","","","","","","","","","","","","","","","","","",""
"","","","","","image-keyboard-response","82","268410","0.0-57.0","600dd1ea271cf06201979123","665500ab8938657b03fbdba8","665792264d8acc7211fce09f","1395","stimuli/2001101.jpg","0","","prediction_trial","2","","false","","2","false","false","false","true","false","false","[2]","001","101","0","","","","","","",""
"","","","","","image-keyboard-response","83","268817","0.0-58.0","600dd1ea271cf06201979123","665500ab8938657b03fbdba8","665792264d8acc7211fce09f","406","stimuli/20011012.jpg"," ","","feedback_trial","2","","","","","","","","","","","","","","","","","","","","",""
"","","","","","image-keyboard-response","84","269530","0.0-59.0","600dd1ea271cf06201979123","665500ab8938657b03fbdba8","665792264d8acc7211fce09f","712","stimuli/0011001.jpg","0","","prediction_trial","0","","true","","0","true","true","true","true","true","true","[0]","011","001","1","","","","","","",""
"","","","","","image-keyboard-response","85","269817","0.0-60.0","600dd1ea271cf06201979123","665500ab8938657b03fbdba8","665792264d8acc7211fce09f","286","stimuli/00110010.jpg"," ","","feedback_trial","0","","","","","","","","","","","","","","","","","","","","",""
"","","","","","image-keyboard-response","86","270858","0.0-61.0","600dd1ea271cf06201979123","665500ab8938657b03fbdba8","665792264d8acc7211fce09f","1036","stimuli/1100010.jpg","1","","prediction_trial","1","","true","","1","false","true","true","true","false","true","[1]","100","010","1","","","","","","",""
"","","","","","image-keyboard-response","87","271161","0.0-62.0","600dd1ea271cf06201979123","665500ab8938657b03fbdba8","665792264d8acc7211fce09f","302","stimuli/11000101.jpg"," ","","feedback_trial","1","","","","","","","","","","","","","","","","","","","","",""
"","","","","","image-keyboard-response","88","271858","0.0-63.0","600dd1ea271cf06201979123","665500ab8938657b03fbdba8","665792264d8acc7211fce09f","696","stimuli/2001010.jpg","2","","prediction_trial","2","","true","","2","true","true","false","true","false","true","[2]","001","010","1","","","","","","",""
"","","","","","image-keyboard-response","89","272193","0.0-64.0","600dd1ea271cf06201979123","665500ab8938657b03fbdba8","665792264d8acc7211fce09f","334","stimuli/20010102.jpg"," ","","feedback_trial","2","","","","","","","","","","","","","","","","","","","","",""
"","","","","","image-keyboard-response","90","272994","0.0-65.0","600dd1ea271cf06201979123","665500ab8938657b03fbdba8","665792264d8acc7211fce09f","795","stimuli/0101001.jpg","0","","prediction_trial","0","","true","","0","true","true","false","false","false","false","[2,0]","101","001","1","","","","","","",""
"","","","","","image-keyboard-response","91","273625","0.0-66.0","600dd1ea271cf06201979123","665500ab8938657b03fbdba8","665792264d8acc7211fce09f","630","stimuli/01010010.jpg"," ","","feedback_trial","2","","","","","","","","","","","","","","","","","","","","",""
"","","","","","image-keyboard-response","92","275682","0.0-67.0","600dd1ea271cf06201979123","665500ab8938657b03fbdba8","665792264d8acc7211fce09f","2056","stimuli/2111111.jpg","1","","prediction_trial","2","","false","","2","false","false","false","false","false","false","[1,2,0]","111","111","0","","","","","","",""
"","","","","","image-keyboard-response","93","276057","0.0-68.0","600dd1ea271cf06201979123","665500ab8938657b03fbdba8","665792264d8acc7211fce09f","374","stimuli/21111112.jpg"," ","","feedback_trial","1","","","","","","","","","","","","","","","","","","","","",""
"","","","","","image-keyboard-response","94","276826","0.0-69.0","600dd1ea271cf06201979123","665500ab8938657b03fbdba8","665792264d8acc7211fce09f","763","stimuli/2100001.jpg","2","","prediction_trial","2","","true","","2","false","true","true","true","false","true","[2]","100","001","1","","","","","","",""
"","","","","","image-keyboard-response","95","277193","0.0-70.0","600dd1ea271cf06201979123","665500ab8938657b03fbdba8","665792264d8acc7211fce09f","366","stimuli/21000012.jpg"," ","","feedback_trial","2","","","","","","","","","","","","","","","","","","","","",""
"","","","","","image-keyboard-response","96","278722","0.0-71.0","600dd1ea271cf06201979123","665500ab8938657b03fbdba8","665792264d8acc7211fce09f","1528","stimuli/0010110.jpg","0","","prediction_trial","0","","true","","0","false","false","true","true","false","false","[0]","010","110","1","","","","","","",""
"","","","","","image-keyboard-response","97","279033","0.0-72.0","600dd1ea271cf06201979123","665500ab8938657b03fbdba8","665792264d8acc7211fce09f","310","stimuli/00101100.jpg"," ","","feedback_trial","0","","","","","","","","","","","","","","","","","","","","",""
"","","","","","image-keyboard-response","98","280090","0.0-73.0","600dd1ea271cf06201979123","665500ab8938657b03fbdba8","665792264d8acc7211fce09f","1051","stimuli/2111010.jpg","2","","prediction_trial","1","","false","","2","true","true","false","false","false","false","[0,2,1]","111","010","0","","","","","","",""
"","","","","","image-keyboard-response","99","280673","0.0-74.0","600dd1ea271cf06201979123","665500ab8938657b03fbdba8","665792264d8acc7211fce09f","582","stimuli/21110101.jpg"," ","","feedback_trial","0","","","","","","","","","","","","","","","","","","","","",""
"","","","","","image-keyboard-response","100","281290","0.0-75.0","600dd1ea271cf06201979123","665500ab8938657b03fbdba8","665792264d8acc7211fce09f","616","stimuli/1111000.jpg","1","","prediction_trial","0","","false","","1","true","true","false","false","false","false","[1,0,2]","111","000","0","","","","","","",""
"","","","","","image-keyboard-response","101","281665","0.0-76.0","600dd1ea271cf06201979123","665500ab8938657b03fbdba8","665792264d8acc7211fce09f","374","stimuli/11110000.jpg"," ","","feedback_trial","1","","","","","","","","","","","","","","","","","","","","",""
"","","","","","image-keyboard-response","102","282778","0.0-77.0","600dd1ea271cf06201979123","665500ab8938657b03fbdba8","665792264d8acc7211fce09f","1108","stimuli/0100100.jpg","0","","prediction_trial","0","","true","","0","false","true","false","true","false","true","[0]","100","100","1","","","","","","",""
"","","","","","image-keyboard-response","103","283049","0.0-78.0","600dd1ea271cf06201979123","665500ab8938657b03fbdba8","665792264d8acc7211fce09f","270","stimuli/01001000.jpg"," ","","feedback_trial","0","","","","","","","","","","","","","","","","","","","","",""
"","","","","","image-keyboard-response","104","283594","0.0-79.0","600dd1ea271cf06201979123","665500ab8938657b03fbdba8","665792264d8acc7211fce09f","544","stimuli/0010000.jpg","0","","prediction_trial","0","","true","","0","true","true","true","true","true","true","[0]","010","000","1","","","","","","",""
"","","","","","image-keyboard-response","105","283897","0.0-80.0","600dd1ea271cf06201979123","665500ab8938657b03fbdba8","665792264d8acc7211fce09f","301","stimuli/00100000.jpg"," ","","feedback_trial","0","","","","","","","","","","","","","","","","","","","","",""
"","","","","","image-keyboard-response","106","285114","0.0-81.0","600dd1ea271cf06201979123","665500ab8938657b03fbdba8","665792264d8acc7211fce09f","1212","stimuli/1100011.jpg","1","","prediction_trial","1","","true","","1","false","false","true","true","false","false","[1]","100","011","1","","","","","","",""
"","","","","","image-keyboard-response","107","285457","0.0-82.0","600dd1ea271cf06201979123","665500ab8938657b03fbdba8","665792264d8acc7211fce09f","341","stimuli/11000111.jpg"," ","","feedback_trial","1","","","","","","","","","","","","","","","","","","","","",""
"","","","","","image-keyboard-response","108","286650","0.0-83.0","600dd1ea271cf06201979123","665500ab8938657b03fbdba8","665792264d8acc7211fce09f","1192","stimuli/1011001.jpg","2","","prediction_trial","2","","true","","1","true","true","false","false","false","false","[2,1]","011","001","1","","","","","","",""
"","","","","","image-keyboard-response","109","287033","0.0-84.0","600dd1ea271cf06201979123","665500ab8938657b03fbdba8","665792264d8acc7211fce09f","382","stimuli/10110012.jpg"," ","","feedback_trial","2","","","","","","","","","","","","","","","","","","","","",""
"","","","","","image-keyboard-response","110","289002","0.0-85.0","600dd1ea271cf06201979123","665500ab8938657b03fbdba8","665792264d8acc7211fce09f","1964","stimuli/0111100.jpg","2","","prediction_trial","1","","false","","0","false","true","false","false","false","false","[1,0,2]","111","100","0","","","","","","",""
"","","","","","image-keyboard-response","111","289425","0.0-86.0","600dd1ea271cf06201979123","665500ab8938657b03fbdba8","665792264d8acc7211fce09f","422","stimuli/01111001.jpg"," ","","feedback_trial","1","","","","","","","","","","","","","","","","","","","","",""
"","","","","","image-keyboard-response","112","290257","0.0-87.0","600dd1ea271cf06201979123","665500ab8938657b03fbdba8","665792264d8acc7211fce09f","832","stimuli/2011001.jpg","2","","prediction_trial","1","","false","","2","false","true","false","false","false","false","[2,1]","011","001","0","","","","","","",""
"","","","","","image-keyboard-response","113","290705","0.0-88.0","600dd1ea271cf06201979123","665500ab8938657b03fbdba8","665792264d8acc7211fce09f","446","stimuli/20110011.jpg"," ","","feedback_trial","2","","","","","","","","","","","","","","","","","","","","",""
"","","","","","image-keyboard-response","114","291345","0.0-89.0","600dd1ea271cf06201979123","665500ab8938657b03fbdba8","665792264d8acc7211fce09f","635","stimuli/1111100.jpg","1","","prediction_trial","2","","false","","1","true","true","false","false","false","false","[2,1,0]","111","100","0","","","","","","",""
"","","","","","image-keyboard-response","115","291697","0.0-90.0","600dd1ea271cf06201979123","665500ab8938657b03fbdba8","665792264d8acc7211fce09f","350","stimuli/11111002.jpg"," ","","feedback_trial","2","","","","","","","","","","","","","","","","","","","","",""
"","","","","","image-keyboard-response","116","293722","0.0-91.0","600dd1ea271cf06201979123","665500ab8938657b03fbdba8","665792264d8acc7211fce09f","2024","stimuli/1010011.jpg","1","","prediction_trial","1","","true","","1","false","false","false","true","false","false","[1]","010","011","1","","","","","","",""
"","","","","","image-keyboard-response","117","294137","0.0-92.0","600dd1ea271cf06201979123","665500ab8938657b03fbdba8","665792264d8acc7211fce09f","414","stimuli/10100111.jpg"," ","","feedback_trial","1","","","","","","","","","","","","","","","","","","","","",""
"","","","","","image-keyboard-response","118","295130","0.0-93.0","600dd1ea271cf06201979123","665500ab8938657b03fbdba8","665792264d8acc7211fce09f","987","stimuli/2000001.jpg","2","","prediction_trial","2","","true","","2","false","true","true","true","false","true","[2]","000","001","1","","","","","","",""
"","","","","","image-keyboard-response","119","295464","0.0-94.0","600dd1ea271cf06201979123","665500ab8938657b03fbdba8","665792264d8acc7211fce09f","334","stimuli/20000012.jpg"," ","","feedback_trial","2","","","","","","","","","","","","","","","","","","","","",""
"","","","","","image-keyboard-response","120","296529","0.0-95.0","600dd1ea271cf06201979123","665500ab8938657b03fbdba8","665792264d8acc7211fce09f","1064","stimuli/2101101.jpg","2","","prediction_trial","2","","true","","2","false","false","false","false","false","false","[0,2]","101","101","1","","","","","","",""
"","","","","","image-keyboard-response","121","296881","0.0-96.0","600dd1ea271cf06201979123","665500ab8938657b03fbdba8","665792264d8acc7211fce09f","350","stimuli/21011012.jpg"," ","","feedback_trial","0","","","","","","","","","","","","","","","","","","","","",""
"","","","","","image-keyboard-response","122","297601","0.0-97.0","600dd1ea271cf06201979123","665500ab8938657b03fbdba8","665792264d8acc7211fce09f","715","stimuli/2000010.jpg","2","","prediction_trial","2","","true","","2","true","true","true","true","true","true","[2]","000","010","1","","","","","","",""
"","","","","","image-keyboard-response","123","297921","0.0-98.0","600dd1ea271cf06201979123","665500ab8938657b03fbdba8","665792264d8acc7211fce09f","318","stimuli/20000102.jpg"," ","","feedback_trial","2","","","","","","","","","","","","","","","","","","","","",""
"","","","","","image-keyboard-response","124","298913","0.0-99.0","600dd1ea271cf06201979123","665500ab8938657b03fbdba8","665792264d8acc7211fce09f","992","stimuli/1000111.jpg","1","","prediction_trial","1","","true","","1","false","false","true","true","false","false","[1]","000","111","1","","","","","","",""
"","","","","","image-keyboard-response","125","299321","0.0-100.0","600dd1ea271cf06201979123","665500ab8938657b03fbdba8","665792264d8acc7211fce09f","406","stimuli/10001111.jpg"," ","","feedback_trial","1","","","","","","","","","","","","","","","","","","","","",""
"","","","","","image-keyboard-response","126","300186","0.0-101.0","600dd1ea271cf06201979123","665500ab8938657b03fbdba8","665792264d8acc7211fce09f","859","stimuli/0101010.jpg","0","","prediction_trial","0","","true","","0","true","true","false","false","false","false","[2,0]","101","010","1","","","","","","",""
"","","","","","image-keyboard-response","127","300560","0.0-102.0","600dd1ea271cf06201979123","665500ab8938657b03fbdba8","665792264d8acc7211fce09f","374","stimuli/01010100.jpg"," ","","feedback_trial","2","","","","","","","","","","","","","","","","","","","","",""
"","","","","","image-keyboard-response","128","302161","0.0-103.0","600dd1ea271cf06201979123","665500ab8938657b03fbdba8","665792264d8acc7211fce09f","1599","stimuli/0011110.jpg","0","","prediction_trial","0","","true","","0","false","false","true","true","false","false","[0]","011","110","1","","","","","","",""
"","","","","","image-keyboard-response","129","302552","0.0-104.0","600dd1ea271cf06201979123","665500ab8938657b03fbdba8","665792264d8acc7211fce09f","391","stimuli/00111100.jpg"," ","","feedback_trial","0","","","","","","","","","","","","","","","","","","","","",""
"","","","","","image-keyboard-response","130","303449","0.0-105.0","600dd1ea271cf06201979123","665500ab8938657b03fbdba8","665792264d8acc7211fce09f","892","stimuli/2111001.jpg","2","","prediction_trial","1","","false","","2","false","true","false","false","false","false","[1,2,0]","111","001","0","","","","","","",""
"","","","","","image-keyboard-response","131","303864","0.0-106.0","600dd1ea271cf06201979123","665500ab8938657b03fbdba8","665792264d8acc7211fce09f","414","stimuli/21110011.jpg"," ","","feedback_trial","1","","","","","","","","","","","","","","","","","","","","",""
"","","","","","image-keyboard-response","132","305762","0.0-107.0","600dd1ea271cf06201979123","665500ab8938657b03fbdba8","665792264d8acc7211fce09f","1896","stimuli/2001111.jpg","1","","prediction_trial","2","","false","","2","false","false","false","true","false","false","[2]","001","111","0","","","","","","",""
"","","","","","image-keyboard-response","133","306225","0.0-108.0","600dd1ea271cf06201979123","665500ab8938657b03fbdba8","665792264d8acc7211fce09f","462","stimuli/20011112.jpg"," ","","feedback_trial","2","","","","","","","","","","","","","","","","","","","","",""
"","","","","","image-keyboard-response","134","307921","0.0-109.0","600dd1ea271cf06201979123","665500ab8938657b03fbdba8","665792264d8acc7211fce09f","1695","stimuli/2010011.jpg","2","","prediction_trial","2","","true","","2","false","false","true","true","false","false","[2]","010","011","1","","","","","","",""
"","","","","","image-keyboard-response","135","308288","0.0-110.0","600dd1ea271cf06201979123","665500ab8938657b03fbdba8","665792264d8acc7211fce09f","366","stimuli/20100112.jpg"," ","","feedback_trial","2","","","","","","","","","","","","","","","","","","","","",""
"","","","","","image-keyboard-response","136","308993","0.0-111.0","600dd1ea271cf06201979123","665500ab8938657b03fbdba8","665792264d8acc7211fce09f","704","stimuli/0000001.jpg","0","","prediction_trial","0","","true","","0","true","true","true","true","true","true","[0]","000","001","1","","","","","","",""
"","","","","","image-keyboard-response","137","309313","0.0-112.0","600dd1ea271cf06201979123","665500ab8938657b03fbdba8","665792264d8acc7211fce09f","318","stimuli/00000010.jpg"," ","","feedback_trial","0","","","","","","","","","","","","","","","","","","","","",""
"","","","","","image-keyboard-response","138","309858","0.0-113.0","600dd1ea271cf06201979123","665500ab8938657b03fbdba8","665792264d8acc7211fce09f","540","stimuli/0011011.jpg","0","","prediction_trial","0","","true","","0","true","true","true","true","true","true","[0]","011","011","1","","","","","","",""
"","","","","","image-keyboard-response","139","310184","0.0-114.0","600dd1ea271cf06201979123","665500ab8938657b03fbdba8","665792264d8acc7211fce09f","326","stimuli/00110110.jpg"," ","","feedback_trial","0","","","","","","","","","","","","","","","","","","","","",""
"","","","","","image-keyboard-response","140","311249","0.0-115.0","600dd1ea271cf06201979123","665500ab8938657b03fbdba8","665792264d8acc7211fce09f","1064","stimuli/2101011.jpg","1","","prediction_trial","0","","false","","2","false","false","false","false","false","false","[0,2]","101","011","0","","","","","","",""
"","","","","","image-keyboard-response","141","311688","0.0-116.0","600dd1ea271cf06201979123","665500ab8938657b03fbdba8","665792264d8acc7211fce09f","438","stimuli/21010110.jpg"," ","","feedback_trial","0","","","","","","","","","","","","","","","","","","","","",""
"","","","","","image-keyboard-response","142","313505","0.0-117.0","600dd1ea271cf06201979123","665500ab8938657b03fbdba8","665792264d8acc7211fce09f","1811","stimuli/0111101.jpg","2","","prediction_trial","1","","false","","0","false","false","false","false","false","false","[2,0,1]","111","101","0","","","","","","",""
"","","","","","image-keyboard-response","143","313881","0.0-118.0","600dd1ea271cf06201979123","665500ab8938657b03fbdba8","665792264d8acc7211fce09f","374","stimuli/01111011.jpg"," ","","feedback_trial","2","","","","","","","","","","","","","","","","","","","","",""
"","","","","","image-keyboard-response","144","314754","0.0-119.0","600dd1ea271cf06201979123","665500ab8938657b03fbdba8","665792264d8acc7211fce09f","872","stimuli/2010101.jpg","2","","prediction_trial","2","","true","","2","false","false","true","true","false","false","[2]","010","101","1","","","","","","",""
"","","","","","image-keyboard-response","145","315152","0.0-120.0","600dd1ea271cf06201979123","665500ab8938657b03fbdba8","665792264d8acc7211fce09f","398","stimuli/20101012.jpg"," ","","feedback_trial","2","","","","","","","","","","","","","","","","","","","","",""
"","","","","","image-keyboard-response","146","316401","0.0-121.0","600dd1ea271cf06201979123","665500ab8938657b03fbdba8","665792264d8acc7211fce09f","1244","stimuli/1001110.jpg","1","","prediction_trial","1","","true","","1","false","false","true","true","false","false","[1]","001","110","1","","","","","","",""
"","","","","","image-keyboard-response","147","316680","0.0-122.0","600dd1ea271cf06201979123","665500ab8938657b03fbdba8","665792264d8acc7211fce09f","278","stimuli/10011101.jpg"," ","","feedback_trial","1","","","","","","","","","","","","","","","","","","","","",""
"","","","","","image-keyboard-response","148","319401","0.0-123.0","600dd1ea271cf06201979123","665500ab8938657b03fbdba8","665792264d8acc7211fce09f","2720","stimuli/0101011.jpg","0","","prediction_trial","2","","false","","0","true","true","false","false","false","false","[2,0]","101","011","0","","","","","","",""
"","","","","","image-keyboard-response","149","319760","0.0-124.0","600dd1ea271cf06201979123","665500ab8938657b03fbdba8","665792264d8acc7211fce09f","358","stimuli/01010112.jpg"," ","","feedback_trial","2","","","","","","","","","","","","","","","","","","","","",""
"","","","","","image-keyboard-response","150","320569","0.0-125.0","600dd1ea271cf06201979123","665500ab8938657b03fbdba8","665792264d8acc7211fce09f","802","stimuli/2100010.jpg","2","","prediction_trial","2","","true","","2","true","true","true","true","true","true","[2]","100","010","1","","","","","","",""
"","","","","","image-keyboard-response","151","320904","0.0-126.0","600dd1ea271cf06201979123","665500ab8938657b03fbdba8","665792264d8acc7211fce09f","334","stimuli/21000102.jpg"," ","","feedback_trial","2","","","","","","","","","","","","","","","","","","","","",""
"","","","","","image-keyboard-response","152","322633","0.0-127.0","600dd1ea271cf06201979123","665500ab8938657b03fbdba8","665792264d8acc7211fce09f","1728","stimuli/1111101.jpg","1","","prediction_trial","1","","true","","1","true","true","false","false","false","false","[1,2,0]","111","101","1","","","","","","",""
"","","","","","image-keyboard-response","153","323088","0.0-128.0","600dd1ea271cf06201979123","665500ab8938657b03fbdba8","665792264d8acc7211fce09f","454","stimuli/11111011.jpg"," ","","feedback_trial","1","","","","","","","","","","","","","","","","","","","","",""
"","","","","","image-keyboard-response","154","324568","0.0-129.0","600dd1ea271cf06201979123","665500ab8938657b03fbdba8","665792264d8acc7211fce09f","1475","stimuli/1000011.jpg","1","","prediction_trial","1","","true","","1","false","false","true","true","false","false","[1]","000","011","1","","","","","","",""
"","","","","","image-keyboard-response","155","324976","0.0-130.0","600dd1ea271cf06201979123","665500ab8938657b03fbdba8","665792264d8acc7211fce09f","407","stimuli/10000111.jpg"," ","","feedback_trial","1","","","","","","","","","","","","","","","","","","","","",""
"","","","","","image-keyboard-response","156","326697","0.0-131.0","600dd1ea271cf06201979123","665500ab8938657b03fbdba8","665792264d8acc7211fce09f","1720","stimuli/0100010.jpg","0","","prediction_trial","0","","true","","0","true","true","false","true","false","true","[0]","100","010","1","","","","","","",""
"","","","","","image-keyboard-response","157","327129","0.0-132.0","600dd1ea271cf06201979123","665500ab8938657b03fbdba8","665792264d8acc7211fce09f","430","stimuli/01000100.jpg"," ","","feedback_trial","0","","","","","","","","","","","","","","","","","","","","",""
"","","","","","image-keyboard-response","158","328113","0.0-133.0","600dd1ea271cf06201979123","665500ab8938657b03fbdba8","665792264d8acc7211fce09f","983","stimuli/0010101.jpg","2","","prediction_trial","0","","false","","0","false","false","true","true","false","false","[0]","010","101","0","","","","","","",""
"","","","","","image-keyboard-response","159","328536","0.0-134.0","600dd1ea271cf06201979123","665500ab8938657b03fbdba8","665792264d8acc7211fce09f","422","stimuli/00101010.jpg"," ","","feedback_trial","0","","","","","","","","","","","","","","","","","","","","",""
"","","","","","image-keyboard-response","160","329233","0.0-135.0","600dd1ea271cf06201979123","665500ab8938657b03fbdba8","665792264d8acc7211fce09f","696","stimuli/1100000.jpg","1","","prediction_trial","1","","true","","1","true","true","true","true","true","true","[1]","100","000","1","","","","","","",""
"","","","","","image-keyboard-response","161","329616","0.0-136.0","600dd1ea271cf06201979123","665500ab8938657b03fbdba8","665792264d8acc7211fce09f","382","stimuli/11000001.jpg"," ","","feedback_trial","1","","","","","","","","","","","","","","","","","","","","",""
"","","","","","image-keyboard-response","162","330257","0.0-137.0","600dd1ea271cf06201979123","665500ab8938657b03fbdba8","665792264d8acc7211fce09f","636","stimuli/2010110.jpg","2","","prediction_trial","2","","true","","2","true","true","true","true","true","true","[2]","010","110","1","","","","","","",""
"","","","","","image-keyboard-response","163","330640","0.0-138.0","600dd1ea271cf06201979123","665500ab8938657b03fbdba8","665792264d8acc7211fce09f","382","stimuli/20101102.jpg"," ","","feedback_trial","2","","","","","","","","","","","","","","","","","","","","",""
"","","","","","image-keyboard-response","164","331825","0.0-139.0","600dd1ea271cf06201979123","665500ab8938657b03fbdba8","665792264d8acc7211fce09f","1183","stimuli/2100111.jpg","1","","prediction_trial","2","","false","","2","false","false","true","true","false","false","[2]","100","111","0","","","","","","",""
"","","","","","image-keyboard-response","165","332424","0.0-140.0","600dd1ea271cf06201979123","665500ab8938657b03fbdba8","665792264d8acc7211fce09f","598","stimuli/21001112.jpg"," ","","feedback_trial","2","","","","","","","","","","","","","","","","","","","","",""
"","","","","","image-keyboard-response","166","334209","0.0-141.0","600dd1ea271cf06201979123","665500ab8938657b03fbdba8","665792264d8acc7211fce09f","1779","stimuli/1111110.jpg","0","","prediction_trial","0","","true","","1","false","false","false","false","false","false","[2,1,0]","111","110","1","","","","","","",""
"","","","","","image-keyboard-response","167","334648","0.0-142.0","600dd1ea271cf06201979123","665500ab8938657b03fbdba8","665792264d8acc7211fce09f","438","stimuli/11111100.jpg"," ","","feedback_trial","2","","","","","","","","","","","","","","","","","","","","",""
"","","","","","image-keyboard-response","168","335401","0.0-143.0","600dd1ea271cf06201979123","665500ab8938657b03fbdba8","665792264d8acc7211fce09f","752","stimuli/2110100.jpg","2","","prediction_trial","2","","true","","2","true","true","true","true","true","true","[2]","110","100","1","","","","","","",""
"","","","","","image-keyboard-response","169","335752","0.0-144.0","600dd1ea271cf06201979123","665500ab8938657b03fbdba8","665792264d8acc7211fce09f","350","stimuli/21101002.jpg"," ","","feedback_trial","2","","","","","","","","","","","","","","","","","","","","",""
"","","","","","image-keyboard-response","170","336409","0.0-145.0","600dd1ea271cf06201979123","665500ab8938657b03fbdba8","665792264d8acc7211fce09f","651","stimuli/2000000.jpg","2","","prediction_trial","2","","true","","2","true","true","true","true","true","true","[2]","000","000","1","","","","","","",""
"","","","","","image-keyboard-response","171","336744","0.0-146.0","600dd1ea271cf06201979123","665500ab8938657b03fbdba8","665792264d8acc7211fce09f","334","stimuli/20000002.jpg"," ","","feedback_trial","2","","","","","","","","","","","","","","","","","","","","",""
"","","","","","image-keyboard-response","172","338569","0.0-147.0","600dd1ea271cf06201979123","665500ab8938657b03fbdba8","665792264d8acc7211fce09f","1824","stimuli/2001011.jpg","1","","prediction_trial","2","","false","","2","false","false","false","true","false","false","[2]","001","011","0","","","","","","",""
"","","","","","image-keyboard-response","173","339016","0.0-148.0","600dd1ea271cf06201979123","665500ab8938657b03fbdba8","665792264d8acc7211fce09f","446","stimuli/20010112.jpg"," ","","feedback_trial","2","","","","","","","","","","","","","","","","","","","","",""
"","","","","","image-keyboard-response","174","341232","0.0-149.0","600dd1ea271cf06201979123","665500ab8938657b03fbdba8","665792264d8acc7211fce09f","2214","stimuli/0110111.jpg","1","","prediction_trial","1","","true","","0","false","false","false","false","false","false","[0,1]","110","111","1","","","","","","",""
"","","","","","image-keyboard-response","175","341592","0.0-150.0","600dd1ea271cf06201979123","665500ab8938657b03fbdba8","665792264d8acc7211fce09f","360","stimuli/01101111.jpg"," ","","feedback_trial","0","","","","","","","","","","","","","","","","","","","","",""
"","","","","","image-keyboard-response","176","342433","0.0-151.0","600dd1ea271cf06201979123","665500ab8938657b03fbdba8","665792264d8acc7211fce09f","840","stimuli/1110001.jpg","1","","prediction_trial","0","","false","","1","true","true","false","false","false","false","[0,1]","110","001","0","","","","","","",""
"","","","","","image-keyboard-response","177","343024","0.0-152.0","600dd1ea271cf06201979123","665500ab8938657b03fbdba8","665792264d8acc7211fce09f","590","stimuli/11100010.jpg"," ","","feedback_trial","0","","","","","","","","","","","","","","","","","","","","",""
"","","","","","image-keyboard-response","178","343505","0.0-153.0","600dd1ea271cf06201979123","665500ab8938657b03fbdba8","665792264d8acc7211fce09f","479","stimuli/1100110.jpg","1","","prediction_trial","1","","true","","1","false","false","true","true","false","false","[1]","100","110","1","","","","","","",""
"","","","","","image-keyboard-response","179","343969","0.0-154.0","600dd1ea271cf06201979123","665500ab8938657b03fbdba8","665792264d8acc7211fce09f","462","stimuli/11001101.jpg"," ","","feedback_trial","1","","","","","","","","","","","","","","","","","","","","",""
"","","","","","image-keyboard-response","180","344657","0.0-155.0","600dd1ea271cf06201979123","665500ab8938657b03fbdba8","665792264d8acc7211fce09f","687","stimuli/0110001.jpg","0","","prediction_trial","1","","false","","0","true","true","false","false","false","false","[1,0]","110","001","0","","","","","","",""
"","","","","","image-keyboard-response","181","345016","0.0-156.0","600dd1ea271cf06201979123","665500ab8938657b03fbdba8","665792264d8acc7211fce09f","358","stimuli/01100011.jpg"," ","","feedback_trial","1","","","","","","","","","","","","","","","","","","","","",""
"","","","","","image-keyboard-response","182","347064","0.0-157.0","600dd1ea271cf06201979123","665500ab8938657b03fbdba8","665792264d8acc7211fce09f","2043","stimuli/1001111.jpg","2","","prediction_trial","1","","false","","1","false","false","true","true","false","false","[1]","001","111","0","","","","","","",""
"","","","","","image-keyboard-response","183","347448","0.0-158.0","600dd1ea271cf06201979123","665500ab8938657b03fbdba8","665792264d8acc7211fce09f","383","stimuli/10011111.jpg"," ","","feedback_trial","1","","","","","","","","","","","","","","","","","","","","",""
"","","","","","image-keyboard-response","184","349073","0.0-159.0","600dd1ea271cf06201979123","665500ab8938657b03fbdba8","665792264d8acc7211fce09f","1624","stimuli/0101110.jpg","0","","prediction_trial","2","","false","","0","false","false","false","false","false","false","[2,0]","101","110","0","","","","","","",""
"","","","","","image-keyboard-response","185","349416","0.0-160.0","600dd1ea271cf06201979123","665500ab8938657b03fbdba8","665792264d8acc7211fce09f","342","stimuli/01011102.jpg"," ","","feedback_trial","2","","","","","","","","","","","","","","","","","","","","",""
"","","","","","image-keyboard-response","186","350313","0.0-161.0","600dd1ea271cf06201979123","665500ab8938657b03fbdba8","665792264d8acc7211fce09f","891","stimuli/1110111.jpg","1","","prediction_trial","0","","false","","1","false","false","false","false","false","false","[1,0]","110","111","0","","","","","","",""
"","","","","","image-keyboard-response","187","350744","0.0-162.0","600dd1ea271cf06201979123","665500ab8938657b03fbdba8","665792264d8acc7211fce09f","430","stimuli/11101110.jpg"," ","","feedback_trial","1","","","","","","","","","","","","","","","","","","","","",""
"","","","","","image-keyboard-response","188","351737","0.0-163.0","600dd1ea271cf06201979123","665500ab8938657b03fbdba8","665792264d8acc7211fce09f","992","stimuli/0101111.jpg","1","","prediction_trial","2","","false","","0","false","false","false","false","false","false","[2,0]","101","111","0","","","","","","",""
"","","","","","image-keyboard-response","189","352160","0.0-164.0","600dd1ea271cf06201979123","665500ab8938657b03fbdba8","665792264d8acc7211fce09f","422","stimuli/01011112.jpg"," ","","feedback_trial","2","","","","","","","","","","","","","","","","","","","","",""
"","","","","","image-keyboard-response","190","353097","0.0-165.0","600dd1ea271cf06201979123","665500ab8938657b03fbdba8","665792264d8acc7211fce09f","935","stimuli/0010100.jpg","0","","prediction_trial","0","","true","","0","false","true","true","true","false","true","[0]","010","100","1","","","","","","",""
"","","","","","image-keyboard-response","191","353472","0.0-166.0","600dd1ea271cf06201979123","665500ab8938657b03fbdba8","665792264d8acc7211fce09f","374","stimuli/00101000.jpg"," ","","feedback_trial","0","","","","","","","","","","","","","","","","","","","","",""
"","","","","","image-keyboard-response","192","354896","0.0-167.0","600dd1ea271cf06201979123","665500ab8938657b03fbdba8","665792264d8acc7211fce09f","1423","stimuli/0000111.jpg","0","","prediction_trial","0","","true","","0","false","false","true","true","false","false","[0]","000","111","1","","","","","","",""
"","","","","","image-keyboard-response","193","355264","0.0-168.0","600dd1ea271cf06201979123","665500ab8938657b03fbdba8","665792264d8acc7211fce09f","367","stimuli/00001110.jpg"," ","","feedback_trial","0","","","","","","","","","","","","","","","","","","","","",""
"","","","","","image-keyboard-response","194","356353","0.0-169.0","600dd1ea271cf06201979123","665500ab8938657b03fbdba8","665792264d8acc7211fce09f","1087","stimuli/2101100.jpg","2","","prediction_trial","2","","true","","2","true","true","false","false","false","false","[2,0]","101","100","1","","","","","","",""
"","","","","","image-keyboard-response","195","356704","0.0-170.0","600dd1ea271cf06201979123","665500ab8938657b03fbdba8","665792264d8acc7211fce09f","350","stimuli/21011002.jpg"," ","","feedback_trial","2","","","","","","","","","","","","","","","","","","","","",""
"","","","","","image-keyboard-response","196","357409","0.0-171.0","600dd1ea271cf06201979123","665500ab8938657b03fbdba8","665792264d8acc7211fce09f","704","stimuli/2101000.jpg","2","","prediction_trial","2","","true","","2","true","true","false","false","false","false","[0,2]","101","000","1","","","","","","",""
"","","","","","image-keyboard-response","197","357800","0.0-172.0","600dd1ea271cf06201979123","665500ab8938657b03fbdba8","665792264d8acc7211fce09f","390","stimuli/21010002.jpg"," ","","feedback_trial","0","","","","","","","","","","","","","","","","","","","","",""
"","","","","","image-keyboard-response","198","358665","0.0-173.0","600dd1ea271cf06201979123","665500ab8938657b03fbdba8","665792264d8acc7211fce09f","860","stimuli/1110000.jpg","1","","prediction_trial","0","","false","","1","true","true","false","false","false","false","[0,1]","110","000","0","","","","","","",""
"","","","","","image-keyboard-response","199","359000","0.0-174.0","600dd1ea271cf06201979123","665500ab8938657b03fbdba8","665792264d8acc7211fce09f","334","stimuli/11100000.jpg"," ","","feedback_trial","0","","","","","","","","","","","","","","","","","","","","",""
"","","","","","image-keyboard-response","200","360665","0.0-175.0","600dd1ea271cf06201979123","665500ab8938657b03fbdba8","665792264d8acc7211fce09f","1664","stimuli/1110110.jpg","1","","prediction_trial","0","","false","","1","false","false","false","false","false","false","[0,1]","110","110","0","","","","","","",""
"","","","","","image-keyboard-response","201","360992","0.0-176.0","600dd1ea271cf06201979123","665500ab8938657b03fbdba8","665792264d8acc7211fce09f","326","stimuli/11101100.jpg"," ","","feedback_trial","0","","","","","","","","","","","","","","","","","","","","",""
"","","","","","image-keyboard-response","202","362665","0.0-177.0","600dd1ea271cf06201979123","665500ab8938657b03fbdba8","665792264d8acc7211fce09f","1672","stimuli/0001110.jpg","0","","prediction_trial","0","","true","","0","false","false","true","true","false","false","[0]","001","110","1","","","","","","",""
"","","","","","image-keyboard-response","203","363040","0.0-178.0","600dd1ea271cf06201979123","665500ab8938657b03fbdba8","665792264d8acc7211fce09f","374","stimuli/00011100.jpg"," ","","feedback_trial","0","","","","","","","","","","","","","","","","","","","","",""
"","","","","","image-keyboard-response","204","364104","0.0-179.0","600dd1ea271cf06201979123","665500ab8938657b03fbdba8","665792264d8acc7211fce09f","1063","stimuli/0100101.jpg","2","","prediction_trial","0","","false","","0","false","false","false","true","false","false","[0]","100","101","0","","","","","","",""
"","","","","","image-keyboard-response","205","364496","0.0-180.0","600dd1ea271cf06201979123","665500ab8938657b03fbdba8","665792264d8acc7211fce09f","391","stimuli/01001010.jpg"," ","","feedback_trial","0","","","","","","","","","","","","","","","","","","","","",""
"","","","","","image-keyboard-response","206","366024","0.0-181.0","600dd1ea271cf06201979123","665500ab8938657b03fbdba8","665792264d8acc7211fce09f","1527","stimuli/1001000.jpg","1","","prediction_trial","1","","true","","1","true","true","true","true","true","true","[1]","001","000","1","","","","","","",""
"","","","","","image-keyboard-response","207","366368","0.0-182.0","600dd1ea271cf06201979123","665500ab8938657b03fbdba8","665792264d8acc7211fce09f","343","stimuli/10010001.jpg"," ","","feedback_trial","1","","","","","","","","","","","","","","","","","","","","",""
"","","","","","image-keyboard-response","208","368024","0.0-183.0","600dd1ea271cf06201979123","665500ab8938657b03fbdba8","665792264d8acc7211fce09f","1655","stimuli/1001010.jpg","1","","prediction_trial","1","","true","","1","false","true","true","true","false","true","[1]","001","010","1","","","","","","",""
"","","","","","image-keyboard-response","209","368360","0.0-184.0","600dd1ea271cf06201979123","665500ab8938657b03fbdba8","665792264d8acc7211fce09f","335","stimuli/10010101.jpg"," ","","feedback_trial","1","","","","","","","","","","","","","","","","","","","","",""
"","","","","","image-keyboard-response","210","369665","0.0-185.0","600dd1ea271cf06201979123","665500ab8938657b03fbdba8","665792264d8acc7211fce09f","1303","stimuli/2110001.jpg","2","","prediction_trial","2","","true","","2","false","true","true","true","false","true","[2]","110","001","1","","","","","","",""
"","","","","","image-keyboard-response","211","370024","0.0-186.0","600dd1ea271cf06201979123","665500ab8938657b03fbdba8","665792264d8acc7211fce09f","358","stimuli/21100012.jpg"," ","","feedback_trial","2","","","","","","","","","","","","","","","","","","","","",""
"","","","","","image-keyboard-response","212","373481","0.0-187.0","600dd1ea271cf06201979123","665500ab8938657b03fbdba8","665792264d8acc7211fce09f","3456","stimuli/1111010.jpg","1","","prediction_trial","2","","false","","1","false","true","false","false","false","false","[2,1,0]","111","010","0","","","","","","",""
"","","","","","image-keyboard-response","213","373896","0.0-188.0","600dd1ea271cf06201979123","665500ab8938657b03fbdba8","665792264d8acc7211fce09f","414","stimuli/11110102.jpg"," ","","feedback_trial","2","","","","","","","","","","","","","","","","","","","","",""
"","","","","","image-keyboard-response","214","375721","0.0-189.0","600dd1ea271cf06201979123","665500ab8938657b03fbdba8","665792264d8acc7211fce09f","1823","stimuli/0000110.jpg","1","","prediction_trial","0","","false","","0","false","false","true","true","false","false","[0]","000","110","0","","","","","","",""
"","","","","","image-keyboard-response","215","376072","0.0-190.0","600dd1ea271cf06201979123","665500ab8938657b03fbdba8","665792264d8acc7211fce09f","349","stimuli/00001100.jpg"," ","","feedback_trial","0","","","","","","","","","","","","","","","","","","","","",""
"","","","","","image-keyboard-response","216","378545","0.0-191.0","600dd1ea271cf06201979123","665500ab8938657b03fbdba8","665792264d8acc7211fce09f","2472","stimuli/1010110.jpg","0","","prediction_trial","1","","false","","1","false","false","false","true","false","false","[1]","010","110","0","","","","","","",""
"","","","","","image-keyboard-response","217","378952","0.0-192.0","600dd1ea271cf06201979123","665500ab8938657b03fbdba8","665792264d8acc7211fce09f","406","stimuli/10101101.jpg"," ","","feedback_trial","1","","","","","","","","","","","","","","","","","","","","",""
"","","","","","image-keyboard-response","218","380577","0.0-193.0","600dd1ea271cf06201979123","665500ab8938657b03fbdba8","665792264d8acc7211fce09f","1620","stimuli/1011000.jpg","1","","prediction_trial","2","","false","","1","true","true","false","false","false","false","[1,2]","011","000","0","","","","","","",""
"","","","","","image-keyboard-response","219","380888","0.0-194.0","600dd1ea271cf06201979123","665500ab8938657b03fbdba8","665792264d8acc7211fce09f","310","stimuli/10110002.jpg"," ","","feedback_trial","1","","","","","","","","","","","","","","","","","","","","",""
"","","","","","image-keyboard-response","220","381561","0.0-195.0","600dd1ea271cf06201979123","665500ab8938657b03fbdba8","665792264d8acc7211fce09f","672","stimuli/2100110.jpg","2","","prediction_trial","2","","true","","2","true","true","true","true","true","true","[2]","100","110","1","","","","","","",""
"","","","","","image-keyboard-response","221","381840","0.0-196.0","600dd1ea271cf06201979123","665500ab8938657b03fbdba8","665792264d8acc7211fce09f","278","stimuli/21001102.jpg"," ","","feedback_trial","2","","","","","","","","","","","","","","","","","","","","",""
"","","","","","image-keyboard-response","222","382953","0.0-197.0","600dd1ea271cf06201979123","665500ab8938657b03fbdba8","665792264d8acc7211fce09f","1107","stimuli/2111100.jpg","2","","prediction_trial","0","","false","","2","true","true","false","false","false","false","[1,2,0]","111","100","0","","","","","","",""
"","","","","","image-keyboard-response","223","383280","0.0-198.0","600dd1ea271cf06201979123","665500ab8938657b03fbdba8","665792264d8acc7211fce09f","326","stimuli/21111000.jpg"," ","","feedback_trial","1","","","","","","","","","","","","","","","","","","","","",""
"","","","","","image-keyboard-response","224","384465","0.0-199.0","600dd1ea271cf06201979123","665500ab8938657b03fbdba8","665792264d8acc7211fce09f","1184","stimuli/2111101.jpg","0","","prediction_trial","2","","false","","2","false","false","false","false","false","false","[1,0,2]","111","101","0","","","","","","",""
"","","","","","image-keyboard-response","225","384784","0.0-200.0","600dd1ea271cf06201979123","665500ab8938657b03fbdba8","665792264d8acc7211fce09f","318","stimuli/21111012.jpg"," ","","feedback_trial","1","","","","","","","","","","","","","","","","","","","","",""
"","","","","","image-keyboard-response","226","385641","0.0-201.0","600dd1ea271cf06201979123","665500ab8938657b03fbdba8","665792264d8acc7211fce09f","852","stimuli/0111001.jpg","0","","prediction_trial","1","","false","","0","true","true","false","false","false","false","[0,2,1]","111","001","0","","","","","","",""
"","","","","","image-keyboard-response","227","385960","0.0-202.0","600dd1ea271cf06201979123","665500ab8938657b03fbdba8","665792264d8acc7211fce09f","318","stimuli/01110011.jpg"," ","","feedback_trial","0","","","","","","","","","","","","","","","","","","","","",""
"","","","","","image-keyboard-response","228","386857","0.0-203.0","600dd1ea271cf06201979123","665500ab8938657b03fbdba8","665792264d8acc7211fce09f","896","stimuli/1101100.jpg","1","","prediction_trial","1","","true","","1","true","true","true","true","true","true","[1]","101","100","1","","","","","","",""
"","","","","","image-keyboard-response","229","387160","0.0-204.0","600dd1ea271cf06201979123","665500ab8938657b03fbdba8","665792264d8acc7211fce09f","302","stimuli/11011001.jpg"," ","","feedback_trial","1","","","","","","","","","","","","","","","","","","","","",""
"","","","","","image-keyboard-response","230","387657","0.0-205.0","600dd1ea271cf06201979123","665500ab8938657b03fbdba8","665792264d8acc7211fce09f","495","stimuli/1000101.jpg","1","","prediction_trial","1","","true","","1","true","true","true","true","true","true","[1]","000","101","1","","","","","","",""
"","","","","","image-keyboard-response","231","387968","0.0-206.0","600dd1ea271cf06201979123","665500ab8938657b03fbdba8","665792264d8acc7211fce09f","310","stimuli/10001011.jpg"," ","","feedback_trial","1","","","","","","","","","","","","","","","","","","","","",""
"","","","","","image-keyboard-response","232","389353","0.0-207.0","600dd1ea271cf06201979123","665500ab8938657b03fbdba8","665792264d8acc7211fce09f","1384","stimuli/1100111.jpg","2","","prediction_trial","1","","false","","1","false","false","true","true","false","false","[1]","100","111","0","","","","","","",""
"","","","","","image-keyboard-response","233","389728","0.0-208.0","600dd1ea271cf06201979123","665500ab8938657b03fbdba8","665792264d8acc7211fce09f","374","stimuli/11001111.jpg"," ","","feedback_trial","1","","","","","","","","","","","","","","","","","","","","",""
"","","","","","image-keyboard-response","234","391529","0.0-209.0","600dd1ea271cf06201979123","665500ab8938657b03fbdba8","665792264d8acc7211fce09f","1796","stimuli/0111000.jpg","0","","prediction_trial","2","","false","","0","true","true","false","false","false","false","[2,1,0]","111","000","0","","","","","","",""
"","","","","","image-keyboard-response","235","391832","0.0-210.0","600dd1ea271cf06201979123","665500ab8938657b03fbdba8","665792264d8acc7211fce09f","301","stimuli/01110002.jpg"," ","","feedback_trial","2","","","","","","","","","","","","","","","","","","","","",""
"","","","","","image-keyboard-response","236","393105","0.0-211.0","600dd1ea271cf06201979123","665500ab8938657b03fbdba8","665792264d8acc7211fce09f","1272","stimuli/0000010.jpg","0","","prediction_trial","0","","true","","0","true","true","true","true","true","true","[0]","000","010","1","","","","","","",""
"","","","","","image-keyboard-response","237","393360","0.0-212.0","600dd1ea271cf06201979123","665500ab8938657b03fbdba8","665792264d8acc7211fce09f","254","stimuli/00000100.jpg"," ","","feedback_trial","0","","","","","","","","","","","","","","","","","","","","",""
"","","","","","image-keyboard-response","238","394217","0.0-213.0","600dd1ea271cf06201979123","665500ab8938657b03fbdba8","665792264d8acc7211fce09f","851","stimuli/2011101.jpg","0","","prediction_trial","2","","false","","2","false","false","false","false","false","false","[1,2]","011","101","0","","","","","","",""
"","","","","","image-keyboard-response","239","394496","0.0-214.0","600dd1ea271cf06201979123","665500ab8938657b03fbdba8","665792264d8acc7211fce09f","278","stimuli/20111012.jpg"," ","","feedback_trial","1","","","","","","","","","","","","","","","","","","","","",""
"","","","","","image-keyboard-response","240","395201","0.0-215.0","600dd1ea271cf06201979123","665500ab8938657b03fbdba8","665792264d8acc7211fce09f","704","stimuli/1100101.jpg","1","","prediction_trial","1","","true","","1","true","true","true","true","true","true","[1]","100","101","1","","","","","","",""
"","","","","","image-keyboard-response","241","395494","0.0-216.0","600dd1ea271cf06201979123","665500ab8938657b03fbdba8","665792264d8acc7211fce09f","292","stimuli/11001011.jpg"," ","","feedback_trial","1","","","","","","","","","","","","","","","","","","","","",""
"","","","","","image-keyboard-response","242","396473","0.0-217.0","600dd1ea271cf06201979123","665500ab8938657b03fbdba8","665792264d8acc7211fce09f","974","stimuli/1000110.jpg","1","","prediction_trial","1","","true","","1","false","false","true","true","false","false","[1]","000","110","1","","","","","","",""
"","","","","","image-keyboard-response","243","396784","0.0-218.0","600dd1ea271cf06201979123","665500ab8938657b03fbdba8","665792264d8acc7211fce09f","310","stimuli/10001101.jpg"," ","","feedback_trial","1","","","","","","","","","","","","","","","","","","","","",""
"","","","","","image-keyboard-response","244","397601","0.0-219.0","600dd1ea271cf06201979123","665500ab8938657b03fbdba8","665792264d8acc7211fce09f","816","stimuli/0000101.jpg","2","","prediction_trial","0","","false","","0","false","false","true","true","false","false","[0]","000","101","0","","","","","","",""
"","","","","","image-keyboard-response","245","397960","0.0-220.0","600dd1ea271cf06201979123","665500ab8938657b03fbdba8","665792264d8acc7211fce09f","358","stimuli/00001010.jpg"," ","","feedback_trial","0","","","","","","","","","","","","","","","","","","","","",""
"","","","","","image-keyboard-response","246","398633","0.0-221.0","600dd1ea271cf06201979123","665500ab8938657b03fbdba8","665792264d8acc7211fce09f","671","stimuli/2100100.jpg","2","","prediction_trial","2","","true","","2","true","true","true","true","true","true","[2]","100","100","1","","","","","","",""
"","","","","","image-keyboard-response","247","398904","0.0-222.0","600dd1ea271cf06201979123","665500ab8938657b03fbdba8","665792264d8acc7211fce09f","270","stimuli/21001002.jpg"," ","","feedback_trial","2","","","","","","","","","","","","","","","","","","","","",""
"","","","","","image-keyboard-response","248","399977","0.0-223.0","600dd1ea271cf06201979123","665500ab8938657b03fbdba8","665792264d8acc7211fce09f","1072","stimuli/2101010.jpg","2","","prediction_trial","2","","true","","2","true","true","false","false","false","false","[2,0]","101","010","1","","","","","","",""
"","","","","","image-keyboard-response","249","400296","0.0-224.0","600dd1ea271cf06201979123","665500ab8938657b03fbdba8","665792264d8acc7211fce09f","318","stimuli/21010102.jpg"," ","","feedback_trial","2","","","","","","","","","","","","","","","","","","","","",""
"","","","","","image-keyboard-response","250","401617","0.0-225.0","600dd1ea271cf06201979123","665500ab8938657b03fbdba8","665792264d8acc7211fce09f","1315","stimuli/1110011.jpg","1","","prediction_trial","0","","false","","1","false","false","false","false","false","false","[0,1]","110","011","0","","","","","","",""
"","","","","","image-keyboard-response","251","402096","0.0-226.0","600dd1ea271cf06201979123","665500ab8938657b03fbdba8","665792264d8acc7211fce09f","478","stimuli/11100110.jpg"," ","","feedback_trial","0","","","","","","","","","","","","","","","","","","","","",""
"","","","","","image-keyboard-response","252","402761","0.0-227.0","600dd1ea271cf06201979123","665500ab8938657b03fbdba8","665792264d8acc7211fce09f","664","stimuli/2100000.jpg","2","","prediction_trial","2","","true","","2","true","true","true","true","true","true","[2]","100","000","1","","","","","","",""
"","","","","","image-keyboard-response","253","403096","0.0-228.0","600dd1ea271cf06201979123","665500ab8938657b03fbdba8","665792264d8acc7211fce09f","334","stimuli/21000002.jpg"," ","","feedback_trial","2","","","","","","","","","","","","","","","","","","","","",""
"","","","","","image-keyboard-response","254","404353","0.0-229.0","600dd1ea271cf06201979123","665500ab8938657b03fbdba8","665792264d8acc7211fce09f","1252","stimuli/0111010.jpg","0","","prediction_trial","1","","false","","0","true","true","false","false","false","false","[2,1,0]","111","010","0","","","","","","",""
"","","","","","image-keyboard-response","255","404656","0.0-230.0","600dd1ea271cf06201979123","665500ab8938657b03fbdba8","665792264d8acc7211fce09f","302","stimuli/01110101.jpg"," ","","feedback_trial","2","","","","","","","","","","","","","","","","","","","","",""
"","","","","","image-keyboard-response","256","405657","0.0-231.0","600dd1ea271cf06201979123","665500ab8938657b03fbdba8","665792264d8acc7211fce09f","1000","stimuli/1011011.jpg","2","","prediction_trial","1","","false","","1","false","false","false","false","false","false","[2,1]","011","011","0","","","","","","",""
"","","","","","image-keyboard-response","257","406104","0.0-232.0","600dd1ea271cf06201979123","665500ab8938657b03fbdba8","665792264d8acc7211fce09f","446","stimuli/10110111.jpg"," ","","feedback_trial","2","","","","","","","","","","","","","","","","","","","","",""
"","","","","","image-keyboard-response","258","407025","0.0-233.0","600dd1ea271cf06201979123","665500ab8938657b03fbdba8","665792264d8acc7211fce09f","916","stimuli/2011000.jpg","2","","prediction_trial","1","","false","","2","true","true","false","false","false","false","[2,1]","011","000","0","","","","","","",""
"","","","","","image-keyboard-response","259","407736","0.0-234.0","600dd1ea271cf06201979123","665500ab8938657b03fbdba8","665792264d8acc7211fce09f","710","stimuli/20110001.jpg"," ","","feedback_trial","2","","","","","","","","","","","","","","","","","","","","",""
"","","","","","image-keyboard-response","260","408561","0.0-235.0","600dd1ea271cf06201979123","665500ab8938657b03fbdba8","665792264d8acc7211fce09f","824","stimuli/0111110.jpg","1","","prediction_trial","2","","false","","0","false","false","false","false","false","false","[2,1,0]","111","110","0","","","","","","",""
"","","","","","image-keyboard-response","261","409152","0.0-236.0","600dd1ea271cf06201979123","665500ab8938657b03fbdba8","665792264d8acc7211fce09f","590","stimuli/01111102.jpg"," ","","feedback_trial","2","","","","","","","","","","","","","","","","","","","","",""
"","","","","","image-keyboard-response","262","410537","0.0-237.0","600dd1ea271cf06201979123","665500ab8938657b03fbdba8","665792264d8acc7211fce09f","1383","stimuli/1011100.jpg","1","","prediction_trial","1","","true","","1","true","true","false","false","false","false","[1,2]","011","100","1","","","","","","",""
"","","","","","image-keyboard-response","263","411224","0.0-238.0","600dd1ea271cf06201979123","665500ab8938657b03fbdba8","665792264d8acc7211fce09f","686","stimuli/10111001.jpg"," ","","feedback_trial","1","","","","","","","","","","","","","","","","","","","","",""
"","","","","","image-keyboard-response","264","412217","0.0-239.0","600dd1ea271cf06201979123","665500ab8938657b03fbdba8","665792264d8acc7211fce09f","992","stimuli/0010001.jpg","0","","prediction_trial","0","","true","","0","true","true","true","true","true","true","[0]","010","001","1","","","","","","",""
"","","","","","image-keyboard-response","265","412536","0.0-240.0","600dd1ea271cf06201979123","665500ab8938657b03fbdba8","665792264d8acc7211fce09f","318","stimuli/00100010.jpg"," ","","feedback_trial","0","","","","","","","","","","","","","","","","","","","","",""
"","","","","","image-keyboard-response","266","413769","0.0-241.0","600dd1ea271cf06201979123","665500ab8938657b03fbdba8","665792264d8acc7211fce09f","1228","stimuli/0110100.jpg","1","","prediction_trial","1","","true","","0","false","true","false","false","false","false","[0,1]","110","100","1","","","","","","",""
"","","","","","image-keyboard-response","267","414464","0.0-242.0","600dd1ea271cf06201979123","665500ab8938657b03fbdba8","665792264d8acc7211fce09f","694","stimuli/01101001.jpg"," ","","feedback_trial","0","","","","","","","","","","","","","","","","","","","","",""
"","","","","","image-keyboard-response","268","415153","0.0-243.0","600dd1ea271cf06201979123","665500ab8938657b03fbdba8","665792264d8acc7211fce09f","688","stimuli/2110000.jpg","2","","prediction_trial","2","","true","","2","true","true","true","true","true","true","[2]","110","000","1","","","","","","",""
"","","","","","image-keyboard-response","269","415552","0.0-244.0","600dd1ea271cf06201979123","665500ab8938657b03fbdba8","665792264d8acc7211fce09f","397","stimuli/21100002.jpg"," ","","feedback_trial","2","","","","","","","","","","","","","","","","","","","","",""
"","","","","","image-keyboard-response","270","417313","0.0-245.0","600dd1ea271cf06201979123","665500ab8938657b03fbdba8","665792264d8acc7211fce09f","1756","stimuli/2001000.jpg","2","","prediction_trial","2","","true","","2","true","true","false","true","false","true","[2]","001","000","1","","","","","","",""
"","","","","","image-keyboard-response","271","417664","0.0-246.0","600dd1ea271cf06201979123","665500ab8938657b03fbdba8","665792264d8acc7211fce09f","350","stimuli/20010002.jpg"," ","","feedback_trial","2","","","","","","","","","","","","","","","","","","","","",""
"","","","","","image-keyboard-response","272","418457","0.0-247.0","600dd1ea271cf06201979123","665500ab8938657b03fbdba8","665792264d8acc7211fce09f","792","stimuli/1101001.jpg","1","","prediction_trial","1","","true","","1","true","true","true","true","true","true","[1]","101","001","1","","","","","","",""
"","","","","","image-keyboard-response","273","418784","0.0-248.0","600dd1ea271cf06201979123","665500ab8938657b03fbdba8","665792264d8acc7211fce09f","326","stimuli/11010011.jpg"," ","","feedback_trial","1","","","","","","","","","","","","","","","","","","","","",""
"","","","","","image-keyboard-response","274","419665","0.0-249.0","600dd1ea271cf06201979123","665500ab8938657b03fbdba8","665792264d8acc7211fce09f","876","stimuli/1010010.jpg","1","","prediction_trial","1","","true","","1","false","true","false","true","false","true","[1]","010","010","1","","","","","","",""
"","","","","","image-keyboard-response","275","420144","0.0-250.0","600dd1ea271cf06201979123","665500ab8938657b03fbdba8","665792264d8acc7211fce09f","478","stimuli/10100101.jpg"," ","","feedback_trial","1","","","","","","","","","","","","","","","","","","","","",""
"","","","","","image-keyboard-response","276","421793","0.0-251.0","600dd1ea271cf06201979123","665500ab8938657b03fbdba8","665792264d8acc7211fce09f","1648","stimuli/0001111.jpg","0","","prediction_trial","0","","true","","0","false","false","true","true","false","false","[0]","001","111","1","","","","","","",""
"","","","","","image-keyboard-response","277","422568","0.0-252.0","600dd1ea271cf06201979123","665500ab8938657b03fbdba8","665792264d8acc7211fce09f","774","stimuli/00011110.jpg"," ","","feedback_trial","0","","","","","","","","","","","","","","","","","","","","",""
"","","","","","image-keyboard-response","278","423777","0.0-253.0","600dd1ea271cf06201979123","665500ab8938657b03fbdba8","665792264d8acc7211fce09f","1208","stimuli/1010100.jpg","1","","prediction_trial","1","","true","","1","true","true","false","true","false","true","[1]","010","100","1","","","","","","",""
"","","","","","image-keyboard-response","279","424344","0.0-254.0","600dd1ea271cf06201979123","665500ab8938657b03fbdba8","665792264d8acc7211fce09f","566","stimuli/10101001.jpg"," ","","feedback_trial","1","","","","","","","","","","","","","","","","","","","","",""
"","","","","","image-keyboard-response","280","425753","0.0-255.0","600dd1ea271cf06201979123","665500ab8938657b03fbdba8","665792264d8acc7211fce09f","1408","stimuli/2101110.jpg","2","","prediction_trial","2","","true","","2","true","true","false","false","false","false","[2,0]","101","110","1","","","","","","",""
"","","","","","image-keyboard-response","281","426328","0.0-256.0","600dd1ea271cf06201979123","665500ab8938657b03fbdba8","665792264d8acc7211fce09f","574","stimuli/21011102.jpg"," ","","feedback_trial","2","","","","","","","","","","","","","","","","","","","","",""
"","","","","","image-keyboard-response","282","427529","0.0-257.0","600dd1ea271cf06201979123","665500ab8938657b03fbdba8","665792264d8acc7211fce09f","1199","stimuli/0010111.jpg","1","","prediction_trial","0","","false","","0","false","false","true","true","false","false","[0]","010","111","0","","","","","","",""
"","","","","","image-keyboard-response","283","428104","0.0-258.0","600dd1ea271cf06201979123","665500ab8938657b03fbdba8","665792264d8acc7211fce09f","574","stimuli/00101110.jpg"," ","","feedback_trial","0","","","","","","","","","","","","","","","","","","","","",""
"","","","","","image-keyboard-response","284","428977","0.0-259.0","600dd1ea271cf06201979123","665500ab8938657b03fbdba8","665792264d8acc7211fce09f","872","stimuli/2110010.jpg","2","","prediction_trial","2","","true","","2","true","true","true","true","true","true","[2]","110","010","1","","","","","","",""
"","","","","","image-keyboard-response","285","429320","0.0-260.0","600dd1ea271cf06201979123","665500ab8938657b03fbdba8","665792264d8acc7211fce09f","342","stimuli/21100102.jpg"," ","","feedback_trial","2","","","","","","","","","","","","","","","","","","","","",""
"","","","","","image-keyboard-response","286","430177","0.0-261.0","600dd1ea271cf06201979123","665500ab8938657b03fbdba8","665792264d8acc7211fce09f","851","stimuli/2010000.jpg","2","","prediction_trial","2","","true","","2","true","true","true","true","true","true","[2]","010","000","1","","","","","","",""
"","","","","","image-keyboard-response","287","430584","0.0-262.0","600dd1ea271cf06201979123","665500ab8938657b03fbdba8","665792264d8acc7211fce09f","406","stimuli/20100002.jpg"," ","","feedback_trial","2","","","","","","","","","","","","","","","","","","","","",""
"","","","","","image-keyboard-response","288","431073","0.0-263.0","600dd1ea271cf06201979123","665500ab8938657b03fbdba8","665792264d8acc7211fce09f","488","stimuli/2000100.jpg","2","","prediction_trial","2","","true","","2","true","true","true","true","true","true","[2]","000","100","1","","","","","","",""
"","","","","","image-keyboard-response","289","431408","0.0-264.0","600dd1ea271cf06201979123","665500ab8938657b03fbdba8","665792264d8acc7211fce09f","334","stimuli/20001002.jpg"," ","","feedback_trial","2","","","","","","","","","","","","","","","","","","","","",""
"","","","","","image-keyboard-response","290","432185","0.0-265.0","600dd1ea271cf06201979123","665500ab8938657b03fbdba8","665792264d8acc7211fce09f","772","stimuli/0001000.jpg","0","","prediction_trial","0","","true","","0","true","true","true","true","true","true","[0]","001","000","1","","","","","","",""
"","","","","","image-keyboard-response","291","432456","0.0-266.0","600dd1ea271cf06201979123","665500ab8938657b03fbdba8","665792264d8acc7211fce09f","270","stimuli/00010000.jpg"," ","","feedback_trial","0","","","","","","","","","","","","","","","","","","","","",""
"","","","","","image-keyboard-response","292","433776","0.0-267.0","600dd1ea271cf06201979123","665500ab8938657b03fbdba8","665792264d8acc7211fce09f","1319","stimuli/1111111.jpg","1","","prediction_trial","0","","false","","1","false","false","false","false","false","false","[2,0,1]","111","111","0","","","","","","",""
"","","","","","image-keyboard-response","293","434328","0.0-268.0","600dd1ea271cf06201979123","665500ab8938657b03fbdba8","665792264d8acc7211fce09f","551","stimuli/11111110.jpg"," ","","feedback_trial","2","","","","","","","","","","","","","","","","","","","","",""
"","","","","","image-keyboard-response","294","435729","0.0-269.0","600dd1ea271cf06201979123","665500ab8938657b03fbdba8","665792264d8acc7211fce09f","1395","stimuli/0011111.jpg","2","","prediction_trial","0","","false","","0","false","false","true","true","false","false","[0]","011","111","0","","","","","","",""
"","","","","","image-keyboard-response","295","436312","0.0-270.0","600dd1ea271cf06201979123","665500ab8938657b03fbdba8","665792264d8acc7211fce09f","582","stimuli/00111110.jpg"," ","","feedback_trial","0","","","","","","","","","","","","","","","","","","","","",""
"","","","","","image-keyboard-response","296","437457","0.0-271.0","600dd1ea271cf06201979123","665500ab8938657b03fbdba8","665792264d8acc7211fce09f","1144","stimuli/1101111.jpg","2","","prediction_trial","1","","false","","1","false","false","true","true","false","false","[1]","101","111","0","","","","","","",""
"","","","","","image-keyboard-response","297","438008","0.0-272.0","600dd1ea271cf06201979123","665500ab8938657b03fbdba8","665792264d8acc7211fce09f","550","stimuli/11011111.jpg"," ","","feedback_trial","1","","","","","","","","","","","","","","","","","","","","",""
"","","","","","image-keyboard-response","298","438833","0.0-273.0","600dd1ea271cf06201979123","665500ab8938657b03fbdba8","665792264d8acc7211fce09f","819","stimuli/1110010.jpg","1","","prediction_trial","1","","true","","1","false","true","false","false","false","false","[1,0]","110","010","1","","","","","","",""
"","","","","","image-keyboard-response","299","439216","0.0-274.0","600dd1ea271cf06201979123","665500ab8938657b03fbdba8","665792264d8acc7211fce09f","382","stimuli/11100101.jpg"," ","","feedback_trial","1","","","","","","","","","","","","","","","","","","","","",""
"","","","","","image-keyboard-response","300","439873","0.0-275.0","600dd1ea271cf06201979123","665500ab8938657b03fbdba8","665792264d8acc7211fce09f","656","stimuli/1000001.jpg","1","","prediction_trial","1","","true","","1","true","true","true","true","true","true","[1]","000","001","1","","","","","","",""
"","","","","","image-keyboard-response","301","440152","0.0-276.0","600dd1ea271cf06201979123","665500ab8938657b03fbdba8","665792264d8acc7211fce09f","278","stimuli/10000011.jpg"," ","","feedback_trial","1","","","","","","","","","","","","","","","","","","","","",""
"","","","","","image-keyboard-response","302","441041","0.0-277.0","600dd1ea271cf06201979123","665500ab8938657b03fbdba8","665792264d8acc7211fce09f","887","stimuli/2011100.jpg","2","","prediction_trial","1","","false","","2","true","true","false","false","false","false","[2,1]","011","100","0","","","","","","",""
"","","","","","image-keyboard-response","303","441664","0.0-278.0","600dd1ea271cf06201979123","665500ab8938657b03fbdba8","665792264d8acc7211fce09f","622","stimuli/20111001.jpg"," ","","feedback_trial","2","","","","","","","","","","","","","","","","","","","","",""
"","","","","","image-keyboard-response","304","442769","0.0-279.0","600dd1ea271cf06201979123","665500ab8938657b03fbdba8","665792264d8acc7211fce09f","1104","stimuli/0110010.jpg","0","","prediction_trial","0","","true","","0","true","true","false","false","false","false","[0,1]","110","010","1","","","","","","",""
"","","","","","image-keyboard-response","305","443240","0.0-280.0","600dd1ea271cf06201979123","665500ab8938657b03fbdba8","665792264d8acc7211fce09f","470","stimuli/01100100.jpg"," ","","feedback_trial","0","","","","","","","","","","","","","","","","","","","","",""
"","","","","","image-keyboard-response","306","444321","0.0-281.0","600dd1ea271cf06201979123","665500ab8938657b03fbdba8","665792264d8acc7211fce09f","1075","stimuli/2011010.jpg","2","","prediction_trial","2","","true","","2","true","true","false","false","false","false","[1,2]","011","010","1","","","","","","",""
"","","","","","image-keyboard-response","307","444776","0.0-282.0","600dd1ea271cf06201979123","665500ab8938657b03fbdba8","665792264d8acc7211fce09f","454","stimuli/20110102.jpg"," ","","feedback_trial","1","","","","","","","","","","","","","","","","","","","","",""
"","","","","","image-keyboard-response","308","445625","0.0-283.0","600dd1ea271cf06201979123","665500ab8938657b03fbdba8","665792264d8acc7211fce09f","848","stimuli/0001010.jpg","0","","prediction_trial","0","","true","","0","true","true","true","true","true","true","[0]","001","010","1","","","","","","",""
"","","","","","image-keyboard-response","309","445960","0.0-284.0","600dd1ea271cf06201979123","665500ab8938657b03fbdba8","665792264d8acc7211fce09f","334","stimuli/00010100.jpg"," ","","feedback_trial","0","","","","","","","","","","","","","","","","","","","","",""
"","","","","","image-keyboard-response","310","447265","0.0-285.0","600dd1ea271cf06201979123","665500ab8938657b03fbdba8","665792264d8acc7211fce09f","1304","stimuli/1001011.jpg","1","","prediction_trial","1","","true","","1","false","false","true","true","false","false","[1]","001","011","1","","","","","","",""
"","","","","","image-keyboard-response","311","447888","0.0-286.0","600dd1ea271cf06201979123","665500ab8938657b03fbdba8","665792264d8acc7211fce09f","622","stimuli/10010111.jpg"," ","","feedback_trial","1","","","","","","","","","","","","","","","","","","","","",""
"","","","","","image-keyboard-response","312","449465","0.0-287.0","600dd1ea271cf06201979123","665500ab8938657b03fbdba8","665792264d8acc7211fce09f","1576","stimuli/0110011.jpg","0","","prediction_trial","1","","false","","0","true","true","false","false","false","false","[0,1]","110","011","0","","","","","","",""
"","","","","","image-keyboard-response","313","450640","0.0-288.0","600dd1ea271cf06201979123","665500ab8938657b03fbdba8","665792264d8acc7211fce09f","1174","stimuli/01100111.jpg"," ","","feedback_trial","0","","","","","","","","","","","","","","","","","","","","",""
"","","","","","image-keyboard-response","314","451408","0.0-289.0","600dd1ea271cf06201979123","665500ab8938657b03fbdba8","665792264d8acc7211fce09f","763","stimuli/2110101.jpg","2","","prediction_trial","2","","true","","2","false","false","true","true","false","false","[2]","110","101","1","","","","","","",""
"","","","","","image-keyboard-response","315","451735","0.0-290.0","600dd1ea271cf06201979123","665500ab8938657b03fbdba8","665792264d8acc7211fce09f","326","stimuli/21101012.jpg"," ","","feedback_trial","2","","","","","","","","","","","","","","","","","","","","",""
"","","","","","image-keyboard-response","316","452385","0.0-291.0","600dd1ea271cf06201979123","665500ab8938657b03fbdba8","665792264d8acc7211fce09f","648","stimuli/0011010.jpg","0","","prediction_trial","0","","true","","0","true","true","true","true","true","true","[0]","011","010","1","","","","","","",""
"","","","","","image-keyboard-response","317","452663","0.0-292.0","600dd1ea271cf06201979123","665500ab8938657b03fbdba8","665792264d8acc7211fce09f","278","stimuli/00110100.jpg"," ","","feedback_trial","0","","","","","","","","","","","","","","","","","","","","",""
"","","","","","survey-html-form","318","491469","0.0-293.0","600dd1ea271cf06201979123","665500ab8938657b03fbdba8","665792264d8acc7211fce09f","38803","","{""feedback"":""Whether or not Sam could see the red ball on their side of the table."",""age"":""24"",""gender"":""Female"",""other_gender"":"""",""race"":""White"",""other_race"":"""",""ethnicity"":""Non-Hispanic""}","","exit_survey","","","","","","","","","","","","","","","","Whether or not Sam could see the red ball on their side of the table.","24","Non-Hispanic","Female","White","0.6180555555555556","0.6180555555555556"
