"success","timeout","failed_images","failed_audio","failed_video","trial_type","trial_index","time_elapsed","internal_node_id","prolific_id","prolific_study_id","prolific_session_id","rt","stimulus","response","view_history","trial","character_choice","stimulus_dict","accuracy","correct_response","ball_pos","ego_ball_visible","ego_can_infer","alter_ball_visible","alter_can_infer","collective_ball_visible","collective_can_infer","search_locations","alter_occluders","ego_occluders","accuracy_bool","feedback","age","ethnicity","gender","race","overall_accuracy","bonus"
"true","false","[]","[]","[]","preload","0","400","0.0-0.0","55ea70c37480920010aa9982","665500ab8938657b03fbdba8","6657933e67794463652049bc","","","","","","","","","","","","","","","","","","","","","","","","","","",""
"true","","","","","fullscreen","1","5445","0.0-1.0","55ea70c37480920010aa9982","665500ab8938657b03fbdba8","6657933e67794463652049bc","","","","","","","","","","","","","","","","","","","","","","","","","","",""
"","","","","","html-button-response","2","16120","0.0-2.0","55ea70c37480920010aa9982","665500ab8938657b03fbdba8","6657933e67794463652049bc","10674","<p><b>Consent Form</b></p> <div style=""text-align:left;background-color:lightgrey; padding:20px; max-width:900px;""><p>Please consider this information carefully before deciding whether to participate in this research.</p> <p>The purpose of this research is to examine which factors influence social judgment and decision-making. You will be asked to make judgements about individuals and actions in social scenarios. We are simply interested in your judgement. The study will take less than 1 hour to complete, and you will receive less than $20 on Prolific. Your compensation and time commitment are specified in the study description. There are no anticipated risks associated with participating in this study. The effects of participating should be comparable to those you would ordinarily experience from viewing a computer monitor and using a mouse or keyboard for a similar amount of time. At the end of the study, we will provide an explanation of the questions that motivate this line of research and will describe the potential implications. </p><p> Your participation in this study is completely voluntary and you may refuse to participate or you may choose to withdraw at any time without penalty or loss of benefits to you which are otherwise entitled. Your participation in this study will remain confidential. No personally identifiable information will be associated with your data. Also, all analyses of the data will be averaged across all the participants, so your individual responses will never be specifically analyzed. </p><p> If you have questions or concerns about your participation or payment, or want to request a summary of research findings, please contact Dr. Jonathan Phillips at Jonathan.S.Phillips@dartmouth.edu. </p><p> Please save a copy of this form for your records. </p><p><b>Agreement: </b>The nature and purpose of this research have been sufficiently explained and I agree to participate in this study. I understand that I am free to withdraw at any time without incurring any penalty. Please consent by clicking the button below to continue. Otherwise, please exit the study at any time. </p>","0","","","","","","","","","","","","","","","","","","","","","","","",""
"","","","","","instructions","3","55422","0.0-3.0-0.0","55ea70c37480920010aa9982","665500ab8938657b03fbdba8","6657933e67794463652049bc","39302","","","[{""page_index"":0,""viewing_time"":1348},{""page_index"":1,""viewing_time"":1018},{""page_index"":2,""viewing_time"":1252},{""page_index"":3,""viewing_time"":2220},{""page_index"":4,""viewing_time"":1268},{""page_index"":5,""viewing_time"":1568},{""page_index"":6,""viewing_time"":2782},{""page_index"":7,""viewing_time"":2376},{""page_index"":8,""viewing_time"":3122},{""page_index"":9,""viewing_time"":1900},{""page_index"":10,""viewing_time"":10424},{""page_index"":11,""viewing_time"":1029},{""page_index"":10,""viewing_time"":543},{""page_index"":11,""viewing_time"":2210},{""page_index"":12,""viewing_time"":5338},{""page_index"":13,""viewing_time"":905}]","intro","","","","","","","","","","","","","","","","","","","","","",""
"","","","","","image-keyboard-response","4","57025","0.0-3.0-1.0","55ea70c37480920010aa9982","665500ab8938657b03fbdba8","6657933e67794463652049bc","1603","stimuli/1011100.jpg","1","","prediction_practice","2","{""filepath"":""stimuli/1011100.jpg"",""ball_pos"":1,""ego_ball_visible"":true,""ego_can_infer"":true,""alter_ball_visible"":false,""alter_can_infer"":false,""collective_ball_visible"":false,""collective_can_infer"":false,""search_locations"":[1,2],""alter_occluders"":""011"",""ego_occluders"":""100""}","false","","","","","","","","","","","","","","","","","","",""
"","","","","","image-keyboard-response","5","58608","0.0-3.0-2.0","55ea70c37480920010aa9982","665500ab8938657b03fbdba8","6657933e67794463652049bc","1582","stimuli/10111002.jpg"," ","","practrice_feedback","1","","","","","","","","","","","","","","","","","","","","",""
"","","","","","image-keyboard-response","6","61273","0.0-3.0-3.0","55ea70c37480920010aa9982","665500ab8938657b03fbdba8","6657933e67794463652049bc","2665","stimuli/1010100.jpg","1","","prediction_practice","1","{""filepath"":""stimuli/1010100.jpg"",""ball_pos"":1,""ego_ball_visible"":true,""ego_can_infer"":true,""alter_ball_visible"":false,""alter_can_infer"":true,""collective_ball_visible"":false,""collective_can_infer"":true,""search_locations"":[1],""alter_occluders"":""010"",""ego_occluders"":""100""}","true","","","","","","","","","","","","","","","","","","",""
"","","","","","image-keyboard-response","7","62194","0.0-3.0-4.0","55ea70c37480920010aa9982","665500ab8938657b03fbdba8","6657933e67794463652049bc","920","stimuli/10101001.jpg"," ","","practrice_feedback","1","","","","","","","","","","","","","","","","","","","","",""
"","","","","","image-keyboard-response","8","64048","0.0-3.0-5.0","55ea70c37480920010aa9982","665500ab8938657b03fbdba8","6657933e67794463652049bc","1853","stimuli/0011010.jpg","0","","prediction_practice","0","{""filepath"":""stimuli/0011010.jpg"",""ball_pos"":0,""ego_ball_visible"":true,""ego_can_infer"":true,""alter_ball_visible"":true,""alter_can_infer"":true,""collective_ball_visible"":true,""collective_can_infer"":true,""search_locations"":[0],""alter_occluders"":""011"",""ego_occluders"":""010""}","true","","","","","","","","","","","","","","","","","","",""
"","","","","","image-keyboard-response","9","64563","0.0-3.0-6.0","55ea70c37480920010aa9982","665500ab8938657b03fbdba8","6657933e67794463652049bc","515","stimuli/00110100.jpg"," ","","practrice_feedback","0","","","","","","","","","","","","","","","","","","","","",""
"","","","","","image-keyboard-response","10","65941","0.0-3.0-7.0","55ea70c37480920010aa9982","665500ab8938657b03fbdba8","6657933e67794463652049bc","1377","stimuli/2100110.jpg","2","","prediction_practice","2","{""filepath"":""stimuli/2100110.jpg"",""ball_pos"":2,""ego_ball_visible"":true,""ego_can_infer"":true,""alter_ball_visible"":true,""alter_can_infer"":true,""collective_ball_visible"":true,""collective_can_infer"":true,""search_locations"":[2],""alter_occluders"":""100"",""ego_occluders"":""110""}","true","","","","","","","","","","","","","","","","","","",""
"","","","","","image-keyboard-response","11","66377","0.0-3.0-8.0","55ea70c37480920010aa9982","665500ab8938657b03fbdba8","6657933e67794463652049bc","436","stimuli/21001102.jpg"," ","","practrice_feedback","2","","","","","","","","","","","","","","","","","","","","",""
"","","","","","image-keyboard-response","12","69085","0.0-3.0-9.0","55ea70c37480920010aa9982","665500ab8938657b03fbdba8","6657933e67794463652049bc","2708","stimuli/2011110.jpg","1","","prediction_practice","1","{""filepath"":""stimuli/2011110.jpg"",""ball_pos"":2,""ego_ball_visible"":true,""ego_can_infer"":true,""alter_ball_visible"":false,""alter_can_infer"":false,""collective_ball_visible"":false,""collective_can_infer"":false,""search_locations"":[2,1],""alter_occluders"":""011"",""ego_occluders"":""110""}","true","","","","","","","","","","","","","","","","","","",""
"","","","","","image-keyboard-response","13","69917","0.0-3.0-10.0","55ea70c37480920010aa9982","665500ab8938657b03fbdba8","6657933e67794463652049bc","831","stimuli/20111101.jpg"," ","","practrice_feedback","2","","","","","","","","","","","","","","","","","","","","",""
"","","","","","image-keyboard-response","14","74573","0.0-3.0-11.0","55ea70c37480920010aa9982","665500ab8938657b03fbdba8","6657933e67794463652049bc","4656","stimuli/2011101.jpg","0","","prediction_practice","1","{""filepath"":""stimuli/2011101.jpg"",""ball_pos"":2,""ego_ball_visible"":false,""ego_can_infer"":false,""alter_ball_visible"":false,""alter_can_infer"":false,""collective_ball_visible"":false,""collective_can_infer"":false,""search_locations"":[2,1],""alter_occluders"":""011"",""ego_occluders"":""101""}","false","","","","","","","","","","","","","","","","","","",""
"","","","","","image-keyboard-response","15","75867","0.0-3.0-12.0","55ea70c37480920010aa9982","665500ab8938657b03fbdba8","6657933e67794463652049bc","1294","stimuli/20111011.jpg"," ","","practrice_feedback","2","","","","","","","","","","","","","","","","","","","","",""
"","","","","","image-keyboard-response","16","79220","0.0-3.0-13.0","55ea70c37480920010aa9982","665500ab8938657b03fbdba8","6657933e67794463652049bc","3352","stimuli/1111011.jpg","2","","prediction_practice","2","{""filepath"":""stimuli/1111011.jpg"",""ball_pos"":1,""ego_ball_visible"":false,""ego_can_infer"":false,""alter_ball_visible"":false,""alter_can_infer"":false,""collective_ball_visible"":false,""collective_can_infer"":false,""search_locations"":[1,2,0],""alter_occluders"":""111"",""ego_occluders"":""011""}","true","","","","","","","","","","","","","","","","","","",""
"","","","","","image-keyboard-response","17","79906","0.0-3.0-14.0","55ea70c37480920010aa9982","665500ab8938657b03fbdba8","6657933e67794463652049bc","686","stimuli/11110112.jpg"," ","","practrice_feedback","1","","","","","","","","","","","","","","","","","","","","",""
"","","","","","image-keyboard-response","18","82545","0.0-3.0-15.0","55ea70c37480920010aa9982","665500ab8938657b03fbdba8","6657933e67794463652049bc","2639","stimuli/0110000.jpg","1","","prediction_practice","1","{""filepath"":""stimuli/0110000.jpg"",""ball_pos"":0,""ego_ball_visible"":true,""ego_can_infer"":true,""alter_ball_visible"":false,""alter_can_infer"":false,""collective_ball_visible"":false,""collective_can_infer"":false,""search_locations"":[0,1],""alter_occluders"":""110"",""ego_occluders"":""000""}","true","","","","","","","","","","","","","","","","","","",""
"","","","","","image-keyboard-response","19","82950","0.0-3.0-16.0","55ea70c37480920010aa9982","665500ab8938657b03fbdba8","6657933e67794463652049bc","404","stimuli/01100001.jpg"," ","","practrice_feedback","0","","","","","","","","","","","","","","","","","","","","",""
"","","","","","image-keyboard-response","20","86510","0.0-3.0-17.0","55ea70c37480920010aa9982","665500ab8938657b03fbdba8","6657933e67794463652049bc","3559","stimuli/1000011.jpg","2","","prediction_practice","1","{""filepath"":""stimuli/1000011.jpg"",""ball_pos"":1,""ego_ball_visible"":false,""ego_can_infer"":false,""alter_ball_visible"":true,""alter_can_infer"":true,""collective_ball_visible"":false,""collective_can_infer"":false,""search_locations"":[1],""alter_occluders"":""000"",""ego_occluders"":""011""}","false","","","","","","","","","","","","","","","","","","",""
"","","","","","image-keyboard-response","21","87139","0.0-3.0-18.0","55ea70c37480920010aa9982","665500ab8938657b03fbdba8","6657933e67794463652049bc","629","stimuli/10000111.jpg"," ","","practrice_feedback","1","","","","","","","","","","","","","","","","","","","","",""
"","","","","","image-keyboard-response","22","89375","0.0-3.0-19.0","55ea70c37480920010aa9982","665500ab8938657b03fbdba8","6657933e67794463652049bc","2236","stimuli/1011101.jpg","1","","prediction_practice","1","{""filepath"":""stimuli/1011101.jpg"",""ball_pos"":1,""ego_ball_visible"":true,""ego_can_infer"":true,""alter_ball_visible"":false,""alter_can_infer"":false,""collective_ball_visible"":false,""collective_can_infer"":false,""search_locations"":[2,1],""alter_occluders"":""011"",""ego_occluders"":""101""}","true","","","","","","","","","","","","","","","","","","",""
"","","","","","image-keyboard-response","23","89791","0.0-3.0-20.0","55ea70c37480920010aa9982","665500ab8938657b03fbdba8","6657933e67794463652049bc","416","stimuli/10111011.jpg"," ","","practrice_feedback","2","","","","","","","","","","","","","","","","","","","","",""
"","","","","","html-button-response","24","94079","0.0-3.0-21.0","55ea70c37480920010aa9982","665500ab8938657b03fbdba8","6657933e67794463652049bc","4288","Now that you've had some practice, you'll be tested with a couple of easy trials. If you correctly predict Sam's choice, you'll move on to complete the experiment!","0","","","","","","","","","","","","","","","","","","","","","","","",""
"","","","","","image-keyboard-response","25","96165","0.0-3.0-22.0-0.0","55ea70c37480920010aa9982","665500ab8938657b03fbdba8","6657933e67794463652049bc","2086","stimuli/0000011.jpg","arrowleft","","comprehension_quiz","","","true","arrowleft","","","","","","","","","","","","","","","","","",""
"","","","","","image-keyboard-response","26","96663","0.0-3.0-22.0-1.0","55ea70c37480920010aa9982","665500ab8938657b03fbdba8","6657933e67794463652049bc","497","stimuli/00000110.jpg"," ","","comprehension_quiz","","","true"," ","","","","","","","","","","","","","","","","","",""
"","","","","","image-keyboard-response","27","99126","0.0-3.0-22.0-2.0","55ea70c37480920010aa9982","665500ab8938657b03fbdba8","6657933e67794463652049bc","2463","stimuli/1010010.jpg","arrowdown","","comprehension_quiz","","","true","arrowdown","","","","","","","","","","","","","","","","","",""
"","","","","","image-keyboard-response","28","99517","0.0-3.0-22.0-3.0","55ea70c37480920010aa9982","665500ab8938657b03fbdba8","6657933e67794463652049bc","391","stimuli/10100101.jpg"," ","","comprehension_quiz","","","true"," ","","","","","","","","","","","","","","","","","",""
"","","","","","html-button-response","29","130533","0.0-4.0","55ea70c37480920010aa9982","665500ab8938657b03fbdba8","6657933e67794463652049bc","31015","The experiment will now begin.","0","","","","","","","","","","","","","","","","","","","","","","","",""
"","","","","","image-keyboard-response","30","132987","0.0-5.0","55ea70c37480920010aa9982","665500ab8938657b03fbdba8","6657933e67794463652049bc","2454","stimuli/2000101.jpg","0","","prediction_trial","2","","false","","2","false","false","true","true","false","false","[2]","000","101","0","","","","","","",""
"","","","","","image-keyboard-response","31","133848","0.0-6.0","55ea70c37480920010aa9982","665500ab8938657b03fbdba8","6657933e67794463652049bc","861","stimuli/20001012.jpg"," ","","feedback_trial","2","","","","","","","","","","","","","","","","","","","","",""
"","","","","","image-keyboard-response","32","136344","0.0-7.0","55ea70c37480920010aa9982","665500ab8938657b03fbdba8","6657933e67794463652049bc","2496","stimuli/0111110.jpg","1","","prediction_trial","1","","true","","0","false","false","false","false","false","false","[2,0,1]","111","110","1","","","","","","",""
"","","","","","image-keyboard-response","33","137136","0.0-8.0","55ea70c37480920010aa9982","665500ab8938657b03fbdba8","6657933e67794463652049bc","792","stimuli/01111101.jpg"," ","","feedback_trial","2","","","","","","","","","","","","","","","","","","","","",""
"","","","","","image-keyboard-response","34","138878","0.0-9.0","55ea70c37480920010aa9982","665500ab8938657b03fbdba8","6657933e67794463652049bc","1742","stimuli/0100100.jpg","0","","prediction_trial","0","","true","","0","false","true","false","true","false","true","[0]","100","100","1","","","","","","",""
"","","","","","image-keyboard-response","35","139488","0.0-10.0","55ea70c37480920010aa9982","665500ab8938657b03fbdba8","6657933e67794463652049bc","610","stimuli/01001000.jpg"," ","","feedback_trial","0","","","","","","","","","","","","","","","","","","","","",""
"","","","","","image-keyboard-response","36","141290","0.0-11.0","55ea70c37480920010aa9982","665500ab8938657b03fbdba8","6657933e67794463652049bc","1802","stimuli/2001000.jpg","2","","prediction_trial","2","","true","","2","true","true","false","true","false","true","[2]","001","000","1","","","","","","",""
"","","","","","image-keyboard-response","37","141884","0.0-12.0","55ea70c37480920010aa9982","665500ab8938657b03fbdba8","6657933e67794463652049bc","594","stimuli/20010002.jpg"," ","","feedback_trial","2","","","","","","","","","","","","","","","","","","","","",""
"","","","","","image-keyboard-response","38","144401","0.0-13.0","55ea70c37480920010aa9982","665500ab8938657b03fbdba8","6657933e67794463652049bc","2517","stimuli/0100110.jpg","0","","prediction_trial","0","","true","","0","false","false","false","true","false","false","[0]","100","110","1","","","","","","",""
"","","","","","image-keyboard-response","39","145061","0.0-14.0","55ea70c37480920010aa9982","665500ab8938657b03fbdba8","6657933e67794463652049bc","659","stimuli/01001100.jpg"," ","","feedback_trial","0","","","","","","","","","","","","","","","","","","","","",""
"","","","","","image-keyboard-response","40","148196","0.0-15.0","55ea70c37480920010aa9982","665500ab8938657b03fbdba8","6657933e67794463652049bc","3135","stimuli/0100111.jpg","1","","prediction_trial","0","","false","","0","false","false","false","true","false","false","[0]","100","111","0","","","","","","",""
"","","","","","image-keyboard-response","41","149072","0.0-16.0","55ea70c37480920010aa9982","665500ab8938657b03fbdba8","6657933e67794463652049bc","875","stimuli/01001110.jpg"," ","","feedback_trial","0","","","","","","","","","","","","","","","","","","","","",""
"","","","","","image-keyboard-response","42","153352","0.0-17.0","55ea70c37480920010aa9982","665500ab8938657b03fbdba8","6657933e67794463652049bc","4280","stimuli/0100101.jpg","0","","prediction_trial","0","","true","","0","false","false","false","true","false","false","[0]","100","101","1","","","","","","",""
"","","","","","image-keyboard-response","43","153949","0.0-18.0","55ea70c37480920010aa9982","665500ab8938657b03fbdba8","6657933e67794463652049bc","597","stimuli/01001010.jpg"," ","","feedback_trial","0","","","","","","","","","","","","","","","","","","","","",""
"","","","","","image-keyboard-response","44","156102","0.0-19.0","55ea70c37480920010aa9982","665500ab8938657b03fbdba8","6657933e67794463652049bc","2153","stimuli/2010111.jpg","1","","prediction_trial","2","","false","","2","false","false","true","true","false","false","[2]","010","111","0","","","","","","",""
"","","","","","image-keyboard-response","45","157259","0.0-20.0","55ea70c37480920010aa9982","665500ab8938657b03fbdba8","6657933e67794463652049bc","1157","stimuli/20101112.jpg"," ","","feedback_trial","2","","","","","","","","","","","","","","","","","","","","",""
"","","","","","image-keyboard-response","46","161329","0.0-21.0","55ea70c37480920010aa9982","665500ab8938657b03fbdba8","6657933e67794463652049bc","4070","stimuli/0110100.jpg","1","","prediction_trial","1","","true","","0","false","true","false","false","false","false","[1,0]","110","100","1","","","","","","",""
"","","","","","image-keyboard-response","47","162345","0.0-22.0","55ea70c37480920010aa9982","665500ab8938657b03fbdba8","6657933e67794463652049bc","1015","stimuli/01101001.jpg"," ","","feedback_trial","1","","","","","","","","","","","","","","","","","","","","",""
"","","","","","image-keyboard-response","48","164511","0.0-23.0","55ea70c37480920010aa9982","665500ab8938657b03fbdba8","6657933e67794463652049bc","2166","stimuli/0011101.jpg","2","","prediction_trial","0","","false","","0","false","false","true","true","false","false","[0]","011","101","0","","","","","","",""
"","","","","","image-keyboard-response","49","165026","0.0-24.0","55ea70c37480920010aa9982","665500ab8938657b03fbdba8","6657933e67794463652049bc","515","stimuli/00111010.jpg"," ","","feedback_trial","0","","","","","","","","","","","","","","","","","","","","",""
"","","","","","image-keyboard-response","50","166585","0.0-25.0","55ea70c37480920010aa9982","665500ab8938657b03fbdba8","6657933e67794463652049bc","1559","stimuli/0010001.jpg","0","","prediction_trial","0","","true","","0","true","true","true","true","true","true","[0]","010","001","1","","","","","","",""
"","","","","","image-keyboard-response","51","167005","0.0-26.0","55ea70c37480920010aa9982","665500ab8938657b03fbdba8","6657933e67794463652049bc","419","stimuli/00100010.jpg"," ","","feedback_trial","0","","","","","","","","","","","","","","","","","","","","",""
"","","","","","image-keyboard-response","52","168746","0.0-27.0","55ea70c37480920010aa9982","665500ab8938657b03fbdba8","6657933e67794463652049bc","1741","stimuli/2111110.jpg","0","","prediction_trial","2","","false","","2","true","true","false","false","false","false","[2,0,1]","111","110","0","","","","","","",""
"","","","","","image-keyboard-response","53","169313","0.0-28.0","55ea70c37480920010aa9982","665500ab8938657b03fbdba8","6657933e67794463652049bc","567","stimuli/21111102.jpg"," ","","feedback_trial","2","","","","","","","","","","","","","","","","","","","","",""
"","","","","","image-keyboard-response","54","171503","0.0-29.0","55ea70c37480920010aa9982","665500ab8938657b03fbdba8","6657933e67794463652049bc","2190","stimuli/1011100.jpg","1","","prediction_trial","2","","false","","1","true","true","false","false","false","false","[1,2]","011","100","0","","","","","","",""
"","","","","","image-keyboard-response","55","171983","0.0-30.0","55ea70c37480920010aa9982","665500ab8938657b03fbdba8","6657933e67794463652049bc","479","stimuli/10111002.jpg"," ","","feedback_trial","1","","","","","","","","","","","","","","","","","","","","",""
"","","","","","image-keyboard-response","56","174066","0.0-31.0","55ea70c37480920010aa9982","665500ab8938657b03fbdba8","6657933e67794463652049bc","2083","stimuli/1011110.jpg","1","","prediction_trial","2","","false","","1","false","false","false","false","false","false","[2,1]","011","110","0","","","","","","",""
"","","","","","image-keyboard-response","57","174758","0.0-32.0","55ea70c37480920010aa9982","665500ab8938657b03fbdba8","6657933e67794463652049bc","692","stimuli/10111102.jpg"," ","","feedback_trial","2","","","","","","","","","","","","","","","","","","","","",""
"","","","","","image-keyboard-response","58","176727","0.0-33.0","55ea70c37480920010aa9982","665500ab8938657b03fbdba8","6657933e67794463652049bc","1969","stimuli/2111101.jpg","0","","prediction_trial","2","","false","","2","false","false","false","false","false","false","[0,1,2]","111","101","0","","","","","","",""
"","","","","","image-keyboard-response","59","177177","0.0-34.0","55ea70c37480920010aa9982","665500ab8938657b03fbdba8","6657933e67794463652049bc","449","stimuli/21111012.jpg"," ","","feedback_trial","0","","","","","","","","","","","","","","","","","","","","",""
"","","","","","image-keyboard-response","60","178361","0.0-35.0","55ea70c37480920010aa9982","665500ab8938657b03fbdba8","6657933e67794463652049bc","1184","stimuli/2100100.jpg","2","","prediction_trial","2","","true","","2","true","true","true","true","true","true","[2]","100","100","1","","","","","","",""
"","","","","","image-keyboard-response","61","178767","0.0-36.0","55ea70c37480920010aa9982","665500ab8938657b03fbdba8","6657933e67794463652049bc","406","stimuli/21001002.jpg"," ","","feedback_trial","2","","","","","","","","","","","","","","","","","","","","",""
"","","","","","image-keyboard-response","62","180703","0.0-37.0","55ea70c37480920010aa9982","665500ab8938657b03fbdba8","6657933e67794463652049bc","1936","stimuli/2111111.jpg","1","","prediction_trial","1","","true","","2","false","false","false","false","false","false","[1,2,0]","111","111","1","","","","","","",""
"","","","","","image-keyboard-response","63","181156","0.0-38.0","55ea70c37480920010aa9982","665500ab8938657b03fbdba8","6657933e67794463652049bc","453","stimuli/21111111.jpg"," ","","feedback_trial","1","","","","","","","","","","","","","","","","","","","","",""
"","","","","","image-keyboard-response","64","182738","0.0-39.0","55ea70c37480920010aa9982","665500ab8938657b03fbdba8","6657933e67794463652049bc","1582","stimuli/1011111.jpg","2","","prediction_trial","1","","false","","1","false","false","false","false","false","false","[1,2]","011","111","0","","","","","","",""
"","","","","","image-keyboard-response","65","183221","0.0-40.0","55ea70c37480920010aa9982","665500ab8938657b03fbdba8","6657933e67794463652049bc","482","stimuli/10111111.jpg"," ","","feedback_trial","1","","","","","","","","","","","","","","","","","","","","",""
"","","","","","image-keyboard-response","66","184485","0.0-41.0","55ea70c37480920010aa9982","665500ab8938657b03fbdba8","6657933e67794463652049bc","1264","stimuli/2010110.jpg","2","","prediction_trial","2","","true","","2","true","true","true","true","true","true","[2]","010","110","1","","","","","","",""
"","","","","","image-keyboard-response","67","184828","0.0-42.0","55ea70c37480920010aa9982","665500ab8938657b03fbdba8","6657933e67794463652049bc","343","stimuli/20101102.jpg"," ","","feedback_trial","2","","","","","","","","","","","","","","","","","","","","",""
"","","","","","image-keyboard-response","68","185778","0.0-43.0","55ea70c37480920010aa9982","665500ab8938657b03fbdba8","6657933e67794463652049bc","950","stimuli/1101100.jpg","1","","prediction_trial","1","","true","","1","true","true","true","true","true","true","[1]","101","100","1","","","","","","",""
"","","","","","image-keyboard-response","69","186123","0.0-44.0","55ea70c37480920010aa9982","665500ab8938657b03fbdba8","6657933e67794463652049bc","345","stimuli/11011001.jpg"," ","","feedback_trial","1","","","","","","","","","","","","","","","","","","","","",""
"","","","","","image-keyboard-response","70","188737","0.0-45.0","55ea70c37480920010aa9982","665500ab8938657b03fbdba8","6657933e67794463652049bc","2614","stimuli/1101110.jpg","0","","prediction_trial","1","","false","","1","false","false","true","true","false","false","[1]","101","110","0","","","","","","",""
"","","","","","image-keyboard-response","71","189332","0.0-46.0","55ea70c37480920010aa9982","665500ab8938657b03fbdba8","6657933e67794463652049bc","595","stimuli/11011101.jpg"," ","","feedback_trial","1","","","","","","","","","","","","","","","","","","","","",""
"","","","","","image-keyboard-response","72","191010","0.0-47.0","55ea70c37480920010aa9982","665500ab8938657b03fbdba8","6657933e67794463652049bc","1677","stimuli/2100010.jpg","2","","prediction_trial","2","","true","","2","true","true","true","true","true","true","[2]","100","010","1","","","","","","",""
"","","","","","image-keyboard-response","73","192280","0.0-48.0","55ea70c37480920010aa9982","665500ab8938657b03fbdba8","6657933e67794463652049bc","1270","stimuli/21000102.jpg"," ","","feedback_trial","2","","","","","","","","","","","","","","","","","","","","",""
"","","","","","image-keyboard-response","74","194308","0.0-49.0","55ea70c37480920010aa9982","665500ab8938657b03fbdba8","6657933e67794463652049bc","2028","stimuli/0101110.jpg","2","","prediction_trial","2","","true","","0","false","false","false","false","false","false","[0,2]","101","110","1","","","","","","",""
"","","","","","image-keyboard-response","75","194694","0.0-50.0","55ea70c37480920010aa9982","665500ab8938657b03fbdba8","6657933e67794463652049bc","386","stimuli/01011102.jpg"," ","","feedback_trial","0","","","","","","","","","","","","","","","","","","","","",""
"","","","","","image-keyboard-response","76","195614","0.0-51.0","55ea70c37480920010aa9982","665500ab8938657b03fbdba8","6657933e67794463652049bc","920","stimuli/2000110.jpg","2","","prediction_trial","2","","true","","2","true","true","true","true","true","true","[2]","000","110","1","","","","","","",""
"","","","","","image-keyboard-response","77","195924","0.0-52.0","55ea70c37480920010aa9982","665500ab8938657b03fbdba8","6657933e67794463652049bc","310","stimuli/20001102.jpg"," ","","feedback_trial","2","","","","","","","","","","","","","","","","","","","","",""
"","","","","","image-keyboard-response","78","198797","0.0-53.0","55ea70c37480920010aa9982","665500ab8938657b03fbdba8","6657933e67794463652049bc","2873","stimuli/1100010.jpg","1","","prediction_trial","1","","true","","1","false","true","true","true","false","true","[1]","100","010","1","","","","","","",""
"","","","","","image-keyboard-response","79","199109","0.0-54.0","55ea70c37480920010aa9982","665500ab8938657b03fbdba8","6657933e67794463652049bc","312","stimuli/11000101.jpg"," ","","feedback_trial","1","","","","","","","","","","","","","","","","","","","","",""
"","","","","","image-keyboard-response","80","200887","0.0-55.0","55ea70c37480920010aa9982","665500ab8938657b03fbdba8","6657933e67794463652049bc","1777","stimuli/2101100.jpg","2","","prediction_trial","0","","false","","2","true","true","false","false","false","false","[2,0]","101","100","0","","","","","","",""
"","","","","","image-keyboard-response","81","201309","0.0-56.0","55ea70c37480920010aa9982","665500ab8938657b03fbdba8","6657933e67794463652049bc","423","stimuli/21011000.jpg"," ","","feedback_trial","2","","","","","","","","","","","","","","","","","","","","",""
"","","","","","image-keyboard-response","82","202309","0.0-57.0","55ea70c37480920010aa9982","665500ab8938657b03fbdba8","6657933e67794463652049bc","1000","stimuli/0011001.jpg","0","","prediction_trial","0","","true","","0","true","true","true","true","true","true","[0]","011","001","1","","","","","","",""
"","","","","","image-keyboard-response","83","202593","0.0-58.0","55ea70c37480920010aa9982","665500ab8938657b03fbdba8","6657933e67794463652049bc","284","stimuli/00110010.jpg"," ","","feedback_trial","0","","","","","","","","","","","","","","","","","","","","",""
"","","","","","image-keyboard-response","84","204635","0.0-59.0","55ea70c37480920010aa9982","665500ab8938657b03fbdba8","6657933e67794463652049bc","2041","stimuli/0010110.jpg","1","","prediction_trial","0","","false","","0","false","false","true","true","false","false","[0]","010","110","0","","","","","","",""
"","","","","","image-keyboard-response","85","205038","0.0-60.0","55ea70c37480920010aa9982","665500ab8938657b03fbdba8","6657933e67794463652049bc","403","stimuli/00101100.jpg"," ","","feedback_trial","0","","","","","","","","","","","","","","","","","","","","",""
"","","","","","image-keyboard-response","86","206881","0.0-61.0","55ea70c37480920010aa9982","665500ab8938657b03fbdba8","6657933e67794463652049bc","1843","stimuli/0000111.jpg","0","","prediction_trial","0","","true","","0","false","false","true","true","false","false","[0]","000","111","1","","","","","","",""
"","","","","","image-keyboard-response","87","207348","0.0-62.0","55ea70c37480920010aa9982","665500ab8938657b03fbdba8","6657933e67794463652049bc","467","stimuli/00001110.jpg"," ","","feedback_trial","0","","","","","","","","","","","","","","","","","","","","",""
"","","","","","image-keyboard-response","88","209272","0.0-63.0","55ea70c37480920010aa9982","665500ab8938657b03fbdba8","6657933e67794463652049bc","1924","stimuli/2111000.jpg","0","","prediction_trial","0","","true","","2","true","true","false","false","false","false","[2,1,0]","111","000","1","","","","","","",""
"","","","","","image-keyboard-response","89","209708","0.0-64.0","55ea70c37480920010aa9982","665500ab8938657b03fbdba8","6657933e67794463652049bc","435","stimuli/21110000.jpg"," ","","feedback_trial","2","","","","","","","","","","","","","","","","","","","","",""
"","","","","","image-keyboard-response","90","210878","0.0-65.0","55ea70c37480920010aa9982","665500ab8938657b03fbdba8","6657933e67794463652049bc","1169","stimuli/1101000.jpg","1","","prediction_trial","1","","true","","1","true","true","true","true","true","true","[1]","101","000","1","","","","","","",""
"","","","","","image-keyboard-response","91","211178","0.0-66.0","55ea70c37480920010aa9982","665500ab8938657b03fbdba8","6657933e67794463652049bc","300","stimuli/11010001.jpg"," ","","feedback_trial","1","","","","","","","","","","","","","","","","","","","","",""
"","","","","","image-keyboard-response","92","212951","0.0-67.0","55ea70c37480920010aa9982","665500ab8938657b03fbdba8","6657933e67794463652049bc","1773","stimuli/0111001.jpg","2","","prediction_trial","0","","false","","0","true","true","false","false","false","false","[2,1,0]","111","001","0","","","","","","",""
"","","","","","image-keyboard-response","93","213401","0.0-68.0","55ea70c37480920010aa9982","665500ab8938657b03fbdba8","6657933e67794463652049bc","450","stimuli/01110010.jpg"," ","","feedback_trial","2","","","","","","","","","","","","","","","","","","","","",""
"","","","","","image-keyboard-response","94","215285","0.0-69.0","55ea70c37480920010aa9982","665500ab8938657b03fbdba8","6657933e67794463652049bc","1883","stimuli/1110001.jpg","1","","prediction_trial","0","","false","","1","true","true","false","false","false","false","[1,0]","110","001","0","","","","","","",""
"","","","","","image-keyboard-response","95","215693","0.0-70.0","55ea70c37480920010aa9982","665500ab8938657b03fbdba8","6657933e67794463652049bc","408","stimuli/11100010.jpg"," ","","feedback_trial","1","","","","","","","","","","","","","","","","","","","","",""
"","","","","","image-keyboard-response","96","217268","0.0-71.0","55ea70c37480920010aa9982","665500ab8938657b03fbdba8","6657933e67794463652049bc","1575","stimuli/2110111.jpg","1","","prediction_trial","2","","false","","2","false","false","true","true","false","false","[2]","110","111","0","","","","","","",""
"","","","","","image-keyboard-response","97","217704","0.0-72.0","55ea70c37480920010aa9982","665500ab8938657b03fbdba8","6657933e67794463652049bc","435","stimuli/21101112.jpg"," ","","feedback_trial","2","","","","","","","","","","","","","","","","","","","","",""
"","","","","","image-keyboard-response","98","219455","0.0-73.0","55ea70c37480920010aa9982","665500ab8938657b03fbdba8","6657933e67794463652049bc","1751","stimuli/0000110.jpg","0","","prediction_trial","0","","true","","0","false","false","true","true","false","false","[0]","000","110","1","","","","","","",""
"","","","","","image-keyboard-response","99","219847","0.0-74.0","55ea70c37480920010aa9982","665500ab8938657b03fbdba8","6657933e67794463652049bc","392","stimuli/00001100.jpg"," ","","feedback_trial","0","","","","","","","","","","","","","","","","","","","","",""
"","","","","","image-keyboard-response","100","223962","0.0-75.0","55ea70c37480920010aa9982","665500ab8938657b03fbdba8","6657933e67794463652049bc","4114","stimuli/1001010.jpg","1","","prediction_trial","1","","true","","1","false","true","true","true","false","true","[1]","001","010","1","","","","","","",""
"","","","","","image-keyboard-response","101","224288","0.0-76.0","55ea70c37480920010aa9982","665500ab8938657b03fbdba8","6657933e67794463652049bc","326","stimuli/10010101.jpg"," ","","feedback_trial","1","","","","","","","","","","","","","","","","","","","","",""
"","","","","","image-keyboard-response","102","226273","0.0-77.0","55ea70c37480920010aa9982","665500ab8938657b03fbdba8","6657933e67794463652049bc","1984","stimuli/1101011.jpg","1","","prediction_trial","1","","true","","1","false","false","true","true","false","false","[1]","101","011","1","","","","","","",""
"","","","","","image-keyboard-response","103","226742","0.0-78.0","55ea70c37480920010aa9982","665500ab8938657b03fbdba8","6657933e67794463652049bc","469","stimuli/11010111.jpg"," ","","feedback_trial","1","","","","","","","","","","","","","","","","","","","","",""
"","","","","","image-keyboard-response","104","228549","0.0-79.0","55ea70c37480920010aa9982","665500ab8938657b03fbdba8","6657933e67794463652049bc","1807","stimuli/1001011.jpg","2","","prediction_trial","1","","false","","1","false","false","true","true","false","false","[1]","001","011","0","","","","","","",""
"","","","","","image-keyboard-response","105","228956","0.0-80.0","55ea70c37480920010aa9982","665500ab8938657b03fbdba8","6657933e67794463652049bc","407","stimuli/10010111.jpg"," ","","feedback_trial","1","","","","","","","","","","","","","","","","","","","","",""
"","","","","","image-keyboard-response","106","231845","0.0-81.0","55ea70c37480920010aa9982","665500ab8938657b03fbdba8","6657933e67794463652049bc","2888","stimuli/1010111.jpg","0","","prediction_trial","1","","false","","1","false","false","false","true","false","false","[1]","010","111","0","","","","","","",""
"","","","","","image-keyboard-response","107","232297","0.0-82.0","55ea70c37480920010aa9982","665500ab8938657b03fbdba8","6657933e67794463652049bc","452","stimuli/10101111.jpg"," ","","feedback_trial","1","","","","","","","","","","","","","","","","","","","","",""
"","","","","","image-keyboard-response","108","233326","0.0-83.0","55ea70c37480920010aa9982","665500ab8938657b03fbdba8","6657933e67794463652049bc","1029","stimuli/1000000.jpg","1","","prediction_trial","1","","true","","1","true","true","true","true","true","true","[1]","000","000","1","","","","","","",""
"","","","","","image-keyboard-response","109","233705","0.0-84.0","55ea70c37480920010aa9982","665500ab8938657b03fbdba8","6657933e67794463652049bc","379","stimuli/10000001.jpg"," ","","feedback_trial","1","","","","","","","","","","","","","","","","","","","","",""
"","","","","","image-keyboard-response","110","234499","0.0-85.0","55ea70c37480920010aa9982","665500ab8938657b03fbdba8","6657933e67794463652049bc","794","stimuli/1100000.jpg","1","","prediction_trial","1","","true","","1","true","true","true","true","true","true","[1]","100","000","1","","","","","","",""
"","","","","","image-keyboard-response","111","234825","0.0-86.0","55ea70c37480920010aa9982","665500ab8938657b03fbdba8","6657933e67794463652049bc","326","stimuli/11000001.jpg"," ","","feedback_trial","1","","","","","","","","","","","","","","","","","","","","",""
"","","","","","image-keyboard-response","112","235626","0.0-87.0","55ea70c37480920010aa9982","665500ab8938657b03fbdba8","6657933e67794463652049bc","801","stimuli/1001101.jpg","1","","prediction_trial","1","","true","","1","true","true","true","true","true","true","[1]","001","101","1","","","","","","",""
"","","","","","image-keyboard-response","113","235892","0.0-88.0","55ea70c37480920010aa9982","665500ab8938657b03fbdba8","6657933e67794463652049bc","266","stimuli/10011011.jpg"," ","","feedback_trial","1","","","","","","","","","","","","","","","","","","","","",""
"","","","","","image-keyboard-response","114","238021","0.0-89.0","55ea70c37480920010aa9982","665500ab8938657b03fbdba8","6657933e67794463652049bc","2128","stimuli/1010001.jpg","1","","prediction_trial","1","","true","","1","true","true","false","true","false","true","[1]","010","001","1","","","","","","",""
"","","","","","image-keyboard-response","115","238241","0.0-90.0","55ea70c37480920010aa9982","665500ab8938657b03fbdba8","6657933e67794463652049bc","220","stimuli/10100011.jpg"," ","","feedback_trial","1","","","","","","","","","","","","","","","","","","","","",""
"","","","","","image-keyboard-response","116","240363","0.0-91.0","55ea70c37480920010aa9982","665500ab8938657b03fbdba8","6657933e67794463652049bc","2121","stimuli/2001011.jpg","1","","prediction_trial","2","","false","","2","false","false","false","true","false","false","[2]","001","011","0","","","","","","",""
"","","","","","image-keyboard-response","117","240720","0.0-92.0","55ea70c37480920010aa9982","665500ab8938657b03fbdba8","6657933e67794463652049bc","357","stimuli/20010112.jpg"," ","","feedback_trial","2","","","","","","","","","","","","","","","","","","","","",""
"","","","","","image-keyboard-response","118","242327","0.0-93.0","55ea70c37480920010aa9982","665500ab8938657b03fbdba8","6657933e67794463652049bc","1607","stimuli/0101101.jpg","0","","prediction_trial","2","","false","","0","false","false","false","false","false","false","[0,2]","101","101","0","","","","","","",""
"","","","","","image-keyboard-response","119","242714","0.0-94.0","55ea70c37480920010aa9982","665500ab8938657b03fbdba8","6657933e67794463652049bc","387","stimuli/01011012.jpg"," ","","feedback_trial","0","","","","","","","","","","","","","","","","","","","","",""
"","","","","","image-keyboard-response","120","244057","0.0-95.0","55ea70c37480920010aa9982","665500ab8938657b03fbdba8","6657933e67794463652049bc","1342","stimuli/1111100.jpg","1","","prediction_trial","0","","false","","1","true","true","false","false","false","false","[2,0,1]","111","100","0","","","","","","",""
"","","","","","image-keyboard-response","121","244418","0.0-96.0","55ea70c37480920010aa9982","665500ab8938657b03fbdba8","6657933e67794463652049bc","361","stimuli/11111000.jpg"," ","","feedback_trial","2","","","","","","","","","","","","","","","","","","","","",""
"","","","","","image-keyboard-response","122","245553","0.0-97.0","55ea70c37480920010aa9982","665500ab8938657b03fbdba8","6657933e67794463652049bc","1135","stimuli/2000001.jpg","2","","prediction_trial","2","","true","","2","false","true","true","true","false","true","[2]","000","001","1","","","","","","",""
"","","","","","image-keyboard-response","123","245828","0.0-98.0","55ea70c37480920010aa9982","665500ab8938657b03fbdba8","6657933e67794463652049bc","274","stimuli/20000012.jpg"," ","","feedback_trial","2","","","","","","","","","","","","","","","","","","","","",""
"","","","","","image-keyboard-response","124","247750","0.0-99.0","55ea70c37480920010aa9982","665500ab8938657b03fbdba8","6657933e67794463652049bc","1922","stimuli/0110111.jpg","0","","prediction_trial","0","","true","","0","false","false","false","false","false","false","[1,0]","110","111","1","","","","","","",""
"","","","","","image-keyboard-response","125","248138","0.0-100.0","55ea70c37480920010aa9982","665500ab8938657b03fbdba8","6657933e67794463652049bc","388","stimuli/01101110.jpg"," ","","feedback_trial","1","","","","","","","","","","","","","","","","","","","","",""
"","","","","","image-keyboard-response","126","250847","0.0-101.0","55ea70c37480920010aa9982","665500ab8938657b03fbdba8","6657933e67794463652049bc","2709","stimuli/2101001.jpg","0","","prediction_trial","2","","false","","2","false","true","false","false","false","false","[2,0]","101","001","0","","","","","","",""
"","","","","","image-keyboard-response","127","251253","0.0-102.0","55ea70c37480920010aa9982","665500ab8938657b03fbdba8","6657933e67794463652049bc","406","stimuli/21010012.jpg"," ","","feedback_trial","2","","","","","","","","","","","","","","","","","","","","",""
"","","","","","image-keyboard-response","128","252634","0.0-103.0","55ea70c37480920010aa9982","665500ab8938657b03fbdba8","6657933e67794463652049bc","1381","stimuli/2001001.jpg","2","","prediction_trial","2","","true","","2","false","true","false","true","false","true","[2]","001","001","1","","","","","","",""
"","","","","","image-keyboard-response","129","252872","0.0-104.0","55ea70c37480920010aa9982","665500ab8938657b03fbdba8","6657933e67794463652049bc","237","stimuli/20010012.jpg"," ","","feedback_trial","2","","","","","","","","","","","","","","","","","","","","",""
"","","","","","image-keyboard-response","130","254701","0.0-105.0","55ea70c37480920010aa9982","665500ab8938657b03fbdba8","6657933e67794463652049bc","1829","stimuli/2010000.jpg","2","","prediction_trial","2","","true","","2","true","true","true","true","true","true","[2]","010","000","1","","","","","","",""
"","","","","","image-keyboard-response","131","255114","0.0-106.0","55ea70c37480920010aa9982","665500ab8938657b03fbdba8","6657933e67794463652049bc","412","stimuli/20100002.jpg"," ","","feedback_trial","2","","","","","","","","","","","","","","","","","","","","",""
"","","","","","image-keyboard-response","132","256723","0.0-107.0","55ea70c37480920010aa9982","665500ab8938657b03fbdba8","6657933e67794463652049bc","1609","stimuli/2101111.jpg","2","","prediction_trial","0","","false","","2","false","false","false","false","false","false","[2,0]","101","111","0","","","","","","",""
"","","","","","image-keyboard-response","133","257178","0.0-108.0","55ea70c37480920010aa9982","665500ab8938657b03fbdba8","6657933e67794463652049bc","455","stimuli/21011110.jpg"," ","","feedback_trial","2","","","","","","","","","","","","","","","","","","","","",""
"","","","","","image-keyboard-response","134","258777","0.0-109.0","55ea70c37480920010aa9982","665500ab8938657b03fbdba8","6657933e67794463652049bc","1599","stimuli/2110110.jpg","2","","prediction_trial","2","","true","","2","true","true","true","true","true","true","[2]","110","110","1","","","","","","",""
"","","","","","image-keyboard-response","135","259059","0.0-110.0","55ea70c37480920010aa9982","665500ab8938657b03fbdba8","6657933e67794463652049bc","282","stimuli/21101102.jpg"," ","","feedback_trial","2","","","","","","","","","","","","","","","","","","","","",""
"","","","","","image-keyboard-response","136","260373","0.0-111.0","55ea70c37480920010aa9982","665500ab8938657b03fbdba8","6657933e67794463652049bc","1314","stimuli/2101000.jpg","2","","prediction_trial","0","","false","","2","true","true","false","false","false","false","[0,2]","101","000","0","","","","","","",""
"","","","","","image-keyboard-response","137","260729","0.0-112.0","55ea70c37480920010aa9982","665500ab8938657b03fbdba8","6657933e67794463652049bc","356","stimuli/21010000.jpg"," ","","feedback_trial","0","","","","","","","","","","","","","","","","","","","","",""
"","","","","","image-keyboard-response","138","262106","0.0-113.0","55ea70c37480920010aa9982","665500ab8938657b03fbdba8","6657933e67794463652049bc","1376","stimuli/1011011.jpg","1","","prediction_trial","1","","true","","1","false","false","false","false","false","false","[2,1]","011","011","1","","","","","","",""
"","","","","","image-keyboard-response","139","262530","0.0-114.0","55ea70c37480920010aa9982","665500ab8938657b03fbdba8","6657933e67794463652049bc","424","stimuli/10110111.jpg"," ","","feedback_trial","2","","","","","","","","","","","","","","","","","","","","",""
"","","","","","image-keyboard-response","140","264041","0.0-115.0","55ea70c37480920010aa9982","665500ab8938657b03fbdba8","6657933e67794463652049bc","1510","stimuli/2001110.jpg","2","","prediction_trial","2","","true","","2","true","true","false","true","false","true","[2]","001","110","1","","","","","","",""
"","","","","","image-keyboard-response","141","264336","0.0-116.0","55ea70c37480920010aa9982","665500ab8938657b03fbdba8","6657933e67794463652049bc","295","stimuli/20011102.jpg"," ","","feedback_trial","2","","","","","","","","","","","","","","","","","","","","",""
"","","","","","image-keyboard-response","142","265619","0.0-117.0","55ea70c37480920010aa9982","665500ab8938657b03fbdba8","6657933e67794463652049bc","1283","stimuli/2101010.jpg","2","","prediction_trial","2","","true","","2","true","true","false","false","false","false","[2,0]","101","010","1","","","","","","",""
"","","","","","image-keyboard-response","143","265982","0.0-118.0","55ea70c37480920010aa9982","665500ab8938657b03fbdba8","6657933e67794463652049bc","363","stimuli/21010102.jpg"," ","","feedback_trial","2","","","","","","","","","","","","","","","","","","","","",""
"","","","","","image-keyboard-response","144","267521","0.0-119.0","55ea70c37480920010aa9982","665500ab8938657b03fbdba8","6657933e67794463652049bc","1538","stimuli/1110110.jpg","0","","prediction_trial","0","","true","","1","false","false","false","false","false","false","[1,0]","110","110","1","","","","","","",""
"","","","","","image-keyboard-response","145","267954","0.0-120.0","55ea70c37480920010aa9982","665500ab8938657b03fbdba8","6657933e67794463652049bc","433","stimuli/11101100.jpg"," ","","feedback_trial","1","","","","","","","","","","","","","","","","","","","","",""
"","","","","","image-keyboard-response","146","269546","0.0-121.0","55ea70c37480920010aa9982","665500ab8938657b03fbdba8","6657933e67794463652049bc","1592","stimuli/0100010.jpg","0","","prediction_trial","0","","true","","0","true","true","false","true","false","true","[0]","100","010","1","","","","","","",""
"","","","","","image-keyboard-response","147","269812","0.0-122.0","55ea70c37480920010aa9982","665500ab8938657b03fbdba8","6657933e67794463652049bc","265","stimuli/01000100.jpg"," ","","feedback_trial","0","","","","","","","","","","","","","","","","","","","","",""
"","","","","","image-keyboard-response","148","271127","0.0-123.0","55ea70c37480920010aa9982","665500ab8938657b03fbdba8","6657933e67794463652049bc","1315","stimuli/2100011.jpg","1","","prediction_trial","2","","false","","2","false","false","true","true","false","false","[2]","100","011","0","","","","","","",""
"","","","","","image-keyboard-response","149","271566","0.0-124.0","55ea70c37480920010aa9982","665500ab8938657b03fbdba8","6657933e67794463652049bc","438","stimuli/21000112.jpg"," ","","feedback_trial","2","","","","","","","","","","","","","","","","","","","","",""
"","","","","","image-keyboard-response","150","272469","0.0-125.0","55ea70c37480920010aa9982","665500ab8938657b03fbdba8","6657933e67794463652049bc","903","stimuli/2000011.jpg","1","","prediction_trial","2","","false","","2","false","false","true","true","false","false","[2]","000","011","0","","","","","","",""
"","","","","","image-keyboard-response","151","272843","0.0-126.0","55ea70c37480920010aa9982","665500ab8938657b03fbdba8","6657933e67794463652049bc","373","stimuli/20000112.jpg"," ","","feedback_trial","2","","","","","","","","","","","","","","","","","","","","",""
"","","","","","image-keyboard-response","152","273844","0.0-127.0","55ea70c37480920010aa9982","665500ab8938657b03fbdba8","6657933e67794463652049bc","1000","stimuli/1000100.jpg","1","","prediction_trial","1","","true","","1","true","true","true","true","true","true","[1]","000","100","1","","","","","","",""
"","","","","","image-keyboard-response","153","274136","0.0-128.0","55ea70c37480920010aa9982","665500ab8938657b03fbdba8","6657933e67794463652049bc","293","stimuli/10001001.jpg"," ","","feedback_trial","1","","","","","","","","","","","","","","","","","","","","",""
"","","","","","image-keyboard-response","154","276201","0.0-129.0","55ea70c37480920010aa9982","665500ab8938657b03fbdba8","6657933e67794463652049bc","2065","stimuli/0110000.jpg","0","","prediction_trial","1","","false","","0","true","true","false","false","false","false","[0,1]","110","000","0","","","","","","",""
"","","","","","image-keyboard-response","155","276597","0.0-130.0","55ea70c37480920010aa9982","665500ab8938657b03fbdba8","6657933e67794463652049bc","395","stimuli/01100001.jpg"," ","","feedback_trial","0","","","","","","","","","","","","","","","","","","","","",""
"","","","","","image-keyboard-response","156","278172","0.0-131.0","55ea70c37480920010aa9982","665500ab8938657b03fbdba8","6657933e67794463652049bc","1575","stimuli/1001111.jpg","0","","prediction_trial","1","","false","","1","false","false","true","true","false","false","[1]","001","111","0","","","","","","",""
"","","","","","image-keyboard-response","157","278499","0.0-132.0","55ea70c37480920010aa9982","665500ab8938657b03fbdba8","6657933e67794463652049bc","327","stimuli/10011111.jpg"," ","","feedback_trial","1","","","","","","","","","","","","","","","","","","","","",""
"","","","","","image-keyboard-response","158","279313","0.0-133.0","55ea70c37480920010aa9982","665500ab8938657b03fbdba8","6657933e67794463652049bc","813","stimuli/0011011.jpg","0","","prediction_trial","0","","true","","0","true","true","true","true","true","true","[0]","011","011","1","","","","","","",""
"","","","","","image-keyboard-response","159","279731","0.0-134.0","55ea70c37480920010aa9982","665500ab8938657b03fbdba8","6657933e67794463652049bc","418","stimuli/00110110.jpg"," ","","feedback_trial","0","","","","","","","","","","","","","","","","","","","","",""
"","","","","","image-keyboard-response","160","280544","0.0-135.0","55ea70c37480920010aa9982","665500ab8938657b03fbdba8","6657933e67794463652049bc","813","stimuli/2110010.jpg","2","","prediction_trial","2","","true","","2","true","true","true","true","true","true","[2]","110","010","1","","","","","","",""
"","","","","","image-keyboard-response","161","280795","0.0-136.0","55ea70c37480920010aa9982","665500ab8938657b03fbdba8","6657933e67794463652049bc","251","stimuli/21100102.jpg"," ","","feedback_trial","2","","","","","","","","","","","","","","","","","","","","",""
"","","","","","image-keyboard-response","162","281902","0.0-137.0","55ea70c37480920010aa9982","665500ab8938657b03fbdba8","6657933e67794463652049bc","1107","stimuli/0011111.jpg","0","","prediction_trial","0","","true","","0","false","false","true","true","false","false","[0]","011","111","1","","","","","","",""
"","","","","","image-keyboard-response","163","282273","0.0-138.0","55ea70c37480920010aa9982","665500ab8938657b03fbdba8","6657933e67794463652049bc","371","stimuli/00111110.jpg"," ","","feedback_trial","0","","","","","","","","","","","","","","","","","","","","",""
"","","","","","image-keyboard-response","164","284335","0.0-139.0","55ea70c37480920010aa9982","665500ab8938657b03fbdba8","6657933e67794463652049bc","2061","stimuli/2111010.jpg","0","","prediction_trial","2","","false","","2","true","true","false","false","false","false","[2,0,1]","111","010","0","","","","","","",""
"","","","","","image-keyboard-response","165","284759","0.0-140.0","55ea70c37480920010aa9982","665500ab8938657b03fbdba8","6657933e67794463652049bc","423","stimuli/21110102.jpg"," ","","feedback_trial","2","","","","","","","","","","","","","","","","","","","","",""
"","","","","","image-keyboard-response","166","286134","0.0-141.0","55ea70c37480920010aa9982","665500ab8938657b03fbdba8","6657933e67794463652049bc","1375","stimuli/1111001.jpg","1","","prediction_trial","2","","false","","1","true","true","false","false","false","false","[1,0,2]","111","001","0","","","","","","",""
"","","","","","image-keyboard-response","167","286539","0.0-142.0","55ea70c37480920010aa9982","665500ab8938657b03fbdba8","6657933e67794463652049bc","404","stimuli/11110012.jpg"," ","","feedback_trial","1","","","","","","","","","","","","","","","","","","","","",""
"","","","","","image-keyboard-response","168","288393","0.0-143.0","55ea70c37480920010aa9982","665500ab8938657b03fbdba8","6657933e67794463652049bc","1853","stimuli/1110101.jpg","1","","prediction_trial","0","","false","","1","true","true","false","false","false","false","[0,1]","110","101","0","","","","","","",""
"","","","","","image-keyboard-response","169","288765","0.0-144.0","55ea70c37480920010aa9982","665500ab8938657b03fbdba8","6657933e67794463652049bc","372","stimuli/11101010.jpg"," ","","feedback_trial","0","","","","","","","","","","","","","","","","","","","","",""
"","","","","","image-keyboard-response","170","290396","0.0-145.0","55ea70c37480920010aa9982","665500ab8938657b03fbdba8","6657933e67794463652049bc","1631","stimuli/1111110.jpg","0","","prediction_trial","0","","true","","1","false","false","false","false","false","false","[0,2,1]","111","110","1","","","","","","",""
"","","","","","image-keyboard-response","171","290865","0.0-146.0","55ea70c37480920010aa9982","665500ab8938657b03fbdba8","6657933e67794463652049bc","468","stimuli/11111100.jpg"," ","","feedback_trial","0","","","","","","","","","","","","","","","","","","","","",""
"","","","","","image-keyboard-response","172","292490","0.0-147.0","55ea70c37480920010aa9982","665500ab8938657b03fbdba8","6657933e67794463652049bc","1625","stimuli/1000011.jpg","1","","prediction_trial","1","","true","","1","false","false","true","true","false","false","[1]","000","011","1","","","","","","",""
"","","","","","image-keyboard-response","173","292960","0.0-148.0","55ea70c37480920010aa9982","665500ab8938657b03fbdba8","6657933e67794463652049bc","470","stimuli/10000111.jpg"," ","","feedback_trial","1","","","","","","","","","","","","","","","","","","","","",""
"","","","","","image-keyboard-response","174","293946","0.0-149.0","55ea70c37480920010aa9982","665500ab8938657b03fbdba8","6657933e67794463652049bc","985","stimuli/1101101.jpg","1","","prediction_trial","1","","true","","1","true","true","true","true","true","true","[1]","101","101","1","","","","","","",""
"","","","","","image-keyboard-response","175","294306","0.0-150.0","55ea70c37480920010aa9982","665500ab8938657b03fbdba8","6657933e67794463652049bc","360","stimuli/11011011.jpg"," ","","feedback_trial","1","","","","","","","","","","","","","","","","","","","","",""
"","","","","","image-keyboard-response","176","295815","0.0-151.0","55ea70c37480920010aa9982","665500ab8938657b03fbdba8","6657933e67794463652049bc","1509","stimuli/0111101.jpg","2","","prediction_trial","2","","true","","0","false","false","false","false","false","false","[2,1,0]","111","101","1","","","","","","",""
"","","","","","image-keyboard-response","177","296267","0.0-152.0","55ea70c37480920010aa9982","665500ab8938657b03fbdba8","6657933e67794463652049bc","451","stimuli/01111012.jpg"," ","","feedback_trial","2","","","","","","","","","","","","","","","","","","","","",""
"","","","","","image-keyboard-response","178","297951","0.0-153.0","55ea70c37480920010aa9982","665500ab8938657b03fbdba8","6657933e67794463652049bc","1684","stimuli/2101101.jpg","2","","prediction_trial","0","","false","","2","false","false","false","false","false","false","[2,0]","101","101","0","","","","","","",""
"","","","","","image-keyboard-response","179","298405","0.0-154.0","55ea70c37480920010aa9982","665500ab8938657b03fbdba8","6657933e67794463652049bc","454","stimuli/21011010.jpg"," ","","feedback_trial","2","","","","","","","","","","","","","","","","","","","","",""
"","","","","","image-keyboard-response","180","299703","0.0-155.0","55ea70c37480920010aa9982","665500ab8938657b03fbdba8","6657933e67794463652049bc","1298","stimuli/2011101.jpg","2","","prediction_trial","1","","false","","2","false","false","false","false","false","false","[2,1]","011","101","0","","","","","","",""
"","","","","","image-keyboard-response","181","300079","0.0-156.0","55ea70c37480920010aa9982","665500ab8938657b03fbdba8","6657933e67794463652049bc","376","stimuli/20111011.jpg"," ","","feedback_trial","2","","","","","","","","","","","","","","","","","","","","",""
"","","","","","image-keyboard-response","182","301720","0.0-157.0","55ea70c37480920010aa9982","665500ab8938657b03fbdba8","6657933e67794463652049bc","1641","stimuli/1110000.jpg","1","","prediction_trial","0","","false","","1","true","true","false","false","false","false","[0,1]","110","000","0","","","","","","",""
"","","","","","image-keyboard-response","183","302096","0.0-158.0","55ea70c37480920010aa9982","665500ab8938657b03fbdba8","6657933e67794463652049bc","376","stimuli/11100000.jpg"," ","","feedback_trial","0","","","","","","","","","","","","","","","","","","","","",""
"","","","","","image-keyboard-response","184","303762","0.0-159.0","55ea70c37480920010aa9982","665500ab8938657b03fbdba8","6657933e67794463652049bc","1665","stimuli/1101010.jpg","1","","prediction_trial","1","","true","","1","false","true","true","true","false","true","[1]","101","010","1","","","","","","",""
"","","","","","image-keyboard-response","185","304060","0.0-160.0","55ea70c37480920010aa9982","665500ab8938657b03fbdba8","6657933e67794463652049bc","298","stimuli/11010101.jpg"," ","","feedback_trial","1","","","","","","","","","","","","","","","","","","","","",""
"","","","","","image-keyboard-response","186","304997","0.0-161.0","55ea70c37480920010aa9982","665500ab8938657b03fbdba8","6657933e67794463652049bc","936","stimuli/0010011.jpg","0","","prediction_trial","0","","true","","0","true","true","true","true","true","true","[0]","010","011","1","","","","","","",""
"","","","","","image-keyboard-response","187","305276","0.0-162.0","55ea70c37480920010aa9982","665500ab8938657b03fbdba8","6657933e67794463652049bc","279","stimuli/00100110.jpg"," ","","feedback_trial","0","","","","","","","","","","","","","","","","","","","","",""
"","","","","","image-keyboard-response","188","307769","0.0-163.0","55ea70c37480920010aa9982","665500ab8938657b03fbdba8","6657933e67794463652049bc","2493","stimuli/2111001.jpg","0","","prediction_trial","0","","true","","2","false","true","false","false","false","false","[1,0,2]","111","001","1","","","","","","",""
"","","","","","image-keyboard-response","189","308124","0.0-164.0","55ea70c37480920010aa9982","665500ab8938657b03fbdba8","6657933e67794463652049bc","355","stimuli/21110010.jpg"," ","","feedback_trial","1","","","","","","","","","","","","","","","","","","","","",""
"","","","","","image-keyboard-response","190","308954","0.0-165.0","55ea70c37480920010aa9982","665500ab8938657b03fbdba8","6657933e67794463652049bc","830","stimuli/1111101.jpg","1","","prediction_trial","1","","true","","1","true","true","false","false","false","false","[1,2,0]","111","101","1","","","","","","",""
"","","","","","image-keyboard-response","191","309377","0.0-166.0","55ea70c37480920010aa9982","665500ab8938657b03fbdba8","6657933e67794463652049bc","423","stimuli/11111011.jpg"," ","","feedback_trial","1","","","","","","","","","","","","","","","","","","","","",""
"","","","","","image-keyboard-response","192","312172","0.0-167.0","55ea70c37480920010aa9982","665500ab8938657b03fbdba8","6657933e67794463652049bc","2795","stimuli/0111100.jpg","2","","prediction_trial","1","","false","","0","false","true","false","false","false","false","[0,1,2]","111","100","0","","","","","","",""
"","","","","","image-keyboard-response","193","312579","0.0-168.0","55ea70c37480920010aa9982","665500ab8938657b03fbdba8","6657933e67794463652049bc","407","stimuli/01111001.jpg"," ","","feedback_trial","0","","","","","","","","","","","","","","","","","","","","",""
"","","","","","image-keyboard-response","194","314622","0.0-169.0","55ea70c37480920010aa9982","665500ab8938657b03fbdba8","6657933e67794463652049bc","2042","stimuli/0010100.jpg","1","","prediction_trial","0","","false","","0","false","true","true","true","false","true","[0]","010","100","0","","","","","","",""
"","","","","","image-keyboard-response","195","315608","0.0-170.0","55ea70c37480920010aa9982","665500ab8938657b03fbdba8","6657933e67794463652049bc","986","stimuli/00101000.jpg"," ","","feedback_trial","0","","","","","","","","","","","","","","","","","","","","",""
"","","","","","image-keyboard-response","196","319390","0.0-171.0","55ea70c37480920010aa9982","665500ab8938657b03fbdba8","6657933e67794463652049bc","3782","stimuli/2011111.jpg","2","","prediction_trial","1","","false","","2","false","false","false","false","false","false","[2,1]","011","111","0","","","","","","",""
"","","","","","image-keyboard-response","197","319762","0.0-172.0","55ea70c37480920010aa9982","665500ab8938657b03fbdba8","6657933e67794463652049bc","372","stimuli/20111111.jpg"," ","","feedback_trial","2","","","","","","","","","","","","","","","","","","","","",""
"","","","","","image-keyboard-response","198","321239","0.0-173.0","55ea70c37480920010aa9982","665500ab8938657b03fbdba8","6657933e67794463652049bc","1476","stimuli/0100011.jpg","0","","prediction_trial","0","","true","","0","true","true","false","true","false","true","[0]","100","011","1","","","","","","",""
"","","","","","image-keyboard-response","199","321504","0.0-174.0","55ea70c37480920010aa9982","665500ab8938657b03fbdba8","6657933e67794463652049bc","265","stimuli/01000110.jpg"," ","","feedback_trial","0","","","","","","","","","","","","","","","","","","","","",""
"","","","","","image-keyboard-response","200","322703","0.0-175.0","55ea70c37480920010aa9982","665500ab8938657b03fbdba8","6657933e67794463652049bc","1199","stimuli/0110110.jpg","0","","prediction_trial","0","","true","","0","false","false","false","false","false","false","[1,0]","110","110","1","","","","","","",""
"","","","","","image-keyboard-response","201","323092","0.0-176.0","55ea70c37480920010aa9982","665500ab8938657b03fbdba8","6657933e67794463652049bc","388","stimuli/01101100.jpg"," ","","feedback_trial","1","","","","","","","","","","","","","","","","","","","","",""
"","","","","","image-keyboard-response","202","325268","0.0-177.0","55ea70c37480920010aa9982","665500ab8938657b03fbdba8","6657933e67794463652049bc","2176","stimuli/2110011.jpg","2","","prediction_trial","2","","true","","2","false","false","true","true","false","false","[2]","110","011","1","","","","","","",""
"","","","","","image-keyboard-response","203","325660","0.0-178.0","55ea70c37480920010aa9982","665500ab8938657b03fbdba8","6657933e67794463652049bc","392","stimuli/21100112.jpg"," ","","feedback_trial","2","","","","","","","","","","","","","","","","","","","","",""
"","","","","","image-keyboard-response","204","328136","0.0-179.0","55ea70c37480920010aa9982","665500ab8938657b03fbdba8","6657933e67794463652049bc","2475","stimuli/2010011.jpg","1","","prediction_trial","2","","false","","2","false","false","true","true","false","false","[2]","010","011","0","","","","","","",""
"","","","","","image-keyboard-response","205","328541","0.0-180.0","55ea70c37480920010aa9982","665500ab8938657b03fbdba8","6657933e67794463652049bc","405","stimuli/20100112.jpg"," ","","feedback_trial","2","","","","","","","","","","","","","","","","","","","","",""
"","","","","","image-keyboard-response","206","330199","0.0-181.0","55ea70c37480920010aa9982","665500ab8938657b03fbdba8","6657933e67794463652049bc","1658","stimuli/2010001.jpg","2","","prediction_trial","2","","true","","2","false","true","true","true","false","true","[2]","010","001","1","","","","","","",""
"","","","","","image-keyboard-response","207","330479","0.0-182.0","55ea70c37480920010aa9982","665500ab8938657b03fbdba8","6657933e67794463652049bc","280","stimuli/20100012.jpg"," ","","feedback_trial","2","","","","","","","","","","","","","","","","","","","","",""
"","","","","","image-keyboard-response","208","332009","0.0-183.0","55ea70c37480920010aa9982","665500ab8938657b03fbdba8","6657933e67794463652049bc","1530","stimuli/2001111.jpg","0","","prediction_trial","2","","false","","2","false","false","false","true","false","false","[2]","001","111","0","","","","","","",""
"","","","","","image-keyboard-response","209","332384","0.0-184.0","55ea70c37480920010aa9982","665500ab8938657b03fbdba8","6657933e67794463652049bc","375","stimuli/20011112.jpg"," ","","feedback_trial","2","","","","","","","","","","","","","","","","","","","","",""
"","","","","","image-keyboard-response","210","333990","0.0-185.0","55ea70c37480920010aa9982","665500ab8938657b03fbdba8","6657933e67794463652049bc","1606","stimuli/2011110.jpg","2","","prediction_trial","1","","false","","2","true","true","false","false","false","false","[2,1]","011","110","0","","","","","","",""
"","","","","","image-keyboard-response","211","334366","0.0-186.0","55ea70c37480920010aa9982","665500ab8938657b03fbdba8","6657933e67794463652049bc","375","stimuli/20111101.jpg"," ","","feedback_trial","2","","","","","","","","","","","","","","","","","","","","",""
"","","","","","image-keyboard-response","212","335648","0.0-187.0","55ea70c37480920010aa9982","665500ab8938657b03fbdba8","6657933e67794463652049bc","1282","stimuli/2011010.jpg","2","","prediction_trial","1","","false","","2","true","true","false","false","false","false","[1,2]","011","010","0","","","","","","",""
"","","","","","image-keyboard-response","213","336039","0.0-188.0","55ea70c37480920010aa9982","665500ab8938657b03fbdba8","6657933e67794463652049bc","391","stimuli/20110101.jpg"," ","","feedback_trial","1","","","","","","","","","","","","","","","","","","","","",""
"","","","","","image-keyboard-response","214","337085","0.0-189.0","55ea70c37480920010aa9982","665500ab8938657b03fbdba8","6657933e67794463652049bc","1045","stimuli/1011101.jpg","1","","prediction_trial","2","","false","","1","true","true","false","false","false","false","[2,1]","011","101","0","","","","","","",""
"","","","","","image-keyboard-response","215","337445","0.0-190.0","55ea70c37480920010aa9982","665500ab8938657b03fbdba8","6657933e67794463652049bc","360","stimuli/10111012.jpg"," ","","feedback_trial","2","","","","","","","","","","","","","","","","","","","","",""
"","","","","","image-keyboard-response","216","338747","0.0-191.0","55ea70c37480920010aa9982","665500ab8938657b03fbdba8","6657933e67794463652049bc","1301","stimuli/0110011.jpg","0","","prediction_trial","1","","false","","0","true","true","false","false","false","false","[1,0]","110","011","0","","","","","","",""
"","","","","","image-keyboard-response","217","339122","0.0-192.0","55ea70c37480920010aa9982","665500ab8938657b03fbdba8","6657933e67794463652049bc","375","stimuli/01100111.jpg"," ","","feedback_trial","1","","","","","","","","","","","","","","","","","","","","",""
"","","","","","image-keyboard-response","218","340830","0.0-193.0","55ea70c37480920010aa9982","665500ab8938657b03fbdba8","6657933e67794463652049bc","1708","stimuli/2111100.jpg","0","","prediction_trial","0","","true","","2","true","true","false","false","false","false","[1,0,2]","111","100","1","","","","","","",""
"","","","","","image-keyboard-response","219","341286","0.0-194.0","55ea70c37480920010aa9982","665500ab8938657b03fbdba8","6657933e67794463652049bc","455","stimuli/21111000.jpg"," ","","feedback_trial","1","","","","","","","","","","","","","","","","","","","","",""
"","","","","","image-keyboard-response","220","342377","0.0-195.0","55ea70c37480920010aa9982","665500ab8938657b03fbdba8","6657933e67794463652049bc","1091","stimuli/2000100.jpg","2","","prediction_trial","2","","true","","2","true","true","true","true","true","true","[2]","000","100","1","","","","","","",""
"","","","","","image-keyboard-response","221","342716","0.0-196.0","55ea70c37480920010aa9982","665500ab8938657b03fbdba8","6657933e67794463652049bc","339","stimuli/20001002.jpg"," ","","feedback_trial","2","","","","","","","","","","","","","","","","","","","","",""
"","","","","","image-keyboard-response","222","343898","0.0-197.0","55ea70c37480920010aa9982","665500ab8938657b03fbdba8","6657933e67794463652049bc","1181","stimuli/0101010.jpg","0","","prediction_trial","2","","false","","0","true","true","false","false","false","false","[2,0]","101","010","0","","","","","","",""
"","","","","","image-keyboard-response","223","344256","0.0-198.0","55ea70c37480920010aa9982","665500ab8938657b03fbdba8","6657933e67794463652049bc","358","stimuli/01010102.jpg"," ","","feedback_trial","2","","","","","","","","","","","","","","","","","","","","",""
"","","","","","image-keyboard-response","224","346437","0.0-199.0","55ea70c37480920010aa9982","665500ab8938657b03fbdba8","6657933e67794463652049bc","2181","stimuli/1010011.jpg","2","","prediction_trial","1","","false","","1","false","false","false","true","false","false","[1]","010","011","0","","","","","","",""
"","","","","","image-keyboard-response","225","346876","0.0-200.0","55ea70c37480920010aa9982","665500ab8938657b03fbdba8","6657933e67794463652049bc","439","stimuli/10100111.jpg"," ","","feedback_trial","1","","","","","","","","","","","","","","","","","","","","",""
"","","","","","image-keyboard-response","226","347882","0.0-201.0","55ea70c37480920010aa9982","665500ab8938657b03fbdba8","6657933e67794463652049bc","1006","stimuli/2110000.jpg","2","","prediction_trial","2","","true","","2","true","true","true","true","true","true","[2]","110","000","1","","","","","","",""
"","","","","","image-keyboard-response","227","348284","0.0-202.0","55ea70c37480920010aa9982","665500ab8938657b03fbdba8","6657933e67794463652049bc","401","stimuli/21100002.jpg"," ","","feedback_trial","2","","","","","","","","","","","","","","","","","","","","",""
"","","","","","image-keyboard-response","228","349738","0.0-203.0","55ea70c37480920010aa9982","665500ab8938657b03fbdba8","6657933e67794463652049bc","1453","stimuli/0001100.jpg","0","","prediction_trial","0","","true","","0","false","true","true","true","false","true","[0]","001","100","1","","","","","","",""
"","","","","","image-keyboard-response","229","350085","0.0-204.0","55ea70c37480920010aa9982","665500ab8938657b03fbdba8","6657933e67794463652049bc","347","stimuli/00011000.jpg"," ","","feedback_trial","0","","","","","","","","","","","","","","","","","","","","",""
"","","","","","image-keyboard-response","230","351086","0.0-205.0","55ea70c37480920010aa9982","665500ab8938657b03fbdba8","6657933e67794463652049bc","1001","stimuli/1000010.jpg","1","","prediction_trial","1","","true","","1","false","true","true","true","false","true","[1]","000","010","1","","","","","","",""
"","","","","","image-keyboard-response","231","351365","0.0-206.0","55ea70c37480920010aa9982","665500ab8938657b03fbdba8","6657933e67794463652049bc","278","stimuli/10000101.jpg"," ","","feedback_trial","1","","","","","","","","","","","","","","","","","","","","",""
"","","","","","image-keyboard-response","232","352399","0.0-207.0","55ea70c37480920010aa9982","665500ab8938657b03fbdba8","6657933e67794463652049bc","1034","stimuli/2100110.jpg","2","","prediction_trial","2","","true","","2","true","true","true","true","true","true","[2]","100","110","1","","","","","","",""
"","","","","","image-keyboard-response","233","352650","0.0-208.0","55ea70c37480920010aa9982","665500ab8938657b03fbdba8","6657933e67794463652049bc","250","stimuli/21001102.jpg"," ","","feedback_trial","2","","","","","","","","","","","","","","","","","","","","",""
"","","","","","image-keyboard-response","234","353776","0.0-209.0","55ea70c37480920010aa9982","665500ab8938657b03fbdba8","6657933e67794463652049bc","1126","stimuli/1110100.jpg","1","","prediction_trial","0","","false","","1","true","true","false","false","false","false","[0,1]","110","100","0","","","","","","",""
"","","","","","image-keyboard-response","235","354090","0.0-210.0","55ea70c37480920010aa9982","665500ab8938657b03fbdba8","6657933e67794463652049bc","314","stimuli/11101000.jpg"," ","","feedback_trial","0","","","","","","","","","","","","","","","","","","","","",""
"","","","","","image-keyboard-response","236","355632","0.0-211.0","55ea70c37480920010aa9982","665500ab8938657b03fbdba8","6657933e67794463652049bc","1542","stimuli/2011001.jpg","2","","prediction_trial","2","","true","","2","false","true","false","false","false","false","[2,1]","011","001","1","","","","","","",""
"","","","","","image-keyboard-response","237","355942","0.0-212.0","55ea70c37480920010aa9982","665500ab8938657b03fbdba8","6657933e67794463652049bc","310","stimuli/20110012.jpg"," ","","feedback_trial","2","","","","","","","","","","","","","","","","","","","","",""
"","","","","","image-keyboard-response","238","357826","0.0-213.0","55ea70c37480920010aa9982","665500ab8938657b03fbdba8","6657933e67794463652049bc","1884","stimuli/1100110.jpg","1","","prediction_trial","1","","true","","1","false","false","true","true","false","false","[1]","100","110","1","","","","","","",""
"","","","","","image-keyboard-response","239","358160","0.0-214.0","55ea70c37480920010aa9982","665500ab8938657b03fbdba8","6657933e67794463652049bc","334","stimuli/11001101.jpg"," ","","feedback_trial","1","","","","","","","","","","","","","","","","","","","","",""
"","","","","","image-keyboard-response","240","359503","0.0-215.0","55ea70c37480920010aa9982","665500ab8938657b03fbdba8","6657933e67794463652049bc","1343","stimuli/0101100.jpg","0","","prediction_trial","0","","true","","0","false","true","false","false","false","false","[0,2]","101","100","1","","","","","","",""
"","","","","","image-keyboard-response","241","360538","0.0-216.0","55ea70c37480920010aa9982","665500ab8938657b03fbdba8","6657933e67794463652049bc","1034","stimuli/01011000.jpg"," ","","feedback_trial","0","","","","","","","","","","","","","","","","","","","","",""
"","","","","","image-keyboard-response","242","361872","0.0-217.0","55ea70c37480920010aa9982","665500ab8938657b03fbdba8","6657933e67794463652049bc","1334","stimuli/1011001.jpg","1","","prediction_trial","1","","true","","1","true","true","false","false","false","false","[2,1]","011","001","1","","","","","","",""
"","","","","","image-keyboard-response","243","362271","0.0-218.0","55ea70c37480920010aa9982","665500ab8938657b03fbdba8","6657933e67794463652049bc","398","stimuli/10110011.jpg"," ","","feedback_trial","2","","","","","","","","","","","","","","","","","","","","",""
"","","","","","image-keyboard-response","244","363363","0.0-219.0","55ea70c37480920010aa9982","665500ab8938657b03fbdba8","6657933e67794463652049bc","1092","stimuli/0101001.jpg","0","","prediction_trial","2","","false","","0","true","true","false","false","false","false","[0,2]","101","001","0","","","","","","",""
"","","","","","image-keyboard-response","245","365097","0.0-220.0","55ea70c37480920010aa9982","665500ab8938657b03fbdba8","6657933e67794463652049bc","1734","stimuli/01010012.jpg"," ","","feedback_trial","0","","","","","","","","","","","","","","","","","","","","",""
"","","","","","image-keyboard-response","246","366614","0.0-221.0","55ea70c37480920010aa9982","665500ab8938657b03fbdba8","6657933e67794463652049bc","1517","stimuli/1111010.jpg","2","","prediction_trial","0","","false","","1","false","true","false","false","false","false","[0,2,1]","111","010","0","","","","","","",""
"","","","","","image-keyboard-response","247","366970","0.0-222.0","55ea70c37480920010aa9982","665500ab8938657b03fbdba8","6657933e67794463652049bc","356","stimuli/11110100.jpg"," ","","feedback_trial","0","","","","","","","","","","","","","","","","","","","","",""
"","","","","","image-keyboard-response","248","367716","0.0-223.0","55ea70c37480920010aa9982","665500ab8938657b03fbdba8","6657933e67794463652049bc","745","stimuli/1000001.jpg","1","","prediction_trial","1","","true","","1","true","true","true","true","true","true","[1]","000","001","1","","","","","","",""
"","","","","","image-keyboard-response","249","368003","0.0-224.0","55ea70c37480920010aa9982","665500ab8938657b03fbdba8","6657933e67794463652049bc","287","stimuli/10000011.jpg"," ","","feedback_trial","1","","","","","","","","","","","","","","","","","","","","",""
"","","","","","image-keyboard-response","250","368560","0.0-225.0","55ea70c37480920010aa9982","665500ab8938657b03fbdba8","6657933e67794463652049bc","556","stimuli/0001010.jpg","0","","prediction_trial","0","","true","","0","true","true","true","true","true","true","[0]","001","010","1","","","","","","",""
"","","","","","image-keyboard-response","251","368827","0.0-226.0","55ea70c37480920010aa9982","665500ab8938657b03fbdba8","6657933e67794463652049bc","267","stimuli/00010100.jpg"," ","","feedback_trial","0","","","","","","","","","","","","","","","","","","","","",""
"","","","","","image-keyboard-response","252","370313","0.0-227.0","55ea70c37480920010aa9982","665500ab8938657b03fbdba8","6657933e67794463652049bc","1486","stimuli/0001111.jpg","0","","prediction_trial","0","","true","","0","false","false","true","true","false","false","[0]","001","111","1","","","","","","",""
"","","","","","image-keyboard-response","253","370640","0.0-228.0","55ea70c37480920010aa9982","665500ab8938657b03fbdba8","6657933e67794463652049bc","327","stimuli/00011110.jpg"," ","","feedback_trial","0","","","","","","","","","","","","","","","","","","","","",""
"","","","","","image-keyboard-response","254","371795","0.0-229.0","55ea70c37480920010aa9982","665500ab8938657b03fbdba8","6657933e67794463652049bc","1154","stimuli/1010010.jpg","1","","prediction_trial","1","","true","","1","false","true","false","true","false","true","[1]","010","010","1","","","","","","",""
"","","","","","image-keyboard-response","255","372074","0.0-230.0","55ea70c37480920010aa9982","665500ab8938657b03fbdba8","6657933e67794463652049bc","279","stimuli/10100101.jpg"," ","","feedback_trial","1","","","","","","","","","","","","","","","","","","","","",""
"","","","","","image-keyboard-response","256","373137","0.0-231.0","55ea70c37480920010aa9982","665500ab8938657b03fbdba8","6657933e67794463652049bc","1062","stimuli/1001110.jpg","0","","prediction_trial","1","","false","","1","false","false","true","true","false","false","[1]","001","110","0","","","","","","",""
"","","","","","image-keyboard-response","257","373542","0.0-232.0","55ea70c37480920010aa9982","665500ab8938657b03fbdba8","6657933e67794463652049bc","405","stimuli/10011101.jpg"," ","","feedback_trial","1","","","","","","","","","","","","","","","","","","","","",""
"","","","","","image-keyboard-response","258","374124","0.0-233.0","55ea70c37480920010aa9982","665500ab8938657b03fbdba8","6657933e67794463652049bc","582","stimuli/1100100.jpg","1","","prediction_trial","1","","true","","1","true","true","true","true","true","true","[1]","100","100","1","","","","","","",""
"","","","","","image-keyboard-response","259","374374","0.0-234.0","55ea70c37480920010aa9982","665500ab8938657b03fbdba8","6657933e67794463652049bc","250","stimuli/11001001.jpg"," ","","feedback_trial","1","","","","","","","","","","","","","","","","","","","","",""
"","","","","","image-keyboard-response","260","375988","0.0-235.0","55ea70c37480920010aa9982","665500ab8938657b03fbdba8","6657933e67794463652049bc","1614","stimuli/0111000.jpg","2","","prediction_trial","2","","true","","0","true","true","false","false","false","false","[0,1,2]","111","000","1","","","","","","",""
"","","","","","image-keyboard-response","261","376361","0.0-236.0","55ea70c37480920010aa9982","665500ab8938657b03fbdba8","6657933e67794463652049bc","373","stimuli/01110002.jpg"," ","","feedback_trial","0","","","","","","","","","","","","","","","","","","","","",""
"","","","","","image-keyboard-response","262","377627","0.0-237.0","55ea70c37480920010aa9982","665500ab8938657b03fbdba8","6657933e67794463652049bc","1265","stimuli/1100111.jpg","1","","prediction_trial","1","","true","","1","false","false","true","true","false","false","[1]","100","111","1","","","","","","",""
"","","","","","image-keyboard-response","263","377938","0.0-238.0","55ea70c37480920010aa9982","665500ab8938657b03fbdba8","6657933e67794463652049bc","311","stimuli/11001111.jpg"," ","","feedback_trial","1","","","","","","","","","","","","","","","","","","","","",""
"","","","","","image-keyboard-response","264","378907","0.0-239.0","55ea70c37480920010aa9982","665500ab8938657b03fbdba8","6657933e67794463652049bc","969","stimuli/0100000.jpg","0","","prediction_trial","0","","true","","0","true","true","false","true","false","true","[0]","100","000","1","","","","","","",""
"","","","","","image-keyboard-response","265","379218","0.0-240.0","55ea70c37480920010aa9982","665500ab8938657b03fbdba8","6657933e67794463652049bc","311","stimuli/01000000.jpg"," ","","feedback_trial","0","","","","","","","","","","","","","","","","","","","","",""
"","","","","","image-keyboard-response","266","379905","0.0-241.0","55ea70c37480920010aa9982","665500ab8938657b03fbdba8","6657933e67794463652049bc","687","stimuli/1101001.jpg","1","","prediction_trial","1","","true","","1","true","true","true","true","true","true","[1]","101","001","1","","","","","","",""
"","","","","","image-keyboard-response","267","380199","0.0-242.0","55ea70c37480920010aa9982","665500ab8938657b03fbdba8","6657933e67794463652049bc","293","stimuli/11010011.jpg"," ","","feedback_trial","1","","","","","","","","","","","","","","","","","","","","",""
"","","","","","image-keyboard-response","268","381258","0.0-243.0","55ea70c37480920010aa9982","665500ab8938657b03fbdba8","6657933e67794463652049bc","1059","stimuli/1010101.jpg","1","","prediction_trial","1","","true","","1","true","true","false","true","false","true","[1]","010","101","1","","","","","","",""
"","","","","","image-keyboard-response","269","381543","0.0-244.0","55ea70c37480920010aa9982","665500ab8938657b03fbdba8","6657933e67794463652049bc","285","stimuli/10101011.jpg"," ","","feedback_trial","1","","","","","","","","","","","","","","","","","","","","",""
"","","","","","image-keyboard-response","270","382480","0.0-245.0","55ea70c37480920010aa9982","665500ab8938657b03fbdba8","6657933e67794463652049bc","937","stimuli/1010100.jpg","1","","prediction_trial","1","","true","","1","true","true","false","true","false","true","[1]","010","100","1","","","","","","",""
"","","","","","image-keyboard-response","271","382777","0.0-246.0","55ea70c37480920010aa9982","665500ab8938657b03fbdba8","6657933e67794463652049bc","296","stimuli/10101001.jpg"," ","","feedback_trial","1","","","","","","","","","","","","","","","","","","","","",""
"","","","","","image-keyboard-response","272","383971","0.0-247.0","55ea70c37480920010aa9982","665500ab8938657b03fbdba8","6657933e67794463652049bc","1194","stimuli/2001100.jpg","2","","prediction_trial","2","","true","","2","true","true","false","true","false","true","[2]","001","100","1","","","","","","",""
"","","","","","image-keyboard-response","273","384344","0.0-248.0","55ea70c37480920010aa9982","665500ab8938657b03fbdba8","6657933e67794463652049bc","373","stimuli/20011002.jpg"," ","","feedback_trial","2","","","","","","","","","","","","","","","","","","","","",""
"","","","","","image-keyboard-response","274","385532","0.0-249.0","55ea70c37480920010aa9982","665500ab8938657b03fbdba8","6657933e67794463652049bc","1188","stimuli/0101111.jpg","2","","prediction_trial","2","","true","","0","false","false","false","false","false","false","[0,2]","101","111","1","","","","","","",""
"","","","","","image-keyboard-response","275","385862","0.0-250.0","55ea70c37480920010aa9982","665500ab8938657b03fbdba8","6657933e67794463652049bc","329","stimuli/01011112.jpg"," ","","feedback_trial","0","","","","","","","","","","","","","","","","","","","","",""
"","","","","","image-keyboard-response","276","386593","0.0-251.0","55ea70c37480920010aa9982","665500ab8938657b03fbdba8","6657933e67794463652049bc","731","stimuli/0011000.jpg","0","","prediction_trial","0","","true","","0","true","true","true","true","true","true","[0]","011","000","1","","","","","","",""
"","","","","","image-keyboard-response","277","386874","0.0-252.0","55ea70c37480920010aa9982","665500ab8938657b03fbdba8","6657933e67794463652049bc","281","stimuli/00110000.jpg"," ","","feedback_trial","0","","","","","","","","","","","","","","","","","","","","",""
"","","","","","image-keyboard-response","278","387965","0.0-253.0","55ea70c37480920010aa9982","665500ab8938657b03fbdba8","6657933e67794463652049bc","1091","stimuli/0000100.jpg","0","","prediction_trial","0","","true","","0","false","true","true","true","false","true","[0]","000","100","1","","","","","","",""
"","","","","","image-keyboard-response","279","388199","0.0-254.0","55ea70c37480920010aa9982","665500ab8938657b03fbdba8","6657933e67794463652049bc","234","stimuli/00001000.jpg"," ","","feedback_trial","0","","","","","","","","","","","","","","","","","","","","",""
"","","","","","image-keyboard-response","280","389759","0.0-255.0","55ea70c37480920010aa9982","665500ab8938657b03fbdba8","6657933e67794463652049bc","1560","stimuli/1111111.jpg","1","","prediction_trial","0","","false","","1","false","false","false","false","false","false","[2,0,1]","111","111","0","","","","","","",""
"","","","","","image-keyboard-response","281","390104","0.0-256.0","55ea70c37480920010aa9982","665500ab8938657b03fbdba8","6657933e67794463652049bc","345","stimuli/11111110.jpg"," ","","feedback_trial","2","","","","","","","","","","","","","","","","","","","","",""
"","","","","","image-keyboard-response","282","391843","0.0-257.0","55ea70c37480920010aa9982","665500ab8938657b03fbdba8","6657933e67794463652049bc","1739","stimuli/2010101.jpg","0","","prediction_trial","2","","false","","2","false","false","true","true","false","false","[2]","010","101","0","","","","","","",""
"","","","","","image-keyboard-response","283","392281","0.0-258.0","55ea70c37480920010aa9982","665500ab8938657b03fbdba8","6657933e67794463652049bc","438","stimuli/20101012.jpg"," ","","feedback_trial","2","","","","","","","","","","","","","","","","","","","","",""
"","","","","","image-keyboard-response","284","393941","0.0-259.0","55ea70c37480920010aa9982","665500ab8938657b03fbdba8","6657933e67794463652049bc","1659","stimuli/2100001.jpg","2","","prediction_trial","2","","true","","2","false","true","true","true","false","true","[2]","100","001","1","","","","","","",""
"","","","","","image-keyboard-response","285","394175","0.0-260.0","55ea70c37480920010aa9982","665500ab8938657b03fbdba8","6657933e67794463652049bc","234","stimuli/21000012.jpg"," ","","feedback_trial","2","","","","","","","","","","","","","","","","","","","","",""
"","","","","","image-keyboard-response","286","394894","0.0-261.0","55ea70c37480920010aa9982","665500ab8938657b03fbdba8","6657933e67794463652049bc","719","stimuli/2110100.jpg","2","","prediction_trial","2","","true","","2","true","true","true","true","true","true","[2]","110","100","1","","","","","","",""
"","","","","","image-keyboard-response","287","395170","0.0-262.0","55ea70c37480920010aa9982","665500ab8938657b03fbdba8","6657933e67794463652049bc","275","stimuli/21101002.jpg"," ","","feedback_trial","2","","","","","","","","","","","","","","","","","","","","",""
"","","","","","image-keyboard-response","288","396371","0.0-263.0","55ea70c37480920010aa9982","665500ab8938657b03fbdba8","6657933e67794463652049bc","1200","stimuli/2000111.jpg","2","","prediction_trial","2","","true","","2","false","false","true","true","false","false","[2]","000","111","1","","","","","","",""
"","","","","","image-keyboard-response","289","396730","0.0-264.0","55ea70c37480920010aa9982","665500ab8938657b03fbdba8","6657933e67794463652049bc","359","stimuli/20001112.jpg"," ","","feedback_trial","2","","","","","","","","","","","","","","","","","","","","",""
"","","","","","image-keyboard-response","290","397467","0.0-265.0","55ea70c37480920010aa9982","665500ab8938657b03fbdba8","6657933e67794463652049bc","736","stimuli/0010000.jpg","0","","prediction_trial","0","","true","","0","true","true","true","true","true","true","[0]","010","000","1","","","","","","",""
"","","","","","image-keyboard-response","291","397780","0.0-266.0","55ea70c37480920010aa9982","665500ab8938657b03fbdba8","6657933e67794463652049bc","313","stimuli/00100000.jpg"," ","","feedback_trial","0","","","","","","","","","","","","","","","","","","","","",""
"","","","","","image-keyboard-response","292","399344","0.0-267.0","55ea70c37480920010aa9982","665500ab8938657b03fbdba8","6657933e67794463652049bc","1564","stimuli/0101000.jpg","0","","prediction_trial","0","","true","","0","true","true","false","false","false","false","[2,0]","101","000","1","","","","","","",""
"","","","","","image-keyboard-response","293","399731","0.0-268.0","55ea70c37480920010aa9982","665500ab8938657b03fbdba8","6657933e67794463652049bc","387","stimuli/01010000.jpg"," ","","feedback_trial","2","","","","","","","","","","","","","","","","","","","","",""
"","","","","","image-keyboard-response","294","400821","0.0-269.0","55ea70c37480920010aa9982","665500ab8938657b03fbdba8","6657933e67794463652049bc","1089","stimuli/0101011.jpg","0","","prediction_trial","2","","false","","0","true","true","false","false","false","false","[2,0]","101","011","0","","","","","","",""
"","","","","","image-keyboard-response","295","401195","0.0-270.0","55ea70c37480920010aa9982","665500ab8938657b03fbdba8","6657933e67794463652049bc","374","stimuli/01010112.jpg"," ","","feedback_trial","2","","","","","","","","","","","","","","","","","","","","",""
"","","","","","image-keyboard-response","296","402684","0.0-271.0","55ea70c37480920010aa9982","665500ab8938657b03fbdba8","6657933e67794463652049bc","1488","stimuli/1110111.jpg","0","","prediction_trial","1","","false","","1","false","false","false","false","false","false","[0,1]","110","111","0","","","","","","",""
"","","","","","image-keyboard-response","297","403045","0.0-272.0","55ea70c37480920010aa9982","665500ab8938657b03fbdba8","6657933e67794463652049bc","361","stimuli/11101111.jpg"," ","","feedback_trial","0","","","","","","","","","","","","","","","","","","","","",""
"","","","","","image-keyboard-response","298","403730","0.0-273.0","55ea70c37480920010aa9982","665500ab8938657b03fbdba8","6657933e67794463652049bc","685","stimuli/2000010.jpg","2","","prediction_trial","2","","true","","2","true","true","true","true","true","true","[2]","000","010","1","","","","","","",""
"","","","","","image-keyboard-response","299","403997","0.0-274.0","55ea70c37480920010aa9982","665500ab8938657b03fbdba8","6657933e67794463652049bc","267","stimuli/20000102.jpg"," ","","feedback_trial","2","","","","","","","","","","","","","","","","","","","","",""
"","","","","","image-keyboard-response","300","404764","0.0-275.0","55ea70c37480920010aa9982","665500ab8938657b03fbdba8","6657933e67794463652049bc","766","stimuli/1000101.jpg","1","","prediction_trial","1","","true","","1","true","true","true","true","true","true","[1]","000","101","1","","","","","","",""
"","","","","","image-keyboard-response","301","405013","0.0-276.0","55ea70c37480920010aa9982","665500ab8938657b03fbdba8","6657933e67794463652049bc","249","stimuli/10001011.jpg"," ","","feedback_trial","1","","","","","","","","","","","","","","","","","","","","",""
"","","","","","image-keyboard-response","302","406073","0.0-277.0","55ea70c37480920010aa9982","665500ab8938657b03fbdba8","6657933e67794463652049bc","1060","stimuli/2101110.jpg","2","","prediction_trial","2","","true","","2","true","true","false","false","false","false","[0,2]","101","110","1","","","","","","",""
"","","","","","image-keyboard-response","303","406448","0.0-278.0","55ea70c37480920010aa9982","665500ab8938657b03fbdba8","6657933e67794463652049bc","375","stimuli/21011102.jpg"," ","","feedback_trial","0","","","","","","","","","","","","","","","","","","","","",""
"","","","","","image-keyboard-response","304","407729","0.0-279.0","55ea70c37480920010aa9982","665500ab8938657b03fbdba8","6657933e67794463652049bc","1281","stimuli/1111000.jpg","2","","prediction_trial","1","","false","","1","true","true","false","false","false","false","[0,1,2]","111","000","0","","","","","","",""
"","","","","","image-keyboard-response","305","408137","0.0-280.0","55ea70c37480920010aa9982","665500ab8938657b03fbdba8","6657933e67794463652049bc","408","stimuli/11110001.jpg"," ","","feedback_trial","0","","","","","","","","","","","","","","","","","","","","",""
"","","","","","image-keyboard-response","306","409985","0.0-281.0","55ea70c37480920010aa9982","665500ab8938657b03fbdba8","6657933e67794463652049bc","1848","stimuli/1010110.jpg","1","","prediction_trial","1","","true","","1","false","false","false","true","false","false","[1]","010","110","1","","","","","","",""
"","","","","","image-keyboard-response","307","410289","0.0-282.0","55ea70c37480920010aa9982","665500ab8938657b03fbdba8","6657933e67794463652049bc","304","stimuli/10101101.jpg"," ","","feedback_trial","1","","","","","","","","","","","","","","","","","","","","",""
"","","","","","image-keyboard-response","308","410879","0.0-283.0","55ea70c37480920010aa9982","665500ab8938657b03fbdba8","6657933e67794463652049bc","589","stimuli/0001001.jpg","0","","prediction_trial","0","","true","","0","true","true","true","true","true","true","[0]","001","001","1","","","","","","",""
"","","","","","image-keyboard-response","309","411176","0.0-284.0","55ea70c37480920010aa9982","665500ab8938657b03fbdba8","6657933e67794463652049bc","297","stimuli/00010010.jpg"," ","","feedback_trial","0","","","","","","","","","","","","","","","","","","","","",""
"","","","","","image-keyboard-response","310","413144","0.0-285.0","55ea70c37480920010aa9982","665500ab8938657b03fbdba8","6657933e67794463652049bc","1968","stimuli/2110101.jpg","0","","prediction_trial","2","","false","","2","false","false","true","true","false","false","[2]","110","101","0","","","","","","",""
"","","","","","image-keyboard-response","311","413502","0.0-286.0","55ea70c37480920010aa9982","665500ab8938657b03fbdba8","6657933e67794463652049bc","357","stimuli/21101012.jpg"," ","","feedback_trial","2","","","","","","","","","","","","","","","","","","","","",""
"","","","","","image-keyboard-response","312","414582","0.0-287.0","55ea70c37480920010aa9982","665500ab8938657b03fbdba8","6657933e67794463652049bc","1080","stimuli/1110010.jpg","1","","prediction_trial","1","","true","","1","false","true","false","false","false","false","[0,1]","110","010","1","","","","","","",""
"","","","","","image-keyboard-response","313","414881","0.0-288.0","55ea70c37480920010aa9982","665500ab8938657b03fbdba8","6657933e67794463652049bc","299","stimuli/11100101.jpg"," ","","feedback_trial","0","","","","","","","","","","","","","","","","","","","","",""
"","","","","","image-keyboard-response","314","415722","0.0-289.0","55ea70c37480920010aa9982","665500ab8938657b03fbdba8","6657933e67794463652049bc","841","stimuli/0001011.jpg","0","","prediction_trial","0","","true","","0","true","true","true","true","true","true","[0]","001","011","1","","","","","","",""
"","","","","","image-keyboard-response","315","416143","0.0-290.0","55ea70c37480920010aa9982","665500ab8938657b03fbdba8","6657933e67794463652049bc","421","stimuli/00010110.jpg"," ","","feedback_trial","0","","","","","","","","","","","","","","","","","","","","",""
"","","","","","image-keyboard-response","316","417628","0.0-291.0","55ea70c37480920010aa9982","665500ab8938657b03fbdba8","6657933e67794463652049bc","1484","stimuli/2011011.jpg","1","","prediction_trial","2","","false","","2","false","false","false","false","false","false","[1,2]","011","011","0","","","","","","",""
"","","","","","image-keyboard-response","317","417987","0.0-292.0","55ea70c37480920010aa9982","665500ab8938657b03fbdba8","6657933e67794463652049bc","359","stimuli/20110112.jpg"," ","","feedback_trial","1","","","","","","","","","","","","","","","","","","","","",""
"","","","","","survey-html-form","318","474836","0.0-293.0","55ea70c37480920010aa9982","665500ab8938657b03fbdba8","6657933e67794463652049bc","56849","","{""feedback"":""When it was not visible, I considered previous locations of the ball and previous guesses that Sam made."",""age"":""36"",""gender"":""Male"",""other_gender"":"""",""race"":""Black/African American"",""other_race"":"""",""ethnicity"":""Non-Hispanic""}","","exit_survey","","","","","","","","","","","","","","","","When it was not visible, I considered previous locations of the ball and previous guesses that Sam made.","36","Non-Hispanic","Male","Black/African American","0.6180555555555556","0.6180555555555556"
