"success","timeout","failed_images","failed_audio","failed_video","trial_type","trial_index","time_elapsed","internal_node_id","prolific_id","prolific_study_id","prolific_session_id","rt","stimulus","response","view_history","trial","character_choice","stimulus_dict","accuracy","correct_response","ball_pos","ego_ball_visible","ego_can_infer","alter_ball_visible","alter_can_infer","collective_ball_visible","collective_can_infer","search_locations","alter_occluders","ego_occluders","accuracy_bool","feedback","age","ethnicity","gender","race","overall_accuracy","bonus"
"true","false","[]","[]","[]","preload","0","18998","0.0-0.0","63d3fa0d6c990bc96e11becf","665500ab8938657b03fbdba8","6657928ad1b3a7bd556e1942","","","","","","","","","","","","","","","","","","","","","","","","","","",""
"true","","","","","fullscreen","1","22302","0.0-1.0","63d3fa0d6c990bc96e11becf","665500ab8938657b03fbdba8","6657928ad1b3a7bd556e1942","","","","","","","","","","","","","","","","","","","","","","","","","","",""
"","","","","","html-button-response","2","36504","0.0-2.0","63d3fa0d6c990bc96e11becf","665500ab8938657b03fbdba8","6657928ad1b3a7bd556e1942","14200","<p><b>Consent Form</b></p> <div style=""text-align:left;background-color:lightgrey; padding:20px; max-width:900px;""><p>Please consider this information carefully before deciding whether to participate in this research.</p> <p>The purpose of this research is to examine which factors influence social judgment and decision-making. You will be asked to make judgements about individuals and actions in social scenarios. We are simply interested in your judgement. The study will take less than 1 hour to complete, and you will receive less than $20 on Prolific. Your compensation and time commitment are specified in the study description. There are no anticipated risks associated with participating in this study. The effects of participating should be comparable to those you would ordinarily experience from viewing a computer monitor and using a mouse or keyboard for a similar amount of time. At the end of the study, we will provide an explanation of the questions that motivate this line of research and will describe the potential implications. </p><p> Your participation in this study is completely voluntary and you may refuse to participate or you may choose to withdraw at any time without penalty or loss of benefits to you which are otherwise entitled. Your participation in this study will remain confidential. No personally identifiable information will be associated with your data. Also, all analyses of the data will be averaged across all the participants, so your individual responses will never be specifically analyzed. </p><p> If you have questions or concerns about your participation or payment, or want to request a summary of research findings, please contact Dr. Jonathan Phillips at Jonathan.S.Phillips@dartmouth.edu. </p><p> Please save a copy of this form for your records. </p><p><b>Agreement: </b>The nature and purpose of this research have been sufficiently explained and I agree to participate in this study. I understand that I am free to withdraw at any time without incurring any penalty. Please consent by clicking the button below to continue. Otherwise, please exit the study at any time. </p>","0","","","","","","","","","","","","","","","","","","","","","","","",""
"","","","","","instructions","3","97426","0.0-3.0-0.0","63d3fa0d6c990bc96e11becf","665500ab8938657b03fbdba8","6657928ad1b3a7bd556e1942","60923","","","[{""page_index"":0,""viewing_time"":2013},{""page_index"":1,""viewing_time"":2809},{""page_index"":2,""viewing_time"":2384},{""page_index"":3,""viewing_time"":5860},{""page_index"":4,""viewing_time"":3851},{""page_index"":5,""viewing_time"":3200},{""page_index"":6,""viewing_time"":4409},{""page_index"":7,""viewing_time"":3364},{""page_index"":8,""viewing_time"":3180},{""page_index"":9,""viewing_time"":2380},{""page_index"":10,""viewing_time"":11899},{""page_index"":11,""viewing_time"":7928},{""page_index"":12,""viewing_time"":5885},{""page_index"":13,""viewing_time"":1759}]","intro","","","","","","","","","","","","","","","","","","","","","",""
"","","","","","image-keyboard-response","4","102280","0.0-3.0-1.0","63d3fa0d6c990bc96e11becf","665500ab8938657b03fbdba8","6657928ad1b3a7bd556e1942","4852","stimuli/0001111.jpg","2","","prediction_practice","0","{""filepath"":""stimuli/0001111.jpg"",""ball_pos"":0,""ego_ball_visible"":false,""ego_can_infer"":false,""alter_ball_visible"":true,""alter_can_infer"":true,""collective_ball_visible"":false,""collective_can_infer"":false,""search_locations"":[0],""alter_occluders"":""001"",""ego_occluders"":""111""}","false","","","","","","","","","","","","","","","","","","",""
"","","","","","image-keyboard-response","5","105598","0.0-3.0-2.0","63d3fa0d6c990bc96e11becf","665500ab8938657b03fbdba8","6657928ad1b3a7bd556e1942","3316","stimuli/00011110.jpg"," ","","practrice_feedback","0","","","","","","","","","","","","","","","","","","","","",""
"","","","","","image-keyboard-response","6","110424","0.0-3.0-3.0","63d3fa0d6c990bc96e11becf","665500ab8938657b03fbdba8","6657928ad1b3a7bd556e1942","4824","stimuli/1001010.jpg","1","","prediction_practice","1","{""filepath"":""stimuli/1001010.jpg"",""ball_pos"":1,""ego_ball_visible"":false,""ego_can_infer"":true,""alter_ball_visible"":true,""alter_can_infer"":true,""collective_ball_visible"":false,""collective_can_infer"":true,""search_locations"":[1],""alter_occluders"":""001"",""ego_occluders"":""010""}","true","","","","","","","","","","","","","","","","","","",""
"","","","","","image-keyboard-response","7","111906","0.0-3.0-4.0","63d3fa0d6c990bc96e11becf","665500ab8938657b03fbdba8","6657928ad1b3a7bd556e1942","1481","stimuli/10010101.jpg"," ","","practrice_feedback","1","","","","","","","","","","","","","","","","","","","","",""
"","","","","","image-keyboard-response","8","113238","0.0-3.0-5.0","63d3fa0d6c990bc96e11becf","665500ab8938657b03fbdba8","6657928ad1b3a7bd556e1942","1331","stimuli/0110100.jpg","2","","prediction_practice","1","{""filepath"":""stimuli/0110100.jpg"",""ball_pos"":0,""ego_ball_visible"":false,""ego_can_infer"":true,""alter_ball_visible"":false,""alter_can_infer"":false,""collective_ball_visible"":false,""collective_can_infer"":false,""search_locations"":[1,0],""alter_occluders"":""110"",""ego_occluders"":""100""}","false","","","","","","","","","","","","","","","","","","",""
"","","","","","image-keyboard-response","9","116534","0.0-3.0-6.0","63d3fa0d6c990bc96e11becf","665500ab8938657b03fbdba8","6657928ad1b3a7bd556e1942","3296","stimuli/01101001.jpg"," ","","practrice_feedback","1","","","","","","","","","","","","","","","","","","","","",""
"","","","","","image-keyboard-response","10","118814","0.0-3.0-7.0","63d3fa0d6c990bc96e11becf","665500ab8938657b03fbdba8","6657928ad1b3a7bd556e1942","2278","stimuli/2110000.jpg","2","","prediction_practice","2","{""filepath"":""stimuli/2110000.jpg"",""ball_pos"":2,""ego_ball_visible"":true,""ego_can_infer"":true,""alter_ball_visible"":true,""alter_can_infer"":true,""collective_ball_visible"":true,""collective_can_infer"":true,""search_locations"":[2],""alter_occluders"":""110"",""ego_occluders"":""000""}","true","","","","","","","","","","","","","","","","","","",""
"","","","","","image-keyboard-response","11","121027","0.0-3.0-8.0","63d3fa0d6c990bc96e11becf","665500ab8938657b03fbdba8","6657928ad1b3a7bd556e1942","2212","stimuli/21100002.jpg"," ","","practrice_feedback","2","","","","","","","","","","","","","","","","","","","","",""
"","","","","","image-keyboard-response","12","123181","0.0-3.0-9.0","63d3fa0d6c990bc96e11becf","665500ab8938657b03fbdba8","6657928ad1b3a7bd556e1942","2153","stimuli/1110110.jpg","2","","prediction_practice","1","{""filepath"":""stimuli/1110110.jpg"",""ball_pos"":1,""ego_ball_visible"":false,""ego_can_infer"":false,""alter_ball_visible"":false,""alter_can_infer"":false,""collective_ball_visible"":false,""collective_can_infer"":false,""search_locations"":[0,1],""alter_occluders"":""110"",""ego_occluders"":""110""}","false","","","","","","","","","","","","","","","","","","",""
"","","","","","image-keyboard-response","13","125101","0.0-3.0-10.0","63d3fa0d6c990bc96e11becf","665500ab8938657b03fbdba8","6657928ad1b3a7bd556e1942","1919","stimuli/11101101.jpg"," ","","practrice_feedback","0","","","","","","","","","","","","","","","","","","","","",""
"","","","","","image-keyboard-response","14","128934","0.0-3.0-11.0","63d3fa0d6c990bc96e11becf","665500ab8938657b03fbdba8","6657928ad1b3a7bd556e1942","3831","stimuli/0111001.jpg","1","","prediction_practice","2","{""filepath"":""stimuli/0111001.jpg"",""ball_pos"":0,""ego_ball_visible"":true,""ego_can_infer"":true,""alter_ball_visible"":false,""alter_can_infer"":false,""collective_ball_visible"":false,""collective_can_infer"":false,""search_locations"":[0,2,1],""alter_occluders"":""111"",""ego_occluders"":""001""}","false","","","","","","","","","","","","","","","","","","",""
"","","","","","image-keyboard-response","15","130353","0.0-3.0-12.0","63d3fa0d6c990bc96e11becf","665500ab8938657b03fbdba8","6657928ad1b3a7bd556e1942","1418","stimuli/01110012.jpg"," ","","practrice_feedback","0","","","","","","","","","","","","","","","","","","","","",""
"","","","","","image-keyboard-response","16","135753","0.0-3.0-13.0","63d3fa0d6c990bc96e11becf","665500ab8938657b03fbdba8","6657928ad1b3a7bd556e1942","5399","stimuli/1100011.jpg","1","","prediction_practice","1","{""filepath"":""stimuli/1100011.jpg"",""ball_pos"":1,""ego_ball_visible"":false,""ego_can_infer"":false,""alter_ball_visible"":true,""alter_can_infer"":true,""collective_ball_visible"":false,""collective_can_infer"":false,""search_locations"":[1],""alter_occluders"":""100"",""ego_occluders"":""011""}","true","","","","","","","","","","","","","","","","","","",""
"","","","","","image-keyboard-response","17","137301","0.0-3.0-14.0","63d3fa0d6c990bc96e11becf","665500ab8938657b03fbdba8","6657928ad1b3a7bd556e1942","1547","stimuli/11000111.jpg"," ","","practrice_feedback","1","","","","","","","","","","","","","","","","","","","","",""
"","","","","","image-keyboard-response","18","141044","0.0-3.0-15.0","63d3fa0d6c990bc96e11becf","665500ab8938657b03fbdba8","6657928ad1b3a7bd556e1942","3742","stimuli/2011111.jpg","1","","prediction_practice","1","{""filepath"":""stimuli/2011111.jpg"",""ball_pos"":2,""ego_ball_visible"":false,""ego_can_infer"":false,""alter_ball_visible"":false,""alter_can_infer"":false,""collective_ball_visible"":false,""collective_can_infer"":false,""search_locations"":[1,2],""alter_occluders"":""011"",""ego_occluders"":""111""}","true","","","","","","","","","","","","","","","","","","",""
"","","","","","image-keyboard-response","19","143603","0.0-3.0-16.0","63d3fa0d6c990bc96e11becf","665500ab8938657b03fbdba8","6657928ad1b3a7bd556e1942","2558","stimuli/20111111.jpg"," ","","practrice_feedback","1","","","","","","","","","","","","","","","","","","","","",""
"","","","","","image-keyboard-response","20","146317","0.0-3.0-17.0","63d3fa0d6c990bc96e11becf","665500ab8938657b03fbdba8","6657928ad1b3a7bd556e1942","2713","stimuli/1011111.jpg","2","","prediction_practice","2","{""filepath"":""stimuli/1011111.jpg"",""ball_pos"":1,""ego_ball_visible"":false,""ego_can_infer"":false,""alter_ball_visible"":false,""alter_can_infer"":false,""collective_ball_visible"":false,""collective_can_infer"":false,""search_locations"":[1,2],""alter_occluders"":""011"",""ego_occluders"":""111""}","true","","","","","","","","","","","","","","","","","","",""
"","","","","","image-keyboard-response","21","148259","0.0-3.0-18.0","63d3fa0d6c990bc96e11becf","665500ab8938657b03fbdba8","6657928ad1b3a7bd556e1942","1941","stimuli/10111112.jpg"," ","","practrice_feedback","1","","","","","","","","","","","","","","","","","","","","",""
"","","","","","image-keyboard-response","22","151290","0.0-3.0-19.0","63d3fa0d6c990bc96e11becf","665500ab8938657b03fbdba8","6657928ad1b3a7bd556e1942","3030","stimuli/2010110.jpg","2","","prediction_practice","2","{""filepath"":""stimuli/2010110.jpg"",""ball_pos"":2,""ego_ball_visible"":true,""ego_can_infer"":true,""alter_ball_visible"":true,""alter_can_infer"":true,""collective_ball_visible"":true,""collective_can_infer"":true,""search_locations"":[2],""alter_occluders"":""010"",""ego_occluders"":""110""}","true","","","","","","","","","","","","","","","","","","",""
"","","","","","image-keyboard-response","23","153297","0.0-3.0-20.0","63d3fa0d6c990bc96e11becf","665500ab8938657b03fbdba8","6657928ad1b3a7bd556e1942","2007","stimuli/20101102.jpg"," ","","practrice_feedback","2","","","","","","","","","","","","","","","","","","","","",""
"","","","","","html-button-response","24","159627","0.0-3.0-21.0","63d3fa0d6c990bc96e11becf","665500ab8938657b03fbdba8","6657928ad1b3a7bd556e1942","6329","Now that you've had some practice, you'll be tested with a couple of easy trials. If you correctly predict Sam's choice, you'll move on to complete the experiment!","0","","","","","","","","","","","","","","","","","","","","","","","",""
"","","","","","image-keyboard-response","25","161480","0.0-3.0-22.0-0.0","63d3fa0d6c990bc96e11becf","665500ab8938657b03fbdba8","6657928ad1b3a7bd556e1942","1852","stimuli/0000011.jpg","arrowleft","","comprehension_quiz","","","true","arrowleft","","","","","","","","","","","","","","","","","",""
"","","","","","image-keyboard-response","26","163343","0.0-3.0-22.0-1.0","63d3fa0d6c990bc96e11becf","665500ab8938657b03fbdba8","6657928ad1b3a7bd556e1942","1864","stimuli/00000110.jpg"," ","","comprehension_quiz","","","true"," ","","","","","","","","","","","","","","","","","",""
"","","","","","image-keyboard-response","27","165319","0.0-3.0-22.0-2.0","63d3fa0d6c990bc96e11becf","665500ab8938657b03fbdba8","6657928ad1b3a7bd556e1942","1975","stimuli/1010010.jpg","arrowdown","","comprehension_quiz","","","true","arrowdown","","","","","","","","","","","","","","","","","",""
"","","","","","image-keyboard-response","28","166602","0.0-3.0-22.0-3.0","63d3fa0d6c990bc96e11becf","665500ab8938657b03fbdba8","6657928ad1b3a7bd556e1942","1281","stimuli/10100101.jpg"," ","","comprehension_quiz","","","true"," ","","","","","","","","","","","","","","","","","",""
"","","","","","html-button-response","29","168550","0.0-4.0","63d3fa0d6c990bc96e11becf","665500ab8938657b03fbdba8","6657928ad1b3a7bd556e1942","1947","The experiment will now begin.","0","","","","","","","","","","","","","","","","","","","","","","","",""
"","","","","","image-keyboard-response","30","170995","0.0-5.0","63d3fa0d6c990bc96e11becf","665500ab8938657b03fbdba8","6657928ad1b3a7bd556e1942","2445","stimuli/1000010.jpg","1","","prediction_trial","1","","true","","1","false","true","true","true","false","true","[1]","000","010","1","","","","","","",""
"","","","","","image-keyboard-response","31","171810","0.0-6.0","63d3fa0d6c990bc96e11becf","665500ab8938657b03fbdba8","6657928ad1b3a7bd556e1942","814","stimuli/10000101.jpg"," ","","feedback_trial","1","","","","","","","","","","","","","","","","","","","","",""
"","","","","","image-keyboard-response","32","174933","0.0-7.0","63d3fa0d6c990bc96e11becf","665500ab8938657b03fbdba8","6657928ad1b3a7bd556e1942","3123","stimuli/1010001.jpg","1","","prediction_trial","1","","true","","1","true","true","false","true","false","true","[1]","010","001","1","","","","","","",""
"","","","","","image-keyboard-response","33","176129","0.0-8.0","63d3fa0d6c990bc96e11becf","665500ab8938657b03fbdba8","6657928ad1b3a7bd556e1942","1195","stimuli/10100011.jpg"," ","","feedback_trial","1","","","","","","","","","","","","","","","","","","","","",""
"","","","","","image-keyboard-response","34","178332","0.0-9.0","63d3fa0d6c990bc96e11becf","665500ab8938657b03fbdba8","6657928ad1b3a7bd556e1942","2201","stimuli/2100110.jpg","2","","prediction_trial","2","","true","","2","true","true","true","true","true","true","[2]","100","110","1","","","","","","",""
"","","","","","image-keyboard-response","35","179467","0.0-10.0","63d3fa0d6c990bc96e11becf","665500ab8938657b03fbdba8","6657928ad1b3a7bd556e1942","1134","stimuli/21001102.jpg"," ","","feedback_trial","2","","","","","","","","","","","","","","","","","","","","",""
"","","","","","image-keyboard-response","36","184672","0.0-11.0","63d3fa0d6c990bc96e11becf","665500ab8938657b03fbdba8","6657928ad1b3a7bd556e1942","5204","stimuli/0010110.jpg","1","","prediction_trial","0","","false","","0","false","false","true","true","false","false","[0]","010","110","0","","","","","","",""
"","","","","","image-keyboard-response","37","186278","0.0-12.0","63d3fa0d6c990bc96e11becf","665500ab8938657b03fbdba8","6657928ad1b3a7bd556e1942","1606","stimuli/00101100.jpg"," ","","feedback_trial","0","","","","","","","","","","","","","","","","","","","","",""
"","","","","","image-keyboard-response","38","190502","0.0-13.0","63d3fa0d6c990bc96e11becf","665500ab8938657b03fbdba8","6657928ad1b3a7bd556e1942","4222","stimuli/2110001.jpg","1","","prediction_trial","2","","false","","2","false","true","true","true","false","true","[2]","110","001","0","","","","","","",""
"","","","","","image-keyboard-response","39","191792","0.0-14.0","63d3fa0d6c990bc96e11becf","665500ab8938657b03fbdba8","6657928ad1b3a7bd556e1942","1290","stimuli/21100012.jpg"," ","","feedback_trial","2","","","","","","","","","","","","","","","","","","","","",""
"","","","","","image-keyboard-response","40","192854","0.0-15.0","63d3fa0d6c990bc96e11becf","665500ab8938657b03fbdba8","6657928ad1b3a7bd556e1942","1060","stimuli/0000011.jpg","0","","prediction_trial","0","","true","","0","true","true","true","true","true","true","[0]","000","011","1","","","","","","",""
"","","","","","image-keyboard-response","41","193880","0.0-16.0","63d3fa0d6c990bc96e11becf","665500ab8938657b03fbdba8","6657928ad1b3a7bd556e1942","1026","stimuli/00000110.jpg"," ","","feedback_trial","0","","","","","","","","","","","","","","","","","","","","",""
"","","","","","image-keyboard-response","42","194904","0.0-17.0","63d3fa0d6c990bc96e11becf","665500ab8938657b03fbdba8","6657928ad1b3a7bd556e1942","1024","stimuli/0011001.jpg","0","","prediction_trial","0","","true","","0","true","true","true","true","true","true","[0]","011","001","1","","","","","","",""
"","","","","","image-keyboard-response","43","195842","0.0-18.0","63d3fa0d6c990bc96e11becf","665500ab8938657b03fbdba8","6657928ad1b3a7bd556e1942","938","stimuli/00110010.jpg"," ","","feedback_trial","0","","","","","","","","","","","","","","","","","","","","",""
"","","","","","image-keyboard-response","44","198288","0.0-19.0","63d3fa0d6c990bc96e11becf","665500ab8938657b03fbdba8","6657928ad1b3a7bd556e1942","2444","stimuli/0101101.jpg","0","","prediction_trial","0","","true","","0","false","false","false","false","false","false","[0,2]","101","101","1","","","","","","",""
"","","","","","image-keyboard-response","45","199476","0.0-20.0","63d3fa0d6c990bc96e11becf","665500ab8938657b03fbdba8","6657928ad1b3a7bd556e1942","1188","stimuli/01011010.jpg"," ","","feedback_trial","0","","","","","","","","","","","","","","","","","","","","",""
"","","","","","image-keyboard-response","46","202094","0.0-21.0","63d3fa0d6c990bc96e11becf","665500ab8938657b03fbdba8","6657928ad1b3a7bd556e1942","2617","stimuli/0111100.jpg","0","","prediction_trial","1","","false","","0","false","true","false","false","false","false","[2,1,0]","111","100","0","","","","","","",""
"","","","","","image-keyboard-response","47","203244","0.0-22.0","63d3fa0d6c990bc96e11becf","665500ab8938657b03fbdba8","6657928ad1b3a7bd556e1942","1150","stimuli/01111001.jpg"," ","","feedback_trial","2","","","","","","","","","","","","","","","","","","","","",""
"","","","","","image-keyboard-response","48","204764","0.0-23.0","63d3fa0d6c990bc96e11becf","665500ab8938657b03fbdba8","6657928ad1b3a7bd556e1942","1520","stimuli/1100000.jpg","1","","prediction_trial","1","","true","","1","true","true","true","true","true","true","[1]","100","000","1","","","","","","",""
"","","","","","image-keyboard-response","49","205576","0.0-24.0","63d3fa0d6c990bc96e11becf","665500ab8938657b03fbdba8","6657928ad1b3a7bd556e1942","812","stimuli/11000001.jpg"," ","","feedback_trial","1","","","","","","","","","","","","","","","","","","","","",""
"","","","","","image-keyboard-response","50","208604","0.0-25.0","63d3fa0d6c990bc96e11becf","665500ab8938657b03fbdba8","6657928ad1b3a7bd556e1942","3027","stimuli/0111110.jpg","2","","prediction_trial","0","","false","","0","false","false","false","false","false","false","[2,0,1]","111","110","0","","","","","","",""
"","","","","","image-keyboard-response","51","209414","0.0-26.0","63d3fa0d6c990bc96e11becf","665500ab8938657b03fbdba8","6657928ad1b3a7bd556e1942","809","stimuli/01111100.jpg"," ","","feedback_trial","2","","","","","","","","","","","","","","","","","","","","",""
"","","","","","image-keyboard-response","52","211580","0.0-27.0","63d3fa0d6c990bc96e11becf","665500ab8938657b03fbdba8","6657928ad1b3a7bd556e1942","2165","stimuli/2101101.jpg","0","","prediction_trial","2","","false","","2","false","false","false","false","false","false","[2,0]","101","101","0","","","","","","",""
"","","","","","image-keyboard-response","53","212604","0.0-28.0","63d3fa0d6c990bc96e11becf","665500ab8938657b03fbdba8","6657928ad1b3a7bd556e1942","1024","stimuli/21011012.jpg"," ","","feedback_trial","2","","","","","","","","","","","","","","","","","","","","",""
"","","","","","image-keyboard-response","54","215808","0.0-29.0","63d3fa0d6c990bc96e11becf","665500ab8938657b03fbdba8","6657928ad1b3a7bd556e1942","3204","stimuli/0110000.jpg","1","","prediction_trial","1","","true","","0","true","true","false","false","false","false","[1,0]","110","000","1","","","","","","",""
"","","","","","image-keyboard-response","55","216860","0.0-30.0","63d3fa0d6c990bc96e11becf","665500ab8938657b03fbdba8","6657928ad1b3a7bd556e1942","1051","stimuli/01100001.jpg"," ","","feedback_trial","1","","","","","","","","","","","","","","","","","","","","",""
"","","","","","image-keyboard-response","56","220914","0.0-31.0","63d3fa0d6c990bc96e11becf","665500ab8938657b03fbdba8","6657928ad1b3a7bd556e1942","4053","stimuli/2101111.jpg","2","","prediction_trial","2","","true","","2","false","false","false","false","false","false","[0,2]","101","111","1","","","","","","",""
"","","","","","image-keyboard-response","57","221812","0.0-32.0","63d3fa0d6c990bc96e11becf","665500ab8938657b03fbdba8","6657928ad1b3a7bd556e1942","897","stimuli/21011112.jpg"," ","","feedback_trial","0","","","","","","","","","","","","","","","","","","","","",""
"","","","","","image-keyboard-response","58","223502","0.0-33.0","63d3fa0d6c990bc96e11becf","665500ab8938657b03fbdba8","6657928ad1b3a7bd556e1942","1689","stimuli/2001001.jpg","2","","prediction_trial","2","","true","","2","false","true","false","true","false","true","[2]","001","001","1","","","","","","",""
"","","","","","image-keyboard-response","59","224258","0.0-34.0","63d3fa0d6c990bc96e11becf","665500ab8938657b03fbdba8","6657928ad1b3a7bd556e1942","755","stimuli/20010012.jpg"," ","","feedback_trial","2","","","","","","","","","","","","","","","","","","","","",""
"","","","","","image-keyboard-response","60","225536","0.0-35.0","63d3fa0d6c990bc96e11becf","665500ab8938657b03fbdba8","6657928ad1b3a7bd556e1942","1277","stimuli/2100010.jpg","2","","prediction_trial","2","","true","","2","true","true","true","true","true","true","[2]","100","010","1","","","","","","",""
"","","","","","image-keyboard-response","61","226104","0.0-36.0","63d3fa0d6c990bc96e11becf","665500ab8938657b03fbdba8","6657928ad1b3a7bd556e1942","566","stimuli/21000102.jpg"," ","","feedback_trial","2","","","","","","","","","","","","","","","","","","","","",""
"","","","","","image-keyboard-response","62","228918","0.0-37.0","63d3fa0d6c990bc96e11becf","665500ab8938657b03fbdba8","6657928ad1b3a7bd556e1942","2814","stimuli/2011010.jpg","2","","prediction_trial","2","","true","","2","true","true","false","false","false","false","[2,1]","011","010","1","","","","","","",""
"","","","","","image-keyboard-response","63","229578","0.0-38.0","63d3fa0d6c990bc96e11becf","665500ab8938657b03fbdba8","6657928ad1b3a7bd556e1942","659","stimuli/20110102.jpg"," ","","feedback_trial","2","","","","","","","","","","","","","","","","","","","","",""
"","","","","","image-keyboard-response","64","232396","0.0-39.0","63d3fa0d6c990bc96e11becf","665500ab8938657b03fbdba8","6657928ad1b3a7bd556e1942","2818","stimuli/2100011.jpg","0","","prediction_trial","2","","false","","2","false","false","true","true","false","false","[2]","100","011","0","","","","","","",""
"","","","","","image-keyboard-response","65","233562","0.0-40.0","63d3fa0d6c990bc96e11becf","665500ab8938657b03fbdba8","6657928ad1b3a7bd556e1942","1166","stimuli/21000112.jpg"," ","","feedback_trial","2","","","","","","","","","","","","","","","","","","","","",""
"","","","","","image-keyboard-response","66","237304","0.0-41.0","63d3fa0d6c990bc96e11becf","665500ab8938657b03fbdba8","6657928ad1b3a7bd556e1942","3741","stimuli/0011111.jpg","2","","prediction_trial","0","","false","","0","false","false","true","true","false","false","[0]","011","111","0","","","","","","",""
"","","","","","image-keyboard-response","67","238148","0.0-42.0","63d3fa0d6c990bc96e11becf","665500ab8938657b03fbdba8","6657928ad1b3a7bd556e1942","843","stimuli/00111110.jpg"," ","","feedback_trial","0","","","","","","","","","","","","","","","","","","","","",""
"","","","","","image-keyboard-response","68","239084","0.0-43.0","63d3fa0d6c990bc96e11becf","665500ab8938657b03fbdba8","6657928ad1b3a7bd556e1942","936","stimuli/2110000.jpg","2","","prediction_trial","2","","true","","2","true","true","true","true","true","true","[2]","110","000","1","","","","","","",""
"","","","","","image-keyboard-response","69","239676","0.0-44.0","63d3fa0d6c990bc96e11becf","665500ab8938657b03fbdba8","6657928ad1b3a7bd556e1942","591","stimuli/21100002.jpg"," ","","feedback_trial","2","","","","","","","","","","","","","","","","","","","","",""
"","","","","","image-keyboard-response","70","242716","0.0-45.0","63d3fa0d6c990bc96e11becf","665500ab8938657b03fbdba8","6657928ad1b3a7bd556e1942","3040","stimuli/2101011.jpg","2","","prediction_trial","0","","false","","2","false","false","false","false","false","false","[2,0]","101","011","0","","","","","","",""
"","","","","","image-keyboard-response","71","243566","0.0-46.0","63d3fa0d6c990bc96e11becf","665500ab8938657b03fbdba8","6657928ad1b3a7bd556e1942","849","stimuli/21010110.jpg"," ","","feedback_trial","2","","","","","","","","","","","","","","","","","","","","",""
"","","","","","image-keyboard-response","72","244680","0.0-47.0","63d3fa0d6c990bc96e11becf","665500ab8938657b03fbdba8","6657928ad1b3a7bd556e1942","1114","stimuli/2111111.jpg","2","","prediction_trial","2","","true","","2","false","false","false","false","false","false","[1,2,0]","111","111","1","","","","","","",""
"","","","","","image-keyboard-response","73","245406","0.0-48.0","63d3fa0d6c990bc96e11becf","665500ab8938657b03fbdba8","6657928ad1b3a7bd556e1942","726","stimuli/21111112.jpg"," ","","feedback_trial","1","","","","","","","","","","","","","","","","","","","","",""
"","","","","","image-keyboard-response","74","249774","0.0-49.0","63d3fa0d6c990bc96e11becf","665500ab8938657b03fbdba8","6657928ad1b3a7bd556e1942","4368","stimuli/2101001.jpg","2","","prediction_trial","0","","false","","2","false","true","false","false","false","false","[2,0]","101","001","0","","","","","","",""
"","","","","","image-keyboard-response","75","250616","0.0-50.0","63d3fa0d6c990bc96e11becf","665500ab8938657b03fbdba8","6657928ad1b3a7bd556e1942","840","stimuli/21010010.jpg"," ","","feedback_trial","2","","","","","","","","","","","","","","","","","","","","",""
"","","","","","image-keyboard-response","76","251774","0.0-51.0","63d3fa0d6c990bc96e11becf","665500ab8938657b03fbdba8","6657928ad1b3a7bd556e1942","1158","stimuli/0010000.jpg","0","","prediction_trial","0","","true","","0","true","true","true","true","true","true","[0]","010","000","1","","","","","","",""
"","","","","","image-keyboard-response","77","252288","0.0-52.0","63d3fa0d6c990bc96e11becf","665500ab8938657b03fbdba8","6657928ad1b3a7bd556e1942","513","stimuli/00100000.jpg"," ","","feedback_trial","0","","","","","","","","","","","","","","","","","","","","",""
"","","","","","image-keyboard-response","78","254890","0.0-53.0","63d3fa0d6c990bc96e11becf","665500ab8938657b03fbdba8","6657928ad1b3a7bd556e1942","2602","stimuli/1011000.jpg","1","","prediction_trial","2","","false","","1","true","true","false","false","false","false","[2,1]","011","000","0","","","","","","",""
"","","","","","image-keyboard-response","79","255560","0.0-54.0","63d3fa0d6c990bc96e11becf","665500ab8938657b03fbdba8","6657928ad1b3a7bd556e1942","669","stimuli/10110002.jpg"," ","","feedback_trial","2","","","","","","","","","","","","","","","","","","","","",""
"","","","","","image-keyboard-response","80","257098","0.0-55.0","63d3fa0d6c990bc96e11becf","665500ab8938657b03fbdba8","6657928ad1b3a7bd556e1942","1536","stimuli/0100100.jpg","0","","prediction_trial","0","","true","","0","false","true","false","true","false","true","[0]","100","100","1","","","","","","",""
"","","","","","image-keyboard-response","81","257698","0.0-56.0","63d3fa0d6c990bc96e11becf","665500ab8938657b03fbdba8","6657928ad1b3a7bd556e1942","600","stimuli/01001000.jpg"," ","","feedback_trial","0","","","","","","","","","","","","","","","","","","","","",""
"","","","","","image-keyboard-response","82","258938","0.0-57.0","63d3fa0d6c990bc96e11becf","665500ab8938657b03fbdba8","6657928ad1b3a7bd556e1942","1240","stimuli/0011000.jpg","0","","prediction_trial","0","","true","","0","true","true","true","true","true","true","[0]","011","000","1","","","","","","",""
"","","","","","image-keyboard-response","83","259398","0.0-58.0","63d3fa0d6c990bc96e11becf","665500ab8938657b03fbdba8","6657928ad1b3a7bd556e1942","460","stimuli/00110000.jpg"," ","","feedback_trial","0","","","","","","","","","","","","","","","","","","","","",""
"","","","","","image-keyboard-response","84","261576","0.0-59.0","63d3fa0d6c990bc96e11becf","665500ab8938657b03fbdba8","6657928ad1b3a7bd556e1942","2178","stimuli/0111011.jpg","0","","prediction_trial","1","","false","","0","true","true","false","false","false","false","[2,0,1]","111","011","0","","","","","","",""
"","","","","","image-keyboard-response","85","262404","0.0-60.0","63d3fa0d6c990bc96e11becf","665500ab8938657b03fbdba8","6657928ad1b3a7bd556e1942","826","stimuli/01110111.jpg"," ","","feedback_trial","2","","","","","","","","","","","","","","","","","","","","",""
"","","","","","image-keyboard-response","86","264888","0.0-61.0","63d3fa0d6c990bc96e11becf","665500ab8938657b03fbdba8","6657928ad1b3a7bd556e1942","2483","stimuli/1110111.jpg","0","","prediction_trial","1","","false","","1","false","false","false","false","false","false","[0,1]","110","111","0","","","","","","",""
"","","","","","image-keyboard-response","87","265498","0.0-62.0","63d3fa0d6c990bc96e11becf","665500ab8938657b03fbdba8","6657928ad1b3a7bd556e1942","609","stimuli/11101111.jpg"," ","","feedback_trial","0","","","","","","","","","","","","","","","","","","","","",""
"","","","","","image-keyboard-response","88","268606","0.0-63.0","63d3fa0d6c990bc96e11becf","665500ab8938657b03fbdba8","6657928ad1b3a7bd556e1942","3107","stimuli/1000110.jpg","1","","prediction_trial","1","","true","","1","false","false","true","true","false","false","[1]","000","110","1","","","","","","",""
"","","","","","image-keyboard-response","89","269354","0.0-64.0","63d3fa0d6c990bc96e11becf","665500ab8938657b03fbdba8","6657928ad1b3a7bd556e1942","747","stimuli/10001101.jpg"," ","","feedback_trial","1","","","","","","","","","","","","","","","","","","","","",""
"","","","","","image-keyboard-response","90","273300","0.0-65.0","63d3fa0d6c990bc96e11becf","665500ab8938657b03fbdba8","6657928ad1b3a7bd556e1942","3946","stimuli/1011110.jpg","0","","prediction_trial","2","","false","","1","false","false","false","false","false","false","[2,1]","011","110","0","","","","","","",""
"","","","","","image-keyboard-response","91","274008","0.0-66.0","63d3fa0d6c990bc96e11becf","665500ab8938657b03fbdba8","6657928ad1b3a7bd556e1942","707","stimuli/10111102.jpg"," ","","feedback_trial","2","","","","","","","","","","","","","","","","","","","","",""
"","","","","","image-keyboard-response","92","276168","0.0-67.0","63d3fa0d6c990bc96e11becf","665500ab8938657b03fbdba8","6657928ad1b3a7bd556e1942","2159","stimuli/1110001.jpg","1","","prediction_trial","1","","true","","1","true","true","false","false","false","false","[0,1]","110","001","1","","","","","","",""
"","","","","","image-keyboard-response","93","276832","0.0-68.0","63d3fa0d6c990bc96e11becf","665500ab8938657b03fbdba8","6657928ad1b3a7bd556e1942","663","stimuli/11100011.jpg"," ","","feedback_trial","0","","","","","","","","","","","","","","","","","","","","",""
"","","","","","image-keyboard-response","94","277798","0.0-69.0","63d3fa0d6c990bc96e11becf","665500ab8938657b03fbdba8","6657928ad1b3a7bd556e1942","966","stimuli/2000010.jpg","2","","prediction_trial","2","","true","","2","true","true","true","true","true","true","[2]","000","010","1","","","","","","",""
"","","","","","image-keyboard-response","95","278296","0.0-70.0","63d3fa0d6c990bc96e11becf","665500ab8938657b03fbdba8","6657928ad1b3a7bd556e1942","497","stimuli/20000102.jpg"," ","","feedback_trial","2","","","","","","","","","","","","","","","","","","","","",""
"","","","","","image-keyboard-response","96","282786","0.0-71.0","63d3fa0d6c990bc96e11becf","665500ab8938657b03fbdba8","6657928ad1b3a7bd556e1942","4490","stimuli/0000101.jpg","2","","prediction_trial","0","","false","","0","false","false","true","true","false","false","[0]","000","101","0","","","","","","",""
"","","","","","image-keyboard-response","97","283478","0.0-72.0","63d3fa0d6c990bc96e11becf","665500ab8938657b03fbdba8","6657928ad1b3a7bd556e1942","690","stimuli/00001010.jpg"," ","","feedback_trial","0","","","","","","","","","","","","","","","","","","","","",""
"","","","","","image-keyboard-response","98","285892","0.0-73.0","63d3fa0d6c990bc96e11becf","665500ab8938657b03fbdba8","6657928ad1b3a7bd556e1942","2414","stimuli/1111101.jpg","0","","prediction_trial","1","","false","","1","true","true","false","false","false","false","[1,0,2]","111","101","0","","","","","","",""
"","","","","","image-keyboard-response","99","286652","0.0-74.0","63d3fa0d6c990bc96e11becf","665500ab8938657b03fbdba8","6657928ad1b3a7bd556e1942","758","stimuli/11111011.jpg"," ","","feedback_trial","1","","","","","","","","","","","","","","","","","","","","",""
"","","","","","image-keyboard-response","100","289444","0.0-75.0","63d3fa0d6c990bc96e11becf","665500ab8938657b03fbdba8","6657928ad1b3a7bd556e1942","2792","stimuli/0110110.jpg","1","","prediction_trial","1","","true","","0","false","false","false","false","false","false","[0,1]","110","110","1","","","","","","",""
"","","","","","image-keyboard-response","101","290038","0.0-76.0","63d3fa0d6c990bc96e11becf","665500ab8938657b03fbdba8","6657928ad1b3a7bd556e1942","593","stimuli/01101101.jpg"," ","","feedback_trial","0","","","","","","","","","","","","","","","","","","","","",""
"","","","","","image-keyboard-response","102","293546","0.0-77.0","63d3fa0d6c990bc96e11becf","665500ab8938657b03fbdba8","6657928ad1b3a7bd556e1942","3508","stimuli/0100101.jpg","2","","prediction_trial","0","","false","","0","false","false","false","true","false","false","[0]","100","101","0","","","","","","",""
"","","","","","image-keyboard-response","103","294216","0.0-78.0","63d3fa0d6c990bc96e11becf","665500ab8938657b03fbdba8","6657928ad1b3a7bd556e1942","670","stimuli/01001010.jpg"," ","","feedback_trial","0","","","","","","","","","","","","","","","","","","","","",""
"","","","","","image-keyboard-response","104","295744","0.0-79.0","63d3fa0d6c990bc96e11becf","665500ab8938657b03fbdba8","6657928ad1b3a7bd556e1942","1527","stimuli/2111100.jpg","2","","prediction_trial","1","","false","","2","true","true","false","false","false","false","[2,1,0]","111","100","0","","","","","","",""
"","","","","","image-keyboard-response","105","296392","0.0-80.0","63d3fa0d6c990bc96e11becf","665500ab8938657b03fbdba8","6657928ad1b3a7bd556e1942","648","stimuli/21111001.jpg"," ","","feedback_trial","2","","","","","","","","","","","","","","","","","","","","",""
"","","","","","image-keyboard-response","106","299528","0.0-81.0","63d3fa0d6c990bc96e11becf","665500ab8938657b03fbdba8","6657928ad1b3a7bd556e1942","3136","stimuli/2010011.jpg","2","","prediction_trial","2","","true","","2","false","false","true","true","false","false","[2]","010","011","1","","","","","","",""
"","","","","","image-keyboard-response","107","300282","0.0-82.0","63d3fa0d6c990bc96e11becf","665500ab8938657b03fbdba8","6657928ad1b3a7bd556e1942","753","stimuli/20100112.jpg"," ","","feedback_trial","2","","","","","","","","","","","","","","","","","","","","",""
"","","","","","image-keyboard-response","108","303424","0.0-83.0","63d3fa0d6c990bc96e11becf","665500ab8938657b03fbdba8","6657928ad1b3a7bd556e1942","3142","stimuli/2110011.jpg","0","","prediction_trial","2","","false","","2","false","false","true","true","false","false","[2]","110","011","0","","","","","","",""
"","","","","","image-keyboard-response","109","304122","0.0-84.0","63d3fa0d6c990bc96e11becf","665500ab8938657b03fbdba8","6657928ad1b3a7bd556e1942","698","stimuli/21100112.jpg"," ","","feedback_trial","2","","","","","","","","","","","","","","","","","","","","",""
"","","","","","image-keyboard-response","110","306060","0.0-85.0","63d3fa0d6c990bc96e11becf","665500ab8938657b03fbdba8","6657928ad1b3a7bd556e1942","1937","stimuli/1011001.jpg","1","","prediction_trial","1","","true","","1","true","true","false","false","false","false","[2,1]","011","001","1","","","","","","",""
"","","","","","image-keyboard-response","111","306562","0.0-86.0","63d3fa0d6c990bc96e11becf","665500ab8938657b03fbdba8","6657928ad1b3a7bd556e1942","500","stimuli/10110011.jpg"," ","","feedback_trial","2","","","","","","","","","","","","","","","","","","","","",""
"","","","","","image-keyboard-response","112","309342","0.0-87.0","63d3fa0d6c990bc96e11becf","665500ab8938657b03fbdba8","6657928ad1b3a7bd556e1942","2780","stimuli/0001101.jpg","0","","prediction_trial","0","","true","","0","false","false","true","true","false","false","[0]","001","101","1","","","","","","",""
"","","","","","image-keyboard-response","113","309950","0.0-88.0","63d3fa0d6c990bc96e11becf","665500ab8938657b03fbdba8","6657928ad1b3a7bd556e1942","608","stimuli/00011010.jpg"," ","","feedback_trial","0","","","","","","","","","","","","","","","","","","","","",""
"","","","","","image-keyboard-response","114","310940","0.0-89.0","63d3fa0d6c990bc96e11becf","665500ab8938657b03fbdba8","6657928ad1b3a7bd556e1942","989","stimuli/1100101.jpg","1","","prediction_trial","1","","true","","1","true","true","true","true","true","true","[1]","100","101","1","","","","","","",""
"","","","","","image-keyboard-response","115","311456","0.0-90.0","63d3fa0d6c990bc96e11becf","665500ab8938657b03fbdba8","6657928ad1b3a7bd556e1942","515","stimuli/11001011.jpg"," ","","feedback_trial","1","","","","","","","","","","","","","","","","","","","","",""
"","","","","","image-keyboard-response","116","312270","0.0-91.0","63d3fa0d6c990bc96e11becf","665500ab8938657b03fbdba8","6657928ad1b3a7bd556e1942","813","stimuli/1000000.jpg","1","","prediction_trial","1","","true","","1","true","true","true","true","true","true","[1]","000","000","1","","","","","","",""
"","","","","","image-keyboard-response","117","312716","0.0-92.0","63d3fa0d6c990bc96e11becf","665500ab8938657b03fbdba8","6657928ad1b3a7bd556e1942","445","stimuli/10000001.jpg"," ","","feedback_trial","1","","","","","","","","","","","","","","","","","","","","",""
"","","","","","image-keyboard-response","118","314812","0.0-93.0","63d3fa0d6c990bc96e11becf","665500ab8938657b03fbdba8","6657928ad1b3a7bd556e1942","2095","stimuli/1001011.jpg","1","","prediction_trial","1","","true","","1","false","false","true","true","false","false","[1]","001","011","1","","","","","","",""
"","","","","","image-keyboard-response","119","315290","0.0-94.0","63d3fa0d6c990bc96e11becf","665500ab8938657b03fbdba8","6657928ad1b3a7bd556e1942","477","stimuli/10010111.jpg"," ","","feedback_trial","1","","","","","","","","","","","","","","","","","","","","",""
"","","","","","image-keyboard-response","120","317910","0.0-95.0","63d3fa0d6c990bc96e11becf","665500ab8938657b03fbdba8","6657928ad1b3a7bd556e1942","2620","stimuli/0100001.jpg","0","","prediction_trial","0","","true","","0","true","true","false","true","false","true","[0]","100","001","1","","","","","","",""
"","","","","","image-keyboard-response","121","318342","0.0-96.0","63d3fa0d6c990bc96e11becf","665500ab8938657b03fbdba8","6657928ad1b3a7bd556e1942","431","stimuli/01000010.jpg"," ","","feedback_trial","0","","","","","","","","","","","","","","","","","","","","",""
"","","","","","image-keyboard-response","122","319232","0.0-97.0","63d3fa0d6c990bc96e11becf","665500ab8938657b03fbdba8","6657928ad1b3a7bd556e1942","889","stimuli/1001101.jpg","1","","prediction_trial","1","","true","","1","true","true","true","true","true","true","[1]","001","101","1","","","","","","",""
"","","","","","image-keyboard-response","123","319616","0.0-98.0","63d3fa0d6c990bc96e11becf","665500ab8938657b03fbdba8","6657928ad1b3a7bd556e1942","384","stimuli/10011011.jpg"," ","","feedback_trial","1","","","","","","","","","","","","","","","","","","","","",""
"","","","","","image-keyboard-response","124","322470","0.0-99.0","63d3fa0d6c990bc96e11becf","665500ab8938657b03fbdba8","6657928ad1b3a7bd556e1942","2854","stimuli/2000101.jpg","0","","prediction_trial","2","","false","","2","false","false","true","true","false","false","[2]","000","101","0","","","","","","",""
"","","","","","image-keyboard-response","125","323064","0.0-100.0","63d3fa0d6c990bc96e11becf","665500ab8938657b03fbdba8","6657928ad1b3a7bd556e1942","593","stimuli/20001012.jpg"," ","","feedback_trial","2","","","","","","","","","","","","","","","","","","","","",""
"","","","","","image-keyboard-response","126","323748","0.0-101.0","63d3fa0d6c990bc96e11becf","665500ab8938657b03fbdba8","6657928ad1b3a7bd556e1942","683","stimuli/2100000.jpg","2","","prediction_trial","2","","true","","2","true","true","true","true","true","true","[2]","100","000","1","","","","","","",""
"","","","","","image-keyboard-response","127","324166","0.0-102.0","63d3fa0d6c990bc96e11becf","665500ab8938657b03fbdba8","6657928ad1b3a7bd556e1942","418","stimuli/21000002.jpg"," ","","feedback_trial","2","","","","","","","","","","","","","","","","","","","","",""
"","","","","","image-keyboard-response","128","325932","0.0-103.0","63d3fa0d6c990bc96e11becf","665500ab8938657b03fbdba8","6657928ad1b3a7bd556e1942","1766","stimuli/1100110.jpg","1","","prediction_trial","1","","true","","1","false","false","true","true","false","false","[1]","100","110","1","","","","","","",""
"","","","","","image-keyboard-response","129","326328","0.0-104.0","63d3fa0d6c990bc96e11becf","665500ab8938657b03fbdba8","6657928ad1b3a7bd556e1942","395","stimuli/11001101.jpg"," ","","feedback_trial","1","","","","","","","","","","","","","","","","","","","","",""
"","","","","","image-keyboard-response","130","327078","0.0-105.0","63d3fa0d6c990bc96e11becf","665500ab8938657b03fbdba8","6657928ad1b3a7bd556e1942","750","stimuli/0001001.jpg","0","","prediction_trial","0","","true","","0","true","true","true","true","true","true","[0]","001","001","1","","","","","","",""
"","","","","","image-keyboard-response","131","327434","0.0-106.0","63d3fa0d6c990bc96e11becf","665500ab8938657b03fbdba8","6657928ad1b3a7bd556e1942","355","stimuli/00010010.jpg"," ","","feedback_trial","0","","","","","","","","","","","","","","","","","","","","",""
"","","","","","image-keyboard-response","132","328146","0.0-107.0","63d3fa0d6c990bc96e11becf","665500ab8938657b03fbdba8","6657928ad1b3a7bd556e1942","712","stimuli/1001001.jpg","1","","prediction_trial","1","","true","","1","true","true","true","true","true","true","[1]","001","001","1","","","","","","",""
"","","","","","image-keyboard-response","133","328434","0.0-108.0","63d3fa0d6c990bc96e11becf","665500ab8938657b03fbdba8","6657928ad1b3a7bd556e1942","288","stimuli/10010011.jpg"," ","","feedback_trial","1","","","","","","","","","","","","","","","","","","","","",""
"","","","","","image-keyboard-response","134","330626","0.0-109.0","63d3fa0d6c990bc96e11becf","665500ab8938657b03fbdba8","6657928ad1b3a7bd556e1942","2192","stimuli/2101110.jpg","0","","prediction_trial","0","","true","","2","true","true","false","false","false","false","[0,2]","101","110","1","","","","","","",""
"","","","","","image-keyboard-response","135","331004","0.0-110.0","63d3fa0d6c990bc96e11becf","665500ab8938657b03fbdba8","6657928ad1b3a7bd556e1942","377","stimuli/21011100.jpg"," ","","feedback_trial","0","","","","","","","","","","","","","","","","","","","","",""
"","","","","","image-keyboard-response","136","331796","0.0-111.0","63d3fa0d6c990bc96e11becf","665500ab8938657b03fbdba8","6657928ad1b3a7bd556e1942","791","stimuli/0010001.jpg","0","","prediction_trial","0","","true","","0","true","true","true","true","true","true","[0]","010","001","1","","","","","","",""
"","","","","","image-keyboard-response","137","332100","0.0-112.0","63d3fa0d6c990bc96e11becf","665500ab8938657b03fbdba8","6657928ad1b3a7bd556e1942","303","stimuli/00100010.jpg"," ","","feedback_trial","0","","","","","","","","","","","","","","","","","","","","",""
"","","","","","image-keyboard-response","138","333528","0.0-113.0","63d3fa0d6c990bc96e11becf","665500ab8938657b03fbdba8","6657928ad1b3a7bd556e1942","1427","stimuli/2100111.jpg","2","","prediction_trial","2","","true","","2","false","false","true","true","false","false","[2]","100","111","1","","","","","","",""
"","","","","","image-keyboard-response","139","333888","0.0-114.0","63d3fa0d6c990bc96e11becf","665500ab8938657b03fbdba8","6657928ad1b3a7bd556e1942","359","stimuli/21001112.jpg"," ","","feedback_trial","2","","","","","","","","","","","","","","","","","","","","",""
"","","","","","image-keyboard-response","140","335472","0.0-115.0","63d3fa0d6c990bc96e11becf","665500ab8938657b03fbdba8","6657928ad1b3a7bd556e1942","1584","stimuli/0100000.jpg","0","","prediction_trial","0","","true","","0","true","true","false","true","false","true","[0]","100","000","1","","","","","","",""
"","","","","","image-keyboard-response","141","335820","0.0-116.0","63d3fa0d6c990bc96e11becf","665500ab8938657b03fbdba8","6657928ad1b3a7bd556e1942","346","stimuli/01000000.jpg"," ","","feedback_trial","0","","","","","","","","","","","","","","","","","","","","",""
"","","","","","image-keyboard-response","142","337006","0.0-117.0","63d3fa0d6c990bc96e11becf","665500ab8938657b03fbdba8","6657928ad1b3a7bd556e1942","1186","stimuli/1101100.jpg","1","","prediction_trial","1","","true","","1","true","true","true","true","true","true","[1]","101","100","1","","","","","","",""
"","","","","","image-keyboard-response","143","337488","0.0-118.0","63d3fa0d6c990bc96e11becf","665500ab8938657b03fbdba8","6657928ad1b3a7bd556e1942","481","stimuli/11011001.jpg"," ","","feedback_trial","1","","","","","","","","","","","","","","","","","","","","",""
"","","","","","image-keyboard-response","144","338980","0.0-119.0","63d3fa0d6c990bc96e11becf","665500ab8938657b03fbdba8","6657928ad1b3a7bd556e1942","1491","stimuli/2111010.jpg","1","","prediction_trial","1","","true","","2","true","true","false","false","false","false","[1,2,0]","111","010","1","","","","","","",""
"","","","","","image-keyboard-response","145","339434","0.0-120.0","63d3fa0d6c990bc96e11becf","665500ab8938657b03fbdba8","6657928ad1b3a7bd556e1942","454","stimuli/21110101.jpg"," ","","feedback_trial","1","","","","","","","","","","","","","","","","","","","","",""
"","","","","","image-keyboard-response","146","343470","0.0-121.0","63d3fa0d6c990bc96e11becf","665500ab8938657b03fbdba8","6657928ad1b3a7bd556e1942","4035","stimuli/2001010.jpg","2","","prediction_trial","2","","true","","2","true","true","false","true","false","true","[2]","001","010","1","","","","","","",""
"","","","","","image-keyboard-response","147","343822","0.0-122.0","63d3fa0d6c990bc96e11becf","665500ab8938657b03fbdba8","6657928ad1b3a7bd556e1942","351","stimuli/20010102.jpg"," ","","feedback_trial","2","","","","","","","","","","","","","","","","","","","","",""
"","","","","","image-keyboard-response","148","346854","0.0-123.0","63d3fa0d6c990bc96e11becf","665500ab8938657b03fbdba8","6657928ad1b3a7bd556e1942","3031","stimuli/0011101.jpg","2","","prediction_trial","0","","false","","0","false","false","true","true","false","false","[0]","011","101","0","","","","","","",""
"","","","","","image-keyboard-response","149","347786","0.0-124.0","63d3fa0d6c990bc96e11becf","665500ab8938657b03fbdba8","6657928ad1b3a7bd556e1942","931","stimuli/00111010.jpg"," ","","feedback_trial","0","","","","","","","","","","","","","","","","","","","","",""
"","","","","","image-keyboard-response","150","350224","0.0-125.0","63d3fa0d6c990bc96e11becf","665500ab8938657b03fbdba8","6657928ad1b3a7bd556e1942","2437","stimuli/0010101.jpg","0","","prediction_trial","0","","true","","0","false","false","true","true","false","false","[0]","010","101","1","","","","","","",""
"","","","","","image-keyboard-response","151","350764","0.0-126.0","63d3fa0d6c990bc96e11becf","665500ab8938657b03fbdba8","6657928ad1b3a7bd556e1942","538","stimuli/00101010.jpg"," ","","feedback_trial","0","","","","","","","","","","","","","","","","","","","","",""
"","","","","","image-keyboard-response","152","351556","0.0-127.0","63d3fa0d6c990bc96e11becf","665500ab8938657b03fbdba8","6657928ad1b3a7bd556e1942","792","stimuli/2000110.jpg","2","","prediction_trial","2","","true","","2","true","true","true","true","true","true","[2]","000","110","1","","","","","","",""
"","","","","","image-keyboard-response","153","351958","0.0-128.0","63d3fa0d6c990bc96e11becf","665500ab8938657b03fbdba8","6657928ad1b3a7bd556e1942","402","stimuli/20001102.jpg"," ","","feedback_trial","2","","","","","","","","","","","","","","","","","","","","",""
"","","","","","image-keyboard-response","154","353462","0.0-129.0","63d3fa0d6c990bc96e11becf","665500ab8938657b03fbdba8","6657928ad1b3a7bd556e1942","1504","stimuli/2110010.jpg","2","","prediction_trial","2","","true","","2","true","true","true","true","true","true","[2]","110","010","1","","","","","","",""
"","","","","","image-keyboard-response","155","353814","0.0-130.0","63d3fa0d6c990bc96e11becf","665500ab8938657b03fbdba8","6657928ad1b3a7bd556e1942","351","stimuli/21100102.jpg"," ","","feedback_trial","2","","","","","","","","","","","","","","","","","","","","",""
"","","","","","image-keyboard-response","156","356266","0.0-131.0","63d3fa0d6c990bc96e11becf","665500ab8938657b03fbdba8","6657928ad1b3a7bd556e1942","2452","stimuli/2010111.jpg","1","","prediction_trial","2","","false","","2","false","false","true","true","false","false","[2]","010","111","0","","","","","","",""
"","","","","","image-keyboard-response","157","356812","0.0-132.0","63d3fa0d6c990bc96e11becf","665500ab8938657b03fbdba8","6657928ad1b3a7bd556e1942","545","stimuli/20101112.jpg"," ","","feedback_trial","2","","","","","","","","","","","","","","","","","","","","",""
"","","","","","image-keyboard-response","158","358576","0.0-133.0","63d3fa0d6c990bc96e11becf","665500ab8938657b03fbdba8","6657928ad1b3a7bd556e1942","1764","stimuli/1110100.jpg","1","","prediction_trial","0","","false","","1","true","true","false","false","false","false","[1,0]","110","100","0","","","","","","",""
"","","","","","image-keyboard-response","159","359024","0.0-134.0","63d3fa0d6c990bc96e11becf","665500ab8938657b03fbdba8","6657928ad1b3a7bd556e1942","446","stimuli/11101000.jpg"," ","","feedback_trial","1","","","","","","","","","","","","","","","","","","","","",""
"","","","","","image-keyboard-response","160","359774","0.0-135.0","63d3fa0d6c990bc96e11becf","665500ab8938657b03fbdba8","6657928ad1b3a7bd556e1942","749","stimuli/1101000.jpg","1","","prediction_trial","1","","true","","1","true","true","true","true","true","true","[1]","101","000","1","","","","","","",""
"","","","","","image-keyboard-response","161","360120","0.0-136.0","63d3fa0d6c990bc96e11becf","665500ab8938657b03fbdba8","6657928ad1b3a7bd556e1942","344","stimuli/11010001.jpg"," ","","feedback_trial","1","","","","","","","","","","","","","","","","","","","","",""
"","","","","","image-keyboard-response","162","362481","0.0-137.0","63d3fa0d6c990bc96e11becf","665500ab8938657b03fbdba8","6657928ad1b3a7bd556e1942","2359","stimuli/2011011.jpg","1","","prediction_trial","2","","false","","2","false","false","false","false","false","false","[1,2]","011","011","0","","","","","","",""
"","","","","","image-keyboard-response","163","362892","0.0-138.0","63d3fa0d6c990bc96e11becf","665500ab8938657b03fbdba8","6657928ad1b3a7bd556e1942","410","stimuli/20110112.jpg"," ","","feedback_trial","1","","","","","","","","","","","","","","","","","","","","",""
"","","","","","image-keyboard-response","164","363614","0.0-139.0","63d3fa0d6c990bc96e11becf","665500ab8938657b03fbdba8","6657928ad1b3a7bd556e1942","722","stimuli/2100100.jpg","2","","prediction_trial","2","","true","","2","true","true","true","true","true","true","[2]","100","100","1","","","","","","",""
"","","","","","image-keyboard-response","165","363962","0.0-140.0","63d3fa0d6c990bc96e11becf","665500ab8938657b03fbdba8","6657928ad1b3a7bd556e1942","348","stimuli/21001002.jpg"," ","","feedback_trial","2","","","","","","","","","","","","","","","","","","","","",""
"","","","","","image-keyboard-response","166","364608","0.0-141.0","63d3fa0d6c990bc96e11becf","665500ab8938657b03fbdba8","6657928ad1b3a7bd556e1942","645","stimuli/1000101.jpg","1","","prediction_trial","1","","true","","1","true","true","true","true","true","true","[1]","000","101","1","","","","","","",""
"","","","","","image-keyboard-response","167","364960","0.0-142.0","63d3fa0d6c990bc96e11becf","665500ab8938657b03fbdba8","6657928ad1b3a7bd556e1942","351","stimuli/10001011.jpg"," ","","feedback_trial","1","","","","","","","","","","","","","","","","","","","","",""
"","","","","","image-keyboard-response","168","365582","0.0-143.0","63d3fa0d6c990bc96e11becf","665500ab8938657b03fbdba8","6657928ad1b3a7bd556e1942","620","stimuli/2110110.jpg","2","","prediction_trial","2","","true","","2","true","true","true","true","true","true","[2]","110","110","1","","","","","","",""
"","","","","","image-keyboard-response","169","365906","0.0-144.0","63d3fa0d6c990bc96e11becf","665500ab8938657b03fbdba8","6657928ad1b3a7bd556e1942","324","stimuli/21101102.jpg"," ","","feedback_trial","2","","","","","","","","","","","","","","","","","","","","",""
"","","","","","image-keyboard-response","170","367585","0.0-145.0","63d3fa0d6c990bc96e11becf","665500ab8938657b03fbdba8","6657928ad1b3a7bd556e1942","1680","stimuli/1110000.jpg","1","","prediction_trial","0","","false","","1","true","true","false","false","false","false","[0,1]","110","000","0","","","","","","",""
"","","","","","image-keyboard-response","171","367995","0.0-146.0","63d3fa0d6c990bc96e11becf","665500ab8938657b03fbdba8","6657928ad1b3a7bd556e1942","409","stimuli/11100000.jpg"," ","","feedback_trial","0","","","","","","","","","","","","","","","","","","","","",""
"","","","","","image-keyboard-response","172","370204","0.0-147.0","63d3fa0d6c990bc96e11becf","665500ab8938657b03fbdba8","6657928ad1b3a7bd556e1942","2207","stimuli/0110100.jpg","0","","prediction_trial","0","","true","","0","false","true","false","false","false","false","[1,0]","110","100","1","","","","","","",""
"","","","","","image-keyboard-response","173","370599","0.0-148.0","63d3fa0d6c990bc96e11becf","665500ab8938657b03fbdba8","6657928ad1b3a7bd556e1942","396","stimuli/01101000.jpg"," ","","feedback_trial","1","","","","","","","","","","","","","","","","","","","","",""
"","","","","","image-keyboard-response","174","373017","0.0-149.0","63d3fa0d6c990bc96e11becf","665500ab8938657b03fbdba8","6657928ad1b3a7bd556e1942","2418","stimuli/1111010.jpg","1","","prediction_trial","1","","true","","1","false","true","false","false","false","false","[0,1,2]","111","010","1","","","","","","",""
"","","","","","image-keyboard-response","175","373401","0.0-150.0","63d3fa0d6c990bc96e11becf","665500ab8938657b03fbdba8","6657928ad1b3a7bd556e1942","382","stimuli/11110101.jpg"," ","","feedback_trial","0","","","","","","","","","","","","","","","","","","","","",""
"","","","","","image-keyboard-response","176","376782","0.0-151.0","63d3fa0d6c990bc96e11becf","665500ab8938657b03fbdba8","6657928ad1b3a7bd556e1942","3379","stimuli/2010001.jpg","1","","prediction_trial","2","","false","","2","false","true","true","true","false","true","[2]","010","001","0","","","","","","",""
"","","","","","image-keyboard-response","177","377685","0.0-152.0","63d3fa0d6c990bc96e11becf","665500ab8938657b03fbdba8","6657928ad1b3a7bd556e1942","903","stimuli/20100012.jpg"," ","","feedback_trial","2","","","","","","","","","","","","","","","","","","","","",""
"","","","","","image-keyboard-response","178","382692","0.0-153.0","63d3fa0d6c990bc96e11becf","665500ab8938657b03fbdba8","6657928ad1b3a7bd556e1942","5006","stimuli/1001111.jpg","2","","prediction_trial","1","","false","","1","false","false","true","true","false","false","[1]","001","111","0","","","","","","",""
"","","","","","image-keyboard-response","179","383445","0.0-154.0","63d3fa0d6c990bc96e11becf","665500ab8938657b03fbdba8","6657928ad1b3a7bd556e1942","753","stimuli/10011111.jpg"," ","","feedback_trial","1","","","","","","","","","","","","","","","","","","","","",""
"","","","","","image-keyboard-response","180","385555","0.0-155.0","63d3fa0d6c990bc96e11becf","665500ab8938657b03fbdba8","6657928ad1b3a7bd556e1942","2110","stimuli/0100010.jpg","0","","prediction_trial","0","","true","","0","true","true","false","true","false","true","[0]","100","010","1","","","","","","",""
"","","","","","image-keyboard-response","181","386037","0.0-156.0","63d3fa0d6c990bc96e11becf","665500ab8938657b03fbdba8","6657928ad1b3a7bd556e1942","481","stimuli/01000100.jpg"," ","","feedback_trial","0","","","","","","","","","","","","","","","","","","","","",""
"","","","","","image-keyboard-response","182","388471","0.0-157.0","63d3fa0d6c990bc96e11becf","665500ab8938657b03fbdba8","6657928ad1b3a7bd556e1942","2433","stimuli/1111100.jpg","0","","prediction_trial","1","","false","","1","true","true","false","false","false","false","[2,1,0]","111","100","0","","","","","","",""
"","","","","","image-keyboard-response","183","389095","0.0-158.0","63d3fa0d6c990bc96e11becf","665500ab8938657b03fbdba8","6657928ad1b3a7bd556e1942","623","stimuli/11111001.jpg"," ","","feedback_trial","2","","","","","","","","","","","","","","","","","","","","",""
"","","","","","image-keyboard-response","184","389897","0.0-159.0","63d3fa0d6c990bc96e11becf","665500ab8938657b03fbdba8","6657928ad1b3a7bd556e1942","801","stimuli/1101001.jpg","1","","prediction_trial","1","","true","","1","true","true","true","true","true","true","[1]","101","001","1","","","","","","",""
"","","","","","image-keyboard-response","185","390315","0.0-160.0","63d3fa0d6c990bc96e11becf","665500ab8938657b03fbdba8","6657928ad1b3a7bd556e1942","418","stimuli/11010011.jpg"," ","","feedback_trial","1","","","","","","","","","","","","","","","","","","","","",""
"","","","","","image-keyboard-response","186","391845","0.0-161.0","63d3fa0d6c990bc96e11becf","665500ab8938657b03fbdba8","6657928ad1b3a7bd556e1942","1529","stimuli/1100010.jpg","1","","prediction_trial","1","","true","","1","false","true","true","true","false","true","[1]","100","010","1","","","","","","",""
"","","","","","image-keyboard-response","187","392235","0.0-162.0","63d3fa0d6c990bc96e11becf","665500ab8938657b03fbdba8","6657928ad1b3a7bd556e1942","390","stimuli/11000101.jpg"," ","","feedback_trial","1","","","","","","","","","","","","","","","","","","","","",""
"","","","","","image-keyboard-response","188","397912","0.0-163.0","63d3fa0d6c990bc96e11becf","665500ab8938657b03fbdba8","6657928ad1b3a7bd556e1942","5675","stimuli/1011010.jpg","1","","prediction_trial","1","","true","","1","false","true","false","false","false","false","[2,1]","011","010","1","","","","","","",""
"","","","","","image-keyboard-response","189","398357","0.0-164.0","63d3fa0d6c990bc96e11becf","665500ab8938657b03fbdba8","6657928ad1b3a7bd556e1942","445","stimuli/10110101.jpg"," ","","feedback_trial","2","","","","","","","","","","","","","","","","","","","","",""
"","","","","","image-keyboard-response","190","399195","0.0-165.0","63d3fa0d6c990bc96e11becf","665500ab8938657b03fbdba8","6657928ad1b3a7bd556e1942","838","stimuli/0000001.jpg","0","","prediction_trial","0","","true","","0","true","true","true","true","true","true","[0]","000","001","1","","","","","","",""
"","","","","","image-keyboard-response","191","399579","0.0-166.0","63d3fa0d6c990bc96e11becf","665500ab8938657b03fbdba8","6657928ad1b3a7bd556e1942","384","stimuli/00000010.jpg"," ","","feedback_trial","0","","","","","","","","","","","","","","","","","","","","",""
"","","","","","image-keyboard-response","192","400883","0.0-167.0","63d3fa0d6c990bc96e11becf","665500ab8938657b03fbdba8","6657928ad1b3a7bd556e1942","1302","stimuli/0001110.jpg","1","","prediction_trial","0","","false","","0","false","false","true","true","false","false","[0]","001","110","0","","","","","","",""
"","","","","","image-keyboard-response","193","401366","0.0-168.0","63d3fa0d6c990bc96e11becf","665500ab8938657b03fbdba8","6657928ad1b3a7bd556e1942","482","stimuli/00011100.jpg"," ","","feedback_trial","0","","","","","","","","","","","","","","","","","","","","",""
"","","","","","image-keyboard-response","194","404275","0.0-169.0","63d3fa0d6c990bc96e11becf","665500ab8938657b03fbdba8","6657928ad1b3a7bd556e1942","2909","stimuli/0111000.jpg","0","","prediction_trial","1","","false","","0","true","true","false","false","false","false","[1,0,2]","111","000","0","","","","","","",""
"","","","","","image-keyboard-response","195","404863","0.0-170.0","63d3fa0d6c990bc96e11becf","665500ab8938657b03fbdba8","6657928ad1b3a7bd556e1942","588","stimuli/01110001.jpg"," ","","feedback_trial","1","","","","","","","","","","","","","","","","","","","","",""
"","","","","","image-keyboard-response","196","405537","0.0-171.0","63d3fa0d6c990bc96e11becf","665500ab8938657b03fbdba8","6657928ad1b3a7bd556e1942","673","stimuli/2010100.jpg","2","","prediction_trial","2","","true","","2","true","true","true","true","true","true","[2]","010","100","1","","","","","","",""
"","","","","","image-keyboard-response","197","405903","0.0-172.0","63d3fa0d6c990bc96e11becf","665500ab8938657b03fbdba8","6657928ad1b3a7bd556e1942","364","stimuli/20101002.jpg"," ","","feedback_trial","2","","","","","","","","","","","","","","","","","","","","",""
"","","","","","image-keyboard-response","198","408930","0.0-173.0","63d3fa0d6c990bc96e11becf","665500ab8938657b03fbdba8","6657928ad1b3a7bd556e1942","3026","stimuli/1111011.jpg","1","","prediction_trial","0","","false","","1","false","false","false","false","false","false","[0,2,1]","111","011","0","","","","","","",""
"","","","","","image-keyboard-response","199","409365","0.0-174.0","63d3fa0d6c990bc96e11becf","665500ab8938657b03fbdba8","6657928ad1b3a7bd556e1942","434","stimuli/11110110.jpg"," ","","feedback_trial","0","","","","","","","","","","","","","","","","","","","","",""
"","","","","","image-keyboard-response","200","411195","0.0-175.0","63d3fa0d6c990bc96e11becf","665500ab8938657b03fbdba8","6657928ad1b3a7bd556e1942","1829","stimuli/2011101.jpg","0","","prediction_trial","1","","false","","2","false","false","false","false","false","false","[2,1]","011","101","0","","","","","","",""
"","","","","","image-keyboard-response","201","411683","0.0-176.0","63d3fa0d6c990bc96e11becf","665500ab8938657b03fbdba8","6657928ad1b3a7bd556e1942","488","stimuli/20111011.jpg"," ","","feedback_trial","2","","","","","","","","","","","","","","","","","","","","",""
"","","","","","image-keyboard-response","202","412813","0.0-177.0","63d3fa0d6c990bc96e11becf","665500ab8938657b03fbdba8","6657928ad1b3a7bd556e1942","1130","stimuli/1100100.jpg","1","","prediction_trial","1","","true","","1","true","true","true","true","true","true","[1]","100","100","1","","","","","","",""
"","","","","","image-keyboard-response","203","413185","0.0-178.0","63d3fa0d6c990bc96e11becf","665500ab8938657b03fbdba8","6657928ad1b3a7bd556e1942","371","stimuli/11001001.jpg"," ","","feedback_trial","1","","","","","","","","","","","","","","","","","","","","",""
"","","","","","image-keyboard-response","204","415270","0.0-179.0","63d3fa0d6c990bc96e11becf","665500ab8938657b03fbdba8","6657928ad1b3a7bd556e1942","2084","stimuli/2101000.jpg","2","","prediction_trial","2","","true","","2","true","true","false","false","false","false","[0,2]","101","000","1","","","","","","",""
"","","","","","image-keyboard-response","205","415645","0.0-180.0","63d3fa0d6c990bc96e11becf","665500ab8938657b03fbdba8","6657928ad1b3a7bd556e1942","375","stimuli/21010002.jpg"," ","","feedback_trial","0","","","","","","","","","","","","","","","","","","","","",""
"","","","","","image-keyboard-response","206","417573","0.0-181.0","63d3fa0d6c990bc96e11becf","665500ab8938657b03fbdba8","6657928ad1b3a7bd556e1942","1928","stimuli/0101110.jpg","1","","prediction_trial","2","","false","","0","false","false","false","false","false","false","[2,0]","101","110","0","","","","","","",""
"","","","","","image-keyboard-response","207","417975","0.0-182.0","63d3fa0d6c990bc96e11becf","665500ab8938657b03fbdba8","6657928ad1b3a7bd556e1942","400","stimuli/01011102.jpg"," ","","feedback_trial","2","","","","","","","","","","","","","","","","","","","","",""
"","","","","","image-keyboard-response","208","419676","0.0-183.0","63d3fa0d6c990bc96e11becf","665500ab8938657b03fbdba8","6657928ad1b3a7bd556e1942","1700","stimuli/0011110.jpg","0","","prediction_trial","0","","true","","0","false","false","true","true","false","false","[0]","011","110","1","","","","","","",""
"","","","","","image-keyboard-response","209","420067","0.0-184.0","63d3fa0d6c990bc96e11becf","665500ab8938657b03fbdba8","6657928ad1b3a7bd556e1942","391","stimuli/00111100.jpg"," ","","feedback_trial","0","","","","","","","","","","","","","","","","","","","","",""
"","","","","","image-keyboard-response","210","420705","0.0-185.0","63d3fa0d6c990bc96e11becf","665500ab8938657b03fbdba8","6657928ad1b3a7bd556e1942","636","stimuli/0000010.jpg","0","","prediction_trial","0","","true","","0","true","true","true","true","true","true","[0]","000","010","1","","","","","","",""
"","","","","","image-keyboard-response","211","421063","0.0-186.0","63d3fa0d6c990bc96e11becf","665500ab8938657b03fbdba8","6657928ad1b3a7bd556e1942","357","stimuli/00000100.jpg"," ","","feedback_trial","0","","","","","","","","","","","","","","","","","","","","",""
"","","","","","image-keyboard-response","212","422861","0.0-187.0","63d3fa0d6c990bc96e11becf","665500ab8938657b03fbdba8","6657928ad1b3a7bd556e1942","1798","stimuli/1110010.jpg","1","","prediction_trial","0","","false","","1","false","true","false","false","false","false","[0,1]","110","010","0","","","","","","",""
"","","","","","image-keyboard-response","213","423317","0.0-188.0","63d3fa0d6c990bc96e11becf","665500ab8938657b03fbdba8","6657928ad1b3a7bd556e1942","456","stimuli/11100100.jpg"," ","","feedback_trial","0","","","","","","","","","","","","","","","","","","","","",""
"","","","","","image-keyboard-response","214","425273","0.0-189.0","63d3fa0d6c990bc96e11becf","665500ab8938657b03fbdba8","6657928ad1b3a7bd556e1942","1956","stimuli/2101100.jpg","0","","prediction_trial","2","","false","","2","true","true","false","false","false","false","[0,2]","101","100","0","","","","","","",""
"","","","","","image-keyboard-response","215","425755","0.0-190.0","63d3fa0d6c990bc96e11becf","665500ab8938657b03fbdba8","6657928ad1b3a7bd556e1942","482","stimuli/21011002.jpg"," ","","feedback_trial","0","","","","","","","","","","","","","","","","","","","","",""
"","","","","","image-keyboard-response","216","426855","0.0-191.0","63d3fa0d6c990bc96e11becf","665500ab8938657b03fbdba8","6657928ad1b3a7bd556e1942","1099","stimuli/0000100.jpg","0","","prediction_trial","0","","true","","0","false","true","true","true","false","true","[0]","000","100","1","","","","","","",""
"","","","","","image-keyboard-response","217","427231","0.0-192.0","63d3fa0d6c990bc96e11becf","665500ab8938657b03fbdba8","6657928ad1b3a7bd556e1942","375","stimuli/00001000.jpg"," ","","feedback_trial","0","","","","","","","","","","","","","","","","","","","","",""
"","","","","","image-keyboard-response","218","427975","0.0-193.0","63d3fa0d6c990bc96e11becf","665500ab8938657b03fbdba8","6657928ad1b3a7bd556e1942","743","stimuli/1100001.jpg","1","","prediction_trial","1","","true","","1","true","true","true","true","true","true","[1]","100","001","1","","","","","","",""
"","","","","","image-keyboard-response","219","428320","0.0-194.0","63d3fa0d6c990bc96e11becf","665500ab8938657b03fbdba8","6657928ad1b3a7bd556e1942","343","stimuli/11000011.jpg"," ","","feedback_trial","1","","","","","","","","","","","","","","","","","","","","",""
"","","","","","image-keyboard-response","220","430350","0.0-195.0","63d3fa0d6c990bc96e11becf","665500ab8938657b03fbdba8","6657928ad1b3a7bd556e1942","2028","stimuli/2111101.jpg","2","","prediction_trial","1","","false","","2","false","false","false","false","false","false","[2,0,1]","111","101","0","","","","","","",""
"","","","","","image-keyboard-response","221","430803","0.0-196.0","63d3fa0d6c990bc96e11becf","665500ab8938657b03fbdba8","6657928ad1b3a7bd556e1942","453","stimuli/21111011.jpg"," ","","feedback_trial","2","","","","","","","","","","","","","","","","","","","","",""
"","","","","","image-keyboard-response","222","432470","0.0-197.0","63d3fa0d6c990bc96e11becf","665500ab8938657b03fbdba8","6657928ad1b3a7bd556e1942","1665","stimuli/0000111.jpg","2","","prediction_trial","0","","false","","0","false","false","true","true","false","false","[0]","000","111","0","","","","","","",""
"","","","","","image-keyboard-response","223","432941","0.0-198.0","63d3fa0d6c990bc96e11becf","665500ab8938657b03fbdba8","6657928ad1b3a7bd556e1942","471","stimuli/00001110.jpg"," ","","feedback_trial","0","","","","","","","","","","","","","","","","","","","","",""
"","","","","","image-keyboard-response","224","434652","0.0-199.0","63d3fa0d6c990bc96e11becf","665500ab8938657b03fbdba8","6657928ad1b3a7bd556e1942","1709","stimuli/2000011.jpg","2","","prediction_trial","2","","true","","2","false","false","true","true","false","false","[2]","000","011","1","","","","","","",""
"","","","","","image-keyboard-response","225","435137","0.0-200.0","63d3fa0d6c990bc96e11becf","665500ab8938657b03fbdba8","6657928ad1b3a7bd556e1942","484","stimuli/20000112.jpg"," ","","feedback_trial","2","","","","","","","","","","","","","","","","","","","","",""
"","","","","","image-keyboard-response","226","435832","0.0-201.0","63d3fa0d6c990bc96e11becf","665500ab8938657b03fbdba8","6657928ad1b3a7bd556e1942","694","stimuli/1101101.jpg","1","","prediction_trial","1","","true","","1","true","true","true","true","true","true","[1]","101","101","1","","","","","","",""
"","","","","","image-keyboard-response","227","436249","0.0-202.0","63d3fa0d6c990bc96e11becf","665500ab8938657b03fbdba8","6657928ad1b3a7bd556e1942","417","stimuli/11011011.jpg"," ","","feedback_trial","1","","","","","","","","","","","","","","","","","","","","",""
"","","","","","image-keyboard-response","228","437395","0.0-203.0","63d3fa0d6c990bc96e11becf","665500ab8938657b03fbdba8","6657928ad1b3a7bd556e1942","1146","stimuli/2001000.jpg","2","","prediction_trial","2","","true","","2","true","true","false","true","false","true","[2]","001","000","1","","","","","","",""
"","","","","","image-keyboard-response","229","437779","0.0-204.0","63d3fa0d6c990bc96e11becf","665500ab8938657b03fbdba8","6657928ad1b3a7bd556e1942","384","stimuli/20010002.jpg"," ","","feedback_trial","2","","","","","","","","","","","","","","","","","","","","",""
"","","","","","image-keyboard-response","230","439268","0.0-205.0","63d3fa0d6c990bc96e11becf","665500ab8938657b03fbdba8","6657928ad1b3a7bd556e1942","1488","stimuli/1110101.jpg","1","","prediction_trial","0","","false","","1","true","true","false","false","false","false","[0,1]","110","101","0","","","","","","",""
"","","","","","image-keyboard-response","231","439761","0.0-206.0","63d3fa0d6c990bc96e11becf","665500ab8938657b03fbdba8","6657928ad1b3a7bd556e1942","493","stimuli/11101010.jpg"," ","","feedback_trial","0","","","","","","","","","","","","","","","","","","","","",""
"","","","","","image-keyboard-response","232","440554","0.0-207.0","63d3fa0d6c990bc96e11becf","665500ab8938657b03fbdba8","6657928ad1b3a7bd556e1942","792","stimuli/2010010.jpg","2","","prediction_trial","2","","true","","2","true","true","true","true","true","true","[2]","010","010","1","","","","","","",""
"","","","","","image-keyboard-response","233","440937","0.0-208.0","63d3fa0d6c990bc96e11becf","665500ab8938657b03fbdba8","6657928ad1b3a7bd556e1942","382","stimuli/20100102.jpg"," ","","feedback_trial","2","","","","","","","","","","","","","","","","","","","","",""
"","","","","","image-keyboard-response","234","444059","0.0-209.0","63d3fa0d6c990bc96e11becf","665500ab8938657b03fbdba8","6657928ad1b3a7bd556e1942","3122","stimuli/1111000.jpg","2","","prediction_trial","1","","false","","1","true","true","false","false","false","false","[2,1,0]","111","000","0","","","","","","",""
"","","","","","image-keyboard-response","235","444552","0.0-210.0","63d3fa0d6c990bc96e11becf","665500ab8938657b03fbdba8","6657928ad1b3a7bd556e1942","492","stimuli/11110001.jpg"," ","","feedback_trial","2","","","","","","","","","","","","","","","","","","","","",""
"","","","","","image-keyboard-response","236","445873","0.0-211.0","63d3fa0d6c990bc96e11becf","665500ab8938657b03fbdba8","6657928ad1b3a7bd556e1942","1320","stimuli/2011000.jpg","2","","prediction_trial","1","","false","","2","true","true","false","false","false","false","[1,2]","011","000","0","","","","","","",""
"","","","","","image-keyboard-response","237","446490","0.0-212.0","63d3fa0d6c990bc96e11becf","665500ab8938657b03fbdba8","6657928ad1b3a7bd556e1942","616","stimuli/20110001.jpg"," ","","feedback_trial","1","","","","","","","","","","","","","","","","","","","","",""
"","","","","","image-keyboard-response","238","450533","0.0-213.0","63d3fa0d6c990bc96e11becf","665500ab8938657b03fbdba8","6657928ad1b3a7bd556e1942","4043","stimuli/2110111.jpg","2","","prediction_trial","2","","true","","2","false","false","true","true","false","false","[2]","110","111","1","","","","","","",""
"","","","","","image-keyboard-response","239","451080","0.0-214.0","63d3fa0d6c990bc96e11becf","665500ab8938657b03fbdba8","6657928ad1b3a7bd556e1942","546","stimuli/21101112.jpg"," ","","feedback_trial","2","","","","","","","","","","","","","","","","","","","","",""
"","","","","","image-keyboard-response","240","452296","0.0-215.0","63d3fa0d6c990bc96e11becf","665500ab8938657b03fbdba8","6657928ad1b3a7bd556e1942","1214","stimuli/0000000.jpg","0","","prediction_trial","0","","true","","0","true","true","true","true","true","true","[0]","000","000","1","","","","","","",""
"","","","","","image-keyboard-response","241","452751","0.0-216.0","63d3fa0d6c990bc96e11becf","665500ab8938657b03fbdba8","6657928ad1b3a7bd556e1942","455","stimuli/00000000.jpg"," ","","feedback_trial","0","","","","","","","","","","","","","","","","","","","","",""
"","","","","","image-keyboard-response","242","454867","0.0-217.0","63d3fa0d6c990bc96e11becf","665500ab8938657b03fbdba8","6657928ad1b3a7bd556e1942","2115","stimuli/2011110.jpg","1","","prediction_trial","2","","false","","2","true","true","false","false","false","false","[2,1]","011","110","0","","","","","","",""
"","","","","","image-keyboard-response","243","455430","0.0-218.0","63d3fa0d6c990bc96e11becf","665500ab8938657b03fbdba8","6657928ad1b3a7bd556e1942","563","stimuli/20111102.jpg"," ","","feedback_trial","2","","","","","","","","","","","","","","","","","","","","",""
"","","","","","image-keyboard-response","244","456054","0.0-219.0","63d3fa0d6c990bc96e11becf","665500ab8938657b03fbdba8","6657928ad1b3a7bd556e1942","624","stimuli/0001011.jpg","0","","prediction_trial","0","","true","","0","true","true","true","true","true","true","[0]","001","011","1","","","","","","",""
"","","","","","image-keyboard-response","245","456487","0.0-220.0","63d3fa0d6c990bc96e11becf","665500ab8938657b03fbdba8","6657928ad1b3a7bd556e1942","432","stimuli/00010110.jpg"," ","","feedback_trial","0","","","","","","","","","","","","","","","","","","","","",""
"","","","","","image-keyboard-response","246","457950","0.0-221.0","63d3fa0d6c990bc96e11becf","665500ab8938657b03fbdba8","6657928ad1b3a7bd556e1942","1462","stimuli/0101010.jpg","0","","prediction_trial","2","","false","","0","true","true","false","false","false","false","[2,0]","101","010","0","","","","","","",""
"","","","","","image-keyboard-response","247","458448","0.0-222.0","63d3fa0d6c990bc96e11becf","665500ab8938657b03fbdba8","6657928ad1b3a7bd556e1942","497","stimuli/01010102.jpg"," ","","feedback_trial","2","","","","","","","","","","","","","","","","","","","","",""
"","","","","","image-keyboard-response","248","459106","0.0-223.0","63d3fa0d6c990bc96e11becf","665500ab8938657b03fbdba8","6657928ad1b3a7bd556e1942","658","stimuli/2000000.jpg","2","","prediction_trial","2","","true","","2","true","true","true","true","true","true","[2]","000","000","1","","","","","","",""
"","","","","","image-keyboard-response","249","459479","0.0-224.0","63d3fa0d6c990bc96e11becf","665500ab8938657b03fbdba8","6657928ad1b3a7bd556e1942","371","stimuli/20000002.jpg"," ","","feedback_trial","2","","","","","","","","","","","","","","","","","","","","",""
"","","","","","image-keyboard-response","250","460326","0.0-225.0","63d3fa0d6c990bc96e11becf","665500ab8938657b03fbdba8","6657928ad1b3a7bd556e1942","846","stimuli/0001010.jpg","0","","prediction_trial","0","","true","","0","true","true","true","true","true","true","[0]","001","010","1","","","","","","",""
"","","","","","image-keyboard-response","251","460713","0.0-226.0","63d3fa0d6c990bc96e11becf","665500ab8938657b03fbdba8","6657928ad1b3a7bd556e1942","385","stimuli/00010100.jpg"," ","","feedback_trial","0","","","","","","","","","","","","","","","","","","","","",""
"","","","","","image-keyboard-response","252","462963","0.0-227.0","63d3fa0d6c990bc96e11becf","665500ab8938657b03fbdba8","6657928ad1b3a7bd556e1942","2248","stimuli/1010101.jpg","1","","prediction_trial","1","","true","","1","true","true","false","true","false","true","[1]","010","101","1","","","","","","",""
"","","","","","image-keyboard-response","253","463298","0.0-228.0","63d3fa0d6c990bc96e11becf","665500ab8938657b03fbdba8","6657928ad1b3a7bd556e1942","335","stimuli/10101011.jpg"," ","","feedback_trial","1","","","","","","","","","","","","","","","","","","","","",""
"","","","","","image-keyboard-response","254","467953","0.0-229.0","63d3fa0d6c990bc96e11becf","665500ab8938657b03fbdba8","6657928ad1b3a7bd556e1942","4653","stimuli/1101011.jpg","2","","prediction_trial","1","","false","","1","false","false","true","true","false","false","[1]","101","011","0","","","","","","",""
"","","","","","image-keyboard-response","255","469086","0.0-230.0","63d3fa0d6c990bc96e11becf","665500ab8938657b03fbdba8","6657928ad1b3a7bd556e1942","1133","stimuli/11010111.jpg"," ","","feedback_trial","1","","","","","","","","","","","","","","","","","","","","",""
"","","","","","image-keyboard-response","256","471127","0.0-231.0","63d3fa0d6c990bc96e11becf","665500ab8938657b03fbdba8","6657928ad1b3a7bd556e1942","2038","stimuli/0110001.jpg","0","","prediction_trial","1","","false","","0","true","true","false","false","false","false","[0,1]","110","001","0","","","","","","",""
"","","","","","image-keyboard-response","257","471614","0.0-232.0","63d3fa0d6c990bc96e11becf","665500ab8938657b03fbdba8","6657928ad1b3a7bd556e1942","487","stimuli/01100011.jpg"," ","","feedback_trial","0","","","","","","","","","","","","","","","","","","","","",""
"","","","","","image-keyboard-response","258","473485","0.0-233.0","63d3fa0d6c990bc96e11becf","665500ab8938657b03fbdba8","6657928ad1b3a7bd556e1942","1870","stimuli/1011100.jpg","1","","prediction_trial","1","","true","","1","true","true","false","false","false","false","[1,2]","011","100","1","","","","","","",""
"","","","","","image-keyboard-response","259","473916","0.0-234.0","63d3fa0d6c990bc96e11becf","665500ab8938657b03fbdba8","6657928ad1b3a7bd556e1942","431","stimuli/10111001.jpg"," ","","feedback_trial","1","","","","","","","","","","","","","","","","","","","","",""
"","","","","","image-keyboard-response","260","476856","0.0-235.0","63d3fa0d6c990bc96e11becf","665500ab8938657b03fbdba8","6657928ad1b3a7bd556e1942","2940","stimuli/2011100.jpg","1","","prediction_trial","1","","true","","2","true","true","false","false","false","false","[1,2]","011","100","1","","","","","","",""
"","","","","","image-keyboard-response","261","477342","0.0-236.0","63d3fa0d6c990bc96e11becf","665500ab8938657b03fbdba8","6657928ad1b3a7bd556e1942","486","stimuli/20111001.jpg"," ","","feedback_trial","1","","","","","","","","","","","","","","","","","","","","",""
"","","","","","image-keyboard-response","262","479161","0.0-237.0","63d3fa0d6c990bc96e11becf","665500ab8938657b03fbdba8","6657928ad1b3a7bd556e1942","1817","stimuli/2011001.jpg","2","","prediction_trial","2","","true","","2","false","true","false","false","false","false","[1,2]","011","001","1","","","","","","",""
"","","","","","image-keyboard-response","263","479558","0.0-238.0","63d3fa0d6c990bc96e11becf","665500ab8938657b03fbdba8","6657928ad1b3a7bd556e1942","397","stimuli/20110012.jpg"," ","","feedback_trial","1","","","","","","","","","","","","","","","","","","","","",""
"","","","","","image-keyboard-response","264","480918","0.0-239.0","63d3fa0d6c990bc96e11becf","665500ab8938657b03fbdba8","6657928ad1b3a7bd556e1942","1360","stimuli/0111111.jpg","1","","prediction_trial","2","","false","","0","false","false","false","false","false","false","[2,1,0]","111","111","0","","","","","","",""
"","","","","","image-keyboard-response","265","481510","0.0-240.0","63d3fa0d6c990bc96e11becf","665500ab8938657b03fbdba8","6657928ad1b3a7bd556e1942","591","stimuli/01111112.jpg"," ","","feedback_trial","2","","","","","","","","","","","","","","","","","","","","",""
"","","","","","image-keyboard-response","266","482909","0.0-241.0","63d3fa0d6c990bc96e11becf","665500ab8938657b03fbdba8","6657928ad1b3a7bd556e1942","1398","stimuli/0100011.jpg","0","","prediction_trial","0","","true","","0","true","true","false","true","false","true","[0]","100","011","1","","","","","","",""
"","","","","","image-keyboard-response","267","483292","0.0-242.0","63d3fa0d6c990bc96e11becf","665500ab8938657b03fbdba8","6657928ad1b3a7bd556e1942","383","stimuli/01000110.jpg"," ","","feedback_trial","0","","","","","","","","","","","","","","","","","","","","",""
"","","","","","image-keyboard-response","268","485143","0.0-243.0","63d3fa0d6c990bc96e11becf","665500ab8938657b03fbdba8","6657928ad1b3a7bd556e1942","1850","stimuli/1110110.jpg","1","","prediction_trial","1","","true","","1","false","false","false","false","false","false","[0,1]","110","110","1","","","","","","",""
"","","","","","image-keyboard-response","269","485566","0.0-244.0","63d3fa0d6c990bc96e11becf","665500ab8938657b03fbdba8","6657928ad1b3a7bd556e1942","423","stimuli/11101101.jpg"," ","","feedback_trial","0","","","","","","","","","","","","","","","","","","","","",""
"","","","","","image-keyboard-response","270","488933","0.0-245.0","63d3fa0d6c990bc96e11becf","665500ab8938657b03fbdba8","6657928ad1b3a7bd556e1942","3365","stimuli/0000110.jpg","0","","prediction_trial","0","","true","","0","false","false","true","true","false","false","[0]","000","110","1","","","","","","",""
"","","","","","image-keyboard-response","271","489343","0.0-246.0","63d3fa0d6c990bc96e11becf","665500ab8938657b03fbdba8","6657928ad1b3a7bd556e1942","410","stimuli/00001100.jpg"," ","","feedback_trial","0","","","","","","","","","","","","","","","","","","","","",""
"","","","","","image-keyboard-response","272","492631","0.0-247.0","63d3fa0d6c990bc96e11becf","665500ab8938657b03fbdba8","6657928ad1b3a7bd556e1942","3287","stimuli/1010111.jpg","1","","prediction_trial","1","","true","","1","false","false","false","true","false","false","[1]","010","111","1","","","","","","",""
"","","","","","image-keyboard-response","273","493007","0.0-248.0","63d3fa0d6c990bc96e11becf","665500ab8938657b03fbdba8","6657928ad1b3a7bd556e1942","375","stimuli/10101111.jpg"," ","","feedback_trial","1","","","","","","","","","","","","","","","","","","","","",""
"","","","","","image-keyboard-response","274","495730","0.0-249.0","63d3fa0d6c990bc96e11becf","665500ab8938657b03fbdba8","6657928ad1b3a7bd556e1942","2722","stimuli/1011011.jpg","2","","prediction_trial","1","","false","","1","false","false","false","false","false","false","[2,1]","011","011","0","","","","","","",""
"","","","","","image-keyboard-response","275","496359","0.0-250.0","63d3fa0d6c990bc96e11becf","665500ab8938657b03fbdba8","6657928ad1b3a7bd556e1942","629","stimuli/10110111.jpg"," ","","feedback_trial","2","","","","","","","","","","","","","","","","","","","","",""
"","","","","","image-keyboard-response","276","497709","0.0-251.0","63d3fa0d6c990bc96e11becf","665500ab8938657b03fbdba8","6657928ad1b3a7bd556e1942","1350","stimuli/2001110.jpg","2","","prediction_trial","2","","true","","2","true","true","false","true","false","true","[2]","001","110","1","","","","","","",""
"","","","","","image-keyboard-response","277","498073","0.0-252.0","63d3fa0d6c990bc96e11becf","665500ab8938657b03fbdba8","6657928ad1b3a7bd556e1942","363","stimuli/20011102.jpg"," ","","feedback_trial","2","","","","","","","","","","","","","","","","","","","","",""
"","","","","","image-keyboard-response","278","499537","0.0-253.0","63d3fa0d6c990bc96e11becf","665500ab8938657b03fbdba8","6657928ad1b3a7bd556e1942","1464","stimuli/1000111.jpg","1","","prediction_trial","1","","true","","1","false","false","true","true","false","false","[1]","000","111","1","","","","","","",""
"","","","","","image-keyboard-response","279","499971","0.0-254.0","63d3fa0d6c990bc96e11becf","665500ab8938657b03fbdba8","6657928ad1b3a7bd556e1942","433","stimuli/10001111.jpg"," ","","feedback_trial","1","","","","","","","","","","","","","","","","","","","","",""
"","","","","","image-keyboard-response","280","500843","0.0-255.0","63d3fa0d6c990bc96e11becf","665500ab8938657b03fbdba8","6657928ad1b3a7bd556e1942","872","stimuli/1001000.jpg","1","","prediction_trial","1","","true","","1","true","true","true","true","true","true","[1]","001","000","1","","","","","","",""
"","","","","","image-keyboard-response","281","501167","0.0-256.0","63d3fa0d6c990bc96e11becf","665500ab8938657b03fbdba8","6657928ad1b3a7bd556e1942","323","stimuli/10010001.jpg"," ","","feedback_trial","1","","","","","","","","","","","","","","","","","","","","",""
"","","","","","image-keyboard-response","282","501865","0.0-257.0","63d3fa0d6c990bc96e11becf","665500ab8938657b03fbdba8","6657928ad1b3a7bd556e1942","698","stimuli/0010011.jpg","0","","prediction_trial","0","","true","","0","true","true","true","true","true","true","[0]","010","011","1","","","","","","",""
"","","","","","image-keyboard-response","283","502181","0.0-258.0","63d3fa0d6c990bc96e11becf","665500ab8938657b03fbdba8","6657928ad1b3a7bd556e1942","314","stimuli/00100110.jpg"," ","","feedback_trial","0","","","","","","","","","","","","","","","","","","","","",""
"","","","","","image-keyboard-response","284","503831","0.0-259.0","63d3fa0d6c990bc96e11becf","665500ab8938657b03fbdba8","6657928ad1b3a7bd556e1942","1650","stimuli/1000011.jpg","2","","prediction_trial","1","","false","","1","false","false","true","true","false","false","[1]","000","011","0","","","","","","",""
"","","","","","image-keyboard-response","285","504261","0.0-260.0","63d3fa0d6c990bc96e11becf","665500ab8938657b03fbdba8","6657928ad1b3a7bd556e1942","429","stimuli/10000111.jpg"," ","","feedback_trial","1","","","","","","","","","","","","","","","","","","","","",""
"","","","","","image-keyboard-response","286","507365","0.0-261.0","63d3fa0d6c990bc96e11becf","665500ab8938657b03fbdba8","6657928ad1b3a7bd556e1942","3103","stimuli/0101100.jpg","0","","prediction_trial","2","","false","","0","false","true","false","false","false","false","[2,0]","101","100","0","","","","","","",""
"","","","","","image-keyboard-response","287","507915","0.0-262.0","63d3fa0d6c990bc96e11becf","665500ab8938657b03fbdba8","6657928ad1b3a7bd556e1942","550","stimuli/01011002.jpg"," ","","feedback_trial","2","","","","","","","","","","","","","","","","","","","","",""
"","","","","","image-keyboard-response","288","509625","0.0-263.0","63d3fa0d6c990bc96e11becf","665500ab8938657b03fbdba8","6657928ad1b3a7bd556e1942","1710","stimuli/1010100.jpg","1","","prediction_trial","1","","true","","1","true","true","false","true","false","true","[1]","010","100","1","","","","","","",""
"","","","","","image-keyboard-response","289","509951","0.0-264.0","63d3fa0d6c990bc96e11becf","665500ab8938657b03fbdba8","6657928ad1b3a7bd556e1942","326","stimuli/10101001.jpg"," ","","feedback_trial","1","","","","","","","","","","","","","","","","","","","","",""
"","","","","","image-keyboard-response","290","513217","0.0-265.0","63d3fa0d6c990bc96e11becf","665500ab8938657b03fbdba8","6657928ad1b3a7bd556e1942","3265","stimuli/2000111.jpg","1","","prediction_trial","2","","false","","2","false","false","true","true","false","false","[2]","000","111","0","","","","","","",""
"","","","","","image-keyboard-response","291","513635","0.0-266.0","63d3fa0d6c990bc96e11becf","665500ab8938657b03fbdba8","6657928ad1b3a7bd556e1942","416","stimuli/20001112.jpg"," ","","feedback_trial","2","","","","","","","","","","","","","","","","","","","","",""
"","","","","","image-keyboard-response","292","514529","0.0-267.0","63d3fa0d6c990bc96e11becf","665500ab8938657b03fbdba8","6657928ad1b3a7bd556e1942","893","stimuli/2000001.jpg","2","","prediction_trial","2","","true","","2","false","true","true","true","false","true","[2]","000","001","1","","","","","","",""
"","","","","","image-keyboard-response","293","514891","0.0-268.0","63d3fa0d6c990bc96e11becf","665500ab8938657b03fbdba8","6657928ad1b3a7bd556e1942","362","stimuli/20000012.jpg"," ","","feedback_trial","2","","","","","","","","","","","","","","","","","","","","",""
"","","","","","image-keyboard-response","294","516831","0.0-269.0","63d3fa0d6c990bc96e11becf","665500ab8938657b03fbdba8","6657928ad1b3a7bd556e1942","1939","stimuli/2111011.jpg","1","","prediction_trial","1","","true","","2","false","false","false","false","false","false","[2,0,1]","111","011","1","","","","","","",""
"","","","","","image-keyboard-response","295","517201","0.0-270.0","63d3fa0d6c990bc96e11becf","665500ab8938657b03fbdba8","6657928ad1b3a7bd556e1942","369","stimuli/21110111.jpg"," ","","feedback_trial","2","","","","","","","","","","","","","","","","","","","","",""
"","","","","","image-keyboard-response","296","519507","0.0-271.0","63d3fa0d6c990bc96e11becf","665500ab8938657b03fbdba8","6657928ad1b3a7bd556e1942","2306","stimuli/1100111.jpg","0","","prediction_trial","1","","false","","1","false","false","true","true","false","false","[1]","100","111","0","","","","","","",""
"","","","","","image-keyboard-response","297","519975","0.0-272.0","63d3fa0d6c990bc96e11becf","665500ab8938657b03fbdba8","6657928ad1b3a7bd556e1942","466","stimuli/11001111.jpg"," ","","feedback_trial","1","","","","","","","","","","","","","","","","","","","","",""
"","","","","","image-keyboard-response","298","521761","0.0-273.0","63d3fa0d6c990bc96e11becf","665500ab8938657b03fbdba8","6657928ad1b3a7bd556e1942","1786","stimuli/2001100.jpg","2","","prediction_trial","2","","true","","2","true","true","false","true","false","true","[2]","001","100","1","","","","","","",""
"","","","","","image-keyboard-response","299","522141","0.0-274.0","63d3fa0d6c990bc96e11becf","665500ab8938657b03fbdba8","6657928ad1b3a7bd556e1942","378","stimuli/20011002.jpg"," ","","feedback_trial","2","","","","","","","","","","","","","","","","","","","","",""
"","","","","","image-keyboard-response","300","525449","0.0-275.0","63d3fa0d6c990bc96e11becf","665500ab8938657b03fbdba8","6657928ad1b3a7bd556e1942","3307","stimuli/0100111.jpg","2","","prediction_trial","0","","false","","0","false","false","false","true","false","false","[0]","100","111","0","","","","","","",""
"","","","","","image-keyboard-response","301","525893","0.0-276.0","63d3fa0d6c990bc96e11becf","665500ab8938657b03fbdba8","6657928ad1b3a7bd556e1942","442","stimuli/01001110.jpg"," ","","feedback_trial","0","","","","","","","","","","","","","","","","","","","","",""
"","","","","","image-keyboard-response","302","527577","0.0-277.0","63d3fa0d6c990bc96e11becf","665500ab8938657b03fbdba8","6657928ad1b3a7bd556e1942","1684","stimuli/2111000.jpg","2","","prediction_trial","1","","false","","2","true","true","false","false","false","false","[0,2,1]","111","000","0","","","","","","",""
"","","","","","image-keyboard-response","303","528053","0.0-278.0","63d3fa0d6c990bc96e11becf","665500ab8938657b03fbdba8","6657928ad1b3a7bd556e1942","476","stimuli/21110001.jpg"," ","","feedback_trial","0","","","","","","","","","","","","","","","","","","","","",""
"","","","","","image-keyboard-response","304","528759","0.0-279.0","63d3fa0d6c990bc96e11becf","665500ab8938657b03fbdba8","6657928ad1b3a7bd556e1942","705","stimuli/0010010.jpg","0","","prediction_trial","0","","true","","0","true","true","true","true","true","true","[0]","010","010","1","","","","","","",""
"","","","","","image-keyboard-response","305","529099","0.0-280.0","63d3fa0d6c990bc96e11becf","665500ab8938657b03fbdba8","6657928ad1b3a7bd556e1942","340","stimuli/00100100.jpg"," ","","feedback_trial","0","","","","","","","","","","","","","","","","","","","","",""
"","","","","","image-keyboard-response","306","530339","0.0-281.0","63d3fa0d6c990bc96e11becf","665500ab8938657b03fbdba8","6657928ad1b3a7bd556e1942","1239","stimuli/1101110.jpg","1","","prediction_trial","1","","true","","1","false","false","true","true","false","false","[1]","101","110","1","","","","","","",""
"","","","","","image-keyboard-response","307","530687","0.0-282.0","63d3fa0d6c990bc96e11becf","665500ab8938657b03fbdba8","6657928ad1b3a7bd556e1942","347","stimuli/11011101.jpg"," ","","feedback_trial","1","","","","","","","","","","","","","","","","","","","","",""
"","","","","","image-keyboard-response","308","532247","0.0-283.0","63d3fa0d6c990bc96e11becf","665500ab8938657b03fbdba8","6657928ad1b3a7bd556e1942","1558","stimuli/0101000.jpg","0","","prediction_trial","0","","true","","0","true","true","false","false","false","false","[2,0]","101","000","1","","","","","","",""
"","","","","","image-keyboard-response","309","532641","0.0-284.0","63d3fa0d6c990bc96e11becf","665500ab8938657b03fbdba8","6657928ad1b3a7bd556e1942","392","stimuli/01010000.jpg"," ","","feedback_trial","2","","","","","","","","","","","","","","","","","","","","",""
"","","","","","image-keyboard-response","310","535607","0.0-285.0","63d3fa0d6c990bc96e11becf","665500ab8938657b03fbdba8","6657928ad1b3a7bd556e1942","2966","stimuli/2101010.jpg","0","","prediction_trial","0","","true","","2","true","true","false","false","false","false","[2,0]","101","010","1","","","","","","",""
"","","","","","image-keyboard-response","311","535993","0.0-286.0","63d3fa0d6c990bc96e11becf","665500ab8938657b03fbdba8","6657928ad1b3a7bd556e1942","385","stimuli/21010100.jpg"," ","","feedback_trial","2","","","","","","","","","","","","","","","","","","","","",""
"","","","","","image-keyboard-response","312","537965","0.0-287.0","63d3fa0d6c990bc96e11becf","665500ab8938657b03fbdba8","6657928ad1b3a7bd556e1942","1972","stimuli/0010111.jpg","1","","prediction_trial","0","","false","","0","false","false","true","true","false","false","[0]","010","111","0","","","","","","",""
"","","","","","image-keyboard-response","313","538335","0.0-288.0","63d3fa0d6c990bc96e11becf","665500ab8938657b03fbdba8","6657928ad1b3a7bd556e1942","369","stimuli/00101110.jpg"," ","","feedback_trial","0","","","","","","","","","","","","","","","","","","","","",""
"","","","","","image-keyboard-response","314","540089","0.0-289.0","63d3fa0d6c990bc96e11becf","665500ab8938657b03fbdba8","6657928ad1b3a7bd556e1942","1753","stimuli/1101111.jpg","2","","prediction_trial","1","","false","","1","false","false","true","true","false","false","[1]","101","111","0","","","","","","",""
"","","","","","image-keyboard-response","315","540453","0.0-290.0","63d3fa0d6c990bc96e11becf","665500ab8938657b03fbdba8","6657928ad1b3a7bd556e1942","363","stimuli/11011111.jpg"," ","","feedback_trial","1","","","","","","","","","","","","","","","","","","","","",""
"","","","","","image-keyboard-response","316","541805","0.0-291.0","63d3fa0d6c990bc96e11becf","665500ab8938657b03fbdba8","6657928ad1b3a7bd556e1942","1350","stimuli/1010110.jpg","1","","prediction_trial","1","","true","","1","false","false","false","true","false","false","[1]","010","110","1","","","","","","",""
"","","","","","image-keyboard-response","317","542297","0.0-292.0","63d3fa0d6c990bc96e11becf","665500ab8938657b03fbdba8","6657928ad1b3a7bd556e1942","491","stimuli/10101101.jpg"," ","","feedback_trial","1","","","","","","","","","","","","","","","","","","","","",""
"","","","","","survey-html-form","318","575723","0.0-293.0","63d3fa0d6c990bc96e11becf","665500ab8938657b03fbdba8","6657928ad1b3a7bd556e1942","33424","","{""feedback"":""I just picked whatever made sense in my head at the time."",""age"":""48"",""gender"":""Male"",""other_gender"":"""",""race"":""White"",""other_race"":"""",""ethnicity"":""Non-Hispanic""}","","exit_survey","","","","","","","","","","","","","","","","I just picked whatever made sense in my head at the time.","48","Non-Hispanic","Male","White","0.6319444444444444","0.6319444444444444"
