"success","timeout","failed_images","failed_audio","failed_video","trial_type","trial_index","time_elapsed","internal_node_id","prolific_id","prolific_study_id","prolific_session_id","rt","stimulus","response","view_history","trial","character_choice","stimulus_dict","accuracy","correct_response","ball_pos","ego_ball_visible","ego_can_infer","alter_ball_visible","alter_can_infer","collective_ball_visible","collective_can_infer","search_locations","alter_occluders","ego_occluders","accuracy_bool","feedback","age","ethnicity","gender","race","overall_accuracy","bonus"
"true","false","[]","[]","[]","preload","0","2755","0.0-0.0","5ddd730ffce606ce31a105d4","665500ab8938657b03fbdba8","66577eb72bdbeda21619f2f1","","","","","","","","","","","","","","","","","","","","","","","","","","",""
"true","","","","","fullscreen","1","5750","0.0-1.0","5ddd730ffce606ce31a105d4","665500ab8938657b03fbdba8","66577eb72bdbeda21619f2f1","","","","","","","","","","","","","","","","","","","","","","","","","","",""
"","","","","","html-button-response","2","21840","0.0-2.0","5ddd730ffce606ce31a105d4","665500ab8938657b03fbdba8","66577eb72bdbeda21619f2f1","16086","<p><b>Consent Form</b></p> <div style=""text-align:left;background-color:lightgrey; padding:20px; max-width:900px;""><p>Please consider this information carefully before deciding whether to participate in this research.</p> <p>The purpose of this research is to examine which factors influence social judgment and decision-making. You will be asked to make judgements about individuals and actions in social scenarios. We are simply interested in your judgement. The study will take less than 1 hour to complete, and you will receive less than $20 on Prolific. Your compensation and time commitment are specified in the study description. There are no anticipated risks associated with participating in this study. The effects of participating should be comparable to those you would ordinarily experience from viewing a computer monitor and using a mouse or keyboard for a similar amount of time. At the end of the study, we will provide an explanation of the questions that motivate this line of research and will describe the potential implications. </p><p> Your participation in this study is completely voluntary and you may refuse to participate or you may choose to withdraw at any time without penalty or loss of benefits to you which are otherwise entitled. Your participation in this study will remain confidential. No personally identifiable information will be associated with your data. Also, all analyses of the data will be averaged across all the participants, so your individual responses will never be specifically analyzed. </p><p> If you have questions or concerns about your participation or payment, or want to request a summary of research findings, please contact Dr. Jonathan Phillips at Jonathan.S.Phillips@dartmouth.edu. </p><p> Please save a copy of this form for your records. </p><p><b>Agreement: </b>The nature and purpose of this research have been sufficiently explained and I agree to participate in this study. I understand that I am free to withdraw at any time without incurring any penalty. Please consent by clicking the button below to continue. Otherwise, please exit the study at any time. </p>","0","","","","","","","","","","","","","","","","","","","","","","","",""
"","","","","","instructions","3","108811","0.0-3.0-0.0","5ddd730ffce606ce31a105d4","665500ab8938657b03fbdba8","66577eb72bdbeda21619f2f1","86973","","","[{""page_index"":0,""viewing_time"":2064},{""page_index"":1,""viewing_time"":2884},{""page_index"":2,""viewing_time"":3407},{""page_index"":3,""viewing_time"":6653},{""page_index"":4,""viewing_time"":3400},{""page_index"":5,""viewing_time"":4495},{""page_index"":6,""viewing_time"":5120},{""page_index"":7,""viewing_time"":9627},{""page_index"":8,""viewing_time"":5376},{""page_index"":9,""viewing_time"":4220},{""page_index"":10,""viewing_time"":22055},{""page_index"":11,""viewing_time"":10628},{""page_index"":12,""viewing_time"":5616},{""page_index"":13,""viewing_time"":1427}]","intro","","","","","","","","","","","","","","","","","","","","","",""
"","","","","","image-keyboard-response","4","112383","0.0-3.0-1.0","5ddd730ffce606ce31a105d4","665500ab8938657b03fbdba8","66577eb72bdbeda21619f2f1","3555","stimuli/1001111.jpg","1","","prediction_practice","1","{""filepath"":""stimuli/1001111.jpg"",""ball_pos"":1,""ego_ball_visible"":false,""ego_can_infer"":false,""alter_ball_visible"":true,""alter_can_infer"":true,""collective_ball_visible"":false,""collective_can_infer"":false,""search_locations"":[1],""alter_occluders"":""001"",""ego_occluders"":""111""}","true","","","","","","","","","","","","","","","","","","",""
"","","","","","image-keyboard-response","5","114971","0.0-3.0-2.0","5ddd730ffce606ce31a105d4","665500ab8938657b03fbdba8","66577eb72bdbeda21619f2f1","2575","stimuli/10011111.jpg"," ","","practrice_feedback","1","","","","","","","","","","","","","","","","","","","","",""
"","","","","","image-keyboard-response","6","116483","0.0-3.0-3.0","5ddd730ffce606ce31a105d4","665500ab8938657b03fbdba8","66577eb72bdbeda21619f2f1","1500","stimuli/2010101.jpg","2","","prediction_practice","2","{""filepath"":""stimuli/2010101.jpg"",""ball_pos"":2,""ego_ball_visible"":false,""ego_can_infer"":false,""alter_ball_visible"":true,""alter_can_infer"":true,""collective_ball_visible"":false,""collective_can_infer"":false,""search_locations"":[2],""alter_occluders"":""010"",""ego_occluders"":""101""}","true","","","","","","","","","","","","","","","","","","",""
"","","","","","image-keyboard-response","7","117529","0.0-3.0-4.0","5ddd730ffce606ce31a105d4","665500ab8938657b03fbdba8","66577eb72bdbeda21619f2f1","1034","stimuli/20101012.jpg"," ","","practrice_feedback","2","","","","","","","","","","","","","","","","","","","","",""
"","","","","","image-keyboard-response","8","119714","0.0-3.0-5.0","5ddd730ffce606ce31a105d4","665500ab8938657b03fbdba8","66577eb72bdbeda21619f2f1","2172","stimuli/2100100.jpg","2","","prediction_practice","2","{""filepath"":""stimuli/2100100.jpg"",""ball_pos"":2,""ego_ball_visible"":true,""ego_can_infer"":true,""alter_ball_visible"":true,""alter_can_infer"":true,""collective_ball_visible"":true,""collective_can_infer"":true,""search_locations"":[2],""alter_occluders"":""100"",""ego_occluders"":""100""}","true","","","","","","","","","","","","","","","","","","",""
"","","","","","image-keyboard-response","9","121002","0.0-3.0-6.0","5ddd730ffce606ce31a105d4","665500ab8938657b03fbdba8","66577eb72bdbeda21619f2f1","1276","stimuli/21001002.jpg"," ","","practrice_feedback","2","","","","","","","","","","","","","","","","","","","","",""
"","","","","","image-keyboard-response","10","123243","0.0-3.0-7.0","5ddd730ffce606ce31a105d4","665500ab8938657b03fbdba8","66577eb72bdbeda21619f2f1","2228","stimuli/2011010.jpg","0","","prediction_practice","1","{""filepath"":""stimuli/2011010.jpg"",""ball_pos"":2,""ego_ball_visible"":true,""ego_can_infer"":true,""alter_ball_visible"":false,""alter_can_infer"":false,""collective_ball_visible"":false,""collective_can_infer"":false,""search_locations"":[1,2],""alter_occluders"":""011"",""ego_occluders"":""010""}","false","","","","","","","","","","","","","","","","","","",""
"","","","","","image-keyboard-response","11","124624","0.0-3.0-8.0","5ddd730ffce606ce31a105d4","665500ab8938657b03fbdba8","66577eb72bdbeda21619f2f1","1368","stimuli/20110101.jpg"," ","","practrice_feedback","1","","","","","","","","","","","","","","","","","","","","",""
"","","","","","image-keyboard-response","12","126139","0.0-3.0-9.0","5ddd730ffce606ce31a105d4","665500ab8938657b03fbdba8","66577eb72bdbeda21619f2f1","1503","stimuli/0000001.jpg","0","","prediction_practice","0","{""filepath"":""stimuli/0000001.jpg"",""ball_pos"":0,""ego_ball_visible"":true,""ego_can_infer"":true,""alter_ball_visible"":true,""alter_can_infer"":true,""collective_ball_visible"":true,""collective_can_infer"":true,""search_locations"":[0],""alter_occluders"":""000"",""ego_occluders"":""001""}","true","","","","","","","","","","","","","","","","","","",""
"","","","","","image-keyboard-response","13","127446","0.0-3.0-10.0","5ddd730ffce606ce31a105d4","665500ab8938657b03fbdba8","66577eb72bdbeda21619f2f1","1294","stimuli/00000010.jpg"," ","","practrice_feedback","0","","","","","","","","","","","","","","","","","","","","",""
"","","","","","image-keyboard-response","14","130758","0.0-3.0-11.0","5ddd730ffce606ce31a105d4","665500ab8938657b03fbdba8","66577eb72bdbeda21619f2f1","3299","stimuli/0011100.jpg","0","","prediction_practice","0","{""filepath"":""stimuli/0011100.jpg"",""ball_pos"":0,""ego_ball_visible"":false,""ego_can_infer"":true,""alter_ball_visible"":true,""alter_can_infer"":true,""collective_ball_visible"":false,""collective_can_infer"":true,""search_locations"":[0],""alter_occluders"":""011"",""ego_occluders"":""100""}","true","","","","","","","","","","","","","","","","","","",""
"","","","","","image-keyboard-response","15","131749","0.0-3.0-12.0","5ddd730ffce606ce31a105d4","665500ab8938657b03fbdba8","66577eb72bdbeda21619f2f1","978","stimuli/00111000.jpg"," ","","practrice_feedback","0","","","","","","","","","","","","","","","","","","","","",""
"","","","","","image-keyboard-response","16","133408","0.0-3.0-13.0","5ddd730ffce606ce31a105d4","665500ab8938657b03fbdba8","66577eb72bdbeda21619f2f1","1647","stimuli/2011110.jpg","2","","prediction_practice","1","{""filepath"":""stimuli/2011110.jpg"",""ball_pos"":2,""ego_ball_visible"":true,""ego_can_infer"":true,""alter_ball_visible"":false,""alter_can_infer"":false,""collective_ball_visible"":false,""collective_can_infer"":false,""search_locations"":[1,2],""alter_occluders"":""011"",""ego_occluders"":""110""}","false","","","","","","","","","","","","","","","","","","",""
"","","","","","image-keyboard-response","17","134515","0.0-3.0-14.0","5ddd730ffce606ce31a105d4","665500ab8938657b03fbdba8","66577eb72bdbeda21619f2f1","1096","stimuli/20111101.jpg"," ","","practrice_feedback","1","","","","","","","","","","","","","","","","","","","","",""
"","","","","","image-keyboard-response","18","135863","0.0-3.0-15.0","5ddd730ffce606ce31a105d4","665500ab8938657b03fbdba8","66577eb72bdbeda21619f2f1","1336","stimuli/0010001.jpg","0","","prediction_practice","0","{""filepath"":""stimuli/0010001.jpg"",""ball_pos"":0,""ego_ball_visible"":true,""ego_can_infer"":true,""alter_ball_visible"":true,""alter_can_infer"":true,""collective_ball_visible"":true,""collective_can_infer"":true,""search_locations"":[0],""alter_occluders"":""010"",""ego_occluders"":""001""}","true","","","","","","","","","","","","","","","","","","",""
"","","","","","image-keyboard-response","19","136560","0.0-3.0-16.0","5ddd730ffce606ce31a105d4","665500ab8938657b03fbdba8","66577eb72bdbeda21619f2f1","684","stimuli/00100010.jpg"," ","","practrice_feedback","0","","","","","","","","","","","","","","","","","","","","",""
"","","","","","image-keyboard-response","20","137747","0.0-3.0-17.0","5ddd730ffce606ce31a105d4","665500ab8938657b03fbdba8","66577eb72bdbeda21619f2f1","1175","stimuli/1100000.jpg","1","","prediction_practice","1","{""filepath"":""stimuli/1100000.jpg"",""ball_pos"":1,""ego_ball_visible"":true,""ego_can_infer"":true,""alter_ball_visible"":true,""alter_can_infer"":true,""collective_ball_visible"":true,""collective_can_infer"":true,""search_locations"":[1],""alter_occluders"":""100"",""ego_occluders"":""000""}","true","","","","","","","","","","","","","","","","","","",""
"","","","","","image-keyboard-response","21","138297","0.0-3.0-18.0","5ddd730ffce606ce31a105d4","665500ab8938657b03fbdba8","66577eb72bdbeda21619f2f1","537","stimuli/11000001.jpg"," ","","practrice_feedback","1","","","","","","","","","","","","","","","","","","","","",""
"","","","","","image-keyboard-response","22","140200","0.0-3.0-19.0","5ddd730ffce606ce31a105d4","665500ab8938657b03fbdba8","66577eb72bdbeda21619f2f1","1890","stimuli/2111011.jpg","1","","prediction_practice","1","{""filepath"":""stimuli/2111011.jpg"",""ball_pos"":2,""ego_ball_visible"":false,""ego_can_infer"":false,""alter_ball_visible"":false,""alter_can_infer"":false,""collective_ball_visible"":false,""collective_can_infer"":false,""search_locations"":[0,2,1],""alter_occluders"":""111"",""ego_occluders"":""011""}","true","","","","","","","","","","","","","","","","","","",""
"","","","","","image-keyboard-response","23","140924","0.0-3.0-20.0","5ddd730ffce606ce31a105d4","665500ab8938657b03fbdba8","66577eb72bdbeda21619f2f1","711","stimuli/21110111.jpg"," ","","practrice_feedback","0","","","","","","","","","","","","","","","","","","","","",""
"","","","","","html-button-response","24","151966","0.0-3.0-21.0","5ddd730ffce606ce31a105d4","665500ab8938657b03fbdba8","66577eb72bdbeda21619f2f1","11041","Now that you've had some practice, you'll be tested with a couple of easy trials. If you correctly predict Sam's choice, you'll move on to complete the experiment!","0","","","","","","","","","","","","","","","","","","","","","","","",""
"","","","","","image-keyboard-response","25","153620","0.0-3.0-22.0-0.0","5ddd730ffce606ce31a105d4","665500ab8938657b03fbdba8","66577eb72bdbeda21619f2f1","1639","stimuli/0000011.jpg","arrowleft","","comprehension_quiz","","","true","arrowleft","","","","","","","","","","","","","","","","","",""
"","","","","","image-keyboard-response","26","155206","0.0-3.0-22.0-1.0","5ddd730ffce606ce31a105d4","665500ab8938657b03fbdba8","66577eb72bdbeda21619f2f1","1573","stimuli/00000110.jpg"," ","","comprehension_quiz","","","true"," ","","","","","","","","","","","","","","","","","",""
"","","","","","image-keyboard-response","27","157204","0.0-3.0-22.0-2.0","5ddd730ffce606ce31a105d4","665500ab8938657b03fbdba8","66577eb72bdbeda21619f2f1","1986","stimuli/1010010.jpg","arrowdown","","comprehension_quiz","","","true","arrowdown","","","","","","","","","","","","","","","","","",""
"","","","","","image-keyboard-response","28","158476","0.0-3.0-22.0-3.0","5ddd730ffce606ce31a105d4","665500ab8938657b03fbdba8","66577eb72bdbeda21619f2f1","1260","stimuli/10100101.jpg"," ","","comprehension_quiz","","","true"," ","","","","","","","","","","","","","","","","","",""
"","","","","","html-button-response","29","163249","0.0-4.0","5ddd730ffce606ce31a105d4","665500ab8938657b03fbdba8","66577eb72bdbeda21619f2f1","4771","The experiment will now begin.","0","","","","","","","","","","","","","","","","","","","","","","","",""
"","","","","","image-keyboard-response","30","164713","0.0-5.0","5ddd730ffce606ce31a105d4","665500ab8938657b03fbdba8","66577eb72bdbeda21619f2f1","1449","stimuli/2010010.jpg","2","","prediction_trial","2","","true","","2","true","true","true","true","true","true","[2]","010","010","1","","","","","","",""
"","","","","","image-keyboard-response","31","166076","0.0-6.0","5ddd730ffce606ce31a105d4","665500ab8938657b03fbdba8","66577eb72bdbeda21619f2f1","1351","stimuli/20100102.jpg"," ","","feedback_trial","2","","","","","","","","","","","","","","","","","","","","",""
"","","","","","image-keyboard-response","32","167623","0.0-7.0","5ddd730ffce606ce31a105d4","665500ab8938657b03fbdba8","66577eb72bdbeda21619f2f1","1533","stimuli/0101000.jpg","1","","prediction_trial","2","","false","","0","true","true","false","false","false","false","[0,2]","101","000","0","","","","","","",""
"","","","","","image-keyboard-response","33","168832","0.0-8.0","5ddd730ffce606ce31a105d4","665500ab8938657b03fbdba8","66577eb72bdbeda21619f2f1","1192","stimuli/01010002.jpg"," ","","feedback_trial","0","","","","","","","","","","","","","","","","","","","","",""
"","","","","","image-keyboard-response","34","170369","0.0-9.0","5ddd730ffce606ce31a105d4","665500ab8938657b03fbdba8","66577eb72bdbeda21619f2f1","1525","stimuli/1111110.jpg","0","","prediction_trial","0","","true","","1","false","false","false","false","false","false","[0,1,2]","111","110","1","","","","","","",""
"","","","","","image-keyboard-response","35","171542","0.0-10.0","5ddd730ffce606ce31a105d4","665500ab8938657b03fbdba8","66577eb72bdbeda21619f2f1","1159","stimuli/11111100.jpg"," ","","feedback_trial","0","","","","","","","","","","","","","","","","","","","","",""
"","","","","","image-keyboard-response","36","173488","0.0-11.0","5ddd730ffce606ce31a105d4","665500ab8938657b03fbdba8","66577eb72bdbeda21619f2f1","1934","stimuli/1101011.jpg","1","","prediction_trial","1","","true","","1","false","false","true","true","false","false","[1]","101","011","1","","","","","","",""
"","","","","","image-keyboard-response","37","174193","0.0-12.0","5ddd730ffce606ce31a105d4","665500ab8938657b03fbdba8","66577eb72bdbeda21619f2f1","692","stimuli/11010111.jpg"," ","","feedback_trial","1","","","","","","","","","","","","","","","","","","","","",""
"","","","","","image-keyboard-response","38","177216","0.0-13.0","5ddd730ffce606ce31a105d4","665500ab8938657b03fbdba8","66577eb72bdbeda21619f2f1","3010","stimuli/1011011.jpg","2","","prediction_trial","2","","true","","1","false","false","false","false","false","false","[2,1]","011","011","1","","","","","","",""
"","","","","","image-keyboard-response","39","178008","0.0-14.0","5ddd730ffce606ce31a105d4","665500ab8938657b03fbdba8","66577eb72bdbeda21619f2f1","781","stimuli/10110112.jpg"," ","","feedback_trial","2","","","","","","","","","","","","","","","","","","","","",""
"","","","","","image-keyboard-response","40","180241","0.0-15.0","5ddd730ffce606ce31a105d4","665500ab8938657b03fbdba8","66577eb72bdbeda21619f2f1","2219","stimuli/0101010.jpg","0","","prediction_trial","2","","false","","0","true","true","false","false","false","false","[0,2]","101","010","0","","","","","","",""
"","","","","","image-keyboard-response","41","181113","0.0-16.0","5ddd730ffce606ce31a105d4","665500ab8938657b03fbdba8","66577eb72bdbeda21619f2f1","860","stimuli/01010102.jpg"," ","","feedback_trial","0","","","","","","","","","","","","","","","","","","","","",""
"","","","","","image-keyboard-response","42","183974","0.0-17.0","5ddd730ffce606ce31a105d4","665500ab8938657b03fbdba8","66577eb72bdbeda21619f2f1","2848","stimuli/0100010.jpg","0","","prediction_trial","0","","true","","0","true","true","false","true","false","true","[0]","100","010","1","","","","","","",""
"","","","","","image-keyboard-response","43","184801","0.0-18.0","5ddd730ffce606ce31a105d4","665500ab8938657b03fbdba8","66577eb72bdbeda21619f2f1","814","stimuli/01000100.jpg"," ","","feedback_trial","0","","","","","","","","","","","","","","","","","","","","",""
"","","","","","image-keyboard-response","44","186960","0.0-19.0","5ddd730ffce606ce31a105d4","665500ab8938657b03fbdba8","66577eb72bdbeda21619f2f1","2146","stimuli/2001011.jpg","1","","prediction_trial","2","","false","","2","false","false","false","true","false","false","[2]","001","011","0","","","","","","",""
"","","","","","image-keyboard-response","45","188101","0.0-20.0","5ddd730ffce606ce31a105d4","665500ab8938657b03fbdba8","66577eb72bdbeda21619f2f1","1129","stimuli/20010112.jpg"," ","","feedback_trial","2","","","","","","","","","","","","","","","","","","","","",""
"","","","","","image-keyboard-response","46","189215","0.0-21.0","5ddd730ffce606ce31a105d4","665500ab8938657b03fbdba8","66577eb72bdbeda21619f2f1","1100","stimuli/2110000.jpg","2","","prediction_trial","2","","true","","2","true","true","true","true","true","true","[2]","110","000","1","","","","","","",""
"","","","","","image-keyboard-response","47","189856","0.0-22.0","5ddd730ffce606ce31a105d4","665500ab8938657b03fbdba8","66577eb72bdbeda21619f2f1","627","stimuli/21100002.jpg"," ","","feedback_trial","2","","","","","","","","","","","","","","","","","","","","",""
"","","","","","image-keyboard-response","48","192261","0.0-23.0","5ddd730ffce606ce31a105d4","665500ab8938657b03fbdba8","66577eb72bdbeda21619f2f1","2393","stimuli/1011000.jpg","1","","prediction_trial","1","","true","","1","true","true","false","false","false","false","[1,2]","011","000","1","","","","","","",""
"","","","","","image-keyboard-response","49","193012","0.0-24.0","5ddd730ffce606ce31a105d4","665500ab8938657b03fbdba8","66577eb72bdbeda21619f2f1","738","stimuli/10110001.jpg"," ","","feedback_trial","1","","","","","","","","","","","","","","","","","","","","",""
"","","","","","image-keyboard-response","50","194434","0.0-25.0","5ddd730ffce606ce31a105d4","665500ab8938657b03fbdba8","66577eb72bdbeda21619f2f1","1409","stimuli/1001000.jpg","1","","prediction_trial","1","","true","","1","true","true","true","true","true","true","[1]","001","000","1","","","","","","",""
"","","","","","image-keyboard-response","51","195032","0.0-26.0","5ddd730ffce606ce31a105d4","665500ab8938657b03fbdba8","66577eb72bdbeda21619f2f1","584","stimuli/10010001.jpg"," ","","feedback_trial","1","","","","","","","","","","","","","","","","","","","","",""
"","","","","","image-keyboard-response","52","195962","0.0-27.0","5ddd730ffce606ce31a105d4","665500ab8938657b03fbdba8","66577eb72bdbeda21619f2f1","918","stimuli/1100001.jpg","1","","prediction_trial","1","","true","","1","true","true","true","true","true","true","[1]","100","001","1","","","","","","",""
"","","","","","image-keyboard-response","53","196536","0.0-28.0","5ddd730ffce606ce31a105d4","665500ab8938657b03fbdba8","66577eb72bdbeda21619f2f1","562","stimuli/11000011.jpg"," ","","feedback_trial","1","","","","","","","","","","","","","","","","","","","","",""
"","","","","","image-keyboard-response","54","198549","0.0-29.0","5ddd730ffce606ce31a105d4","665500ab8938657b03fbdba8","66577eb72bdbeda21619f2f1","2001","stimuli/1100111.jpg","1","","prediction_trial","1","","true","","1","false","false","true","true","false","false","[1]","100","111","1","","","","","","",""
"","","","","","image-keyboard-response","55","199300","0.0-30.0","5ddd730ffce606ce31a105d4","665500ab8938657b03fbdba8","66577eb72bdbeda21619f2f1","734","stimuli/11001111.jpg"," ","","feedback_trial","1","","","","","","","","","","","","","","","","","","","","",""
"","","","","","image-keyboard-response","56","201840","0.0-31.0","5ddd730ffce606ce31a105d4","665500ab8938657b03fbdba8","66577eb72bdbeda21619f2f1","2527","stimuli/0111100.jpg","0","","prediction_trial","1","","false","","0","false","true","false","false","false","false","[2,0,1]","111","100","0","","","","","","",""
"","","","","","image-keyboard-response","57","202760","0.0-32.0","5ddd730ffce606ce31a105d4","665500ab8938657b03fbdba8","66577eb72bdbeda21619f2f1","907","stimuli/01111001.jpg"," ","","feedback_trial","2","","","","","","","","","","","","","","","","","","","","",""
"","","","","","image-keyboard-response","58","204261","0.0-33.0","5ddd730ffce606ce31a105d4","665500ab8938657b03fbdba8","66577eb72bdbeda21619f2f1","1488","stimuli/1101110.jpg","1","","prediction_trial","1","","true","","1","false","false","true","true","false","false","[1]","101","110","1","","","","","","",""
"","","","","","image-keyboard-response","59","204972","0.0-34.0","5ddd730ffce606ce31a105d4","665500ab8938657b03fbdba8","66577eb72bdbeda21619f2f1","698","stimuli/11011101.jpg"," ","","feedback_trial","1","","","","","","","","","","","","","","","","","","","","",""
"","","","","","image-keyboard-response","60","207498","0.0-35.0","5ddd730ffce606ce31a105d4","665500ab8938657b03fbdba8","66577eb72bdbeda21619f2f1","2510","stimuli/0001101.jpg","0","","prediction_trial","0","","true","","0","false","false","true","true","false","false","[0]","001","101","1","","","","","","",""
"","","","","","image-keyboard-response","61","208268","0.0-36.0","5ddd730ffce606ce31a105d4","665500ab8938657b03fbdba8","66577eb72bdbeda21619f2f1","757","stimuli/00011010.jpg"," ","","feedback_trial","0","","","","","","","","","","","","","","","","","","","","",""
"","","","","","image-keyboard-response","62","211255","0.0-37.0","5ddd730ffce606ce31a105d4","665500ab8938657b03fbdba8","66577eb72bdbeda21619f2f1","2974","stimuli/0101101.jpg","2","","prediction_trial","2","","true","","0","false","false","false","false","false","false","[2,0]","101","101","1","","","","","","",""
"","","","","","image-keyboard-response","63","212063","0.0-38.0","5ddd730ffce606ce31a105d4","665500ab8938657b03fbdba8","66577eb72bdbeda21619f2f1","795","stimuli/01011012.jpg"," ","","feedback_trial","2","","","","","","","","","","","","","","","","","","","","",""
"","","","","","image-keyboard-response","64","213814","0.0-39.0","5ddd730ffce606ce31a105d4","665500ab8938657b03fbdba8","66577eb72bdbeda21619f2f1","1738","stimuli/2100001.jpg","2","","prediction_trial","2","","true","","2","false","true","true","true","false","true","[2]","100","001","1","","","","","","",""
"","","","","","image-keyboard-response","65","214499","0.0-40.0","5ddd730ffce606ce31a105d4","665500ab8938657b03fbdba8","66577eb72bdbeda21619f2f1","673","stimuli/21000012.jpg"," ","","feedback_trial","2","","","","","","","","","","","","","","","","","","","","",""
"","","","","","image-keyboard-response","66","215822","0.0-41.0","5ddd730ffce606ce31a105d4","665500ab8938657b03fbdba8","66577eb72bdbeda21619f2f1","1309","stimuli/1100010.jpg","1","","prediction_trial","1","","true","","1","false","true","true","true","false","true","[1]","100","010","1","","","","","","",""
"","","","","","image-keyboard-response","67","216562","0.0-42.0","5ddd730ffce606ce31a105d4","665500ab8938657b03fbdba8","66577eb72bdbeda21619f2f1","727","stimuli/11000101.jpg"," ","","feedback_trial","1","","","","","","","","","","","","","","","","","","","","",""
"","","","","","image-keyboard-response","68","217848","0.0-43.0","5ddd730ffce606ce31a105d4","665500ab8938657b03fbdba8","66577eb72bdbeda21619f2f1","1274","stimuli/0001011.jpg","0","","prediction_trial","0","","true","","0","true","true","true","true","true","true","[0]","001","011","1","","","","","","",""
"","","","","","image-keyboard-response","69","218487","0.0-44.0","5ddd730ffce606ce31a105d4","665500ab8938657b03fbdba8","66577eb72bdbeda21619f2f1","625","stimuli/00010110.jpg"," ","","feedback_trial","0","","","","","","","","","","","","","","","","","","","","",""
"","","","","","image-keyboard-response","70","219487","0.0-45.0","5ddd730ffce606ce31a105d4","665500ab8938657b03fbdba8","66577eb72bdbeda21619f2f1","987","stimuli/0011001.jpg","0","","prediction_trial","0","","true","","0","true","true","true","true","true","true","[0]","011","001","1","","","","","","",""
"","","","","","image-keyboard-response","71","220141","0.0-46.0","5ddd730ffce606ce31a105d4","665500ab8938657b03fbdba8","66577eb72bdbeda21619f2f1","641","stimuli/00110010.jpg"," ","","feedback_trial","0","","","","","","","","","","","","","","","","","","","","",""
"","","","","","image-keyboard-response","72","222378","0.0-47.0","5ddd730ffce606ce31a105d4","665500ab8938657b03fbdba8","66577eb72bdbeda21619f2f1","2225","stimuli/1111101.jpg","0","","prediction_trial","0","","true","","1","true","true","false","false","false","false","[0,1,2]","111","101","1","","","","","","",""
"","","","","","image-keyboard-response","73","223696","0.0-48.0","5ddd730ffce606ce31a105d4","665500ab8938657b03fbdba8","66577eb72bdbeda21619f2f1","1305","stimuli/11111010.jpg"," ","","feedback_trial","0","","","","","","","","","","","","","","","","","","","","",""
"","","","","","image-keyboard-response","74","225251","0.0-49.0","5ddd730ffce606ce31a105d4","665500ab8938657b03fbdba8","66577eb72bdbeda21619f2f1","1543","stimuli/2000110.jpg","2","","prediction_trial","2","","true","","2","true","true","true","true","true","true","[2]","000","110","1","","","","","","",""
"","","","","","image-keyboard-response","75","225893","0.0-50.0","5ddd730ffce606ce31a105d4","665500ab8938657b03fbdba8","66577eb72bdbeda21619f2f1","629","stimuli/20001102.jpg"," ","","feedback_trial","2","","","","","","","","","","","","","","","","","","","","",""
"","","","","","image-keyboard-response","76","227189","0.0-51.0","5ddd730ffce606ce31a105d4","665500ab8938657b03fbdba8","66577eb72bdbeda21619f2f1","1283","stimuli/2101011.jpg","1","","prediction_trial","2","","false","","2","false","false","false","false","false","false","[2,0]","101","011","0","","","","","","",""
"","","","","","image-keyboard-response","77","228091","0.0-52.0","5ddd730ffce606ce31a105d4","665500ab8938657b03fbdba8","66577eb72bdbeda21619f2f1","889","stimuli/21010112.jpg"," ","","feedback_trial","2","","","","","","","","","","","","","","","","","","","","",""
"","","","","","image-keyboard-response","78","230636","0.0-53.0","5ddd730ffce606ce31a105d4","665500ab8938657b03fbdba8","66577eb72bdbeda21619f2f1","2533","stimuli/2101100.jpg","2","","prediction_trial","0","","false","","2","true","true","false","false","false","false","[0,2]","101","100","0","","","","","","",""
"","","","","","image-keyboard-response","79","231518","0.0-54.0","5ddd730ffce606ce31a105d4","665500ab8938657b03fbdba8","66577eb72bdbeda21619f2f1","870","stimuli/21011000.jpg"," ","","feedback_trial","0","","","","","","","","","","","","","","","","","","","","",""
"","","","","","image-keyboard-response","80","233916","0.0-55.0","5ddd730ffce606ce31a105d4","665500ab8938657b03fbdba8","66577eb72bdbeda21619f2f1","2385","stimuli/1011111.jpg","0","","prediction_trial","2","","false","","1","false","false","false","false","false","false","[2,1]","011","111","0","","","","","","",""
"","","","","","image-keyboard-response","81","234648","0.0-56.0","5ddd730ffce606ce31a105d4","665500ab8938657b03fbdba8","66577eb72bdbeda21619f2f1","720","stimuli/10111112.jpg"," ","","feedback_trial","2","","","","","","","","","","","","","","","","","","","","",""
"","","","","","image-keyboard-response","82","235961","0.0-57.0","5ddd730ffce606ce31a105d4","665500ab8938657b03fbdba8","66577eb72bdbeda21619f2f1","1300","stimuli/0010101.jpg","2","","prediction_trial","0","","false","","0","false","false","true","true","false","false","[0]","010","101","0","","","","","","",""
"","","","","","image-keyboard-response","83","236938","0.0-58.0","5ddd730ffce606ce31a105d4","665500ab8938657b03fbdba8","66577eb72bdbeda21619f2f1","964","stimuli/00101010.jpg"," ","","feedback_trial","0","","","","","","","","","","","","","","","","","","","","",""
"","","","","","image-keyboard-response","84","238304","0.0-59.0","5ddd730ffce606ce31a105d4","665500ab8938657b03fbdba8","66577eb72bdbeda21619f2f1","1353","stimuli/0111111.jpg","1","","prediction_trial","0","","false","","0","false","false","false","false","false","false","[0,2,1]","111","111","0","","","","","","",""
"","","","","","image-keyboard-response","85","239158","0.0-60.0","5ddd730ffce606ce31a105d4","665500ab8938657b03fbdba8","66577eb72bdbeda21619f2f1","841","stimuli/01111110.jpg"," ","","feedback_trial","0","","","","","","","","","","","","","","","","","","","","",""
"","","","","","image-keyboard-response","86","240889","0.0-61.0","5ddd730ffce606ce31a105d4","665500ab8938657b03fbdba8","66577eb72bdbeda21619f2f1","1718","stimuli/0001100.jpg","0","","prediction_trial","0","","true","","0","false","true","true","true","false","true","[0]","001","100","1","","","","","","",""
"","","","","","image-keyboard-response","87","241580","0.0-62.0","5ddd730ffce606ce31a105d4","665500ab8938657b03fbdba8","66577eb72bdbeda21619f2f1","679","stimuli/00011000.jpg"," ","","feedback_trial","0","","","","","","","","","","","","","","","","","","","","",""
"","","","","","image-keyboard-response","88","243042","0.0-63.0","5ddd730ffce606ce31a105d4","665500ab8938657b03fbdba8","66577eb72bdbeda21619f2f1","1450","stimuli/0010111.jpg","2","","prediction_trial","0","","false","","0","false","false","true","true","false","false","[0]","010","111","0","","","","","","",""
"","","","","","image-keyboard-response","89","243869","0.0-64.0","5ddd730ffce606ce31a105d4","665500ab8938657b03fbdba8","66577eb72bdbeda21619f2f1","813","stimuli/00101110.jpg"," ","","feedback_trial","0","","","","","","","","","","","","","","","","","","","","",""
"","","","","","image-keyboard-response","90","245875","0.0-65.0","5ddd730ffce606ce31a105d4","665500ab8938657b03fbdba8","66577eb72bdbeda21619f2f1","1995","stimuli/2011001.jpg","2","","prediction_trial","2","","true","","2","false","true","false","false","false","false","[1,2]","011","001","1","","","","","","",""
"","","","","","image-keyboard-response","91","246645","0.0-66.0","5ddd730ffce606ce31a105d4","665500ab8938657b03fbdba8","66577eb72bdbeda21619f2f1","758","stimuli/20110012.jpg"," ","","feedback_trial","1","","","","","","","","","","","","","","","","","","","","",""
"","","","","","image-keyboard-response","92","247732","0.0-67.0","5ddd730ffce606ce31a105d4","665500ab8938657b03fbdba8","66577eb72bdbeda21619f2f1","1073","stimuli/2110110.jpg","2","","prediction_trial","2","","true","","2","true","true","true","true","true","true","[2]","110","110","1","","","","","","",""
"","","","","","image-keyboard-response","93","248314","0.0-68.0","5ddd730ffce606ce31a105d4","665500ab8938657b03fbdba8","66577eb72bdbeda21619f2f1","569","stimuli/21101102.jpg"," ","","feedback_trial","2","","","","","","","","","","","","","","","","","","","","",""
"","","","","","image-keyboard-response","94","249937","0.0-69.0","5ddd730ffce606ce31a105d4","665500ab8938657b03fbdba8","66577eb72bdbeda21619f2f1","1611","stimuli/1011110.jpg","0","","prediction_trial","1","","false","","1","false","false","false","false","false","false","[1,2]","011","110","0","","","","","","",""
"","","","","","image-keyboard-response","95","250764","0.0-70.0","5ddd730ffce606ce31a105d4","665500ab8938657b03fbdba8","66577eb72bdbeda21619f2f1","815","stimuli/10111101.jpg"," ","","feedback_trial","1","","","","","","","","","","","","","","","","","","","","",""
"","","","","","image-keyboard-response","96","253474","0.0-71.0","5ddd730ffce606ce31a105d4","665500ab8938657b03fbdba8","66577eb72bdbeda21619f2f1","2698","stimuli/2100101.jpg","0","","prediction_trial","2","","false","","2","false","false","true","true","false","false","[2]","100","101","0","","","","","","",""
"","","","","","image-keyboard-response","97","254172","0.0-72.0","5ddd730ffce606ce31a105d4","665500ab8938657b03fbdba8","66577eb72bdbeda21619f2f1","686","stimuli/21001012.jpg"," ","","feedback_trial","2","","","","","","","","","","","","","","","","","","","","",""
"","","","","","image-keyboard-response","98","256101","0.0-73.0","5ddd730ffce606ce31a105d4","665500ab8938657b03fbdba8","66577eb72bdbeda21619f2f1","1916","stimuli/2011101.jpg","0","","prediction_trial","1","","false","","2","false","false","false","false","false","false","[2,1]","011","101","0","","","","","","",""
"","","","","","image-keyboard-response","99","256862","0.0-74.0","5ddd730ffce606ce31a105d4","665500ab8938657b03fbdba8","66577eb72bdbeda21619f2f1","749","stimuli/20111011.jpg"," ","","feedback_trial","2","","","","","","","","","","","","","","","","","","","","",""
"","","","","","image-keyboard-response","100","258099","0.0-75.0","5ddd730ffce606ce31a105d4","665500ab8938657b03fbdba8","66577eb72bdbeda21619f2f1","1225","stimuli/0001111.jpg","1","","prediction_trial","0","","false","","0","false","false","true","true","false","false","[0]","001","111","0","","","","","","",""
"","","","","","image-keyboard-response","101","258843","0.0-76.0","5ddd730ffce606ce31a105d4","665500ab8938657b03fbdba8","66577eb72bdbeda21619f2f1","731","stimuli/00011110.jpg"," ","","feedback_trial","0","","","","","","","","","","","","","","","","","","","","",""
"","","","","","image-keyboard-response","102","261358","0.0-77.0","5ddd730ffce606ce31a105d4","665500ab8938657b03fbdba8","66577eb72bdbeda21619f2f1","2502","stimuli/2001101.jpg","2","","prediction_trial","2","","true","","2","false","false","false","true","false","false","[2]","001","101","1","","","","","","",""
"","","","","","image-keyboard-response","103","262055","0.0-78.0","5ddd730ffce606ce31a105d4","665500ab8938657b03fbdba8","66577eb72bdbeda21619f2f1","684","stimuli/20011012.jpg"," ","","feedback_trial","2","","","","","","","","","","","","","","","","","","","","",""
"","","","","","image-keyboard-response","104","264563","0.0-79.0","5ddd730ffce606ce31a105d4","665500ab8938657b03fbdba8","66577eb72bdbeda21619f2f1","2496","stimuli/2011011.jpg","1","","prediction_trial","2","","false","","2","false","false","false","false","false","false","[1,2]","011","011","0","","","","","","",""
"","","","","","image-keyboard-response","105","265313","0.0-80.0","5ddd730ffce606ce31a105d4","665500ab8938657b03fbdba8","66577eb72bdbeda21619f2f1","737","stimuli/20110112.jpg"," ","","feedback_trial","1","","","","","","","","","","","","","","","","","","","","",""
"","","","","","image-keyboard-response","106","267168","0.0-81.0","5ddd730ffce606ce31a105d4","665500ab8938657b03fbdba8","66577eb72bdbeda21619f2f1","1844","stimuli/2110111.jpg","2","","prediction_trial","2","","true","","2","false","false","true","true","false","false","[2]","110","111","1","","","","","","",""
"","","","","","image-keyboard-response","107","267891","0.0-82.0","5ddd730ffce606ce31a105d4","665500ab8938657b03fbdba8","66577eb72bdbeda21619f2f1","710","stimuli/21101112.jpg"," ","","feedback_trial","2","","","","","","","","","","","","","","","","","","","","",""
"","","","","","image-keyboard-response","108","268899","0.0-83.0","5ddd730ffce606ce31a105d4","665500ab8938657b03fbdba8","66577eb72bdbeda21619f2f1","996","stimuli/1100000.jpg","1","","prediction_trial","1","","true","","1","true","true","true","true","true","true","[1]","100","000","1","","","","","","",""
"","","","","","image-keyboard-response","109","269534","0.0-84.0","5ddd730ffce606ce31a105d4","665500ab8938657b03fbdba8","66577eb72bdbeda21619f2f1","621","stimuli/11000001.jpg"," ","","feedback_trial","1","","","","","","","","","","","","","","","","","","","","",""
"","","","","","image-keyboard-response","110","271669","0.0-85.0","5ddd730ffce606ce31a105d4","665500ab8938657b03fbdba8","66577eb72bdbeda21619f2f1","2122","stimuli/2000011.jpg","1","","prediction_trial","2","","false","","2","false","false","true","true","false","false","[2]","000","011","0","","","","","","",""
"","","","","","image-keyboard-response","111","272287","0.0-86.0","5ddd730ffce606ce31a105d4","665500ab8938657b03fbdba8","66577eb72bdbeda21619f2f1","605","stimuli/20000112.jpg"," ","","feedback_trial","2","","","","","","","","","","","","","","","","","","","","",""
"","","","","","image-keyboard-response","112","273212","0.0-87.0","5ddd730ffce606ce31a105d4","665500ab8938657b03fbdba8","66577eb72bdbeda21619f2f1","912","stimuli/1101100.jpg","1","","prediction_trial","1","","true","","1","true","true","true","true","true","true","[1]","101","100","1","","","","","","",""
"","","","","","image-keyboard-response","113","273707","0.0-88.0","5ddd730ffce606ce31a105d4","665500ab8938657b03fbdba8","66577eb72bdbeda21619f2f1","483","stimuli/11011001.jpg"," ","","feedback_trial","1","","","","","","","","","","","","","","","","","","","","",""
"","","","","","image-keyboard-response","114","275269","0.0-89.0","5ddd730ffce606ce31a105d4","665500ab8938657b03fbdba8","66577eb72bdbeda21619f2f1","1549","stimuli/2110011.jpg","2","","prediction_trial","2","","true","","2","false","false","true","true","false","false","[2]","110","011","1","","","","","","",""
"","","","","","image-keyboard-response","115","275967","0.0-90.0","5ddd730ffce606ce31a105d4","665500ab8938657b03fbdba8","66577eb72bdbeda21619f2f1","685","stimuli/21100112.jpg"," ","","feedback_trial","2","","","","","","","","","","","","","","","","","","","","",""
"","","","","","image-keyboard-response","116","277834","0.0-91.0","5ddd730ffce606ce31a105d4","665500ab8938657b03fbdba8","66577eb72bdbeda21619f2f1","1855","stimuli/1110101.jpg","1","","prediction_trial","0","","false","","1","true","true","false","false","false","false","[1,0]","110","101","0","","","","","","",""
"","","","","","image-keyboard-response","117","278583","0.0-92.0","5ddd730ffce606ce31a105d4","665500ab8938657b03fbdba8","66577eb72bdbeda21619f2f1","737","stimuli/11101010.jpg"," ","","feedback_trial","1","","","","","","","","","","","","","","","","","","","","",""
"","","","","","image-keyboard-response","118","280640","0.0-93.0","5ddd730ffce606ce31a105d4","665500ab8938657b03fbdba8","66577eb72bdbeda21619f2f1","2044","stimuli/2111100.jpg","2","","prediction_trial","1","","false","","2","true","true","false","false","false","false","[0,2,1]","111","100","0","","","","","","",""
"","","","","","image-keyboard-response","119","281379","0.0-94.0","5ddd730ffce606ce31a105d4","665500ab8938657b03fbdba8","66577eb72bdbeda21619f2f1","726","stimuli/21111001.jpg"," ","","feedback_trial","0","","","","","","","","","","","","","","","","","","","","",""
"","","","","","image-keyboard-response","120","282546","0.0-95.0","5ddd730ffce606ce31a105d4","665500ab8938657b03fbdba8","66577eb72bdbeda21619f2f1","1155","stimuli/1101101.jpg","1","","prediction_trial","1","","true","","1","true","true","true","true","true","true","[1]","101","101","1","","","","","","",""
"","","","","","image-keyboard-response","121","283003","0.0-96.0","5ddd730ffce606ce31a105d4","665500ab8938657b03fbdba8","66577eb72bdbeda21619f2f1","445","stimuli/11011011.jpg"," ","","feedback_trial","1","","","","","","","","","","","","","","","","","","","","",""
"","","","","","image-keyboard-response","122","285070","0.0-97.0","5ddd730ffce606ce31a105d4","665500ab8938657b03fbdba8","66577eb72bdbeda21619f2f1","2055","stimuli/2011110.jpg","0","","prediction_trial","1","","false","","2","true","true","false","false","false","false","[1,2]","011","110","0","","","","","","",""
"","","","","","image-keyboard-response","123","285929","0.0-98.0","5ddd730ffce606ce31a105d4","665500ab8938657b03fbdba8","66577eb72bdbeda21619f2f1","846","stimuli/20111101.jpg"," ","","feedback_trial","1","","","","","","","","","","","","","","","","","","","","",""
"","","","","","image-keyboard-response","124","287137","0.0-99.0","5ddd730ffce606ce31a105d4","665500ab8938657b03fbdba8","66577eb72bdbeda21619f2f1","1195","stimuli/2010110.jpg","2","","prediction_trial","2","","true","","2","true","true","true","true","true","true","[2]","010","110","1","","","","","","",""
"","","","","","image-keyboard-response","125","287744","0.0-100.0","5ddd730ffce606ce31a105d4","665500ab8938657b03fbdba8","66577eb72bdbeda21619f2f1","595","stimuli/20101102.jpg"," ","","feedback_trial","2","","","","","","","","","","","","","","","","","","","","",""
"","","","","","image-keyboard-response","126","288631","0.0-101.0","5ddd730ffce606ce31a105d4","665500ab8938657b03fbdba8","66577eb72bdbeda21619f2f1","872","stimuli/2010100.jpg","2","","prediction_trial","2","","true","","2","true","true","true","true","true","true","[2]","010","100","1","","","","","","",""
"","","","","","image-keyboard-response","127","289121","0.0-102.0","5ddd730ffce606ce31a105d4","665500ab8938657b03fbdba8","66577eb72bdbeda21619f2f1","476","stimuli/20101002.jpg"," ","","feedback_trial","2","","","","","","","","","","","","","","","","","","","","",""
"","","","","","image-keyboard-response","128","290514","0.0-103.0","5ddd730ffce606ce31a105d4","665500ab8938657b03fbdba8","66577eb72bdbeda21619f2f1","1381","stimuli/0101111.jpg","1","","prediction_trial","2","","false","","0","false","false","false","false","false","false","[2,0]","101","111","0","","","","","","",""
"","","","","","image-keyboard-response","129","291217","0.0-104.0","5ddd730ffce606ce31a105d4","665500ab8938657b03fbdba8","66577eb72bdbeda21619f2f1","689","stimuli/01011112.jpg"," ","","feedback_trial","2","","","","","","","","","","","","","","","","","","","","",""
"","","","","","image-keyboard-response","130","292873","0.0-105.0","5ddd730ffce606ce31a105d4","665500ab8938657b03fbdba8","66577eb72bdbeda21619f2f1","1644","stimuli/0110101.jpg","0","","prediction_trial","0","","true","","0","false","false","false","false","false","false","[1,0]","110","101","1","","","","","","",""
"","","","","","image-keyboard-response","131","293580","0.0-106.0","5ddd730ffce606ce31a105d4","665500ab8938657b03fbdba8","66577eb72bdbeda21619f2f1","694","stimuli/01101010.jpg"," ","","feedback_trial","1","","","","","","","","","","","","","","","","","","","","",""
"","","","","","image-keyboard-response","132","297032","0.0-107.0","5ddd730ffce606ce31a105d4","665500ab8938657b03fbdba8","66577eb72bdbeda21619f2f1","3438","stimuli/1111010.jpg","1","","prediction_trial","0","","false","","1","false","true","false","false","false","false","[2,0,1]","111","010","0","","","","","","",""
"","","","","","image-keyboard-response","133","297665","0.0-108.0","5ddd730ffce606ce31a105d4","665500ab8938657b03fbdba8","66577eb72bdbeda21619f2f1","619","stimuli/11110100.jpg"," ","","feedback_trial","2","","","","","","","","","","","","","","","","","","","","",""
"","","","","","image-keyboard-response","134","298771","0.0-109.0","5ddd730ffce606ce31a105d4","665500ab8938657b03fbdba8","66577eb72bdbeda21619f2f1","1092","stimuli/0000001.jpg","0","","prediction_trial","0","","true","","0","true","true","true","true","true","true","[0]","000","001","1","","","","","","",""
"","","","","","image-keyboard-response","135","299368","0.0-110.0","5ddd730ffce606ce31a105d4","665500ab8938657b03fbdba8","66577eb72bdbeda21619f2f1","584","stimuli/00000010.jpg"," ","","feedback_trial","0","","","","","","","","","","","","","","","","","","","","",""
"","","","","","image-keyboard-response","136","301126","0.0-111.0","5ddd730ffce606ce31a105d4","665500ab8938657b03fbdba8","66577eb72bdbeda21619f2f1","1745","stimuli/0101011.jpg","0","","prediction_trial","0","","true","","0","true","true","false","false","false","false","[0,2]","101","011","1","","","","","","",""
"","","","","","image-keyboard-response","137","301878","0.0-112.0","5ddd730ffce606ce31a105d4","665500ab8938657b03fbdba8","66577eb72bdbeda21619f2f1","739","stimuli/01010110.jpg"," ","","feedback_trial","0","","","","","","","","","","","","","","","","","","","","",""
"","","","","","image-keyboard-response","138","303627","0.0-113.0","5ddd730ffce606ce31a105d4","665500ab8938657b03fbdba8","66577eb72bdbeda21619f2f1","1737","stimuli/0011101.jpg","0","","prediction_trial","0","","true","","0","false","false","true","true","false","false","[0]","011","101","1","","","","","","",""
"","","","","","image-keyboard-response","139","304305","0.0-114.0","5ddd730ffce606ce31a105d4","665500ab8938657b03fbdba8","66577eb72bdbeda21619f2f1","665","stimuli/00111010.jpg"," ","","feedback_trial","0","","","","","","","","","","","","","","","","","","","","",""
"","","","","","image-keyboard-response","140","306774","0.0-115.0","5ddd730ffce606ce31a105d4","665500ab8938657b03fbdba8","66577eb72bdbeda21619f2f1","2457","stimuli/2001001.jpg","2","","prediction_trial","2","","true","","2","false","true","false","true","false","true","[2]","001","001","1","","","","","","",""
"","","","","","image-keyboard-response","141","307294","0.0-116.0","5ddd730ffce606ce31a105d4","665500ab8938657b03fbdba8","66577eb72bdbeda21619f2f1","506","stimuli/20010012.jpg"," ","","feedback_trial","2","","","","","","","","","","","","","","","","","","","","",""
"","","","","","image-keyboard-response","142","310450","0.0-117.0","5ddd730ffce606ce31a105d4","665500ab8938657b03fbdba8","66577eb72bdbeda21619f2f1","3144","stimuli/0100111.jpg","0","","prediction_trial","0","","true","","0","false","false","false","true","false","false","[0]","100","111","1","","","","","","",""
"","","","","","image-keyboard-response","143","311126","0.0-118.0","5ddd730ffce606ce31a105d4","665500ab8938657b03fbdba8","66577eb72bdbeda21619f2f1","659","stimuli/01001110.jpg"," ","","feedback_trial","0","","","","","","","","","","","","","","","","","","","","",""
"","","","","","image-keyboard-response","144","312536","0.0-119.0","5ddd730ffce606ce31a105d4","665500ab8938657b03fbdba8","66577eb72bdbeda21619f2f1","1398","stimuli/2110100.jpg","2","","prediction_trial","2","","true","","2","true","true","true","true","true","true","[2]","110","100","1","","","","","","",""
"","","","","","image-keyboard-response","145","313146","0.0-120.0","5ddd730ffce606ce31a105d4","665500ab8938657b03fbdba8","66577eb72bdbeda21619f2f1","597","stimuli/21101002.jpg"," ","","feedback_trial","2","","","","","","","","","","","","","","","","","","","","",""
"","","","","","image-keyboard-response","146","315039","0.0-121.0","5ddd730ffce606ce31a105d4","665500ab8938657b03fbdba8","66577eb72bdbeda21619f2f1","1880","stimuli/0001110.jpg","1","","prediction_trial","0","","false","","0","false","false","true","true","false","false","[0]","001","110","0","","","","","","",""
"","","","","","image-keyboard-response","147","315780","0.0-122.0","5ddd730ffce606ce31a105d4","665500ab8938657b03fbdba8","66577eb72bdbeda21619f2f1","727","stimuli/00011100.jpg"," ","","feedback_trial","0","","","","","","","","","","","","","","","","","","","","",""
"","","","","","image-keyboard-response","148","317776","0.0-123.0","5ddd730ffce606ce31a105d4","665500ab8938657b03fbdba8","66577eb72bdbeda21619f2f1","1982","stimuli/1111111.jpg","1","","prediction_trial","0","","false","","1","false","false","false","false","false","false","[1,2,0]","111","111","0","","","","","","",""
"","","","","","image-keyboard-response","149","318511","0.0-124.0","5ddd730ffce606ce31a105d4","665500ab8938657b03fbdba8","66577eb72bdbeda21619f2f1","722","stimuli/11111110.jpg"," ","","feedback_trial","1","","","","","","","","","","","","","","","","","","","","",""
"","","","","","image-keyboard-response","150","319607","0.0-125.0","5ddd730ffce606ce31a105d4","665500ab8938657b03fbdba8","66577eb72bdbeda21619f2f1","1084","stimuli/1110001.jpg","1","","prediction_trial","0","","false","","1","true","true","false","false","false","false","[1,0]","110","001","0","","","","","","",""
"","","","","","image-keyboard-response","151","320264","0.0-126.0","5ddd730ffce606ce31a105d4","665500ab8938657b03fbdba8","66577eb72bdbeda21619f2f1","645","stimuli/11100010.jpg"," ","","feedback_trial","1","","","","","","","","","","","","","","","","","","","","",""
"","","","","","image-keyboard-response","152","321599","0.0-127.0","5ddd730ffce606ce31a105d4","665500ab8938657b03fbdba8","66577eb72bdbeda21619f2f1","1321","stimuli/1001010.jpg","2","","prediction_trial","1","","false","","1","false","true","true","true","false","true","[1]","001","010","0","","","","","","",""
"","","","","","image-keyboard-response","153","322969","0.0-128.0","5ddd730ffce606ce31a105d4","665500ab8938657b03fbdba8","66577eb72bdbeda21619f2f1","1354","stimuli/10010101.jpg"," ","","feedback_trial","1","","","","","","","","","","","","","","","","","","","","",""
"","","","","","image-keyboard-response","154","324206","0.0-129.0","5ddd730ffce606ce31a105d4","665500ab8938657b03fbdba8","66577eb72bdbeda21619f2f1","1225","stimuli/1000000.jpg","1","","prediction_trial","1","","true","","1","true","true","true","true","true","true","[1]","000","000","1","","","","","","",""
"","","","","","image-keyboard-response","155","324640","0.0-130.0","5ddd730ffce606ce31a105d4","665500ab8938657b03fbdba8","66577eb72bdbeda21619f2f1","421","stimuli/10000001.jpg"," ","","feedback_trial","1","","","","","","","","","","","","","","","","","","","","",""
"","","","","","image-keyboard-response","156","326608","0.0-131.0","5ddd730ffce606ce31a105d4","665500ab8938657b03fbdba8","66577eb72bdbeda21619f2f1","1956","stimuli/2101110.jpg","2","","prediction_trial","0","","false","","2","true","true","false","false","false","false","[2,0]","101","110","0","","","","","","",""
"","","","","","image-keyboard-response","157","327401","0.0-132.0","5ddd730ffce606ce31a105d4","665500ab8938657b03fbdba8","66577eb72bdbeda21619f2f1","780","stimuli/21011100.jpg"," ","","feedback_trial","2","","","","","","","","","","","","","","","","","","","","",""
"","","","","","image-keyboard-response","158","329967","0.0-133.0","5ddd730ffce606ce31a105d4","665500ab8938657b03fbdba8","66577eb72bdbeda21619f2f1","2553","stimuli/2000111.jpg","0","","prediction_trial","2","","false","","2","false","false","true","true","false","false","[2]","000","111","0","","","","","","",""
"","","","","","image-keyboard-response","159","330642","0.0-134.0","5ddd730ffce606ce31a105d4","665500ab8938657b03fbdba8","66577eb72bdbeda21619f2f1","663","stimuli/20001112.jpg"," ","","feedback_trial","2","","","","","","","","","","","","","","","","","","","","",""
"","","","","","image-keyboard-response","160","332261","0.0-135.0","5ddd730ffce606ce31a105d4","665500ab8938657b03fbdba8","66577eb72bdbeda21619f2f1","1606","stimuli/2010111.jpg","2","","prediction_trial","2","","true","","2","false","false","true","true","false","false","[2]","010","111","1","","","","","","",""
"","","","","","image-keyboard-response","161","333001","0.0-136.0","5ddd730ffce606ce31a105d4","665500ab8938657b03fbdba8","66577eb72bdbeda21619f2f1","728","stimuli/20101112.jpg"," ","","feedback_trial","2","","","","","","","","","","","","","","","","","","","","",""
"","","","","","image-keyboard-response","162","333957","0.0-137.0","5ddd730ffce606ce31a105d4","665500ab8938657b03fbdba8","66577eb72bdbeda21619f2f1","943","stimuli/1100100.jpg","1","","prediction_trial","1","","true","","1","true","true","true","true","true","true","[1]","100","100","1","","","","","","",""
"","","","","","image-keyboard-response","163","334405","0.0-138.0","5ddd730ffce606ce31a105d4","665500ab8938657b03fbdba8","66577eb72bdbeda21619f2f1","435","stimuli/11001001.jpg"," ","","feedback_trial","1","","","","","","","","","","","","","","","","","","","","",""
"","","","","","image-keyboard-response","164","335184","0.0-139.0","5ddd730ffce606ce31a105d4","665500ab8938657b03fbdba8","66577eb72bdbeda21619f2f1","768","stimuli/2000000.jpg","2","","prediction_trial","2","","true","","2","true","true","true","true","true","true","[2]","000","000","1","","","","","","",""
"","","","","","image-keyboard-response","165","335663","0.0-140.0","5ddd730ffce606ce31a105d4","665500ab8938657b03fbdba8","66577eb72bdbeda21619f2f1","465","stimuli/20000002.jpg"," ","","feedback_trial","2","","","","","","","","","","","","","","","","","","","","",""
"","","","","","image-keyboard-response","166","337706","0.0-141.0","5ddd730ffce606ce31a105d4","665500ab8938657b03fbdba8","66577eb72bdbeda21619f2f1","2029","stimuli/0000111.jpg","0","","prediction_trial","0","","true","","0","false","false","true","true","false","false","[0]","000","111","1","","","","","","",""
"","","","","","image-keyboard-response","167","338490","0.0-142.0","5ddd730ffce606ce31a105d4","665500ab8938657b03fbdba8","66577eb72bdbeda21619f2f1","769","stimuli/00001110.jpg"," ","","feedback_trial","0","","","","","","","","","","","","","","","","","","","","",""
"","","","","","image-keyboard-response","168","340347","0.0-143.0","5ddd730ffce606ce31a105d4","665500ab8938657b03fbdba8","66577eb72bdbeda21619f2f1","1845","stimuli/2000101.jpg","2","","prediction_trial","2","","true","","2","false","false","true","true","false","false","[2]","000","101","1","","","","","","",""
"","","","","","image-keyboard-response","169","341022","0.0-144.0","5ddd730ffce606ce31a105d4","665500ab8938657b03fbdba8","66577eb72bdbeda21619f2f1","661","stimuli/20001012.jpg"," ","","feedback_trial","2","","","","","","","","","","","","","","","","","","","","",""
"","","","","","image-keyboard-response","170","343469","0.0-145.0","5ddd730ffce606ce31a105d4","665500ab8938657b03fbdba8","66577eb72bdbeda21619f2f1","2435","stimuli/0110111.jpg","1","","prediction_trial","1","","true","","0","false","false","false","false","false","false","[0,1]","110","111","1","","","","","","",""
"","","","","","image-keyboard-response","171","344060","0.0-146.0","5ddd730ffce606ce31a105d4","665500ab8938657b03fbdba8","66577eb72bdbeda21619f2f1","579","stimuli/01101111.jpg"," ","","feedback_trial","0","","","","","","","","","","","","","","","","","","","","",""
"","","","","","image-keyboard-response","172","345296","0.0-147.0","5ddd730ffce606ce31a105d4","665500ab8938657b03fbdba8","66577eb72bdbeda21619f2f1","1224","stimuli/0000010.jpg","0","","prediction_trial","0","","true","","0","true","true","true","true","true","true","[0]","000","010","1","","","","","","",""
"","","","","","image-keyboard-response","173","345729","0.0-148.0","5ddd730ffce606ce31a105d4","665500ab8938657b03fbdba8","66577eb72bdbeda21619f2f1","421","stimuli/00000100.jpg"," ","","feedback_trial","0","","","","","","","","","","","","","","","","","","","","",""
"","","","","","image-keyboard-response","174","348204","0.0-149.0","5ddd730ffce606ce31a105d4","665500ab8938657b03fbdba8","66577eb72bdbeda21619f2f1","2463","stimuli/1100110.jpg","1","","prediction_trial","1","","true","","1","false","false","true","true","false","false","[1]","100","110","1","","","","","","",""
"","","","","","image-keyboard-response","175","348961","0.0-150.0","5ddd730ffce606ce31a105d4","665500ab8938657b03fbdba8","66577eb72bdbeda21619f2f1","744","stimuli/11001101.jpg"," ","","feedback_trial","1","","","","","","","","","","","","","","","","","","","","",""
"","","","","","image-keyboard-response","176","350871","0.0-151.0","5ddd730ffce606ce31a105d4","665500ab8938657b03fbdba8","66577eb72bdbeda21619f2f1","1898","stimuli/2010001.jpg","2","","prediction_trial","2","","true","","2","false","true","true","true","false","true","[2]","010","001","1","","","","","","",""
"","","","","","image-keyboard-response","177","351449","0.0-152.0","5ddd730ffce606ce31a105d4","665500ab8938657b03fbdba8","66577eb72bdbeda21619f2f1","565","stimuli/20100012.jpg"," ","","feedback_trial","2","","","","","","","","","","","","","","","","","","","","",""
"","","","","","image-keyboard-response","178","354238","0.0-153.0","5ddd730ffce606ce31a105d4","665500ab8938657b03fbdba8","66577eb72bdbeda21619f2f1","2777","stimuli/2011010.jpg","2","","prediction_trial","1","","false","","2","true","true","false","false","false","false","[1,2]","011","010","0","","","","","","",""
"","","","","","image-keyboard-response","179","355056","0.0-154.0","5ddd730ffce606ce31a105d4","665500ab8938657b03fbdba8","66577eb72bdbeda21619f2f1","806","stimuli/20110101.jpg"," ","","feedback_trial","1","","","","","","","","","","","","","","","","","","","","",""
"","","","","","image-keyboard-response","180","356391","0.0-155.0","5ddd730ffce606ce31a105d4","665500ab8938657b03fbdba8","66577eb72bdbeda21619f2f1","1323","stimuli/1000111.jpg","1","","prediction_trial","1","","true","","1","false","false","true","true","false","false","[1]","000","111","1","","","","","","",""
"","","","","","image-keyboard-response","181","357077","0.0-156.0","5ddd730ffce606ce31a105d4","665500ab8938657b03fbdba8","66577eb72bdbeda21619f2f1","674","stimuli/10001111.jpg"," ","","feedback_trial","1","","","","","","","","","","","","","","","","","","","","",""
"","","","","","image-keyboard-response","182","357938","0.0-157.0","5ddd730ffce606ce31a105d4","665500ab8938657b03fbdba8","66577eb72bdbeda21619f2f1","848","stimuli/1101000.jpg","1","","prediction_trial","1","","true","","1","true","true","true","true","true","true","[1]","101","000","1","","","","","","",""
"","","","","","image-keyboard-response","183","358427","0.0-158.0","5ddd730ffce606ce31a105d4","665500ab8938657b03fbdba8","66577eb72bdbeda21619f2f1","478","stimuli/11010001.jpg"," ","","feedback_trial","1","","","","","","","","","","","","","","","","","","","","",""
"","","","","","image-keyboard-response","184","360857","0.0-159.0","5ddd730ffce606ce31a105d4","665500ab8938657b03fbdba8","66577eb72bdbeda21619f2f1","2417","stimuli/0110000.jpg","0","","prediction_trial","0","","true","","0","true","true","false","false","false","false","[1,0]","110","000","1","","","","","","",""
"","","","","","image-keyboard-response","185","361569","0.0-160.0","5ddd730ffce606ce31a105d4","665500ab8938657b03fbdba8","66577eb72bdbeda21619f2f1","699","stimuli/01100000.jpg"," ","","feedback_trial","1","","","","","","","","","","","","","","","","","","","","",""
"","","","","","image-keyboard-response","186","362963","0.0-161.0","5ddd730ffce606ce31a105d4","665500ab8938657b03fbdba8","66577eb72bdbeda21619f2f1","1382","stimuli/2110010.jpg","2","","prediction_trial","2","","true","","2","true","true","true","true","true","true","[2]","110","010","1","","","","","","",""
"","","","","","image-keyboard-response","187","363531","0.0-162.0","5ddd730ffce606ce31a105d4","665500ab8938657b03fbdba8","66577eb72bdbeda21619f2f1","556","stimuli/21100102.jpg"," ","","feedback_trial","2","","","","","","","","","","","","","","","","","","","","",""
"","","","","","image-keyboard-response","188","365822","0.0-163.0","5ddd730ffce606ce31a105d4","665500ab8938657b03fbdba8","66577eb72bdbeda21619f2f1","2278","stimuli/2001110.jpg","2","","prediction_trial","2","","true","","2","true","true","false","true","false","true","[2]","001","110","1","","","","","","",""
"","","","","","image-keyboard-response","189","366398","0.0-164.0","5ddd730ffce606ce31a105d4","665500ab8938657b03fbdba8","66577eb72bdbeda21619f2f1","564","stimuli/20011102.jpg"," ","","feedback_trial","2","","","","","","","","","","","","","","","","","","","","",""
"","","","","","image-keyboard-response","190","369204","0.0-165.0","5ddd730ffce606ce31a105d4","665500ab8938657b03fbdba8","66577eb72bdbeda21619f2f1","2794","stimuli/0111101.jpg","0","","prediction_trial","2","","false","","0","false","false","false","false","false","false","[0,2,1]","111","101","0","","","","","","",""
"","","","","","image-keyboard-response","191","369875","0.0-166.0","5ddd730ffce606ce31a105d4","665500ab8938657b03fbdba8","66577eb72bdbeda21619f2f1","658","stimuli/01111012.jpg"," ","","feedback_trial","0","","","","","","","","","","","","","","","","","","","","",""
"","","","","","image-keyboard-response","192","370783","0.0-167.0","5ddd730ffce606ce31a105d4","665500ab8938657b03fbdba8","66577eb72bdbeda21619f2f1","896","stimuli/0001000.jpg","0","","prediction_trial","0","","true","","0","true","true","true","true","true","true","[0]","001","000","1","","","","","","",""
"","","","","","image-keyboard-response","193","371228","0.0-168.0","5ddd730ffce606ce31a105d4","665500ab8938657b03fbdba8","66577eb72bdbeda21619f2f1","430","stimuli/00010000.jpg"," ","","feedback_trial","0","","","","","","","","","","","","","","","","","","","","",""
"","","","","","image-keyboard-response","194","372155","0.0-169.0","5ddd730ffce606ce31a105d4","665500ab8938657b03fbdba8","66577eb72bdbeda21619f2f1","915","stimuli/1101001.jpg","1","","prediction_trial","1","","true","","1","true","true","true","true","true","true","[1]","101","001","1","","","","","","",""
"","","","","","image-keyboard-response","195","372579","0.0-170.0","5ddd730ffce606ce31a105d4","665500ab8938657b03fbdba8","66577eb72bdbeda21619f2f1","411","stimuli/11010011.jpg"," ","","feedback_trial","1","","","","","","","","","","","","","","","","","","","","",""
"","","","","","image-keyboard-response","196","373997","0.0-171.0","5ddd730ffce606ce31a105d4","665500ab8938657b03fbdba8","66577eb72bdbeda21619f2f1","1406","stimuli/0011100.jpg","0","","prediction_trial","0","","true","","0","false","true","true","true","false","true","[0]","011","100","1","","","","","","",""
"","","","","","image-keyboard-response","197","374641","0.0-172.0","5ddd730ffce606ce31a105d4","665500ab8938657b03fbdba8","66577eb72bdbeda21619f2f1","630","stimuli/00111000.jpg"," ","","feedback_trial","0","","","","","","","","","","","","","","","","","","","","",""
"","","","","","image-keyboard-response","198","376102","0.0-173.0","5ddd730ffce606ce31a105d4","665500ab8938657b03fbdba8","66577eb72bdbeda21619f2f1","1449","stimuli/2111010.jpg","2","","prediction_trial","2","","true","","2","true","true","false","false","false","false","[2,1,0]","111","010","1","","","","","","",""
"","","","","","image-keyboard-response","199","376944","0.0-174.0","5ddd730ffce606ce31a105d4","665500ab8938657b03fbdba8","66577eb72bdbeda21619f2f1","829","stimuli/21110102.jpg"," ","","feedback_trial","2","","","","","","","","","","","","","","","","","","","","",""
"","","","","","image-keyboard-response","200","378883","0.0-175.0","5ddd730ffce606ce31a105d4","665500ab8938657b03fbdba8","66577eb72bdbeda21619f2f1","1926","stimuli/2010011.jpg","2","","prediction_trial","2","","true","","2","false","false","true","true","false","false","[2]","010","011","1","","","","","","",""
"","","","","","image-keyboard-response","201","379642","0.0-176.0","5ddd730ffce606ce31a105d4","665500ab8938657b03fbdba8","66577eb72bdbeda21619f2f1","747","stimuli/20100112.jpg"," ","","feedback_trial","2","","","","","","","","","","","","","","","","","","","","",""
"","","","","","image-keyboard-response","202","380990","0.0-177.0","5ddd730ffce606ce31a105d4","665500ab8938657b03fbdba8","66577eb72bdbeda21619f2f1","1335","stimuli/1001111.jpg","1","","prediction_trial","1","","true","","1","false","false","true","true","false","false","[1]","001","111","1","","","","","","",""
"","","","","","image-keyboard-response","203","381648","0.0-178.0","5ddd730ffce606ce31a105d4","665500ab8938657b03fbdba8","66577eb72bdbeda21619f2f1","643","stimuli/10011111.jpg"," ","","feedback_trial","1","","","","","","","","","","","","","","","","","","","","",""
"","","","","","image-keyboard-response","204","383763","0.0-179.0","5ddd730ffce606ce31a105d4","665500ab8938657b03fbdba8","66577eb72bdbeda21619f2f1","2101","stimuli/2101001.jpg","2","","prediction_trial","0","","false","","2","false","true","false","false","false","false","[0,2]","101","001","0","","","","","","",""
"","","","","","image-keyboard-response","205","384396","0.0-180.0","5ddd730ffce606ce31a105d4","665500ab8938657b03fbdba8","66577eb72bdbeda21619f2f1","620","stimuli/21010010.jpg"," ","","feedback_trial","0","","","","","","","","","","","","","","","","","","","","",""
"","","","","","image-keyboard-response","206","385639","0.0-181.0","5ddd730ffce606ce31a105d4","665500ab8938657b03fbdba8","66577eb72bdbeda21619f2f1","1230","stimuli/0110010.jpg","0","","prediction_trial","0","","true","","0","true","true","false","false","false","false","[0,1]","110","010","1","","","","","","",""
"","","","","","image-keyboard-response","207","386323","0.0-182.0","5ddd730ffce606ce31a105d4","665500ab8938657b03fbdba8","66577eb72bdbeda21619f2f1","672","stimuli/01100100.jpg"," ","","feedback_trial","0","","","","","","","","","","","","","","","","","","","","",""
"","","","","","image-keyboard-response","208","388854","0.0-183.0","5ddd730ffce606ce31a105d4","665500ab8938657b03fbdba8","66577eb72bdbeda21619f2f1","2517","stimuli/1111001.jpg","1","","prediction_trial","1","","true","","1","true","true","false","false","false","false","[1,0,2]","111","001","1","","","","","","",""
"","","","","","image-keyboard-response","209","389573","0.0-184.0","5ddd730ffce606ce31a105d4","665500ab8938657b03fbdba8","66577eb72bdbeda21619f2f1","706","stimuli/11110011.jpg"," ","","feedback_trial","1","","","","","","","","","","","","","","","","","","","","",""
"","","","","","image-keyboard-response","210","390665","0.0-185.0","5ddd730ffce606ce31a105d4","665500ab8938657b03fbdba8","66577eb72bdbeda21619f2f1","1080","stimuli/0010011.jpg","0","","prediction_trial","0","","true","","0","true","true","true","true","true","true","[0]","010","011","1","","","","","","",""
"","","","","","image-keyboard-response","211","391160","0.0-186.0","5ddd730ffce606ce31a105d4","665500ab8938657b03fbdba8","66577eb72bdbeda21619f2f1","482","stimuli/00100110.jpg"," ","","feedback_trial","0","","","","","","","","","","","","","","","","","","","","",""
"","","","","","image-keyboard-response","212","391972","0.0-187.0","5ddd730ffce606ce31a105d4","665500ab8938657b03fbdba8","66577eb72bdbeda21619f2f1","799","stimuli/1100101.jpg","1","","prediction_trial","1","","true","","1","true","true","true","true","true","true","[1]","100","101","1","","","","","","",""
"","","","","","image-keyboard-response","213","392389","0.0-188.0","5ddd730ffce606ce31a105d4","665500ab8938657b03fbdba8","66577eb72bdbeda21619f2f1","404","stimuli/11001011.jpg"," ","","feedback_trial","1","","","","","","","","","","","","","","","","","","","","",""
"","","","","","image-keyboard-response","214","393044","0.0-189.0","5ddd730ffce606ce31a105d4","665500ab8938657b03fbdba8","66577eb72bdbeda21619f2f1","642","stimuli/2000010.jpg","2","","prediction_trial","2","","true","","2","true","true","true","true","true","true","[2]","000","010","1","","","","","","",""
"","","","","","image-keyboard-response","215","393409","0.0-190.0","5ddd730ffce606ce31a105d4","665500ab8938657b03fbdba8","66577eb72bdbeda21619f2f1","353","stimuli/20000102.jpg"," ","","feedback_trial","2","","","","","","","","","","","","","","","","","","","","",""
"","","","","","image-keyboard-response","216","395003","0.0-191.0","5ddd730ffce606ce31a105d4","665500ab8938657b03fbdba8","66577eb72bdbeda21619f2f1","1580","stimuli/0100110.jpg","0","","prediction_trial","0","","true","","0","false","false","false","true","false","false","[0]","100","110","1","","","","","","",""
"","","","","","image-keyboard-response","217","395672","0.0-192.0","5ddd730ffce606ce31a105d4","665500ab8938657b03fbdba8","66577eb72bdbeda21619f2f1","655","stimuli/01001100.jpg"," ","","feedback_trial","0","","","","","","","","","","","","","","","","","","","","",""
"","","","","","image-keyboard-response","218","397082","0.0-193.0","5ddd730ffce606ce31a105d4","665500ab8938657b03fbdba8","66577eb72bdbeda21619f2f1","1397","stimuli/2100011.jpg","1","","prediction_trial","2","","false","","2","false","false","true","true","false","false","[2]","100","011","0","","","","","","",""
"","","","","","image-keyboard-response","219","397758","0.0-194.0","5ddd730ffce606ce31a105d4","665500ab8938657b03fbdba8","66577eb72bdbeda21619f2f1","663","stimuli/21000112.jpg"," ","","feedback_trial","2","","","","","","","","","","","","","","","","","","","","",""
"","","","","","image-keyboard-response","220","398687","0.0-195.0","5ddd730ffce606ce31a105d4","665500ab8938657b03fbdba8","66577eb72bdbeda21619f2f1","916","stimuli/1001001.jpg","1","","prediction_trial","1","","true","","1","true","true","true","true","true","true","[1]","001","001","1","","","","","","",""
"","","","","","image-keyboard-response","221","399181","0.0-196.0","5ddd730ffce606ce31a105d4","665500ab8938657b03fbdba8","66577eb72bdbeda21619f2f1","482","stimuli/10010011.jpg"," ","","feedback_trial","1","","","","","","","","","","","","","","","","","","","","",""
"","","","","","image-keyboard-response","222","400212","0.0-197.0","5ddd730ffce606ce31a105d4","665500ab8938657b03fbdba8","66577eb72bdbeda21619f2f1","1018","stimuli/0011011.jpg","0","","prediction_trial","0","","true","","0","true","true","true","true","true","true","[0]","011","011","1","","","","","","",""
"","","","","","image-keyboard-response","223","400736","0.0-198.0","5ddd730ffce606ce31a105d4","665500ab8938657b03fbdba8","66577eb72bdbeda21619f2f1","510","stimuli/00110110.jpg"," ","","feedback_trial","0","","","","","","","","","","","","","","","","","","","","",""
"","","","","","image-keyboard-response","224","403270","0.0-199.0","5ddd730ffce606ce31a105d4","665500ab8938657b03fbdba8","66577eb72bdbeda21619f2f1","2522","stimuli/1010100.jpg","1","","prediction_trial","1","","true","","1","true","true","false","true","false","true","[1]","010","100","1","","","","","","",""
"","","","","","image-keyboard-response","225","403788","0.0-200.0","5ddd730ffce606ce31a105d4","665500ab8938657b03fbdba8","66577eb72bdbeda21619f2f1","505","stimuli/10101001.jpg"," ","","feedback_trial","1","","","","","","","","","","","","","","","","","","","","",""
"","","","","","image-keyboard-response","226","404686","0.0-201.0","5ddd730ffce606ce31a105d4","665500ab8938657b03fbdba8","66577eb72bdbeda21619f2f1","886","stimuli/1001101.jpg","1","","prediction_trial","1","","true","","1","true","true","true","true","true","true","[1]","001","101","1","","","","","","",""
"","","","","","image-keyboard-response","227","405131","0.0-202.0","5ddd730ffce606ce31a105d4","665500ab8938657b03fbdba8","66577eb72bdbeda21619f2f1","433","stimuli/10011011.jpg"," ","","feedback_trial","1","","","","","","","","","","","","","","","","","","","","",""
"","","","","","image-keyboard-response","228","406218","0.0-203.0","5ddd730ffce606ce31a105d4","665500ab8938657b03fbdba8","66577eb72bdbeda21619f2f1","1075","stimuli/0000100.jpg","0","","prediction_trial","0","","true","","0","false","true","true","true","false","true","[0]","000","100","1","","","","","","",""
"","","","","","image-keyboard-response","229","406713","0.0-204.0","5ddd730ffce606ce31a105d4","665500ab8938657b03fbdba8","66577eb72bdbeda21619f2f1","482","stimuli/00001000.jpg"," ","","feedback_trial","0","","","","","","","","","","","","","","","","","","","","",""
"","","","","","image-keyboard-response","230","408326","0.0-205.0","5ddd730ffce606ce31a105d4","665500ab8938657b03fbdba8","66577eb72bdbeda21619f2f1","1600","stimuli/1111100.jpg","1","","prediction_trial","0","","false","","1","true","true","false","false","false","false","[0,2,1]","111","100","0","","","","","","",""
"","","","","","image-keyboard-response","231","409080","0.0-206.0","5ddd730ffce606ce31a105d4","665500ab8938657b03fbdba8","66577eb72bdbeda21619f2f1","742","stimuli/11111000.jpg"," ","","feedback_trial","0","","","","","","","","","","","","","","","","","","","","",""
"","","","","","image-keyboard-response","232","410159","0.0-207.0","5ddd730ffce606ce31a105d4","665500ab8938657b03fbdba8","66577eb72bdbeda21619f2f1","1066","stimuli/2110001.jpg","2","","prediction_trial","2","","true","","2","false","true","true","true","false","true","[2]","110","001","1","","","","","","",""
"","","","","","image-keyboard-response","233","410756","0.0-208.0","5ddd730ffce606ce31a105d4","665500ab8938657b03fbdba8","66577eb72bdbeda21619f2f1","585","stimuli/21100012.jpg"," ","","feedback_trial","2","","","","","","","","","","","","","","","","","","","","",""
"","","","","","image-keyboard-response","234","412940","0.0-209.0","5ddd730ffce606ce31a105d4","665500ab8938657b03fbdba8","66577eb72bdbeda21619f2f1","2172","stimuli/1101111.jpg","1","","prediction_trial","1","","true","","1","false","false","true","true","false","false","[1]","101","111","1","","","","","","",""
"","","","","","image-keyboard-response","235","413525","0.0-210.0","5ddd730ffce606ce31a105d4","665500ab8938657b03fbdba8","66577eb72bdbeda21619f2f1","566","stimuli/11011111.jpg"," ","","feedback_trial","1","","","","","","","","","","","","","","","","","","","","",""
"","","","","","image-keyboard-response","236","414799","0.0-211.0","5ddd730ffce606ce31a105d4","665500ab8938657b03fbdba8","66577eb72bdbeda21619f2f1","1261","stimuli/1010111.jpg","2","","prediction_trial","1","","false","","1","false","false","false","true","false","false","[1]","010","111","0","","","","","","",""
"","","","","","image-keyboard-response","237","415671","0.0-212.0","5ddd730ffce606ce31a105d4","665500ab8938657b03fbdba8","66577eb72bdbeda21619f2f1","857","stimuli/10101111.jpg"," ","","feedback_trial","1","","","","","","","","","","","","","","","","","","","","",""
"","","","","","image-keyboard-response","238","417353","0.0-213.0","5ddd730ffce606ce31a105d4","665500ab8938657b03fbdba8","66577eb72bdbeda21619f2f1","1669","stimuli/0111011.jpg","0","","prediction_trial","0","","true","","0","true","true","false","false","false","false","[2,1,0]","111","011","1","","","","","","",""
"","","","","","image-keyboard-response","239","417923","0.0-214.0","5ddd730ffce606ce31a105d4","665500ab8938657b03fbdba8","66577eb72bdbeda21619f2f1","555","stimuli/01110110.jpg"," ","","feedback_trial","2","","","","","","","","","","","","","","","","","","","","",""
"","","","","","image-keyboard-response","240","419844","0.0-215.0","5ddd730ffce606ce31a105d4","665500ab8938657b03fbdba8","66577eb72bdbeda21619f2f1","1909","stimuli/2111011.jpg","2","","prediction_trial","2","","true","","2","false","false","false","false","false","false","[0,2,1]","111","011","1","","","","","","",""
"","","","","","image-keyboard-response","241","420554","0.0-216.0","5ddd730ffce606ce31a105d4","665500ab8938657b03fbdba8","66577eb72bdbeda21619f2f1","698","stimuli/21110112.jpg"," ","","feedback_trial","0","","","","","","","","","","","","","","","","","","","","",""
"","","","","","image-keyboard-response","242","422616","0.0-217.0","5ddd730ffce606ce31a105d4","665500ab8938657b03fbdba8","66577eb72bdbeda21619f2f1","2049","stimuli/0100001.jpg","0","","prediction_trial","0","","true","","0","true","true","false","true","false","true","[0]","100","001","1","","","","","","",""
"","","","","","image-keyboard-response","243","423083","0.0-218.0","5ddd730ffce606ce31a105d4","665500ab8938657b03fbdba8","66577eb72bdbeda21619f2f1","454","stimuli/01000010.jpg"," ","","feedback_trial","0","","","","","","","","","","","","","","","","","","","","",""
"","","","","","image-keyboard-response","244","424564","0.0-219.0","5ddd730ffce606ce31a105d4","665500ab8938657b03fbdba8","66577eb72bdbeda21619f2f1","1468","stimuli/1110110.jpg","0","","prediction_trial","0","","true","","1","false","false","false","false","false","false","[0,1]","110","110","1","","","","","","",""
"","","","","","image-keyboard-response","245","425370","0.0-220.0","5ddd730ffce606ce31a105d4","665500ab8938657b03fbdba8","66577eb72bdbeda21619f2f1","792","stimuli/11101100.jpg"," ","","feedback_trial","0","","","","","","","","","","","","","","","","","","","","",""
"","","","","","image-keyboard-response","246","427010","0.0-221.0","5ddd730ffce606ce31a105d4","665500ab8938657b03fbdba8","66577eb72bdbeda21619f2f1","1627","stimuli/0101110.jpg","1","","prediction_trial","0","","false","","0","false","false","false","false","false","false","[2,0]","101","110","0","","","","","","",""
"","","","","","image-keyboard-response","247","427723","0.0-222.0","5ddd730ffce606ce31a105d4","665500ab8938657b03fbdba8","66577eb72bdbeda21619f2f1","701","stimuli/01011100.jpg"," ","","feedback_trial","2","","","","","","","","","","","","","","","","","","","","",""
"","","","","","image-keyboard-response","248","429608","0.0-223.0","5ddd730ffce606ce31a105d4","665500ab8938657b03fbdba8","66577eb72bdbeda21619f2f1","1868","stimuli/0111001.jpg","0","","prediction_trial","0","","true","","0","true","true","false","false","false","false","[2,1,0]","111","001","1","","","","","","",""
"","","","","","image-keyboard-response","249","430449","0.0-224.0","5ddd730ffce606ce31a105d4","665500ab8938657b03fbdba8","66577eb72bdbeda21619f2f1","824","stimuli/01110010.jpg"," ","","feedback_trial","2","","","","","","","","","","","","","","","","","","","","",""
"","","","","","image-keyboard-response","250","432651","0.0-225.0","5ddd730ffce606ce31a105d4","665500ab8938657b03fbdba8","66577eb72bdbeda21619f2f1","2189","stimuli/1000011.jpg","2","","prediction_trial","1","","false","","1","false","false","true","true","false","false","[1]","000","011","0","","","","","","",""
"","","","","","image-keyboard-response","251","433334","0.0-226.0","5ddd730ffce606ce31a105d4","665500ab8938657b03fbdba8","66577eb72bdbeda21619f2f1","670","stimuli/10000111.jpg"," ","","feedback_trial","1","","","","","","","","","","","","","","","","","","","","",""
"","","","","","image-keyboard-response","252","436338","0.0-227.0","5ddd730ffce606ce31a105d4","665500ab8938657b03fbdba8","66577eb72bdbeda21619f2f1","2991","stimuli/2101111.jpg","0","","prediction_trial","0","","true","","2","false","false","false","false","false","false","[0,2]","101","111","1","","","","","","",""
"","","","","","image-keyboard-response","253","437054","0.0-228.0","5ddd730ffce606ce31a105d4","665500ab8938657b03fbdba8","66577eb72bdbeda21619f2f1","705","stimuli/21011110.jpg"," ","","feedback_trial","0","","","","","","","","","","","","","","","","","","","","",""
"","","","","","image-keyboard-response","254","438845","0.0-229.0","5ddd730ffce606ce31a105d4","665500ab8938657b03fbdba8","66577eb72bdbeda21619f2f1","1778","stimuli/2111000.jpg","2","","prediction_trial","0","","false","","2","true","true","false","false","false","false","[1,0,2]","111","000","0","","","","","","",""
"","","","","","image-keyboard-response","255","439598","0.0-230.0","5ddd730ffce606ce31a105d4","665500ab8938657b03fbdba8","66577eb72bdbeda21619f2f1","740","stimuli/21110000.jpg"," ","","feedback_trial","1","","","","","","","","","","","","","","","","","","","","",""
"","","","","","image-keyboard-response","256","441735","0.0-231.0","5ddd730ffce606ce31a105d4","665500ab8938657b03fbdba8","66577eb72bdbeda21619f2f1","2124","stimuli/2100111.jpg","1","","prediction_trial","2","","false","","2","false","false","true","true","false","false","[2]","100","111","0","","","","","","",""
"","","","","","image-keyboard-response","257","442489","0.0-232.0","5ddd730ffce606ce31a105d4","665500ab8938657b03fbdba8","66577eb72bdbeda21619f2f1","741","stimuli/21001112.jpg"," ","","feedback_trial","2","","","","","","","","","","","","","","","","","","","","",""
"","","","","","image-keyboard-response","258","443515","0.0-233.0","5ddd730ffce606ce31a105d4","665500ab8938657b03fbdba8","66577eb72bdbeda21619f2f1","1014","stimuli/1001100.jpg","1","","prediction_trial","1","","true","","1","true","true","true","true","true","true","[1]","001","100","1","","","","","","",""
"","","","","","image-keyboard-response","259","443998","0.0-234.0","5ddd730ffce606ce31a105d4","665500ab8938657b03fbdba8","66577eb72bdbeda21619f2f1","469","stimuli/10011001.jpg"," ","","feedback_trial","1","","","","","","","","","","","","","","","","","","","","",""
"","","","","","image-keyboard-response","260","445695","0.0-235.0","5ddd730ffce606ce31a105d4","665500ab8938657b03fbdba8","66577eb72bdbeda21619f2f1","1685","stimuli/0100011.jpg","0","","prediction_trial","0","","true","","0","true","true","false","true","false","true","[0]","100","011","1","","","","","","",""
"","","","","","image-keyboard-response","261","446348","0.0-236.0","5ddd730ffce606ce31a105d4","665500ab8938657b03fbdba8","66577eb72bdbeda21619f2f1","641","stimuli/01000110.jpg"," ","","feedback_trial","0","","","","","","","","","","","","","","","","","","","","",""
"","","","","","image-keyboard-response","262","448080","0.0-237.0","5ddd730ffce606ce31a105d4","665500ab8938657b03fbdba8","66577eb72bdbeda21619f2f1","1720","stimuli/0000101.jpg","2","","prediction_trial","0","","false","","0","false","false","true","true","false","false","[0]","000","101","0","","","","","","",""
"","","","","","image-keyboard-response","263","448872","0.0-238.0","5ddd730ffce606ce31a105d4","665500ab8938657b03fbdba8","66577eb72bdbeda21619f2f1","780","stimuli/00001010.jpg"," ","","feedback_trial","0","","","","","","","","","","","","","","","","","","","","",""
"","","","","","image-keyboard-response","264","451871","0.0-239.0","5ddd730ffce606ce31a105d4","665500ab8938657b03fbdba8","66577eb72bdbeda21619f2f1","2986","stimuli/2111101.jpg","0","","prediction_trial","0","","true","","2","false","false","false","false","false","false","[1,2,0]","111","101","1","","","","","","",""
"","","","","","image-keyboard-response","265","452476","0.0-240.0","5ddd730ffce606ce31a105d4","665500ab8938657b03fbdba8","66577eb72bdbeda21619f2f1","591","stimuli/21111010.jpg"," ","","feedback_trial","1","","","","","","","","","","","","","","","","","","","","",""
"","","","","","image-keyboard-response","266","454301","0.0-241.0","5ddd730ffce606ce31a105d4","665500ab8938657b03fbdba8","66577eb72bdbeda21619f2f1","1811","stimuli/1010000.jpg","1","","prediction_trial","1","","true","","1","true","true","false","true","false","true","[1]","010","000","1","","","","","","",""
"","","","","","image-keyboard-response","267","454837","0.0-242.0","5ddd730ffce606ce31a105d4","665500ab8938657b03fbdba8","66577eb72bdbeda21619f2f1","524","stimuli/10100001.jpg"," ","","feedback_trial","1","","","","","","","","","","","","","","","","","","","","",""
"","","","","","image-keyboard-response","268","457900","0.0-243.0","5ddd730ffce606ce31a105d4","665500ab8938657b03fbdba8","66577eb72bdbeda21619f2f1","3050","stimuli/1100011.jpg","2","","prediction_trial","1","","false","","1","false","false","true","true","false","false","[1]","100","011","0","","","","","","",""
"","","","","","image-keyboard-response","269","458630","0.0-244.0","5ddd730ffce606ce31a105d4","665500ab8938657b03fbdba8","66577eb72bdbeda21619f2f1","717","stimuli/11000111.jpg"," ","","feedback_trial","1","","","","","","","","","","","","","","","","","","","","",""
"","","","","","image-keyboard-response","270","459599","0.0-245.0","5ddd730ffce606ce31a105d4","665500ab8938657b03fbdba8","66577eb72bdbeda21619f2f1","956","stimuli/0010001.jpg","0","","prediction_trial","0","","true","","0","true","true","true","true","true","true","[0]","010","001","1","","","","","","",""
"","","","","","image-keyboard-response","271","460044","0.0-246.0","5ddd730ffce606ce31a105d4","665500ab8938657b03fbdba8","66577eb72bdbeda21619f2f1","432","stimuli/00100010.jpg"," ","","feedback_trial","0","","","","","","","","","","","","","","","","","","","","",""
"","","","","","image-keyboard-response","272","461601","0.0-247.0","5ddd730ffce606ce31a105d4","665500ab8938657b03fbdba8","66577eb72bdbeda21619f2f1","1544","stimuli/1111011.jpg","2","","prediction_trial","0","","false","","1","false","false","false","false","false","false","[2,0,1]","111","011","0","","","","","","",""
"","","","","","image-keyboard-response","273","462363","0.0-248.0","5ddd730ffce606ce31a105d4","665500ab8938657b03fbdba8","66577eb72bdbeda21619f2f1","749","stimuli/11110110.jpg"," ","","feedback_trial","2","","","","","","","","","","","","","","","","","","","","",""
"","","","","","image-keyboard-response","274","464809","0.0-249.0","5ddd730ffce606ce31a105d4","665500ab8938657b03fbdba8","66577eb72bdbeda21619f2f1","2429","stimuli/2101000.jpg","2","","prediction_trial","2","","true","","2","true","true","false","false","false","false","[0,2]","101","000","1","","","","","","",""
"","","","","","image-keyboard-response","275","465494","0.0-250.0","5ddd730ffce606ce31a105d4","665500ab8938657b03fbdba8","66577eb72bdbeda21619f2f1","672","stimuli/21010002.jpg"," ","","feedback_trial","0","","","","","","","","","","","","","","","","","","","","",""
"","","","","","image-keyboard-response","276","466540","0.0-251.0","5ddd730ffce606ce31a105d4","665500ab8938657b03fbdba8","66577eb72bdbeda21619f2f1","1034","stimuli/0000000.jpg","0","","prediction_trial","0","","true","","0","true","true","true","true","true","true","[0]","000","000","1","","","","","","",""
"","","","","","image-keyboard-response","277","466997","0.0-252.0","5ddd730ffce606ce31a105d4","665500ab8938657b03fbdba8","66577eb72bdbeda21619f2f1","445","stimuli/00000000.jpg"," ","","feedback_trial","0","","","","","","","","","","","","","","","","","","","","",""
"","","","","","image-keyboard-response","278","468477","0.0-253.0","5ddd730ffce606ce31a105d4","665500ab8938657b03fbdba8","66577eb72bdbeda21619f2f1","1468","stimuli/2001010.jpg","2","","prediction_trial","2","","true","","2","true","true","false","true","false","true","[2]","001","010","1","","","","","","",""
"","","","","","image-keyboard-response","279","468866","0.0-254.0","5ddd730ffce606ce31a105d4","665500ab8938657b03fbdba8","66577eb72bdbeda21619f2f1","376","stimuli/20010102.jpg"," ","","feedback_trial","2","","","","","","","","","","","","","","","","","","","","",""
"","","","","","image-keyboard-response","280","470041","0.0-255.0","5ddd730ffce606ce31a105d4","665500ab8938657b03fbdba8","66577eb72bdbeda21619f2f1","1161","stimuli/0100000.jpg","0","","prediction_trial","0","","true","","0","true","true","false","true","false","true","[0]","100","000","1","","","","","","",""
"","","","","","image-keyboard-response","281","470398","0.0-256.0","5ddd730ffce606ce31a105d4","665500ab8938657b03fbdba8","66577eb72bdbeda21619f2f1","345","stimuli/01000000.jpg"," ","","feedback_trial","0","","","","","","","","","","","","","","","","","","","","",""
"","","","","","image-keyboard-response","282","472461","0.0-257.0","5ddd730ffce606ce31a105d4","665500ab8938657b03fbdba8","66577eb72bdbeda21619f2f1","2050","stimuli/0101100.jpg","0","","prediction_trial","0","","true","","0","false","true","false","false","false","false","[2,0]","101","100","1","","","","","","",""
"","","","","","image-keyboard-response","283","473157","0.0-258.0","5ddd730ffce606ce31a105d4","665500ab8938657b03fbdba8","66577eb72bdbeda21619f2f1","684","stimuli/01011000.jpg"," ","","feedback_trial","2","","","","","","","","","","","","","","","","","","","","",""
"","","","","","image-keyboard-response","284","474047","0.0-259.0","5ddd730ffce606ce31a105d4","665500ab8938657b03fbdba8","66577eb72bdbeda21619f2f1","877","stimuli/2100010.jpg","2","","prediction_trial","2","","true","","2","true","true","true","true","true","true","[2]","100","010","1","","","","","","",""
"","","","","","image-keyboard-response","285","474432","0.0-260.0","5ddd730ffce606ce31a105d4","665500ab8938657b03fbdba8","66577eb72bdbeda21619f2f1","373","stimuli/21000102.jpg"," ","","feedback_trial","2","","","","","","","","","","","","","","","","","","","","",""
"","","","","","image-keyboard-response","286","475757","0.0-261.0","5ddd730ffce606ce31a105d4","665500ab8938657b03fbdba8","66577eb72bdbeda21619f2f1","1311","stimuli/0110100.jpg","0","","prediction_trial","0","","true","","0","false","true","false","false","false","false","[0,1]","110","100","1","","","","","","",""
"","","","","","image-keyboard-response","287","476288","0.0-262.0","5ddd730ffce606ce31a105d4","665500ab8938657b03fbdba8","66577eb72bdbeda21619f2f1","519","stimuli/01101000.jpg"," ","","feedback_trial","0","","","","","","","","","","","","","","","","","","","","",""
"","","","","","image-keyboard-response","288","479448","0.0-263.0","5ddd730ffce606ce31a105d4","665500ab8938657b03fbdba8","66577eb72bdbeda21619f2f1","3147","stimuli/0110011.jpg","1","","prediction_trial","0","","false","","0","true","true","false","false","false","false","[1,0]","110","011","0","","","","","","",""
"","","","","","image-keyboard-response","289","479969","0.0-264.0","5ddd730ffce606ce31a105d4","665500ab8938657b03fbdba8","66577eb72bdbeda21619f2f1","508","stimuli/01100110.jpg"," ","","feedback_trial","1","","","","","","","","","","","","","","","","","","","","",""
"","","","","","image-keyboard-response","290","481239","0.0-265.0","5ddd730ffce606ce31a105d4","665500ab8938657b03fbdba8","66577eb72bdbeda21619f2f1","1258","stimuli/2110101.jpg","0","","prediction_trial","2","","false","","2","false","false","true","true","false","false","[2]","110","101","0","","","","","","",""
"","","","","","image-keyboard-response","291","482165","0.0-266.0","5ddd730ffce606ce31a105d4","665500ab8938657b03fbdba8","66577eb72bdbeda21619f2f1","914","stimuli/21101012.jpg"," ","","feedback_trial","2","","","","","","","","","","","","","","","","","","","","",""
"","","","","","image-keyboard-response","292","484739","0.0-267.0","5ddd730ffce606ce31a105d4","665500ab8938657b03fbdba8","66577eb72bdbeda21619f2f1","2561","stimuli/0111010.jpg","2","","prediction_trial","2","","true","","0","true","true","false","false","false","false","[0,2,1]","111","010","1","","","","","","",""
"","","","","","image-keyboard-response","293","485285","0.0-268.0","5ddd730ffce606ce31a105d4","665500ab8938657b03fbdba8","66577eb72bdbeda21619f2f1","528","stimuli/01110102.jpg"," ","","feedback_trial","0","","","","","","","","","","","","","","","","","","","","",""
"","","","","","image-keyboard-response","294","487255","0.0-269.0","5ddd730ffce606ce31a105d4","665500ab8938657b03fbdba8","66577eb72bdbeda21619f2f1","1957","stimuli/1011001.jpg","1","","prediction_trial","2","","false","","1","true","true","false","false","false","false","[2,1]","011","001","0","","","","","","",""
"","","","","","image-keyboard-response","295","487839","0.0-270.0","5ddd730ffce606ce31a105d4","665500ab8938657b03fbdba8","66577eb72bdbeda21619f2f1","571","stimuli/10110012.jpg"," ","","feedback_trial","2","","","","","","","","","","","","","","","","","","","","",""
"","","","","","image-keyboard-response","296","490137","0.0-271.0","5ddd730ffce606ce31a105d4","665500ab8938657b03fbdba8","66577eb72bdbeda21619f2f1","2286","stimuli/0011110.jpg","1","","prediction_trial","0","","false","","0","false","false","true","true","false","false","[0]","011","110","0","","","","","","",""
"","","","","","image-keyboard-response","297","490687","0.0-272.0","5ddd730ffce606ce31a105d4","665500ab8938657b03fbdba8","66577eb72bdbeda21619f2f1","538","stimuli/00111100.jpg"," ","","feedback_trial","0","","","","","","","","","","","","","","","","","","","","",""
"","","","","","image-keyboard-response","298","493263","0.0-273.0","5ddd730ffce606ce31a105d4","665500ab8938657b03fbdba8","66577eb72bdbeda21619f2f1","2563","stimuli/2001000.jpg","2","","prediction_trial","2","","true","","2","true","true","false","true","false","true","[2]","001","000","1","","","","","","",""
"","","","","","image-keyboard-response","299","493776","0.0-274.0","5ddd730ffce606ce31a105d4","665500ab8938657b03fbdba8","66577eb72bdbeda21619f2f1","500","stimuli/20010002.jpg"," ","","feedback_trial","2","","","","","","","","","","","","","","","","","","","","",""
"","","","","","image-keyboard-response","300","495234","0.0-275.0","5ddd730ffce606ce31a105d4","665500ab8938657b03fbdba8","66577eb72bdbeda21619f2f1","1446","stimuli/0011111.jpg","0","","prediction_trial","0","","true","","0","false","false","true","true","false","false","[0]","011","111","1","","","","","","",""
"","","","","","image-keyboard-response","301","495742","0.0-276.0","5ddd730ffce606ce31a105d4","665500ab8938657b03fbdba8","66577eb72bdbeda21619f2f1","495","stimuli/00111110.jpg"," ","","feedback_trial","0","","","","","","","","","","","","","","","","","","","","",""
"","","","","","image-keyboard-response","302","497520","0.0-277.0","5ddd730ffce606ce31a105d4","665500ab8938657b03fbdba8","66577eb72bdbeda21619f2f1","1765","stimuli/0010110.jpg","0","","prediction_trial","0","","true","","0","false","false","true","true","false","false","[0]","010","110","1","","","","","","",""
"","","","","","image-keyboard-response","303","498122","0.0-278.0","5ddd730ffce606ce31a105d4","665500ab8938657b03fbdba8","66577eb72bdbeda21619f2f1","589","stimuli/00101100.jpg"," ","","feedback_trial","0","","","","","","","","","","","","","","","","","","","","",""
"","","","","","image-keyboard-response","304","499370","0.0-279.0","5ddd730ffce606ce31a105d4","665500ab8938657b03fbdba8","66577eb72bdbeda21619f2f1","1231","stimuli/1110010.jpg","1","","prediction_trial","0","","false","","1","false","true","false","false","false","false","[0,1]","110","010","0","","","","","","",""
"","","","","","image-keyboard-response","305","500215","0.0-280.0","5ddd730ffce606ce31a105d4","665500ab8938657b03fbdba8","66577eb72bdbeda21619f2f1","833","stimuli/11100100.jpg"," ","","feedback_trial","0","","","","","","","","","","","","","","","","","","","","",""
"","","","","","image-keyboard-response","306","501458","0.0-281.0","5ddd730ffce606ce31a105d4","665500ab8938657b03fbdba8","66577eb72bdbeda21619f2f1","1230","stimuli/1011100.jpg","1","","prediction_trial","2","","false","","1","true","true","false","false","false","false","[2,1]","011","100","0","","","","","","",""
"","","","","","image-keyboard-response","307","501990","0.0-282.0","5ddd730ffce606ce31a105d4","665500ab8938657b03fbdba8","66577eb72bdbeda21619f2f1","520","stimuli/10111002.jpg"," ","","feedback_trial","2","","","","","","","","","","","","","","","","","","","","",""
"","","","","","image-keyboard-response","308","503661","0.0-283.0","5ddd730ffce606ce31a105d4","665500ab8938657b03fbdba8","66577eb72bdbeda21619f2f1","1659","stimuli/0111000.jpg","0","","prediction_trial","1","","false","","0","true","true","false","false","false","false","[0,1,2]","111","000","0","","","","","","",""
"","","","","","image-keyboard-response","309","504276","0.0-284.0","5ddd730ffce606ce31a105d4","665500ab8938657b03fbdba8","66577eb72bdbeda21619f2f1","602","stimuli/01110001.jpg"," ","","feedback_trial","0","","","","","","","","","","","","","","","","","","","","",""
"","","","","","image-keyboard-response","310","506278","0.0-285.0","5ddd730ffce606ce31a105d4","665500ab8938657b03fbdba8","66577eb72bdbeda21619f2f1","1989","stimuli/1110100.jpg","1","","prediction_trial","1","","true","","1","true","true","false","false","false","false","[1,0]","110","100","1","","","","","","",""
"","","","","","image-keyboard-response","311","506857","0.0-286.0","5ddd730ffce606ce31a105d4","665500ab8938657b03fbdba8","66577eb72bdbeda21619f2f1","567","stimuli/11101001.jpg"," ","","feedback_trial","1","","","","","","","","","","","","","","","","","","","","",""
"","","","","","image-keyboard-response","312","508773","0.0-287.0","5ddd730ffce606ce31a105d4","665500ab8938657b03fbdba8","66577eb72bdbeda21619f2f1","1903","stimuli/2111001.jpg","2","","prediction_trial","0","","false","","2","false","true","false","false","false","false","[0,2,1]","111","001","0","","","","","","",""
"","","","","","image-keyboard-response","313","509415","0.0-288.0","5ddd730ffce606ce31a105d4","665500ab8938657b03fbdba8","66577eb72bdbeda21619f2f1","629","stimuli/21110010.jpg"," ","","feedback_trial","0","","","","","","","","","","","","","","","","","","","","",""
"","","","","","image-keyboard-response","314","510942","0.0-289.0","5ddd730ffce606ce31a105d4","665500ab8938657b03fbdba8","66577eb72bdbeda21619f2f1","1514","stimuli/2010101.jpg","2","","prediction_trial","2","","true","","2","false","false","true","true","false","false","[2]","010","101","1","","","","","","",""
"","","","","","image-keyboard-response","315","511583","0.0-290.0","5ddd730ffce606ce31a105d4","665500ab8938657b03fbdba8","66577eb72bdbeda21619f2f1","628","stimuli/20101012.jpg"," ","","feedback_trial","2","","","","","","","","","","","","","","","","","","","","",""
"","","","","","image-keyboard-response","316","514772","0.0-291.0","5ddd730ffce606ce31a105d4","665500ab8938657b03fbdba8","66577eb72bdbeda21619f2f1","3177","stimuli/1011101.jpg","1","","prediction_trial","2","","false","","1","true","true","false","false","false","false","[1,2]","011","101","0","","","","","","",""
"","","","","","image-keyboard-response","317","515296","0.0-292.0","5ddd730ffce606ce31a105d4","665500ab8938657b03fbdba8","66577eb72bdbeda21619f2f1","506","stimuli/10111012.jpg"," ","","feedback_trial","1","","","","","","","","","","","","","","","","","","","","",""
"","","","","","survey-html-form","318","588678","0.0-293.0","5ddd730ffce606ce31a105d4","665500ab8938657b03fbdba8","66577eb72bdbeda21619f2f1","73382","","{""feedback"":""mostly I just went with what I felt or what was logical"",""age"":""42"",""gender"":""Female"",""other_gender"":"""",""race"":""White"",""other_race"":"""",""ethnicity"":""Non-Hispanic""}","","exit_survey","","","","","","","","","","","","","","","","mostly I just went with what I felt or what was logical","42","Non-Hispanic","Female","White","0.6597222222222222","0.6597222222222222"
