"success","timeout","failed_images","failed_audio","failed_video","trial_type","trial_index","time_elapsed","internal_node_id","prolific_id","prolific_study_id","prolific_session_id","rt","stimulus","response","view_history","trial","character_choice","stimulus_dict","accuracy","correct_response","ball_pos","ego_ball_visible","ego_can_infer","alter_ball_visible","alter_can_infer","collective_ball_visible","collective_can_infer","search_locations","alter_occluders","ego_occluders","accuracy_bool","feedback","age","ethnicity","gender","race","overall_accuracy","bonus"
"true","false","[]","[]","[]","preload","0","4082","0.0-0.0","611bed11fa6a3b35c9226c29","665500ab8938657b03fbdba8","6657924a1bed3a3a59b99006","","","","","","","","","","","","","","","","","","","","","","","","","","",""
"true","","","","","fullscreen","1","7685","0.0-1.0","611bed11fa6a3b35c9226c29","665500ab8938657b03fbdba8","6657924a1bed3a3a59b99006","","","","","","","","","","","","","","","","","","","","","","","","","","",""
"","","","","","html-button-response","2","17150","0.0-2.0","611bed11fa6a3b35c9226c29","665500ab8938657b03fbdba8","6657924a1bed3a3a59b99006","9456","<p><b>Consent Form</b></p> <div style=""text-align:left;background-color:lightgrey; padding:20px; max-width:900px;""><p>Please consider this information carefully before deciding whether to participate in this research.</p> <p>The purpose of this research is to examine which factors influence social judgment and decision-making. You will be asked to make judgements about individuals and actions in social scenarios. We are simply interested in your judgement. The study will take less than 1 hour to complete, and you will receive less than $20 on Prolific. Your compensation and time commitment are specified in the study description. There are no anticipated risks associated with participating in this study. The effects of participating should be comparable to those you would ordinarily experience from viewing a computer monitor and using a mouse or keyboard for a similar amount of time. At the end of the study, we will provide an explanation of the questions that motivate this line of research and will describe the potential implications. </p><p> Your participation in this study is completely voluntary and you may refuse to participate or you may choose to withdraw at any time without penalty or loss of benefits to you which are otherwise entitled. Your participation in this study will remain confidential. No personally identifiable information will be associated with your data. Also, all analyses of the data will be averaged across all the participants, so your individual responses will never be specifically analyzed. </p><p> If you have questions or concerns about your participation or payment, or want to request a summary of research findings, please contact Dr. Jonathan Phillips at Jonathan.S.Phillips@dartmouth.edu. </p><p> Please save a copy of this form for your records. </p><p><b>Agreement: </b>The nature and purpose of this research have been sufficiently explained and I agree to participate in this study. I understand that I am free to withdraw at any time without incurring any penalty. Please consent by clicking the button below to continue. Otherwise, please exit the study at any time. </p>","0","","","","","","","","","","","","","","","","","","","","","","","",""
"","","","","","instructions","3","99024","0.0-3.0-0.0","611bed11fa6a3b35c9226c29","665500ab8938657b03fbdba8","6657924a1bed3a3a59b99006","81871","","","[{""page_index"":0,""viewing_time"":2431},{""page_index"":1,""viewing_time"":3673},{""page_index"":2,""viewing_time"":2455},{""page_index"":3,""viewing_time"":8066},{""page_index"":4,""viewing_time"":5150},{""page_index"":5,""viewing_time"":3369},{""page_index"":6,""viewing_time"":5569},{""page_index"":7,""viewing_time"":4751},{""page_index"":8,""viewing_time"":4041},{""page_index"":9,""viewing_time"":3248},{""page_index"":10,""viewing_time"":11786},{""page_index"":11,""viewing_time"":9423},{""page_index"":12,""viewing_time"":15516},{""page_index"":13,""viewing_time"":2392}]","intro","","","","","","","","","","","","","","","","","","","","","",""
"","","","","","image-keyboard-response","4","104417","0.0-3.0-1.0","611bed11fa6a3b35c9226c29","665500ab8938657b03fbdba8","6657924a1bed3a3a59b99006","5378","stimuli/1101101.jpg","1","","prediction_practice","1","{""filepath"":""stimuli/1101101.jpg"",""ball_pos"":1,""ego_ball_visible"":true,""ego_can_infer"":true,""alter_ball_visible"":true,""alter_can_infer"":true,""collective_ball_visible"":true,""collective_can_infer"":true,""search_locations"":[1],""alter_occluders"":""101"",""ego_occluders"":""101""}","true","","","","","","","","","","","","","","","","","","",""
"","","","","","image-keyboard-response","5","107174","0.0-3.0-2.0","611bed11fa6a3b35c9226c29","665500ab8938657b03fbdba8","6657924a1bed3a3a59b99006","2755","stimuli/11011011.jpg"," ","","practrice_feedback","1","","","","","","","","","","","","","","","","","","","","",""
"","","","","","image-keyboard-response","6","109394","0.0-3.0-3.0","611bed11fa6a3b35c9226c29","665500ab8938657b03fbdba8","6657924a1bed3a3a59b99006","2216","stimuli/2100100.jpg","2","","prediction_practice","2","{""filepath"":""stimuli/2100100.jpg"",""ball_pos"":2,""ego_ball_visible"":true,""ego_can_infer"":true,""alter_ball_visible"":true,""alter_can_infer"":true,""collective_ball_visible"":true,""collective_can_infer"":true,""search_locations"":[2],""alter_occluders"":""100"",""ego_occluders"":""100""}","true","","","","","","","","","","","","","","","","","","",""
"","","","","","image-keyboard-response","7","110746","0.0-3.0-4.0","611bed11fa6a3b35c9226c29","665500ab8938657b03fbdba8","6657924a1bed3a3a59b99006","1348","stimuli/21001002.jpg"," ","","practrice_feedback","2","","","","","","","","","","","","","","","","","","","","",""
"","","","","","image-keyboard-response","8","118370","0.0-3.0-5.0","611bed11fa6a3b35c9226c29","665500ab8938657b03fbdba8","6657924a1bed3a3a59b99006","7621","stimuli/2001010.jpg","2","","prediction_practice","2","{""filepath"":""stimuli/2001010.jpg"",""ball_pos"":2,""ego_ball_visible"":true,""ego_can_infer"":true,""alter_ball_visible"":false,""alter_can_infer"":true,""collective_ball_visible"":false,""collective_can_infer"":true,""search_locations"":[2],""alter_occluders"":""001"",""ego_occluders"":""010""}","true","","","","","","","","","","","","","","","","","","",""
"","","","","","image-keyboard-response","9","119030","0.0-3.0-6.0","611bed11fa6a3b35c9226c29","665500ab8938657b03fbdba8","6657924a1bed3a3a59b99006","657","stimuli/20010102.jpg"," ","","practrice_feedback","2","","","","","","","","","","","","","","","","","","","","",""
"","","","","","image-keyboard-response","10","121122","0.0-3.0-7.0","611bed11fa6a3b35c9226c29","665500ab8938657b03fbdba8","6657924a1bed3a3a59b99006","2088","stimuli/1101000.jpg","1","","prediction_practice","1","{""filepath"":""stimuli/1101000.jpg"",""ball_pos"":1,""ego_ball_visible"":true,""ego_can_infer"":true,""alter_ball_visible"":true,""alter_can_infer"":true,""collective_ball_visible"":true,""collective_can_infer"":true,""search_locations"":[1],""alter_occluders"":""101"",""ego_occluders"":""000""}","true","","","","","","","","","","","","","","","","","","",""
"","","","","","image-keyboard-response","11","121697","0.0-3.0-8.0","611bed11fa6a3b35c9226c29","665500ab8938657b03fbdba8","6657924a1bed3a3a59b99006","571","stimuli/11010001.jpg"," ","","practrice_feedback","1","","","","","","","","","","","","","","","","","","","","",""
"","","","","","image-keyboard-response","12","125353","0.0-3.0-9.0","611bed11fa6a3b35c9226c29","665500ab8938657b03fbdba8","6657924a1bed3a3a59b99006","3652","stimuli/0110111.jpg","0","","prediction_practice","1","{""filepath"":""stimuli/0110111.jpg"",""ball_pos"":0,""ego_ball_visible"":false,""ego_can_infer"":false,""alter_ball_visible"":false,""alter_can_infer"":false,""collective_ball_visible"":false,""collective_can_infer"":false,""search_locations"":[1,0],""alter_occluders"":""110"",""ego_occluders"":""111""}","false","","","","","","","","","","","","","","","","","","",""
"","","","","","image-keyboard-response","13","129598","0.0-3.0-10.0","611bed11fa6a3b35c9226c29","665500ab8938657b03fbdba8","6657924a1bed3a3a59b99006","4242","stimuli/01101111.jpg"," ","","practrice_feedback","1","","","","","","","","","","","","","","","","","","","","",""
"","","","","","image-keyboard-response","14","131074","0.0-3.0-11.0","611bed11fa6a3b35c9226c29","665500ab8938657b03fbdba8","6657924a1bed3a3a59b99006","1471","stimuli/2010010.jpg","2","","prediction_practice","2","{""filepath"":""stimuli/2010010.jpg"",""ball_pos"":2,""ego_ball_visible"":true,""ego_can_infer"":true,""alter_ball_visible"":true,""alter_can_infer"":true,""collective_ball_visible"":true,""collective_can_infer"":true,""search_locations"":[2],""alter_occluders"":""010"",""ego_occluders"":""010""}","true","","","","","","","","","","","","","","","","","","",""
"","","","","","image-keyboard-response","15","131701","0.0-3.0-12.0","611bed11fa6a3b35c9226c29","665500ab8938657b03fbdba8","6657924a1bed3a3a59b99006","625","stimuli/20100102.jpg"," ","","practrice_feedback","2","","","","","","","","","","","","","","","","","","","","",""
"","","","","","image-keyboard-response","16","133036","0.0-3.0-13.0","611bed11fa6a3b35c9226c29","665500ab8938657b03fbdba8","6657924a1bed3a3a59b99006","1332","stimuli/1000100.jpg","1","","prediction_practice","1","{""filepath"":""stimuli/1000100.jpg"",""ball_pos"":1,""ego_ball_visible"":true,""ego_can_infer"":true,""alter_ball_visible"":true,""alter_can_infer"":true,""collective_ball_visible"":true,""collective_can_infer"":true,""search_locations"":[1],""alter_occluders"":""000"",""ego_occluders"":""100""}","true","","","","","","","","","","","","","","","","","","",""
"","","","","","image-keyboard-response","17","133504","0.0-3.0-14.0","611bed11fa6a3b35c9226c29","665500ab8938657b03fbdba8","6657924a1bed3a3a59b99006","443","stimuli/10001001.jpg"," ","","practrice_feedback","1","","","","","","","","","","","","","","","","","","","","",""
"","","","","","image-keyboard-response","18","135657","0.0-3.0-15.0","611bed11fa6a3b35c9226c29","665500ab8938657b03fbdba8","6657924a1bed3a3a59b99006","2149","stimuli/2010101.jpg","0","","prediction_practice","2","{""filepath"":""stimuli/2010101.jpg"",""ball_pos"":2,""ego_ball_visible"":false,""ego_can_infer"":false,""alter_ball_visible"":true,""alter_can_infer"":true,""collective_ball_visible"":false,""collective_can_infer"":false,""search_locations"":[2],""alter_occluders"":""010"",""ego_occluders"":""101""}","false","","","","","","","","","","","","","","","","","","",""
"","","","","","image-keyboard-response","19","136705","0.0-3.0-16.0","611bed11fa6a3b35c9226c29","665500ab8938657b03fbdba8","6657924a1bed3a3a59b99006","1045","stimuli/20101012.jpg"," ","","practrice_feedback","2","","","","","","","","","","","","","","","","","","","","",""
"","","","","","image-keyboard-response","20","139005","0.0-3.0-17.0","611bed11fa6a3b35c9226c29","665500ab8938657b03fbdba8","6657924a1bed3a3a59b99006","2297","stimuli/2110010.jpg","2","","prediction_practice","2","{""filepath"":""stimuli/2110010.jpg"",""ball_pos"":2,""ego_ball_visible"":true,""ego_can_infer"":true,""alter_ball_visible"":true,""alter_can_infer"":true,""collective_ball_visible"":true,""collective_can_infer"":true,""search_locations"":[2],""alter_occluders"":""110"",""ego_occluders"":""010""}","true","","","","","","","","","","","","","","","","","","",""
"","","","","","image-keyboard-response","21","139543","0.0-3.0-18.0","611bed11fa6a3b35c9226c29","665500ab8938657b03fbdba8","6657924a1bed3a3a59b99006","535","stimuli/21100102.jpg"," ","","practrice_feedback","2","","","","","","","","","","","","","","","","","","","","",""
"","","","","","image-keyboard-response","22","141637","0.0-3.0-19.0","611bed11fa6a3b35c9226c29","665500ab8938657b03fbdba8","6657924a1bed3a3a59b99006","2089","stimuli/1100110.jpg","0","","prediction_practice","1","{""filepath"":""stimuli/1100110.jpg"",""ball_pos"":1,""ego_ball_visible"":false,""ego_can_infer"":false,""alter_ball_visible"":true,""alter_can_infer"":true,""collective_ball_visible"":false,""collective_can_infer"":false,""search_locations"":[1],""alter_occluders"":""100"",""ego_occluders"":""110""}","false","","","","","","","","","","","","","","","","","","",""
"","","","","","image-keyboard-response","23","142638","0.0-3.0-20.0","611bed11fa6a3b35c9226c29","665500ab8938657b03fbdba8","6657924a1bed3a3a59b99006","998","stimuli/11001101.jpg"," ","","practrice_feedback","1","","","","","","","","","","","","","","","","","","","","",""
"","","","","","html-button-response","24","151607","0.0-3.0-21.0","611bed11fa6a3b35c9226c29","665500ab8938657b03fbdba8","6657924a1bed3a3a59b99006","8966","Now that you've had some practice, you'll be tested with a couple of easy trials. If you correctly predict Sam's choice, you'll move on to complete the experiment!","0","","","","","","","","","","","","","","","","","","","","","","","",""
"","","","","","image-keyboard-response","25","153147","0.0-3.0-22.0-0.0","611bed11fa6a3b35c9226c29","665500ab8938657b03fbdba8","6657924a1bed3a3a59b99006","1536","stimuli/0000011.jpg","arrowleft","","comprehension_quiz","","","true","arrowleft","","","","","","","","","","","","","","","","","",""
"","","","","","image-keyboard-response","26","153923","0.0-3.0-22.0-1.0","611bed11fa6a3b35c9226c29","665500ab8938657b03fbdba8","6657924a1bed3a3a59b99006","771","stimuli/00000110.jpg"," ","","comprehension_quiz","","","true"," ","","","","","","","","","","","","","","","","","",""
"","","","","","image-keyboard-response","27","155611","0.0-3.0-22.0-2.0","611bed11fa6a3b35c9226c29","665500ab8938657b03fbdba8","6657924a1bed3a3a59b99006","1665","stimuli/1010010.jpg","arrowdown","","comprehension_quiz","","","true","arrowdown","","","","","","","","","","","","","","","","","",""
"","","","","","image-keyboard-response","28","156199","0.0-3.0-22.0-3.0","611bed11fa6a3b35c9226c29","665500ab8938657b03fbdba8","6657924a1bed3a3a59b99006","585","stimuli/10100101.jpg"," ","","comprehension_quiz","","","true"," ","","","","","","","","","","","","","","","","","",""
"","","","","","html-button-response","29","160133","0.0-4.0","611bed11fa6a3b35c9226c29","665500ab8938657b03fbdba8","6657924a1bed3a3a59b99006","3930","The experiment will now begin.","0","","","","","","","","","","","","","","","","","","","","","","","",""
"","","","","","image-keyboard-response","30","161804","0.0-5.0","611bed11fa6a3b35c9226c29","665500ab8938657b03fbdba8","6657924a1bed3a3a59b99006","1667","stimuli/1111001.jpg","1","","prediction_trial","0","","false","","1","true","true","false","false","false","false","[0,1,2]","111","001","0","","","","","","",""
"","","","","","image-keyboard-response","31","165336","0.0-6.0","611bed11fa6a3b35c9226c29","665500ab8938657b03fbdba8","6657924a1bed3a3a59b99006","3527","stimuli/11110010.jpg"," ","","feedback_trial","0","","","","","","","","","","","","","","","","","","","","",""
"","","","","","image-keyboard-response","32","166824","0.0-7.0","611bed11fa6a3b35c9226c29","665500ab8938657b03fbdba8","6657924a1bed3a3a59b99006","1485","stimuli/2001100.jpg","2","","prediction_trial","2","","true","","2","true","true","false","true","false","true","[2]","001","100","1","","","","","","",""
"","","","","","image-keyboard-response","33","167838","0.0-8.0","611bed11fa6a3b35c9226c29","665500ab8938657b03fbdba8","6657924a1bed3a3a59b99006","1009","stimuli/20011002.jpg"," ","","feedback_trial","2","","","","","","","","","","","","","","","","","","","","",""
"","","","","","image-keyboard-response","34","169819","0.0-9.0","611bed11fa6a3b35c9226c29","665500ab8938657b03fbdba8","6657924a1bed3a3a59b99006","1978","stimuli/2110011.jpg","1","","prediction_trial","2","","false","","2","false","false","true","true","false","false","[2]","110","011","0","","","","","","",""
"","","","","","image-keyboard-response","35","171152","0.0-10.0","611bed11fa6a3b35c9226c29","665500ab8938657b03fbdba8","6657924a1bed3a3a59b99006","1329","stimuli/21100112.jpg"," ","","feedback_trial","2","","","","","","","","","","","","","","","","","","","","",""
"","","","","","image-keyboard-response","36","172284","0.0-11.0","611bed11fa6a3b35c9226c29","665500ab8938657b03fbdba8","6657924a1bed3a3a59b99006","1128","stimuli/0110001.jpg","0","","prediction_trial","0","","true","","0","true","true","false","false","false","false","[1,0]","110","001","1","","","","","","",""
"","","","","","image-keyboard-response","37","172829","0.0-12.0","611bed11fa6a3b35c9226c29","665500ab8938657b03fbdba8","6657924a1bed3a3a59b99006","523","stimuli/01100010.jpg"," ","","feedback_trial","1","","","","","","","","","","","","","","","","","","","","",""
"","","","","","image-keyboard-response","38","173578","0.0-13.0","611bed11fa6a3b35c9226c29","665500ab8938657b03fbdba8","6657924a1bed3a3a59b99006","747","stimuli/2110000.jpg","2","","prediction_trial","2","","true","","2","true","true","true","true","true","true","[2]","110","000","1","","","","","","",""
"","","","","","image-keyboard-response","39","174047","0.0-14.0","611bed11fa6a3b35c9226c29","665500ab8938657b03fbdba8","6657924a1bed3a3a59b99006","466","stimuli/21100002.jpg"," ","","feedback_trial","2","","","","","","","","","","","","","","","","","","","","",""
"","","","","","image-keyboard-response","40","175870","0.0-15.0","611bed11fa6a3b35c9226c29","665500ab8938657b03fbdba8","6657924a1bed3a3a59b99006","1819","stimuli/2011101.jpg","2","","prediction_trial","2","","true","","2","false","false","false","false","false","false","[1,2]","011","101","1","","","","","","",""
"","","","","","image-keyboard-response","41","176658","0.0-16.0","611bed11fa6a3b35c9226c29","665500ab8938657b03fbdba8","6657924a1bed3a3a59b99006","785","stimuli/20111012.jpg"," ","","feedback_trial","1","","","","","","","","","","","","","","","","","","","","",""
"","","","","","image-keyboard-response","42","179017","0.0-17.0","611bed11fa6a3b35c9226c29","665500ab8938657b03fbdba8","6657924a1bed3a3a59b99006","2356","stimuli/1111101.jpg","1","","prediction_trial","2","","false","","1","true","true","false","false","false","false","[2,1,0]","111","101","0","","","","","","",""
"","","","","","image-keyboard-response","43","181107","0.0-18.0","611bed11fa6a3b35c9226c29","665500ab8938657b03fbdba8","6657924a1bed3a3a59b99006","2087","stimuli/11111012.jpg"," ","","feedback_trial","2","","","","","","","","","","","","","","","","","","","","",""
"","","","","","image-keyboard-response","44","185905","0.0-19.0","611bed11fa6a3b35c9226c29","665500ab8938657b03fbdba8","6657924a1bed3a3a59b99006","4795","stimuli/0010111.jpg","1","","prediction_trial","0","","false","","0","false","false","true","true","false","false","[0]","010","111","0","","","","","","",""
"","","","","","image-keyboard-response","45","187116","0.0-20.0","611bed11fa6a3b35c9226c29","665500ab8938657b03fbdba8","6657924a1bed3a3a59b99006","1208","stimuli/00101110.jpg"," ","","feedback_trial","0","","","","","","","","","","","","","","","","","","","","",""
"","","","","","image-keyboard-response","46","188596","0.0-21.0","611bed11fa6a3b35c9226c29","665500ab8938657b03fbdba8","6657924a1bed3a3a59b99006","1445","stimuli/1100001.jpg","1","","prediction_trial","1","","true","","1","true","true","true","true","true","true","[1]","100","001","1","","","","","","",""
"","","","","","image-keyboard-response","47","189699","0.0-22.0","611bed11fa6a3b35c9226c29","665500ab8938657b03fbdba8","6657924a1bed3a3a59b99006","1098","stimuli/11000011.jpg"," ","","feedback_trial","1","","","","","","","","","","","","","","","","","","","","",""
"","","","","","image-keyboard-response","48","190794","0.0-23.0","611bed11fa6a3b35c9226c29","665500ab8938657b03fbdba8","6657924a1bed3a3a59b99006","1090","stimuli/0001011.jpg","0","","prediction_trial","0","","true","","0","true","true","true","true","true","true","[0]","001","011","1","","","","","","",""
"","","","","","image-keyboard-response","49","191246","0.0-24.0","611bed11fa6a3b35c9226c29","665500ab8938657b03fbdba8","6657924a1bed3a3a59b99006","448","stimuli/00010110.jpg"," ","","feedback_trial","0","","","","","","","","","","","","","","","","","","","","",""
"","","","","","image-keyboard-response","50","191973","0.0-25.0","611bed11fa6a3b35c9226c29","665500ab8938657b03fbdba8","6657924a1bed3a3a59b99006","724","stimuli/1110000.jpg","1","","prediction_trial","0","","false","","1","true","true","false","false","false","false","[0,1]","110","000","0","","","","","","",""
"","","","","","image-keyboard-response","51","198672","0.0-26.0","611bed11fa6a3b35c9226c29","665500ab8938657b03fbdba8","6657924a1bed3a3a59b99006","6696","stimuli/11100000.jpg"," ","","feedback_trial","0","","","","","","","","","","","","","","","","","","","","",""
"","","","","","image-keyboard-response","52","203746","0.0-27.0","611bed11fa6a3b35c9226c29","665500ab8938657b03fbdba8","6657924a1bed3a3a59b99006","5069","stimuli/0001111.jpg","2","","prediction_trial","0","","false","","0","false","false","true","true","false","false","[0]","001","111","0","","","","","","",""
"","","","","","image-keyboard-response","53","204827","0.0-28.0","611bed11fa6a3b35c9226c29","665500ab8938657b03fbdba8","6657924a1bed3a3a59b99006","1078","stimuli/00011110.jpg"," ","","feedback_trial","0","","","","","","","","","","","","","","","","","","","","",""
"","","","","","image-keyboard-response","54","206091","0.0-29.0","611bed11fa6a3b35c9226c29","665500ab8938657b03fbdba8","6657924a1bed3a3a59b99006","1261","stimuli/0010001.jpg","0","","prediction_trial","0","","true","","0","true","true","true","true","true","true","[0]","010","001","1","","","","","","",""
"","","","","","image-keyboard-response","55","207130","0.0-30.0","611bed11fa6a3b35c9226c29","665500ab8938657b03fbdba8","6657924a1bed3a3a59b99006","1033","stimuli/00100010.jpg"," ","","feedback_trial","0","","","","","","","","","","","","","","","","","","","","",""
"","","","","","image-keyboard-response","56","209949","0.0-31.0","611bed11fa6a3b35c9226c29","665500ab8938657b03fbdba8","6657924a1bed3a3a59b99006","2816","stimuli/1110011.jpg","1","","prediction_trial","1","","true","","1","false","false","false","false","false","false","[0,1]","110","011","1","","","","","","",""
"","","","","","image-keyboard-response","57","211649","0.0-32.0","611bed11fa6a3b35c9226c29","665500ab8938657b03fbdba8","6657924a1bed3a3a59b99006","1697","stimuli/11100111.jpg"," ","","feedback_trial","0","","","","","","","","","","","","","","","","","","","","",""
"","","","","","image-keyboard-response","58","214342","0.0-33.0","611bed11fa6a3b35c9226c29","665500ab8938657b03fbdba8","6657924a1bed3a3a59b99006","2689","stimuli/2011011.jpg","2","","prediction_trial","1","","false","","2","false","false","false","false","false","false","[1,2]","011","011","0","","","","","","",""
"","","","","","image-keyboard-response","59","215216","0.0-34.0","611bed11fa6a3b35c9226c29","665500ab8938657b03fbdba8","6657924a1bed3a3a59b99006","871","stimuli/20110111.jpg"," ","","feedback_trial","1","","","","","","","","","","","","","","","","","","","","",""
"","","","","","image-keyboard-response","60","216383","0.0-35.0","611bed11fa6a3b35c9226c29","665500ab8938657b03fbdba8","6657924a1bed3a3a59b99006","1164","stimuli/0010101.jpg","2","","prediction_trial","0","","false","","0","false","false","true","true","false","false","[0]","010","101","0","","","","","","",""
"","","","","","image-keyboard-response","61","217337","0.0-36.0","611bed11fa6a3b35c9226c29","665500ab8938657b03fbdba8","6657924a1bed3a3a59b99006","950","stimuli/00101010.jpg"," ","","feedback_trial","0","","","","","","","","","","","","","","","","","","","","",""
"","","","","","image-keyboard-response","62","218268","0.0-37.0","611bed11fa6a3b35c9226c29","665500ab8938657b03fbdba8","6657924a1bed3a3a59b99006","928","stimuli/0001000.jpg","0","","prediction_trial","0","","true","","0","true","true","true","true","true","true","[0]","001","000","1","","","","","","",""
"","","","","","image-keyboard-response","63","219030","0.0-38.0","611bed11fa6a3b35c9226c29","665500ab8938657b03fbdba8","6657924a1bed3a3a59b99006","759","stimuli/00010000.jpg"," ","","feedback_trial","0","","","","","","","","","","","","","","","","","","","","",""
"","","","","","image-keyboard-response","64","219836","0.0-39.0","611bed11fa6a3b35c9226c29","665500ab8938657b03fbdba8","6657924a1bed3a3a59b99006","784","stimuli/2100110.jpg","2","","prediction_trial","2","","true","","2","true","true","true","true","true","true","[2]","100","110","1","","","","","","",""
"","","","","","image-keyboard-response","65","220416","0.0-40.0","611bed11fa6a3b35c9226c29","665500ab8938657b03fbdba8","6657924a1bed3a3a59b99006","577","stimuli/21001102.jpg"," ","","feedback_trial","2","","","","","","","","","","","","","","","","","","","","",""
"","","","","","image-keyboard-response","66","221154","0.0-41.0","611bed11fa6a3b35c9226c29","665500ab8938657b03fbdba8","6657924a1bed3a3a59b99006","734","stimuli/0000011.jpg","0","","prediction_trial","0","","true","","0","true","true","true","true","true","true","[0]","000","011","1","","","","","","",""
"","","","","","image-keyboard-response","67","221756","0.0-42.0","611bed11fa6a3b35c9226c29","665500ab8938657b03fbdba8","6657924a1bed3a3a59b99006","598","stimuli/00000110.jpg"," ","","feedback_trial","0","","","","","","","","","","","","","","","","","","","","",""
"","","","","","image-keyboard-response","68","222447","0.0-43.0","611bed11fa6a3b35c9226c29","665500ab8938657b03fbdba8","6657924a1bed3a3a59b99006","688","stimuli/2110110.jpg","2","","prediction_trial","2","","true","","2","true","true","true","true","true","true","[2]","110","110","1","","","","","","",""
"","","","","","image-keyboard-response","69","223002","0.0-44.0","611bed11fa6a3b35c9226c29","665500ab8938657b03fbdba8","6657924a1bed3a3a59b99006","552","stimuli/21101102.jpg"," ","","feedback_trial","2","","","","","","","","","","","","","","","","","","","","",""
"","","","","","image-keyboard-response","70","224845","0.0-45.0","611bed11fa6a3b35c9226c29","665500ab8938657b03fbdba8","6657924a1bed3a3a59b99006","1839","stimuli/1011110.jpg","1","","prediction_trial","2","","false","","1","false","false","false","false","false","false","[1,2]","011","110","0","","","","","","",""
"","","","","","image-keyboard-response","71","225971","0.0-46.0","611bed11fa6a3b35c9226c29","665500ab8938657b03fbdba8","6657924a1bed3a3a59b99006","1122","stimuli/10111102.jpg"," ","","feedback_trial","1","","","","","","","","","","","","","","","","","","","","",""
"","","","","","image-keyboard-response","72","228044","0.0-47.0","611bed11fa6a3b35c9226c29","665500ab8938657b03fbdba8","6657924a1bed3a3a59b99006","2069","stimuli/2101100.jpg","2","","prediction_trial","2","","true","","2","true","true","false","false","false","false","[2,0]","101","100","1","","","","","","",""
"","","","","","image-keyboard-response","73","228538","0.0-48.0","611bed11fa6a3b35c9226c29","665500ab8938657b03fbdba8","6657924a1bed3a3a59b99006","470","stimuli/21011002.jpg"," ","","feedback_trial","2","","","","","","","","","","","","","","","","","","","","",""
"","","","","","image-keyboard-response","74","229783","0.0-49.0","611bed11fa6a3b35c9226c29","665500ab8938657b03fbdba8","6657924a1bed3a3a59b99006","1242","stimuli/2111001.jpg","2","","prediction_trial","1","","false","","2","false","true","false","false","false","false","[2,0,1]","111","001","0","","","","","","",""
"","","","","","image-keyboard-response","75","231001","0.0-50.0","611bed11fa6a3b35c9226c29","665500ab8938657b03fbdba8","6657924a1bed3a3a59b99006","1215","stimuli/21110011.jpg"," ","","feedback_trial","2","","","","","","","","","","","","","","","","","","","","",""
"","","","","","image-keyboard-response","76","235598","0.0-51.0","611bed11fa6a3b35c9226c29","665500ab8938657b03fbdba8","6657924a1bed3a3a59b99006","4594","stimuli/2010100.jpg","2","","prediction_trial","2","","true","","2","true","true","true","true","true","true","[2]","010","100","1","","","","","","",""
"","","","","","image-keyboard-response","77","236084","0.0-52.0","611bed11fa6a3b35c9226c29","665500ab8938657b03fbdba8","6657924a1bed3a3a59b99006","482","stimuli/20101002.jpg"," ","","feedback_trial","2","","","","","","","","","","","","","","","","","","","","",""
"","","","","","image-keyboard-response","78","239197","0.0-53.0","611bed11fa6a3b35c9226c29","665500ab8938657b03fbdba8","6657924a1bed3a3a59b99006","3111","stimuli/0101110.jpg","1","","prediction_trial","0","","false","","0","false","false","false","false","false","false","[0,2]","101","110","0","","","","","","",""
"","","","","","image-keyboard-response","79","240083","0.0-54.0","611bed11fa6a3b35c9226c29","665500ab8938657b03fbdba8","6657924a1bed3a3a59b99006","883","stimuli/01011100.jpg"," ","","feedback_trial","0","","","","","","","","","","","","","","","","","","","","",""
"","","","","","image-keyboard-response","80","241098","0.0-55.0","611bed11fa6a3b35c9226c29","665500ab8938657b03fbdba8","6657924a1bed3a3a59b99006","1012","stimuli/2001010.jpg","2","","prediction_trial","2","","true","","2","true","true","false","true","false","true","[2]","001","010","1","","","","","","",""
"","","","","","image-keyboard-response","81","241511","0.0-56.0","611bed11fa6a3b35c9226c29","665500ab8938657b03fbdba8","6657924a1bed3a3a59b99006","410","stimuli/20010102.jpg"," ","","feedback_trial","2","","","","","","","","","","","","","","","","","","","","",""
"","","","","","image-keyboard-response","82","243005","0.0-57.0","611bed11fa6a3b35c9226c29","665500ab8938657b03fbdba8","6657924a1bed3a3a59b99006","1490","stimuli/2000111.jpg","0","","prediction_trial","2","","false","","2","false","false","true","true","false","false","[2]","000","111","0","","","","","","",""
"","","","","","image-keyboard-response","83","243691","0.0-58.0","611bed11fa6a3b35c9226c29","665500ab8938657b03fbdba8","6657924a1bed3a3a59b99006","682","stimuli/20001112.jpg"," ","","feedback_trial","2","","","","","","","","","","","","","","","","","","","","",""
"","","","","","image-keyboard-response","84","245375","0.0-59.0","611bed11fa6a3b35c9226c29","665500ab8938657b03fbdba8","6657924a1bed3a3a59b99006","1681","stimuli/0000001.jpg","0","","prediction_trial","0","","true","","0","true","true","true","true","true","true","[0]","000","001","1","","","","","","",""
"","","","","","image-keyboard-response","85","245768","0.0-60.0","611bed11fa6a3b35c9226c29","665500ab8938657b03fbdba8","6657924a1bed3a3a59b99006","388","stimuli/00000010.jpg"," ","","feedback_trial","0","","","","","","","","","","","","","","","","","","","","",""
"","","","","","image-keyboard-response","86","247166","0.0-61.0","611bed11fa6a3b35c9226c29","665500ab8938657b03fbdba8","6657924a1bed3a3a59b99006","1396","stimuli/0100100.jpg","0","","prediction_trial","0","","true","","0","false","true","false","true","false","true","[0]","100","100","1","","","","","","",""
"","","","","","image-keyboard-response","87","247630","0.0-62.0","611bed11fa6a3b35c9226c29","665500ab8938657b03fbdba8","6657924a1bed3a3a59b99006","460","stimuli/01001000.jpg"," ","","feedback_trial","0","","","","","","","","","","","","","","","","","","","","",""
"","","","","","image-keyboard-response","88","249283","0.0-63.0","611bed11fa6a3b35c9226c29","665500ab8938657b03fbdba8","6657924a1bed3a3a59b99006","1649","stimuli/1010011.jpg","2","","prediction_trial","1","","false","","1","false","false","false","true","false","false","[1]","010","011","0","","","","","","",""
"","","","","","image-keyboard-response","89","249826","0.0-64.0","611bed11fa6a3b35c9226c29","665500ab8938657b03fbdba8","6657924a1bed3a3a59b99006","539","stimuli/10100111.jpg"," ","","feedback_trial","1","","","","","","","","","","","","","","","","","","","","",""
"","","","","","image-keyboard-response","90","251233","0.0-65.0","611bed11fa6a3b35c9226c29","665500ab8938657b03fbdba8","6657924a1bed3a3a59b99006","1404","stimuli/2000110.jpg","2","","prediction_trial","2","","true","","2","true","true","true","true","true","true","[2]","000","110","1","","","","","","",""
"","","","","","image-keyboard-response","91","251806","0.0-66.0","611bed11fa6a3b35c9226c29","665500ab8938657b03fbdba8","6657924a1bed3a3a59b99006","548","stimuli/20001102.jpg"," ","","feedback_trial","2","","","","","","","","","","","","","","","","","","","","",""
"","","","","","image-keyboard-response","92","254369","0.0-67.0","611bed11fa6a3b35c9226c29","665500ab8938657b03fbdba8","6657924a1bed3a3a59b99006","2560","stimuli/1100010.jpg","1","","prediction_trial","1","","true","","1","false","true","true","true","false","true","[1]","100","010","1","","","","","","",""
"","","","","","image-keyboard-response","93","254798","0.0-68.0","611bed11fa6a3b35c9226c29","665500ab8938657b03fbdba8","6657924a1bed3a3a59b99006","425","stimuli/11000101.jpg"," ","","feedback_trial","1","","","","","","","","","","","","","","","","","","","","",""
"","","","","","image-keyboard-response","94","258073","0.0-69.0","611bed11fa6a3b35c9226c29","665500ab8938657b03fbdba8","6657924a1bed3a3a59b99006","3273","stimuli/0010110.jpg","0","","prediction_trial","0","","true","","0","false","false","true","true","false","false","[0]","010","110","1","","","","","","",""
"","","","","","image-keyboard-response","95","259136","0.0-70.0","611bed11fa6a3b35c9226c29","665500ab8938657b03fbdba8","6657924a1bed3a3a59b99006","1059","stimuli/00101100.jpg"," ","","feedback_trial","0","","","","","","","","","","","","","","","","","","","","",""
"","","","","","image-keyboard-response","96","260287","0.0-71.0","611bed11fa6a3b35c9226c29","665500ab8938657b03fbdba8","6657924a1bed3a3a59b99006","1148","stimuli/0110000.jpg","0","","prediction_trial","0","","true","","0","true","true","false","false","false","false","[0,1]","110","000","1","","","","","","",""
"","","","","","image-keyboard-response","97","260714","0.0-72.0","611bed11fa6a3b35c9226c29","665500ab8938657b03fbdba8","6657924a1bed3a3a59b99006","424","stimuli/01100000.jpg"," ","","feedback_trial","0","","","","","","","","","","","","","","","","","","","","",""
"","","","","","image-keyboard-response","98","261625","0.0-73.0","611bed11fa6a3b35c9226c29","665500ab8938657b03fbdba8","6657924a1bed3a3a59b99006","907","stimuli/1100101.jpg","1","","prediction_trial","1","","true","","1","true","true","true","true","true","true","[1]","100","101","1","","","","","","",""
"","","","","","image-keyboard-response","99","262030","0.0-74.0","611bed11fa6a3b35c9226c29","665500ab8938657b03fbdba8","6657924a1bed3a3a59b99006","401","stimuli/11001011.jpg"," ","","feedback_trial","1","","","","","","","","","","","","","","","","","","","","",""
"","","","","","image-keyboard-response","100","262723","0.0-75.0","611bed11fa6a3b35c9226c29","665500ab8938657b03fbdba8","6657924a1bed3a3a59b99006","670","stimuli/2110010.jpg","2","","prediction_trial","2","","true","","2","true","true","true","true","true","true","[2]","110","010","1","","","","","","",""
"","","","","","image-keyboard-response","101","263126","0.0-76.0","611bed11fa6a3b35c9226c29","665500ab8938657b03fbdba8","6657924a1bed3a3a59b99006","401","stimuli/21100102.jpg"," ","","feedback_trial","2","","","","","","","","","","","","","","","","","","","","",""
"","","","","","image-keyboard-response","102","265415","0.0-77.0","611bed11fa6a3b35c9226c29","665500ab8938657b03fbdba8","6657924a1bed3a3a59b99006","2285","stimuli/1111111.jpg","1","","prediction_trial","0","","false","","1","false","false","false","false","false","false","[2,0,1]","111","111","0","","","","","","",""
"","","","","","image-keyboard-response","103","266173","0.0-78.0","611bed11fa6a3b35c9226c29","665500ab8938657b03fbdba8","6657924a1bed3a3a59b99006","756","stimuli/11111110.jpg"," ","","feedback_trial","2","","","","","","","","","","","","","","","","","","","","",""
"","","","","","image-keyboard-response","104","267697","0.0-79.0","611bed11fa6a3b35c9226c29","665500ab8938657b03fbdba8","6657924a1bed3a3a59b99006","1519","stimuli/1000010.jpg","1","","prediction_trial","1","","true","","1","false","true","true","true","false","true","[1]","000","010","1","","","","","","",""
"","","","","","image-keyboard-response","105","268172","0.0-80.0","611bed11fa6a3b35c9226c29","665500ab8938657b03fbdba8","6657924a1bed3a3a59b99006","471","stimuli/10000101.jpg"," ","","feedback_trial","1","","","","","","","","","","","","","","","","","","","","",""
"","","","","","image-keyboard-response","106","269668","0.0-81.0","611bed11fa6a3b35c9226c29","665500ab8938657b03fbdba8","6657924a1bed3a3a59b99006","1493","stimuli/0100110.jpg","0","","prediction_trial","0","","true","","0","false","false","false","true","false","false","[0]","100","110","1","","","","","","",""
"","","","","","image-keyboard-response","107","270130","0.0-82.0","611bed11fa6a3b35c9226c29","665500ab8938657b03fbdba8","6657924a1bed3a3a59b99006","459","stimuli/01001100.jpg"," ","","feedback_trial","0","","","","","","","","","","","","","","","","","","","","",""
"","","","","","image-keyboard-response","108","270891","0.0-83.0","611bed11fa6a3b35c9226c29","665500ab8938657b03fbdba8","6657924a1bed3a3a59b99006","758","stimuli/2101001.jpg","2","","prediction_trial","2","","true","","2","false","true","false","false","false","false","[0,2]","101","001","1","","","","","","",""
"","","","","","image-keyboard-response","109","271415","0.0-84.0","611bed11fa6a3b35c9226c29","665500ab8938657b03fbdba8","6657924a1bed3a3a59b99006","502","stimuli/21010012.jpg"," ","","feedback_trial","0","","","","","","","","","","","","","","","","","","","","",""
"","","","","","image-keyboard-response","110","272179","0.0-85.0","611bed11fa6a3b35c9226c29","665500ab8938657b03fbdba8","6657924a1bed3a3a59b99006","762","stimuli/1000001.jpg","1","","prediction_trial","1","","true","","1","true","true","true","true","true","true","[1]","000","001","1","","","","","","",""
"","","","","","image-keyboard-response","111","272643","0.0-86.0","611bed11fa6a3b35c9226c29","665500ab8938657b03fbdba8","6657924a1bed3a3a59b99006","461","stimuli/10000011.jpg"," ","","feedback_trial","1","","","","","","","","","","","","","","","","","","","","",""
"","","","","","image-keyboard-response","112","273521","0.0-87.0","611bed11fa6a3b35c9226c29","665500ab8938657b03fbdba8","6657924a1bed3a3a59b99006","875","stimuli/1001100.jpg","1","","prediction_trial","1","","true","","1","true","true","true","true","true","true","[1]","001","100","1","","","","","","",""
"","","","","","image-keyboard-response","113","274010","0.0-88.0","611bed11fa6a3b35c9226c29","665500ab8938657b03fbdba8","6657924a1bed3a3a59b99006","487","stimuli/10011001.jpg"," ","","feedback_trial","1","","","","","","","","","","","","","","","","","","","","",""
"","","","","","image-keyboard-response","114","278036","0.0-89.0","611bed11fa6a3b35c9226c29","665500ab8938657b03fbdba8","6657924a1bed3a3a59b99006","4022","stimuli/2010111.jpg","0","","prediction_trial","2","","false","","2","false","false","true","true","false","false","[2]","010","111","0","","","","","","",""
"","","","","","image-keyboard-response","115","278688","0.0-90.0","611bed11fa6a3b35c9226c29","665500ab8938657b03fbdba8","6657924a1bed3a3a59b99006","650","stimuli/20101112.jpg"," ","","feedback_trial","2","","","","","","","","","","","","","","","","","","","","",""
"","","","","","image-keyboard-response","116","279696","0.0-91.0","611bed11fa6a3b35c9226c29","665500ab8938657b03fbdba8","6657924a1bed3a3a59b99006","1005","stimuli/1100000.jpg","1","","prediction_trial","1","","true","","1","true","true","true","true","true","true","[1]","100","000","1","","","","","","",""
"","","","","","image-keyboard-response","117","280081","0.0-92.0","611bed11fa6a3b35c9226c29","665500ab8938657b03fbdba8","6657924a1bed3a3a59b99006","383","stimuli/11000001.jpg"," ","","feedback_trial","1","","","","","","","","","","","","","","","","","","","","",""
"","","","","","image-keyboard-response","118","282268","0.0-93.0","611bed11fa6a3b35c9226c29","665500ab8938657b03fbdba8","6657924a1bed3a3a59b99006","2165","stimuli/1010111.jpg","2","","prediction_trial","1","","false","","1","false","false","false","true","false","false","[1]","010","111","0","","","","","","",""
"","","","","","image-keyboard-response","119","282897","0.0-94.0","611bed11fa6a3b35c9226c29","665500ab8938657b03fbdba8","6657924a1bed3a3a59b99006","627","stimuli/10101111.jpg"," ","","feedback_trial","1","","","","","","","","","","","","","","","","","","","","",""
"","","","","","image-keyboard-response","120","283891","0.0-95.0","611bed11fa6a3b35c9226c29","665500ab8938657b03fbdba8","6657924a1bed3a3a59b99006","991","stimuli/1000101.jpg","1","","prediction_trial","1","","true","","1","true","true","true","true","true","true","[1]","000","101","1","","","","","","",""
"","","","","","image-keyboard-response","121","284281","0.0-96.0","611bed11fa6a3b35c9226c29","665500ab8938657b03fbdba8","6657924a1bed3a3a59b99006","389","stimuli/10001011.jpg"," ","","feedback_trial","1","","","","","","","","","","","","","","","","","","","","",""
"","","","","","image-keyboard-response","122","285053","0.0-97.0","611bed11fa6a3b35c9226c29","665500ab8938657b03fbdba8","6657924a1bed3a3a59b99006","770","stimuli/0111000.jpg","0","","prediction_trial","0","","true","","0","true","true","false","false","false","false","[1,2,0]","111","000","1","","","","","","",""
"","","","","","image-keyboard-response","123","285491","0.0-98.0","611bed11fa6a3b35c9226c29","665500ab8938657b03fbdba8","6657924a1bed3a3a59b99006","434","stimuli/01110000.jpg"," ","","feedback_trial","1","","","","","","","","","","","","","","","","","","","","",""
"","","","","","image-keyboard-response","124","288668","0.0-99.0","611bed11fa6a3b35c9226c29","665500ab8938657b03fbdba8","6657924a1bed3a3a59b99006","3176","stimuli/1010010.jpg","1","","prediction_trial","1","","true","","1","false","true","false","true","false","true","[1]","010","010","1","","","","","","",""
"","","","","","image-keyboard-response","125","289029","0.0-100.0","611bed11fa6a3b35c9226c29","665500ab8938657b03fbdba8","6657924a1bed3a3a59b99006","359","stimuli/10100101.jpg"," ","","feedback_trial","1","","","","","","","","","","","","","","","","","","","","",""
"","","","","","image-keyboard-response","126","289787","0.0-101.0","611bed11fa6a3b35c9226c29","665500ab8938657b03fbdba8","6657924a1bed3a3a59b99006","754","stimuli/1110101.jpg","1","","prediction_trial","1","","true","","1","true","true","false","false","false","false","[1,0]","110","101","1","","","","","","",""
"","","","","","image-keyboard-response","127","290201","0.0-102.0","611bed11fa6a3b35c9226c29","665500ab8938657b03fbdba8","6657924a1bed3a3a59b99006","392","stimuli/11101011.jpg"," ","","feedback_trial","1","","","","","","","","","","","","","","","","","","","","",""
"","","","","","image-keyboard-response","128","294499","0.0-103.0","611bed11fa6a3b35c9226c29","665500ab8938657b03fbdba8","6657924a1bed3a3a59b99006","4295","stimuli/2100101.jpg","0","","prediction_trial","2","","false","","2","false","false","true","true","false","false","[2]","100","101","0","","","","","","",""
"","","","","","image-keyboard-response","129","295225","0.0-104.0","611bed11fa6a3b35c9226c29","665500ab8938657b03fbdba8","6657924a1bed3a3a59b99006","724","stimuli/21001012.jpg"," ","","feedback_trial","2","","","","","","","","","","","","","","","","","","","","",""
"","","","","","image-keyboard-response","130","296859","0.0-105.0","611bed11fa6a3b35c9226c29","665500ab8938657b03fbdba8","6657924a1bed3a3a59b99006","1631","stimuli/2101011.jpg","2","","prediction_trial","2","","true","","2","false","false","false","false","false","false","[0,2]","101","011","1","","","","","","",""
"","","","","","image-keyboard-response","131","297404","0.0-106.0","611bed11fa6a3b35c9226c29","665500ab8938657b03fbdba8","6657924a1bed3a3a59b99006","542","stimuli/21010112.jpg"," ","","feedback_trial","0","","","","","","","","","","","","","","","","","","","","",""
"","","","","","image-keyboard-response","132","300365","0.0-107.0","611bed11fa6a3b35c9226c29","665500ab8938657b03fbdba8","6657924a1bed3a3a59b99006","2958","stimuli/2101110.jpg","0","","prediction_trial","2","","false","","2","true","true","false","false","false","false","[0,2]","101","110","0","","","","","","",""
"","","","","","image-keyboard-response","133","301337","0.0-108.0","611bed11fa6a3b35c9226c29","665500ab8938657b03fbdba8","6657924a1bed3a3a59b99006","969","stimuli/21011102.jpg"," ","","feedback_trial","0","","","","","","","","","","","","","","","","","","","","",""
"","","","","","image-keyboard-response","134","302998","0.0-109.0","611bed11fa6a3b35c9226c29","665500ab8938657b03fbdba8","6657924a1bed3a3a59b99006","1658","stimuli/0011100.jpg","0","","prediction_trial","0","","true","","0","false","true","true","true","false","true","[0]","011","100","1","","","","","","",""
"","","","","","image-keyboard-response","135","303442","0.0-110.0","611bed11fa6a3b35c9226c29","665500ab8938657b03fbdba8","6657924a1bed3a3a59b99006","439","stimuli/00111000.jpg"," ","","feedback_trial","0","","","","","","","","","","","","","","","","","","","","",""
"","","","","","image-keyboard-response","136","305145","0.0-111.0","611bed11fa6a3b35c9226c29","665500ab8938657b03fbdba8","6657924a1bed3a3a59b99006","1682","stimuli/0111111.jpg","1","","prediction_trial","1","","true","","0","false","false","false","false","false","false","[1,2,0]","111","111","1","","","","","","",""
"","","","","","image-keyboard-response","137","305977","0.0-112.0","611bed11fa6a3b35c9226c29","665500ab8938657b03fbdba8","6657924a1bed3a3a59b99006","830","stimuli/01111111.jpg"," ","","feedback_trial","1","","","","","","","","","","","","","","","","","","","","",""
"","","","","","image-keyboard-response","138","307163","0.0-113.0","611bed11fa6a3b35c9226c29","665500ab8938657b03fbdba8","6657924a1bed3a3a59b99006","1182","stimuli/2011001.jpg","2","","prediction_trial","2","","true","","2","false","true","false","false","false","false","[1,2]","011","001","1","","","","","","",""
"","","","","","image-keyboard-response","139","307719","0.0-114.0","611bed11fa6a3b35c9226c29","665500ab8938657b03fbdba8","6657924a1bed3a3a59b99006","554","stimuli/20110012.jpg"," ","","feedback_trial","1","","","","","","","","","","","","","","","","","","","","",""
"","","","","","image-keyboard-response","140","308838","0.0-115.0","611bed11fa6a3b35c9226c29","665500ab8938657b03fbdba8","6657924a1bed3a3a59b99006","1116","stimuli/1101000.jpg","1","","prediction_trial","1","","true","","1","true","true","true","true","true","true","[1]","101","000","1","","","","","","",""
"","","","","","image-keyboard-response","141","309190","0.0-116.0","611bed11fa6a3b35c9226c29","665500ab8938657b03fbdba8","6657924a1bed3a3a59b99006","350","stimuli/11010001.jpg"," ","","feedback_trial","1","","","","","","","","","","","","","","","","","","","","",""
"","","","","","image-keyboard-response","142","310945","0.0-117.0","611bed11fa6a3b35c9226c29","665500ab8938657b03fbdba8","6657924a1bed3a3a59b99006","1752","stimuli/2110101.jpg","2","","prediction_trial","2","","true","","2","false","false","true","true","false","false","[2]","110","101","1","","","","","","",""
"","","","","","image-keyboard-response","143","311723","0.0-118.0","611bed11fa6a3b35c9226c29","665500ab8938657b03fbdba8","6657924a1bed3a3a59b99006","775","stimuli/21101012.jpg"," ","","feedback_trial","2","","","","","","","","","","","","","","","","","","","","",""
"","","","","","image-keyboard-response","144","313022","0.0-119.0","611bed11fa6a3b35c9226c29","665500ab8938657b03fbdba8","6657924a1bed3a3a59b99006","1296","stimuli/2010010.jpg","2","","prediction_trial","2","","true","","2","true","true","true","true","true","true","[2]","010","010","1","","","","","","",""
"","","","","","image-keyboard-response","145","313541","0.0-120.0","611bed11fa6a3b35c9226c29","665500ab8938657b03fbdba8","6657924a1bed3a3a59b99006","515","stimuli/20100102.jpg"," ","","feedback_trial","2","","","","","","","","","","","","","","","","","","","","",""
"","","","","","image-keyboard-response","146","315776","0.0-121.0","611bed11fa6a3b35c9226c29","665500ab8938657b03fbdba8","6657924a1bed3a3a59b99006","2231","stimuli/2001011.jpg","1","","prediction_trial","2","","false","","2","false","false","false","true","false","false","[2]","001","011","0","","","","","","",""
"","","","","","image-keyboard-response","147","316754","0.0-122.0","611bed11fa6a3b35c9226c29","665500ab8938657b03fbdba8","6657924a1bed3a3a59b99006","975","stimuli/20010112.jpg"," ","","feedback_trial","2","","","","","","","","","","","","","","","","","","","","",""
"","","","","","image-keyboard-response","148","317748","0.0-123.0","611bed11fa6a3b35c9226c29","665500ab8938657b03fbdba8","6657924a1bed3a3a59b99006","991","stimuli/0101011.jpg","0","","prediction_trial","2","","false","","0","true","true","false","false","false","false","[2,0]","101","011","0","","","","","","",""
"","","","","","image-keyboard-response","149","318601","0.0-124.0","611bed11fa6a3b35c9226c29","665500ab8938657b03fbdba8","6657924a1bed3a3a59b99006","849","stimuli/01010112.jpg"," ","","feedback_trial","2","","","","","","","","","","","","","","","","","","","","",""
"","","","","","image-keyboard-response","150","320320","0.0-125.0","611bed11fa6a3b35c9226c29","665500ab8938657b03fbdba8","6657924a1bed3a3a59b99006","1717","stimuli/0100010.jpg","2","","prediction_trial","0","","false","","0","true","true","false","true","false","true","[0]","100","010","0","","","","","","",""
"","","","","","image-keyboard-response","151","321066","0.0-126.0","611bed11fa6a3b35c9226c29","665500ab8938657b03fbdba8","6657924a1bed3a3a59b99006","741","stimuli/01000100.jpg"," ","","feedback_trial","0","","","","","","","","","","","","","","","","","","","","",""
"","","","","","image-keyboard-response","152","322372","0.0-127.0","611bed11fa6a3b35c9226c29","665500ab8938657b03fbdba8","6657924a1bed3a3a59b99006","1304","stimuli/0010100.jpg","0","","prediction_trial","0","","true","","0","false","true","true","true","false","true","[0]","010","100","1","","","","","","",""
"","","","","","image-keyboard-response","153","323249","0.0-128.0","611bed11fa6a3b35c9226c29","665500ab8938657b03fbdba8","6657924a1bed3a3a59b99006","874","stimuli/00101000.jpg"," ","","feedback_trial","0","","","","","","","","","","","","","","","","","","","","",""
"","","","","","image-keyboard-response","154","325194","0.0-129.0","611bed11fa6a3b35c9226c29","665500ab8938657b03fbdba8","6657924a1bed3a3a59b99006","1922","stimuli/2011110.jpg","2","","prediction_trial","1","","false","","2","true","true","false","false","false","false","[2,1]","011","110","0","","","","","","",""
"","","","","","image-keyboard-response","155","326095","0.0-130.0","611bed11fa6a3b35c9226c29","665500ab8938657b03fbdba8","6657924a1bed3a3a59b99006","897","stimuli/20111101.jpg"," ","","feedback_trial","2","","","","","","","","","","","","","","","","","","","","",""
"","","","","","image-keyboard-response","156","327033","0.0-131.0","611bed11fa6a3b35c9226c29","665500ab8938657b03fbdba8","6657924a1bed3a3a59b99006","935","stimuli/1010100.jpg","1","","prediction_trial","1","","true","","1","true","true","false","true","false","true","[1]","010","100","1","","","","","","",""
"","","","","","image-keyboard-response","157","327548","0.0-132.0","611bed11fa6a3b35c9226c29","665500ab8938657b03fbdba8","6657924a1bed3a3a59b99006","511","stimuli/10101001.jpg"," ","","feedback_trial","1","","","","","","","","","","","","","","","","","","","","",""
"","","","","","image-keyboard-response","158","329065","0.0-133.0","611bed11fa6a3b35c9226c29","665500ab8938657b03fbdba8","6657924a1bed3a3a59b99006","1514","stimuli/0110111.jpg","0","","prediction_trial","1","","false","","0","false","false","false","false","false","false","[1,0]","110","111","0","","","","","","",""
"","","","","","image-keyboard-response","159","330436","0.0-134.0","611bed11fa6a3b35c9226c29","665500ab8938657b03fbdba8","6657924a1bed3a3a59b99006","1367","stimuli/01101111.jpg"," ","","feedback_trial","1","","","","","","","","","","","","","","","","","","","","",""
"","","","","","image-keyboard-response","160","331419","0.0-135.0","611bed11fa6a3b35c9226c29","665500ab8938657b03fbdba8","6657924a1bed3a3a59b99006","980","stimuli/2010011.jpg","2","","prediction_trial","2","","true","","2","false","false","true","true","false","false","[2]","010","011","1","","","","","","",""
"","","","","","image-keyboard-response","161","331969","0.0-136.0","611bed11fa6a3b35c9226c29","665500ab8938657b03fbdba8","6657924a1bed3a3a59b99006","546","stimuli/20100112.jpg"," ","","feedback_trial","2","","","","","","","","","","","","","","","","","","","","",""
"","","","","","image-keyboard-response","162","334276","0.0-137.0","611bed11fa6a3b35c9226c29","665500ab8938657b03fbdba8","6657924a1bed3a3a59b99006","2304","stimuli/2011100.jpg","2","","prediction_trial","1","","false","","2","true","true","false","false","false","false","[2,1]","011","100","0","","","","","","",""
"","","","","","image-keyboard-response","163","334994","0.0-138.0","611bed11fa6a3b35c9226c29","665500ab8938657b03fbdba8","6657924a1bed3a3a59b99006","695","stimuli/20111001.jpg"," ","","feedback_trial","2","","","","","","","","","","","","","","","","","","","","",""
"","","","","","image-keyboard-response","164","338384","0.0-139.0","611bed11fa6a3b35c9226c29","665500ab8938657b03fbdba8","6657924a1bed3a3a59b99006","3388","stimuli/0110010.jpg","1","","prediction_trial","1","","true","","0","true","true","false","false","false","false","[1,0]","110","010","1","","","","","","",""
"","","","","","image-keyboard-response","165","338998","0.0-140.0","611bed11fa6a3b35c9226c29","665500ab8938657b03fbdba8","6657924a1bed3a3a59b99006","612","stimuli/01100101.jpg"," ","","feedback_trial","1","","","","","","","","","","","","","","","","","","","","",""
"","","","","","image-keyboard-response","166","341416","0.0-141.0","611bed11fa6a3b35c9226c29","665500ab8938657b03fbdba8","6657924a1bed3a3a59b99006","2415","stimuli/2010000.jpg","2","","prediction_trial","2","","true","","2","true","true","true","true","true","true","[2]","010","000","1","","","","","","",""
"","","","","","image-keyboard-response","167","341806","0.0-142.0","611bed11fa6a3b35c9226c29","665500ab8938657b03fbdba8","6657924a1bed3a3a59b99006","386","stimuli/20100002.jpg"," ","","feedback_trial","2","","","","","","","","","","","","","","","","","","","","",""
"","","","","","image-keyboard-response","168","346386","0.0-143.0","611bed11fa6a3b35c9226c29","665500ab8938657b03fbdba8","6657924a1bed3a3a59b99006","4577","stimuli/1000110.jpg","0","","prediction_trial","1","","false","","1","false","false","true","true","false","false","[1]","000","110","0","","","","","","",""
"","","","","","image-keyboard-response","169","346873","0.0-144.0","611bed11fa6a3b35c9226c29","665500ab8938657b03fbdba8","6657924a1bed3a3a59b99006","484","stimuli/10001101.jpg"," ","","feedback_trial","1","","","","","","","","","","","","","","","","","","","","",""
"","","","","","image-keyboard-response","170","348515","0.0-145.0","611bed11fa6a3b35c9226c29","665500ab8938657b03fbdba8","6657924a1bed3a3a59b99006","1640","stimuli/0110011.jpg","0","","prediction_trial","0","","true","","0","true","true","false","false","false","false","[1,0]","110","011","1","","","","","","",""
"","","","","","image-keyboard-response","171","348894","0.0-146.0","611bed11fa6a3b35c9226c29","665500ab8938657b03fbdba8","6657924a1bed3a3a59b99006","376","stimuli/01100110.jpg"," ","","feedback_trial","1","","","","","","","","","","","","","","","","","","","","",""
"","","","","","image-keyboard-response","172","350810","0.0-147.0","611bed11fa6a3b35c9226c29","665500ab8938657b03fbdba8","6657924a1bed3a3a59b99006","1893","stimuli/0111100.jpg","0","","prediction_trial","2","","false","","0","false","true","false","false","false","false","[1,2,0]","111","100","0","","","","","","",""
"","","","","","image-keyboard-response","173","351112","0.0-148.0","611bed11fa6a3b35c9226c29","665500ab8938657b03fbdba8","6657924a1bed3a3a59b99006","299","stimuli/01111002.jpg"," ","","feedback_trial","1","","","","","","","","","","","","","","","","","","","","",""
"","","","","","image-keyboard-response","174","352126","0.0-149.0","611bed11fa6a3b35c9226c29","665500ab8938657b03fbdba8","6657924a1bed3a3a59b99006","1011","stimuli/1000100.jpg","1","","prediction_trial","1","","true","","1","true","true","true","true","true","true","[1]","000","100","1","","","","","","",""
"","","","","","image-keyboard-response","175","352430","0.0-150.0","611bed11fa6a3b35c9226c29","665500ab8938657b03fbdba8","6657924a1bed3a3a59b99006","301","stimuli/10001001.jpg"," ","","feedback_trial","1","","","","","","","","","","","","","","","","","","","","",""
"","","","","","image-keyboard-response","176","353693","0.0-151.0","611bed11fa6a3b35c9226c29","665500ab8938657b03fbdba8","6657924a1bed3a3a59b99006","1260","stimuli/2000001.jpg","2","","prediction_trial","2","","true","","2","false","true","true","true","false","true","[2]","000","001","1","","","","","","",""
"","","","","","image-keyboard-response","177","354082","0.0-152.0","611bed11fa6a3b35c9226c29","665500ab8938657b03fbdba8","6657924a1bed3a3a59b99006","387","stimuli/20000012.jpg"," ","","feedback_trial","2","","","","","","","","","","","","","","","","","","","","",""
"","","","","","image-keyboard-response","178","355198","0.0-153.0","611bed11fa6a3b35c9226c29","665500ab8938657b03fbdba8","6657924a1bed3a3a59b99006","1113","stimuli/1100111.jpg","0","","prediction_trial","1","","false","","1","false","false","true","true","false","false","[1]","100","111","0","","","","","","",""
"","","","","","image-keyboard-response","179","355756","0.0-154.0","611bed11fa6a3b35c9226c29","665500ab8938657b03fbdba8","6657924a1bed3a3a59b99006","555","stimuli/11001111.jpg"," ","","feedback_trial","1","","","","","","","","","","","","","","","","","","","","",""
"","","","","","image-keyboard-response","180","356967","0.0-155.0","611bed11fa6a3b35c9226c29","665500ab8938657b03fbdba8","6657924a1bed3a3a59b99006","1207","stimuli/0000110.jpg","2","","prediction_trial","0","","false","","0","false","false","true","true","false","false","[0]","000","110","0","","","","","","",""
"","","","","","image-keyboard-response","181","357757","0.0-156.0","611bed11fa6a3b35c9226c29","665500ab8938657b03fbdba8","6657924a1bed3a3a59b99006","767","stimuli/00001100.jpg"," ","","feedback_trial","0","","","","","","","","","","","","","","","","","","","","",""
"","","","","","image-keyboard-response","182","358685","0.0-157.0","611bed11fa6a3b35c9226c29","665500ab8938657b03fbdba8","6657924a1bed3a3a59b99006","926","stimuli/2110100.jpg","2","","prediction_trial","2","","true","","2","true","true","true","true","true","true","[2]","110","100","1","","","","","","",""
"","","","","","image-keyboard-response","183","359056","0.0-158.0","611bed11fa6a3b35c9226c29","665500ab8938657b03fbdba8","6657924a1bed3a3a59b99006","369","stimuli/21101002.jpg"," ","","feedback_trial","2","","","","","","","","","","","","","","","","","","","","",""
"","","","","","image-keyboard-response","184","360283","0.0-159.0","611bed11fa6a3b35c9226c29","665500ab8938657b03fbdba8","6657924a1bed3a3a59b99006","1224","stimuli/1001110.jpg","0","","prediction_trial","1","","false","","1","false","false","true","true","false","false","[1]","001","110","0","","","","","","",""
"","","","","","image-keyboard-response","185","360912","0.0-160.0","611bed11fa6a3b35c9226c29","665500ab8938657b03fbdba8","6657924a1bed3a3a59b99006","625","stimuli/10011101.jpg"," ","","feedback_trial","1","","","","","","","","","","","","","","","","","","","","",""
"","","","","","image-keyboard-response","186","361873","0.0-161.0","611bed11fa6a3b35c9226c29","665500ab8938657b03fbdba8","6657924a1bed3a3a59b99006","957","stimuli/0100111.jpg","1","","prediction_trial","0","","false","","0","false","false","false","true","false","false","[0]","100","111","0","","","","","","",""
"","","","","","image-keyboard-response","187","362555","0.0-162.0","611bed11fa6a3b35c9226c29","665500ab8938657b03fbdba8","6657924a1bed3a3a59b99006","678","stimuli/01001110.jpg"," ","","feedback_trial","0","","","","","","","","","","","","","","","","","","","","",""
"","","","","","image-keyboard-response","188","363249","0.0-163.0","611bed11fa6a3b35c9226c29","665500ab8938657b03fbdba8","6657924a1bed3a3a59b99006","692","stimuli/2101010.jpg","2","","prediction_trial","2","","true","","2","true","true","false","false","false","false","[0,2]","101","010","1","","","","","","",""
"","","","","","image-keyboard-response","189","363790","0.0-164.0","611bed11fa6a3b35c9226c29","665500ab8938657b03fbdba8","6657924a1bed3a3a59b99006","538","stimuli/21010102.jpg"," ","","feedback_trial","0","","","","","","","","","","","","","","","","","","","","",""
"","","","","","image-keyboard-response","190","364719","0.0-165.0","611bed11fa6a3b35c9226c29","665500ab8938657b03fbdba8","6657924a1bed3a3a59b99006","910","stimuli/0011111.jpg","0","","prediction_trial","0","","true","","0","false","false","true","true","false","false","[0]","011","111","1","","","","","","",""
"","","","","","image-keyboard-response","191","365405","0.0-166.0","611bed11fa6a3b35c9226c29","665500ab8938657b03fbdba8","6657924a1bed3a3a59b99006","682","stimuli/00111110.jpg"," ","","feedback_trial","0","","","","","","","","","","","","","","","","","","","","",""
"","","","","","image-keyboard-response","192","366599","0.0-167.0","611bed11fa6a3b35c9226c29","665500ab8938657b03fbdba8","6657924a1bed3a3a59b99006","1192","stimuli/0111110.jpg","1","","prediction_trial","2","","false","","0","false","false","false","false","false","false","[2,0,1]","111","110","0","","","","","","",""
"","","","","","image-keyboard-response","193","367118","0.0-168.0","611bed11fa6a3b35c9226c29","665500ab8938657b03fbdba8","6657924a1bed3a3a59b99006","516","stimuli/01111102.jpg"," ","","feedback_trial","2","","","","","","","","","","","","","","","","","","","","",""
"","","","","","image-keyboard-response","194","368542","0.0-169.0","611bed11fa6a3b35c9226c29","665500ab8938657b03fbdba8","6657924a1bed3a3a59b99006","1419","stimuli/2000011.jpg","2","","prediction_trial","2","","true","","2","false","false","true","true","false","false","[2]","000","011","1","","","","","","",""
"","","","","","image-keyboard-response","195","369125","0.0-170.0","611bed11fa6a3b35c9226c29","665500ab8938657b03fbdba8","6657924a1bed3a3a59b99006","581","stimuli/20000112.jpg"," ","","feedback_trial","2","","","","","","","","","","","","","","","","","","","","",""
"","","","","","image-keyboard-response","196","369920","0.0-171.0","611bed11fa6a3b35c9226c29","665500ab8938657b03fbdba8","6657924a1bed3a3a59b99006","792","stimuli/0100000.jpg","0","","prediction_trial","0","","true","","0","true","true","false","true","false","true","[0]","100","000","1","","","","","","",""
"","","","","","image-keyboard-response","197","370369","0.0-172.0","611bed11fa6a3b35c9226c29","665500ab8938657b03fbdba8","6657924a1bed3a3a59b99006","447","stimuli/01000000.jpg"," ","","feedback_trial","0","","","","","","","","","","","","","","","","","","","","",""
"","","","","","image-keyboard-response","198","372068","0.0-173.0","611bed11fa6a3b35c9226c29","665500ab8938657b03fbdba8","6657924a1bed3a3a59b99006","1695","stimuli/1110001.jpg","1","","prediction_trial","1","","true","","1","true","true","false","false","false","false","[0,1]","110","001","1","","","","","","",""
"","","","","","image-keyboard-response","199","372469","0.0-174.0","611bed11fa6a3b35c9226c29","665500ab8938657b03fbdba8","6657924a1bed3a3a59b99006","378","stimuli/11100011.jpg"," ","","feedback_trial","0","","","","","","","","","","","","","","","","","","","","",""
"","","","","","image-keyboard-response","200","373569","0.0-175.0","611bed11fa6a3b35c9226c29","665500ab8938657b03fbdba8","6657924a1bed3a3a59b99006","1097","stimuli/0101010.jpg","0","","prediction_trial","2","","false","","0","true","true","false","false","false","false","[0,2]","101","010","0","","","","","","",""
"","","","","","image-keyboard-response","201","374035","0.0-176.0","611bed11fa6a3b35c9226c29","665500ab8938657b03fbdba8","6657924a1bed3a3a59b99006","464","stimuli/01010102.jpg"," ","","feedback_trial","0","","","","","","","","","","","","","","","","","","","","",""
"","","","","","image-keyboard-response","202","375191","0.0-177.0","611bed11fa6a3b35c9226c29","665500ab8938657b03fbdba8","6657924a1bed3a3a59b99006","1154","stimuli/1000111.jpg","2","","prediction_trial","1","","false","","1","false","false","true","true","false","false","[1]","000","111","0","","","","","","",""
"","","","","","image-keyboard-response","203","376227","0.0-178.0","611bed11fa6a3b35c9226c29","665500ab8938657b03fbdba8","6657924a1bed3a3a59b99006","1031","stimuli/10001111.jpg"," ","","feedback_trial","1","","","","","","","","","","","","","","","","","","","","",""
"","","","","","image-keyboard-response","204","377318","0.0-179.0","611bed11fa6a3b35c9226c29","665500ab8938657b03fbdba8","6657924a1bed3a3a59b99006","1088","stimuli/0001110.jpg","2","","prediction_trial","0","","false","","0","false","false","true","true","false","false","[0]","001","110","0","","","","","","",""
"","","","","","image-keyboard-response","205","378054","0.0-180.0","611bed11fa6a3b35c9226c29","665500ab8938657b03fbdba8","6657924a1bed3a3a59b99006","731","stimuli/00011100.jpg"," ","","feedback_trial","0","","","","","","","","","","","","","","","","","","","","",""
"","","","","","image-keyboard-response","206","379298","0.0-181.0","611bed11fa6a3b35c9226c29","665500ab8938657b03fbdba8","6657924a1bed3a3a59b99006","1241","stimuli/0110101.jpg","2","","prediction_trial","1","","false","","0","false","false","false","false","false","false","[1,0]","110","101","0","","","","","","",""
"","","","","","image-keyboard-response","207","379777","0.0-182.0","611bed11fa6a3b35c9226c29","665500ab8938657b03fbdba8","6657924a1bed3a3a59b99006","475","stimuli/01101011.jpg"," ","","feedback_trial","1","","","","","","","","","","","","","","","","","","","","",""
"","","","","","image-keyboard-response","208","380906","0.0-183.0","611bed11fa6a3b35c9226c29","665500ab8938657b03fbdba8","6657924a1bed3a3a59b99006","1106","stimuli/0101100.jpg","0","","prediction_trial","2","","false","","0","false","true","false","false","false","false","[2,0]","101","100","0","","","","","","",""
"","","","","","image-keyboard-response","209","381514","0.0-184.0","611bed11fa6a3b35c9226c29","665500ab8938657b03fbdba8","6657924a1bed3a3a59b99006","604","stimuli/01011002.jpg"," ","","feedback_trial","2","","","","","","","","","","","","","","","","","","","","",""
"","","","","","image-keyboard-response","210","382178","0.0-185.0","611bed11fa6a3b35c9226c29","665500ab8938657b03fbdba8","6657924a1bed3a3a59b99006","661","stimuli/0000000.jpg","1","","prediction_trial","0","","false","","0","true","true","true","true","true","true","[0]","000","000","0","","","","","","",""
"","","","","","image-keyboard-response","211","382694","0.0-186.0","611bed11fa6a3b35c9226c29","665500ab8938657b03fbdba8","6657924a1bed3a3a59b99006","512","stimuli/00000000.jpg"," ","","feedback_trial","0","","","","","","","","","","","","","","","","","","","","",""
"","","","","","image-keyboard-response","212","383308","0.0-187.0","611bed11fa6a3b35c9226c29","665500ab8938657b03fbdba8","6657924a1bed3a3a59b99006","610","stimuli/0011010.jpg","2","","prediction_trial","0","","false","","0","true","true","true","true","true","true","[0]","011","010","0","","","","","","",""
"","","","","","image-keyboard-response","213","384076","0.0-188.0","611bed11fa6a3b35c9226c29","665500ab8938657b03fbdba8","6657924a1bed3a3a59b99006","765","stimuli/00110100.jpg"," ","","feedback_trial","0","","","","","","","","","","","","","","","","","","","","",""
"","","","","","image-keyboard-response","214","384730","0.0-189.0","611bed11fa6a3b35c9226c29","665500ab8938657b03fbdba8","6657924a1bed3a3a59b99006","650","stimuli/1111100.jpg","0","","prediction_trial","1","","false","","1","true","true","false","false","false","false","[2,1,0]","111","100","0","","","","","","",""
"","","","","","image-keyboard-response","215","385272","0.0-190.0","611bed11fa6a3b35c9226c29","665500ab8938657b03fbdba8","6657924a1bed3a3a59b99006","540","stimuli/11111001.jpg"," ","","feedback_trial","2","","","","","","","","","","","","","","","","","","","","",""
"","","","","","image-keyboard-response","216","386007","0.0-191.0","611bed11fa6a3b35c9226c29","665500ab8938657b03fbdba8","6657924a1bed3a3a59b99006","732","stimuli/1100011.jpg","1","","prediction_trial","1","","true","","1","false","false","true","true","false","false","[1]","100","011","1","","","","","","",""
"","","","","","image-keyboard-response","217","386588","0.0-192.0","611bed11fa6a3b35c9226c29","665500ab8938657b03fbdba8","6657924a1bed3a3a59b99006","559","stimuli/11000111.jpg"," ","","feedback_trial","1","","","","","","","","","","","","","","","","","","","","",""
"","","","","","image-keyboard-response","218","387779","0.0-193.0","611bed11fa6a3b35c9226c29","665500ab8938657b03fbdba8","6657924a1bed3a3a59b99006","1188","stimuli/1000011.jpg","1","","prediction_trial","1","","true","","1","false","false","true","true","false","false","[1]","000","011","1","","","","","","",""
"","","","","","image-keyboard-response","219","388287","0.0-194.0","611bed11fa6a3b35c9226c29","665500ab8938657b03fbdba8","6657924a1bed3a3a59b99006","506","stimuli/10000111.jpg"," ","","feedback_trial","1","","","","","","","","","","","","","","","","","","","","",""
"","","","","","image-keyboard-response","220","389454","0.0-195.0","611bed11fa6a3b35c9226c29","665500ab8938657b03fbdba8","6657924a1bed3a3a59b99006","1164","stimuli/2010001.jpg","2","","prediction_trial","2","","true","","2","false","true","true","true","false","true","[2]","010","001","1","","","","","","",""
"","","","","","image-keyboard-response","221","389954","0.0-196.0","611bed11fa6a3b35c9226c29","665500ab8938657b03fbdba8","6657924a1bed3a3a59b99006","496","stimuli/20100012.jpg"," ","","feedback_trial","2","","","","","","","","","","","","","","","","","","","","",""
"","","","","","image-keyboard-response","222","392300","0.0-197.0","611bed11fa6a3b35c9226c29","665500ab8938657b03fbdba8","6657924a1bed3a3a59b99006","2343","stimuli/2111101.jpg","0","","prediction_trial","1","","false","","2","false","false","false","false","false","false","[2,1,0]","111","101","0","","","","","","",""
"","","","","","image-keyboard-response","223","392849","0.0-198.0","611bed11fa6a3b35c9226c29","665500ab8938657b03fbdba8","6657924a1bed3a3a59b99006","544","stimuli/21111011.jpg"," ","","feedback_trial","2","","","","","","","","","","","","","","","","","","","","",""
"","","","","","image-keyboard-response","224","393525","0.0-199.0","611bed11fa6a3b35c9226c29","665500ab8938657b03fbdba8","6657924a1bed3a3a59b99006","673","stimuli/2110111.jpg","2","","prediction_trial","2","","true","","2","false","false","true","true","false","false","[2]","110","111","1","","","","","","",""
"","","","","","image-keyboard-response","225","394117","0.0-200.0","611bed11fa6a3b35c9226c29","665500ab8938657b03fbdba8","6657924a1bed3a3a59b99006","589","stimuli/21101112.jpg"," ","","feedback_trial","2","","","","","","","","","","","","","","","","","","","","",""
"","","","","","image-keyboard-response","226","394871","0.0-201.0","611bed11fa6a3b35c9226c29","665500ab8938657b03fbdba8","6657924a1bed3a3a59b99006","733","stimuli/2111010.jpg","2","","prediction_trial","0","","false","","2","true","true","false","false","false","false","[0,2,1]","111","010","0","","","","","","",""
"","","","","","image-keyboard-response","227","395764","0.0-202.0","611bed11fa6a3b35c9226c29","665500ab8938657b03fbdba8","6657924a1bed3a3a59b99006","889","stimuli/21110100.jpg"," ","","feedback_trial","0","","","","","","","","","","","","","","","","","","","","",""
"","","","","","image-keyboard-response","228","397294","0.0-203.0","611bed11fa6a3b35c9226c29","665500ab8938657b03fbdba8","6657924a1bed3a3a59b99006","1529","stimuli/0000100.jpg","0","","prediction_trial","0","","true","","0","false","true","true","true","false","true","[0]","000","100","1","","","","","","",""
"","","","","","image-keyboard-response","229","397775","0.0-204.0","611bed11fa6a3b35c9226c29","665500ab8938657b03fbdba8","6657924a1bed3a3a59b99006","476","stimuli/00001000.jpg"," ","","feedback_trial","0","","","","","","","","","","","","","","","","","","","","",""
"","","","","","image-keyboard-response","230","399424","0.0-205.0","611bed11fa6a3b35c9226c29","665500ab8938657b03fbdba8","6657924a1bed3a3a59b99006","1646","stimuli/0110100.jpg","2","","prediction_trial","0","","false","","0","false","true","false","false","false","false","[1,0]","110","100","0","","","","","","",""
"","","","","","image-keyboard-response","231","400122","0.0-206.0","611bed11fa6a3b35c9226c29","665500ab8938657b03fbdba8","6657924a1bed3a3a59b99006","695","stimuli/01101000.jpg"," ","","feedback_trial","1","","","","","","","","","","","","","","","","","","","","",""
"","","","","","image-keyboard-response","232","400777","0.0-207.0","611bed11fa6a3b35c9226c29","665500ab8938657b03fbdba8","6657924a1bed3a3a59b99006","652","stimuli/2101111.jpg","1","","prediction_trial","2","","false","","2","false","false","false","false","false","false","[0,2]","101","111","0","","","","","","",""
"","","","","","image-keyboard-response","233","401280","0.0-208.0","611bed11fa6a3b35c9226c29","665500ab8938657b03fbdba8","6657924a1bed3a3a59b99006","499","stimuli/21011112.jpg"," ","","feedback_trial","0","","","","","","","","","","","","","","","","","","","","",""
"","","","","","image-keyboard-response","234","401813","0.0-209.0","611bed11fa6a3b35c9226c29","665500ab8938657b03fbdba8","6657924a1bed3a3a59b99006","530","stimuli/0100011.jpg","0","","prediction_trial","0","","true","","0","true","true","false","true","false","true","[0]","100","011","1","","","","","","",""
"","","","","","image-keyboard-response","235","402298","0.0-210.0","611bed11fa6a3b35c9226c29","665500ab8938657b03fbdba8","6657924a1bed3a3a59b99006","459","stimuli/01000110.jpg"," ","","feedback_trial","0","","","","","","","","","","","","","","","","","","","","",""
"","","","","","image-keyboard-response","236","403301","0.0-211.0","611bed11fa6a3b35c9226c29","665500ab8938657b03fbdba8","6657924a1bed3a3a59b99006","1000","stimuli/1011000.jpg","1","","prediction_trial","1","","true","","1","true","true","false","false","false","false","[1,2]","011","000","1","","","","","","",""
"","","","","","image-keyboard-response","237","403677","0.0-212.0","611bed11fa6a3b35c9226c29","665500ab8938657b03fbdba8","6657924a1bed3a3a59b99006","371","stimuli/10110001.jpg"," ","","feedback_trial","1","","","","","","","","","","","","","","","","","","","","",""
"","","","","","image-keyboard-response","238","405129","0.0-213.0","611bed11fa6a3b35c9226c29","665500ab8938657b03fbdba8","6657924a1bed3a3a59b99006","1450","stimuli/0111101.jpg","2","","prediction_trial","0","","false","","0","false","false","false","false","false","false","[0,1,2]","111","101","0","","","","","","",""
"","","","","","image-keyboard-response","239","406273","0.0-214.0","611bed11fa6a3b35c9226c29","665500ab8938657b03fbdba8","6657924a1bed3a3a59b99006","1140","stimuli/01111010.jpg"," ","","feedback_trial","0","","","","","","","","","","","","","","","","","","","","",""
"","","","","","image-keyboard-response","240","407721","0.0-215.0","611bed11fa6a3b35c9226c29","665500ab8938657b03fbdba8","6657924a1bed3a3a59b99006","1445","stimuli/1011011.jpg","2","","prediction_trial","1","","false","","1","false","false","false","false","false","false","[2,1]","011","011","0","","","","","","",""
"","","","","","image-keyboard-response","241","408296","0.0-216.0","611bed11fa6a3b35c9226c29","665500ab8938657b03fbdba8","6657924a1bed3a3a59b99006","573","stimuli/10110111.jpg"," ","","feedback_trial","2","","","","","","","","","","","","","","","","","","","","",""
"","","","","","image-keyboard-response","242","409262","0.0-217.0","611bed11fa6a3b35c9226c29","665500ab8938657b03fbdba8","6657924a1bed3a3a59b99006","963","stimuli/1101011.jpg","2","","prediction_trial","1","","false","","1","false","false","true","true","false","false","[1]","101","011","0","","","","","","",""
"","","","","","image-keyboard-response","243","409792","0.0-218.0","611bed11fa6a3b35c9226c29","665500ab8938657b03fbdba8","6657924a1bed3a3a59b99006","526","stimuli/11010111.jpg"," ","","feedback_trial","1","","","","","","","","","","","","","","","","","","","","",""
"","","","","","image-keyboard-response","244","410529","0.0-219.0","611bed11fa6a3b35c9226c29","665500ab8938657b03fbdba8","6657924a1bed3a3a59b99006","712","stimuli/2111011.jpg","1","","prediction_trial","0","","false","","2","false","false","false","false","false","false","[0,2,1]","111","011","0","","","","","","",""
"","","","","","image-keyboard-response","245","411144","0.0-220.0","611bed11fa6a3b35c9226c29","665500ab8938657b03fbdba8","6657924a1bed3a3a59b99006","612","stimuli/21110110.jpg"," ","","feedback_trial","0","","","","","","","","","","","","","","","","","","","","",""
"","","","","","image-keyboard-response","246","411806","0.0-221.0","611bed11fa6a3b35c9226c29","665500ab8938657b03fbdba8","6657924a1bed3a3a59b99006","659","stimuli/1011100.jpg","0","","prediction_trial","2","","false","","1","true","true","false","false","false","false","[2,1]","011","100","0","","","","","","",""
"","","","","","image-keyboard-response","247","412267","0.0-222.0","611bed11fa6a3b35c9226c29","665500ab8938657b03fbdba8","6657924a1bed3a3a59b99006","458","stimuli/10111002.jpg"," ","","feedback_trial","2","","","","","","","","","","","","","","","","","","","","",""
"","","","","","image-keyboard-response","248","412858","0.0-223.0","611bed11fa6a3b35c9226c29","665500ab8938657b03fbdba8","6657924a1bed3a3a59b99006","588","stimuli/2000000.jpg","1","","prediction_trial","2","","false","","2","true","true","true","true","true","true","[2]","000","000","0","","","","","","",""
"","","","","","image-keyboard-response","249","413653","0.0-224.0","611bed11fa6a3b35c9226c29","665500ab8938657b03fbdba8","6657924a1bed3a3a59b99006","793","stimuli/20000002.jpg"," ","","feedback_trial","2","","","","","","","","","","","","","","","","","","","","",""
"","","","","","image-keyboard-response","250","414765","0.0-225.0","611bed11fa6a3b35c9226c29","665500ab8938657b03fbdba8","6657924a1bed3a3a59b99006","1108","stimuli/0101101.jpg","0","","prediction_trial","2","","false","","0","false","false","false","false","false","false","[2,0]","101","101","0","","","","","","",""
"","","","","","image-keyboard-response","251","415290","0.0-226.0","611bed11fa6a3b35c9226c29","665500ab8938657b03fbdba8","6657924a1bed3a3a59b99006","523","stimuli/01011012.jpg"," ","","feedback_trial","2","","","","","","","","","","","","","","","","","","","","",""
"","","","","","image-keyboard-response","252","415862","0.0-227.0","611bed11fa6a3b35c9226c29","665500ab8938657b03fbdba8","6657924a1bed3a3a59b99006","570","stimuli/0110110.jpg","2","","prediction_trial","1","","false","","0","false","false","false","false","false","false","[1,0]","110","110","0","","","","","","",""
"","","","","","image-keyboard-response","253","416511","0.0-228.0","611bed11fa6a3b35c9226c29","665500ab8938657b03fbdba8","6657924a1bed3a3a59b99006","625","stimuli/01101101.jpg"," ","","feedback_trial","1","","","","","","","","","","","","","","","","","","","","",""
"","","","","","image-keyboard-response","254","417091","0.0-229.0","611bed11fa6a3b35c9226c29","665500ab8938657b03fbdba8","6657924a1bed3a3a59b99006","578","stimuli/1110010.jpg","2","","prediction_trial","1","","false","","1","false","true","false","false","false","false","[1,0]","110","010","0","","","","","","",""
"","","","","","image-keyboard-response","255","417606","0.0-230.0","611bed11fa6a3b35c9226c29","665500ab8938657b03fbdba8","6657924a1bed3a3a59b99006","512","stimuli/11100101.jpg"," ","","feedback_trial","1","","","","","","","","","","","","","","","","","","","","",""
"","","","","","image-keyboard-response","256","418603","0.0-231.0","611bed11fa6a3b35c9226c29","665500ab8938657b03fbdba8","6657924a1bed3a3a59b99006","994","stimuli/2101000.jpg","2","","prediction_trial","0","","false","","2","true","true","false","false","false","false","[2,0]","101","000","0","","","","","","",""
"","","","","","image-keyboard-response","257","419280","0.0-232.0","611bed11fa6a3b35c9226c29","665500ab8938657b03fbdba8","6657924a1bed3a3a59b99006","674","stimuli/21010000.jpg"," ","","feedback_trial","2","","","","","","","","","","","","","","","","","","","","",""
"","","","","","image-keyboard-response","258","419985","0.0-233.0","611bed11fa6a3b35c9226c29","665500ab8938657b03fbdba8","6657924a1bed3a3a59b99006","701","stimuli/0111001.jpg","1","","prediction_trial","2","","false","","0","true","true","false","false","false","false","[2,0,1]","111","001","0","","","","","","",""
"","","","","","image-keyboard-response","259","420562","0.0-234.0","611bed11fa6a3b35c9226c29","665500ab8938657b03fbdba8","6657924a1bed3a3a59b99006","574","stimuli/01110012.jpg"," ","","feedback_trial","2","","","","","","","","","","","","","","","","","","","","",""
"","","","","","image-keyboard-response","260","421112","0.0-235.0","611bed11fa6a3b35c9226c29","665500ab8938657b03fbdba8","6657924a1bed3a3a59b99006","547","stimuli/2100000.jpg","0","","prediction_trial","2","","false","","2","true","true","true","true","true","true","[2]","100","000","0","","","","","","",""
"","","","","","image-keyboard-response","261","421597","0.0-236.0","611bed11fa6a3b35c9226c29","665500ab8938657b03fbdba8","6657924a1bed3a3a59b99006","480","stimuli/21000002.jpg"," ","","feedback_trial","2","","","","","","","","","","","","","","","","","","","","",""
"","","","","","image-keyboard-response","262","423263","0.0-237.0","611bed11fa6a3b35c9226c29","665500ab8938657b03fbdba8","6657924a1bed3a3a59b99006","1645","stimuli/0011101.jpg","2","","prediction_trial","0","","false","","0","false","false","true","true","false","false","[0]","011","101","0","","","","","","",""
"","","","","","image-keyboard-response","263","425772","0.0-238.0","611bed11fa6a3b35c9226c29","665500ab8938657b03fbdba8","6657924a1bed3a3a59b99006","2505","stimuli/00111010.jpg"," ","","feedback_trial","0","","","","","","","","","","","","","","","","","","","","",""
"","","","","","image-keyboard-response","264","427381","0.0-239.0","611bed11fa6a3b35c9226c29","665500ab8938657b03fbdba8","6657924a1bed3a3a59b99006","1607","stimuli/0001100.jpg","0","","prediction_trial","0","","true","","0","false","true","true","true","false","true","[0]","001","100","1","","","","","","",""
"","","","","","image-keyboard-response","265","427899","0.0-240.0","611bed11fa6a3b35c9226c29","665500ab8938657b03fbdba8","6657924a1bed3a3a59b99006","516","stimuli/00011000.jpg"," ","","feedback_trial","0","","","","","","","","","","","","","","","","","","","","",""
"","","","","","image-keyboard-response","266","429556","0.0-241.0","611bed11fa6a3b35c9226c29","665500ab8938657b03fbdba8","6657924a1bed3a3a59b99006","1654","stimuli/1010110.jpg","1","","prediction_trial","1","","true","","1","false","false","false","true","false","false","[1]","010","110","1","","","","","","",""
"","","","","","image-keyboard-response","267","430045","0.0-242.0","611bed11fa6a3b35c9226c29","665500ab8938657b03fbdba8","6657924a1bed3a3a59b99006","487","stimuli/10101101.jpg"," ","","feedback_trial","1","","","","","","","","","","","","","","","","","","","","",""
"","","","","","image-keyboard-response","268","431555","0.0-243.0","611bed11fa6a3b35c9226c29","665500ab8938657b03fbdba8","6657924a1bed3a3a59b99006","1506","stimuli/0111010.jpg","0","","prediction_trial","2","","false","","0","true","true","false","false","false","false","[1,0,2]","111","010","0","","","","","","",""
"","","","","","image-keyboard-response","269","432232","0.0-244.0","611bed11fa6a3b35c9226c29","665500ab8938657b03fbdba8","6657924a1bed3a3a59b99006","673","stimuli/01110102.jpg"," ","","feedback_trial","1","","","","","","","","","","","","","","","","","","","","",""
"","","","","","image-keyboard-response","270","433067","0.0-245.0","611bed11fa6a3b35c9226c29","665500ab8938657b03fbdba8","6657924a1bed3a3a59b99006","831","stimuli/0101111.jpg","2","","prediction_trial","2","","true","","0","false","false","false","false","false","false","[2,0]","101","111","1","","","","","","",""
"","","","","","image-keyboard-response","271","433674","0.0-246.0","611bed11fa6a3b35c9226c29","665500ab8938657b03fbdba8","6657924a1bed3a3a59b99006","583","stimuli/01011112.jpg"," ","","feedback_trial","2","","","","","","","","","","","","","","","","","","","","",""
"","","","","","image-keyboard-response","272","435023","0.0-247.0","611bed11fa6a3b35c9226c29","665500ab8938657b03fbdba8","6657924a1bed3a3a59b99006","1346","stimuli/1110100.jpg","1","","prediction_trial","1","","true","","1","true","true","false","false","false","false","[0,1]","110","100","1","","","","","","",""
"","","","","","image-keyboard-response","273","435437","0.0-248.0","611bed11fa6a3b35c9226c29","665500ab8938657b03fbdba8","6657924a1bed3a3a59b99006","412","stimuli/11101001.jpg"," ","","feedback_trial","0","","","","","","","","","","","","","","","","","","","","",""
"","","","","","image-keyboard-response","274","436987","0.0-249.0","611bed11fa6a3b35c9226c29","665500ab8938657b03fbdba8","6657924a1bed3a3a59b99006","1547","stimuli/0001001.jpg","0","","prediction_trial","0","","true","","0","true","true","true","true","true","true","[0]","001","001","1","","","","","","",""
"","","","","","image-keyboard-response","275","437430","0.0-250.0","611bed11fa6a3b35c9226c29","665500ab8938657b03fbdba8","6657924a1bed3a3a59b99006","440","stimuli/00010010.jpg"," ","","feedback_trial","0","","","","","","","","","","","","","","","","","","","","",""
"","","","","","image-keyboard-response","276","439730","0.0-251.0","611bed11fa6a3b35c9226c29","665500ab8938657b03fbdba8","6657924a1bed3a3a59b99006","2295","stimuli/1111000.jpg","2","","prediction_trial","1","","false","","1","true","true","false","false","false","false","[1,0,2]","111","000","0","","","","","","",""
"","","","","","image-keyboard-response","277","440328","0.0-252.0","611bed11fa6a3b35c9226c29","665500ab8938657b03fbdba8","6657924a1bed3a3a59b99006","595","stimuli/11110001.jpg"," ","","feedback_trial","1","","","","","","","","","","","","","","","","","","","","",""
"","","","","","image-keyboard-response","278","441392","0.0-253.0","611bed11fa6a3b35c9226c29","665500ab8938657b03fbdba8","6657924a1bed3a3a59b99006","1060","stimuli/2000010.jpg","2","","prediction_trial","2","","true","","2","true","true","true","true","true","true","[2]","000","010","1","","","","","","",""
"","","","","","image-keyboard-response","279","441833","0.0-254.0","611bed11fa6a3b35c9226c29","665500ab8938657b03fbdba8","6657924a1bed3a3a59b99006","437","stimuli/20000102.jpg"," ","","feedback_trial","2","","","","","","","","","","","","","","","","","","","","",""
"","","","","","image-keyboard-response","280","442779","0.0-255.0","611bed11fa6a3b35c9226c29","665500ab8938657b03fbdba8","6657924a1bed3a3a59b99006","926","stimuli/0010000.jpg","0","","prediction_trial","0","","true","","0","true","true","true","true","true","true","[0]","010","000","1","","","","","","",""
"","","","","","image-keyboard-response","281","443188","0.0-256.0","611bed11fa6a3b35c9226c29","665500ab8938657b03fbdba8","6657924a1bed3a3a59b99006","406","stimuli/00100000.jpg"," ","","feedback_trial","0","","","","","","","","","","","","","","","","","","","","",""
"","","","","","image-keyboard-response","282","444199","0.0-257.0","611bed11fa6a3b35c9226c29","665500ab8938657b03fbdba8","6657924a1bed3a3a59b99006","1008","stimuli/2110001.jpg","2","","prediction_trial","2","","true","","2","false","true","true","true","false","true","[2]","110","001","1","","","","","","",""
"","","","","","image-keyboard-response","283","444709","0.0-258.0","611bed11fa6a3b35c9226c29","665500ab8938657b03fbdba8","6657924a1bed3a3a59b99006","507","stimuli/21100012.jpg"," ","","feedback_trial","2","","","","","","","","","","","","","","","","","","","","",""
"","","","","","image-keyboard-response","284","447571","0.0-259.0","611bed11fa6a3b35c9226c29","665500ab8938657b03fbdba8","6657924a1bed3a3a59b99006","2859","stimuli/0000010.jpg","0","","prediction_trial","0","","true","","0","true","true","true","true","true","true","[0]","000","010","1","","","","","","",""
"","","","","","image-keyboard-response","285","448134","0.0-260.0","611bed11fa6a3b35c9226c29","665500ab8938657b03fbdba8","6657924a1bed3a3a59b99006","560","stimuli/00000100.jpg"," ","","feedback_trial","0","","","","","","","","","","","","","","","","","","","","",""
"","","","","","image-keyboard-response","286","448775","0.0-261.0","611bed11fa6a3b35c9226c29","665500ab8938657b03fbdba8","6657924a1bed3a3a59b99006","637","stimuli/2011010.jpg","2","","prediction_trial","2","","true","","2","true","true","false","false","false","false","[2,1]","011","010","1","","","","","","",""
"","","","","","image-keyboard-response","287","449474","0.0-262.0","611bed11fa6a3b35c9226c29","665500ab8938657b03fbdba8","6657924a1bed3a3a59b99006","694","stimuli/20110102.jpg"," ","","feedback_trial","2","","","","","","","","","","","","","","","","","","","","",""
"","","","","","image-keyboard-response","288","452305","0.0-263.0","611bed11fa6a3b35c9226c29","665500ab8938657b03fbdba8","6657924a1bed3a3a59b99006","2829","stimuli/2100111.jpg","0","","prediction_trial","2","","false","","2","false","false","true","true","false","false","[2]","100","111","0","","","","","","",""
"","","","","","image-keyboard-response","289","453034","0.0-264.0","611bed11fa6a3b35c9226c29","665500ab8938657b03fbdba8","6657924a1bed3a3a59b99006","707","stimuli/21001112.jpg"," ","","feedback_trial","2","","","","","","","","","","","","","","","","","","","","",""
"","","","","","image-keyboard-response","290","453828","0.0-265.0","611bed11fa6a3b35c9226c29","665500ab8938657b03fbdba8","6657924a1bed3a3a59b99006","791","stimuli/2111100.jpg","2","","prediction_trial","1","","false","","2","true","true","false","false","false","false","[2,1,0]","111","100","0","","","","","","",""
"","","","","","image-keyboard-response","291","455096","0.0-266.0","611bed11fa6a3b35c9226c29","665500ab8938657b03fbdba8","6657924a1bed3a3a59b99006","1265","stimuli/21111001.jpg"," ","","feedback_trial","2","","","","","","","","","","","","","","","","","","","","",""
"","","","","","image-keyboard-response","292","456026","0.0-267.0","611bed11fa6a3b35c9226c29","665500ab8938657b03fbdba8","6657924a1bed3a3a59b99006","926","stimuli/1111011.jpg","2","","prediction_trial","0","","false","","1","false","false","false","false","false","false","[0,2,1]","111","011","0","","","","","","",""
"","","","","","image-keyboard-response","293","457632","0.0-268.0","611bed11fa6a3b35c9226c29","665500ab8938657b03fbdba8","6657924a1bed3a3a59b99006","1602","stimuli/11110110.jpg"," ","","feedback_trial","0","","","","","","","","","","","","","","","","","","","","",""
"","","","","","image-keyboard-response","294","458185","0.0-269.0","611bed11fa6a3b35c9226c29","665500ab8938657b03fbdba8","6657924a1bed3a3a59b99006","550","stimuli/2100011.jpg","2","","prediction_trial","2","","true","","2","false","false","true","true","false","false","[2]","100","011","1","","","","","","",""
"","","","","","image-keyboard-response","295","458683","0.0-270.0","611bed11fa6a3b35c9226c29","665500ab8938657b03fbdba8","6657924a1bed3a3a59b99006","494","stimuli/21000112.jpg"," ","","feedback_trial","2","","","","","","","","","","","","","","","","","","","","",""
"","","","","","image-keyboard-response","296","459629","0.0-271.0","611bed11fa6a3b35c9226c29","665500ab8938657b03fbdba8","6657924a1bed3a3a59b99006","943","stimuli/1001111.jpg","1","","prediction_trial","1","","true","","1","false","false","true","true","false","false","[1]","001","111","1","","","","","","",""
"","","","","","image-keyboard-response","297","460287","0.0-272.0","611bed11fa6a3b35c9226c29","665500ab8938657b03fbdba8","6657924a1bed3a3a59b99006","655","stimuli/10011111.jpg"," ","","feedback_trial","1","","","","","","","","","","","","","","","","","","","","",""
"","","","","","image-keyboard-response","298","462277","0.0-273.0","611bed11fa6a3b35c9226c29","665500ab8938657b03fbdba8","6657924a1bed3a3a59b99006","1968","stimuli/2011000.jpg","1","","prediction_trial","1","","true","","2","true","true","false","false","false","false","[2,1]","011","000","1","","","","","","",""
"","","","","","image-keyboard-response","299","462797","0.0-274.0","611bed11fa6a3b35c9226c29","665500ab8938657b03fbdba8","6657924a1bed3a3a59b99006","517","stimuli/20110001.jpg"," ","","feedback_trial","2","","","","","","","","","","","","","","","","","","","","",""
"","","","","","image-keyboard-response","300","464296","0.0-275.0","611bed11fa6a3b35c9226c29","665500ab8938657b03fbdba8","6657924a1bed3a3a59b99006","1495","stimuli/2101101.jpg","1","","prediction_trial","0","","false","","2","false","false","false","false","false","false","[2,0]","101","101","0","","","","","","",""
"","","","","","image-keyboard-response","301","465005","0.0-276.0","611bed11fa6a3b35c9226c29","665500ab8938657b03fbdba8","6657924a1bed3a3a59b99006","705","stimuli/21011010.jpg"," ","","feedback_trial","2","","","","","","","","","","","","","","","","","","","","",""
"","","","","","image-keyboard-response","302","466395","0.0-277.0","611bed11fa6a3b35c9226c29","665500ab8938657b03fbdba8","6657924a1bed3a3a59b99006","1386","stimuli/1101001.jpg","1","","prediction_trial","1","","true","","1","true","true","true","true","true","true","[1]","101","001","1","","","","","","",""
"","","","","","image-keyboard-response","303","466845","0.0-278.0","611bed11fa6a3b35c9226c29","665500ab8938657b03fbdba8","6657924a1bed3a3a59b99006","446","stimuli/11010011.jpg"," ","","feedback_trial","1","","","","","","","","","","","","","","","","","","","","",""
"","","","","","image-keyboard-response","304","468370","0.0-279.0","611bed11fa6a3b35c9226c29","665500ab8938657b03fbdba8","6657924a1bed3a3a59b99006","1521","stimuli/1001010.jpg","1","","prediction_trial","1","","true","","1","false","true","true","true","false","true","[1]","001","010","1","","","","","","",""
"","","","","","image-keyboard-response","305","468808","0.0-280.0","611bed11fa6a3b35c9226c29","665500ab8938657b03fbdba8","6657924a1bed3a3a59b99006","435","stimuli/10010101.jpg"," ","","feedback_trial","1","","","","","","","","","","","","","","","","","","","","",""
"","","","","","image-keyboard-response","306","470608","0.0-281.0","611bed11fa6a3b35c9226c29","665500ab8938657b03fbdba8","6657924a1bed3a3a59b99006","1795","stimuli/0001101.jpg","0","","prediction_trial","0","","true","","0","false","false","true","true","false","false","[0]","001","101","1","","","","","","",""
"","","","","","image-keyboard-response","307","471515","0.0-282.0","611bed11fa6a3b35c9226c29","665500ab8938657b03fbdba8","6657924a1bed3a3a59b99006","903","stimuli/00011010.jpg"," ","","feedback_trial","0","","","","","","","","","","","","","","","","","","","","",""
"","","","","","image-keyboard-response","308","473700","0.0-283.0","611bed11fa6a3b35c9226c29","665500ab8938657b03fbdba8","6657924a1bed3a3a59b99006","2179","stimuli/1010101.jpg","2","","prediction_trial","1","","false","","1","true","true","false","true","false","true","[1]","010","101","0","","","","","","",""
"","","","","","image-keyboard-response","309","474518","0.0-284.0","611bed11fa6a3b35c9226c29","665500ab8938657b03fbdba8","6657924a1bed3a3a59b99006","813","stimuli/10101011.jpg"," ","","feedback_trial","1","","","","","","","","","","","","","","","","","","","","",""
"","","","","","image-keyboard-response","310","475512","0.0-285.0","611bed11fa6a3b35c9226c29","665500ab8938657b03fbdba8","6657924a1bed3a3a59b99006","990","stimuli/0010011.jpg","0","","prediction_trial","0","","true","","0","true","true","true","true","true","true","[0]","010","011","1","","","","","","",""
"","","","","","image-keyboard-response","311","475945","0.0-286.0","611bed11fa6a3b35c9226c29","665500ab8938657b03fbdba8","6657924a1bed3a3a59b99006","432","stimuli/00100110.jpg"," ","","feedback_trial","0","","","","","","","","","","","","","","","","","","","","",""
"","","","","","image-keyboard-response","312","477736","0.0-287.0","611bed11fa6a3b35c9226c29","665500ab8938657b03fbdba8","6657924a1bed3a3a59b99006","1787","stimuli/2010101.jpg","0","","prediction_trial","2","","false","","2","false","false","true","true","false","false","[2]","010","101","0","","","","","","",""
"","","","","","image-keyboard-response","313","478592","0.0-288.0","611bed11fa6a3b35c9226c29","665500ab8938657b03fbdba8","6657924a1bed3a3a59b99006","853","stimuli/20101012.jpg"," ","","feedback_trial","2","","","","","","","","","","","","","","","","","","","","",""
"","","","","","image-keyboard-response","314","479711","0.0-289.0","611bed11fa6a3b35c9226c29","665500ab8938657b03fbdba8","6657924a1bed3a3a59b99006","1114","stimuli/1101110.jpg","0","","prediction_trial","1","","false","","1","false","false","true","true","false","false","[1]","101","110","0","","","","","","",""
"","","","","","image-keyboard-response","315","480339","0.0-290.0","611bed11fa6a3b35c9226c29","665500ab8938657b03fbdba8","6657924a1bed3a3a59b99006","624","stimuli/11011101.jpg"," ","","feedback_trial","1","","","","","","","","","","","","","","","","","","","","",""
"","","","","","image-keyboard-response","316","481448","0.0-291.0","611bed11fa6a3b35c9226c29","665500ab8938657b03fbdba8","6657924a1bed3a3a59b99006","1084","stimuli/0101001.jpg","0","","prediction_trial","2","","false","","0","true","true","false","false","false","false","[0,2]","101","001","0","","","","","","",""
"","","","","","image-keyboard-response","317","482477","0.0-292.0","611bed11fa6a3b35c9226c29","665500ab8938657b03fbdba8","6657924a1bed3a3a59b99006","1025","stimuli/01010012.jpg"," ","","feedback_trial","0","","","","","","","","","","","","","","","","","","","","",""
"","","","","","survey-html-form","318","508779","0.0-293.0","611bed11fa6a3b35c9226c29","665500ab8938657b03fbdba8","6657924a1bed3a3a59b99006","26298","","{""feedback"":""Guessed"",""age"":""68"",""gender"":""Male"",""other_gender"":"""",""race"":""White"",""other_race"":"""",""ethnicity"":""Non-Hispanic""}","","exit_survey","","","","","","","","","","","","","","","","Guessed","68","Non-Hispanic","Male","White","0.5416666666666666","0.5416666666666666"
