"success","timeout","failed_images","failed_audio","failed_video","trial_type","trial_index","time_elapsed","internal_node_id","prolific_id","prolific_study_id","prolific_session_id","rt","stimulus","response","view_history","trial","character_choice","stimulus_dict","accuracy","correct_response","ball_pos","ego_ball_visible","ego_can_infer","alter_ball_visible","alter_can_infer","collective_ball_visible","collective_can_infer","search_locations","alter_occluders","ego_occluders","accuracy_bool","feedback","age","ethnicity","gender","race","overall_accuracy","bonus"
"true","false","[]","[]","[]","preload","0","8036","0.0-0.0","5e6982499d7ba9245e58262a","665500ab8938657b03fbdba8","665792de4aff42002d7d08de","","","","","","","","","","","","","","","","","","","","","","","","","","",""
"true","","","","","fullscreen","1","11690","0.0-1.0","5e6982499d7ba9245e58262a","665500ab8938657b03fbdba8","665792de4aff42002d7d08de","","","","","","","","","","","","","","","","","","","","","","","","","","",""
"","","","","","html-button-response","2","22483","0.0-2.0","5e6982499d7ba9245e58262a","665500ab8938657b03fbdba8","665792de4aff42002d7d08de","10791","<p><b>Consent Form</b></p> <div style=""text-align:left;background-color:lightgrey; padding:20px; max-width:900px;""><p>Please consider this information carefully before deciding whether to participate in this research.</p> <p>The purpose of this research is to examine which factors influence social judgment and decision-making. You will be asked to make judgements about individuals and actions in social scenarios. We are simply interested in your judgement. The study will take less than 1 hour to complete, and you will receive less than $20 on Prolific. Your compensation and time commitment are specified in the study description. There are no anticipated risks associated with participating in this study. The effects of participating should be comparable to those you would ordinarily experience from viewing a computer monitor and using a mouse or keyboard for a similar amount of time. At the end of the study, we will provide an explanation of the questions that motivate this line of research and will describe the potential implications. </p><p> Your participation in this study is completely voluntary and you may refuse to participate or you may choose to withdraw at any time without penalty or loss of benefits to you which are otherwise entitled. Your participation in this study will remain confidential. No personally identifiable information will be associated with your data. Also, all analyses of the data will be averaged across all the participants, so your individual responses will never be specifically analyzed. </p><p> If you have questions or concerns about your participation or payment, or want to request a summary of research findings, please contact Dr. Jonathan Phillips at Jonathan.S.Phillips@dartmouth.edu. </p><p> Please save a copy of this form for your records. </p><p><b>Agreement: </b>The nature and purpose of this research have been sufficiently explained and I agree to participate in this study. I understand that I am free to withdraw at any time without incurring any penalty. Please consent by clicking the button below to continue. Otherwise, please exit the study at any time. </p>","0","","","","","","","","","","","","","","","","","","","","","","","",""
"","","","","","instructions","3","70479","0.0-3.0-0.0","5e6982499d7ba9245e58262a","665500ab8938657b03fbdba8","665792de4aff42002d7d08de","47994","","","[{""page_index"":0,""viewing_time"":1665},{""page_index"":1,""viewing_time"":2098},{""page_index"":2,""viewing_time"":1751},{""page_index"":3,""viewing_time"":2751},{""page_index"":4,""viewing_time"":1907},{""page_index"":5,""viewing_time"":2048},{""page_index"":6,""viewing_time"":3212},{""page_index"":7,""viewing_time"":1927},{""page_index"":8,""viewing_time"":2553},{""page_index"":9,""viewing_time"":2109},{""page_index"":10,""viewing_time"":13458},{""page_index"":11,""viewing_time"":6565},{""page_index"":12,""viewing_time"":3956},{""page_index"":13,""viewing_time"":1993}]","intro","","","","","","","","","","","","","","","","","","","","","",""
"","","","","","image-keyboard-response","4","75116","0.0-3.0-1.0","5e6982499d7ba9245e58262a","665500ab8938657b03fbdba8","665792de4aff42002d7d08de","4621","stimuli/2110001.jpg","2","","prediction_practice","2","{""filepath"":""stimuli/2110001.jpg"",""ball_pos"":2,""ego_ball_visible"":false,""ego_can_infer"":true,""alter_ball_visible"":true,""alter_can_infer"":true,""collective_ball_visible"":false,""collective_can_infer"":true,""search_locations"":[2],""alter_occluders"":""110"",""ego_occluders"":""001""}","true","","","","","","","","","","","","","","","","","","",""
"","","","","","image-keyboard-response","5","76620","0.0-3.0-2.0","5e6982499d7ba9245e58262a","665500ab8938657b03fbdba8","665792de4aff42002d7d08de","1492","stimuli/21100012.jpg"," ","","practrice_feedback","2","","","","","","","","","","","","","","","","","","","","",""
"","","","","","image-keyboard-response","6","78180","0.0-3.0-3.0","5e6982499d7ba9245e58262a","665500ab8938657b03fbdba8","665792de4aff42002d7d08de","1549","stimuli/0010011.jpg","0","","prediction_practice","0","{""filepath"":""stimuli/0010011.jpg"",""ball_pos"":0,""ego_ball_visible"":true,""ego_can_infer"":true,""alter_ball_visible"":true,""alter_can_infer"":true,""collective_ball_visible"":true,""collective_can_infer"":true,""search_locations"":[0],""alter_occluders"":""010"",""ego_occluders"":""011""}","true","","","","","","","","","","","","","","","","","","",""
"","","","","","image-keyboard-response","7","78491","0.0-3.0-4.0","5e6982499d7ba9245e58262a","665500ab8938657b03fbdba8","665792de4aff42002d7d08de","300","stimuli/00100110.jpg"," ","","practrice_feedback","0","","","","","","","","","","","","","","","","","","","","",""
"","","","","","image-keyboard-response","8","79632","0.0-3.0-5.0","5e6982499d7ba9245e58262a","665500ab8938657b03fbdba8","665792de4aff42002d7d08de","1129","stimuli/1000101.jpg","1","","prediction_practice","1","{""filepath"":""stimuli/1000101.jpg"",""ball_pos"":1,""ego_ball_visible"":true,""ego_can_infer"":true,""alter_ball_visible"":true,""alter_can_infer"":true,""collective_ball_visible"":true,""collective_can_infer"":true,""search_locations"":[1],""alter_occluders"":""000"",""ego_occluders"":""101""}","true","","","","","","","","","","","","","","","","","","",""
"","","","","","image-keyboard-response","9","80038","0.0-3.0-6.0","5e6982499d7ba9245e58262a","665500ab8938657b03fbdba8","665792de4aff42002d7d08de","396","stimuli/10001011.jpg"," ","","practrice_feedback","1","","","","","","","","","","","","","","","","","","","","",""
"","","","","","image-keyboard-response","10","81898","0.0-3.0-7.0","5e6982499d7ba9245e58262a","665500ab8938657b03fbdba8","665792de4aff42002d7d08de","1848","stimuli/1001111.jpg","2","","prediction_practice","1","{""filepath"":""stimuli/1001111.jpg"",""ball_pos"":1,""ego_ball_visible"":false,""ego_can_infer"":false,""alter_ball_visible"":true,""alter_can_infer"":true,""collective_ball_visible"":false,""collective_can_infer"":false,""search_locations"":[1],""alter_occluders"":""001"",""ego_occluders"":""111""}","false","","","","","","","","","","","","","","","","","","",""
"","","","","","image-keyboard-response","11","83709","0.0-3.0-8.0","5e6982499d7ba9245e58262a","665500ab8938657b03fbdba8","665792de4aff42002d7d08de","1800","stimuli/10011111.jpg"," ","","practrice_feedback","1","","","","","","","","","","","","","","","","","","","","",""
"","","","","","image-keyboard-response","12","85110","0.0-3.0-9.0","5e6982499d7ba9245e58262a","665500ab8938657b03fbdba8","665792de4aff42002d7d08de","1390","stimuli/0110010.jpg","0","","prediction_practice","0","{""filepath"":""stimuli/0110010.jpg"",""ball_pos"":0,""ego_ball_visible"":true,""ego_can_infer"":true,""alter_ball_visible"":false,""alter_can_infer"":false,""collective_ball_visible"":false,""collective_can_infer"":false,""search_locations"":[0,1],""alter_occluders"":""110"",""ego_occluders"":""010""}","true","","","","","","","","","","","","","","","","","","",""
"","","","","","image-keyboard-response","13","86335","0.0-3.0-10.0","5e6982499d7ba9245e58262a","665500ab8938657b03fbdba8","665792de4aff42002d7d08de","1214","stimuli/01100100.jpg"," ","","practrice_feedback","0","","","","","","","","","","","","","","","","","","","","",""
"","","","","","image-keyboard-response","14","87395","0.0-3.0-11.0","5e6982499d7ba9245e58262a","665500ab8938657b03fbdba8","665792de4aff42002d7d08de","1050","stimuli/1111100.jpg","1","","prediction_practice","0","{""filepath"":""stimuli/1111100.jpg"",""ball_pos"":1,""ego_ball_visible"":true,""ego_can_infer"":true,""alter_ball_visible"":false,""alter_can_infer"":false,""collective_ball_visible"":false,""collective_can_infer"":false,""search_locations"":[1,2,0],""alter_occluders"":""111"",""ego_occluders"":""100""}","false","","","","","","","","","","","","","","","","","","",""
"","","","","","image-keyboard-response","15","92979","0.0-3.0-12.0","5e6982499d7ba9245e58262a","665500ab8938657b03fbdba8","665792de4aff42002d7d08de","5573","stimuli/11111000.jpg"," ","","practrice_feedback","1","","","","","","","","","","","","","","","","","","","","",""
"","","","","","image-keyboard-response","16","96891","0.0-3.0-13.0","5e6982499d7ba9245e58262a","665500ab8938657b03fbdba8","665792de4aff42002d7d08de","3901","stimuli/2001100.jpg","2","","prediction_practice","2","{""filepath"":""stimuli/2001100.jpg"",""ball_pos"":2,""ego_ball_visible"":true,""ego_can_infer"":true,""alter_ball_visible"":false,""alter_can_infer"":true,""collective_ball_visible"":false,""collective_can_infer"":true,""search_locations"":[2],""alter_occluders"":""001"",""ego_occluders"":""100""}","true","","","","","","","","","","","","","","","","","","",""
"","","","","","image-keyboard-response","17","97907","0.0-3.0-14.0","5e6982499d7ba9245e58262a","665500ab8938657b03fbdba8","665792de4aff42002d7d08de","1005","stimuli/20011002.jpg"," ","","practrice_feedback","2","","","","","","","","","","","","","","","","","","","","",""
"","","","","","image-keyboard-response","18","101819","0.0-3.0-15.0","5e6982499d7ba9245e58262a","665500ab8938657b03fbdba8","665792de4aff42002d7d08de","3902","stimuli/0010100.jpg","1","","prediction_practice","0","{""filepath"":""stimuli/0010100.jpg"",""ball_pos"":0,""ego_ball_visible"":false,""ego_can_infer"":true,""alter_ball_visible"":true,""alter_can_infer"":true,""collective_ball_visible"":false,""collective_can_infer"":true,""search_locations"":[0],""alter_occluders"":""010"",""ego_occluders"":""100""}","false","","","","","","","","","","","","","","","","","","",""
"","","","","","image-keyboard-response","19","102780","0.0-3.0-16.0","5e6982499d7ba9245e58262a","665500ab8938657b03fbdba8","665792de4aff42002d7d08de","950","stimuli/00101000.jpg"," ","","practrice_feedback","0","","","","","","","","","","","","","","","","","","","","",""
"","","","","","image-keyboard-response","20","110075","0.0-3.0-17.0","5e6982499d7ba9245e58262a","665500ab8938657b03fbdba8","665792de4aff42002d7d08de","7285","stimuli/2110011.jpg","1","","prediction_practice","2","{""filepath"":""stimuli/2110011.jpg"",""ball_pos"":2,""ego_ball_visible"":false,""ego_can_infer"":false,""alter_ball_visible"":true,""alter_can_infer"":true,""collective_ball_visible"":false,""collective_can_infer"":false,""search_locations"":[2],""alter_occluders"":""110"",""ego_occluders"":""011""}","false","","","","","","","","","","","","","","","","","","",""
"","","","","","image-keyboard-response","21","111390","0.0-3.0-18.0","5e6982499d7ba9245e58262a","665500ab8938657b03fbdba8","665792de4aff42002d7d08de","1305","stimuli/21100112.jpg"," ","","practrice_feedback","2","","","","","","","","","","","","","","","","","","","","",""
"","","","","","image-keyboard-response","22","113651","0.0-3.0-19.0","5e6982499d7ba9245e58262a","665500ab8938657b03fbdba8","665792de4aff42002d7d08de","2251","stimuli/1010100.jpg","1","","prediction_practice","1","{""filepath"":""stimuli/1010100.jpg"",""ball_pos"":1,""ego_ball_visible"":true,""ego_can_infer"":true,""alter_ball_visible"":false,""alter_can_infer"":true,""collective_ball_visible"":false,""collective_can_infer"":true,""search_locations"":[1],""alter_occluders"":""010"",""ego_occluders"":""100""}","true","","","","","","","","","","","","","","","","","","",""
"","","","","","image-keyboard-response","23","114306","0.0-3.0-20.0","5e6982499d7ba9245e58262a","665500ab8938657b03fbdba8","665792de4aff42002d7d08de","645","stimuli/10101001.jpg"," ","","practrice_feedback","1","","","","","","","","","","","","","","","","","","","","",""
"","","","","","html-button-response","24","116943","0.0-3.0-21.0","5e6982499d7ba9245e58262a","665500ab8938657b03fbdba8","665792de4aff42002d7d08de","2634","Now that you've had some practice, you'll be tested with a couple of easy trials. If you correctly predict Sam's choice, you'll move on to complete the experiment!","0","","","","","","","","","","","","","","","","","","","","","","","",""
"","","","","","image-keyboard-response","25","119579","0.0-3.0-22.0-0.0","5e6982499d7ba9245e58262a","665500ab8938657b03fbdba8","665792de4aff42002d7d08de","2624","stimuli/0000011.jpg","arrowleft","","comprehension_quiz","","","true","arrowleft","","","","","","","","","","","","","","","","","",""
"","","","","","image-keyboard-response","26","120830","0.0-3.0-22.0-1.0","5e6982499d7ba9245e58262a","665500ab8938657b03fbdba8","665792de4aff42002d7d08de","1239","stimuli/00000110.jpg"," ","","comprehension_quiz","","","true"," ","","","","","","","","","","","","","","","","","",""
"","","","","","image-keyboard-response","27","122950","0.0-3.0-22.0-2.0","5e6982499d7ba9245e58262a","665500ab8938657b03fbdba8","665792de4aff42002d7d08de","2111","stimuli/1010010.jpg","arrowdown","","comprehension_quiz","","","true","arrowdown","","","","","","","","","","","","","","","","","",""
"","","","","","image-keyboard-response","28","123890","0.0-3.0-22.0-3.0","5e6982499d7ba9245e58262a","665500ab8938657b03fbdba8","665792de4aff42002d7d08de","929","stimuli/10100101.jpg"," ","","comprehension_quiz","","","true"," ","","","","","","","","","","","","","","","","","",""
"","","","","","html-button-response","29","125528","0.0-4.0","5e6982499d7ba9245e58262a","665500ab8938657b03fbdba8","665792de4aff42002d7d08de","1598","The experiment will now begin.","0","","","","","","","","","","","","","","","","","","","","","","","",""
"","","","","","image-keyboard-response","30","127116","0.0-5.0","5e6982499d7ba9245e58262a","665500ab8938657b03fbdba8","665792de4aff42002d7d08de","1578","stimuli/1101000.jpg","1","","prediction_trial","1","","true","","1","true","true","true","true","true","true","[1]","101","000","1","","","","","","",""
"","","","","","image-keyboard-response","31","127842","0.0-6.0","5e6982499d7ba9245e58262a","665500ab8938657b03fbdba8","665792de4aff42002d7d08de","722","stimuli/11010001.jpg"," ","","feedback_trial","1","","","","","","","","","","","","","","","","","","","","",""
"","","","","","image-keyboard-response","32","130368","0.0-7.0","5e6982499d7ba9245e58262a","665500ab8938657b03fbdba8","665792de4aff42002d7d08de","2516","stimuli/1001110.jpg","2","","prediction_trial","1","","false","","1","false","false","true","true","false","false","[1]","001","110","0","","","","","","",""
"","","","","","image-keyboard-response","33","131414","0.0-8.0","5e6982499d7ba9245e58262a","665500ab8938657b03fbdba8","665792de4aff42002d7d08de","1036","stimuli/10011101.jpg"," ","","feedback_trial","1","","","","","","","","","","","","","","","","","","","","",""
"","","","","","image-keyboard-response","34","133574","0.0-9.0","5e6982499d7ba9245e58262a","665500ab8938657b03fbdba8","665792de4aff42002d7d08de","2151","stimuli/2110111.jpg","1","","prediction_trial","2","","false","","2","false","false","true","true","false","false","[2]","110","111","0","","","","","","",""
"","","","","","image-keyboard-response","35","134324","0.0-10.0","5e6982499d7ba9245e58262a","665500ab8938657b03fbdba8","665792de4aff42002d7d08de","741","stimuli/21101112.jpg"," ","","feedback_trial","2","","","","","","","","","","","","","","","","","","","","",""
"","","","","","image-keyboard-response","36","138097","0.0-11.0","5e6982499d7ba9245e58262a","665500ab8938657b03fbdba8","665792de4aff42002d7d08de","3762","stimuli/1000110.jpg","1","","prediction_trial","1","","true","","1","false","false","true","true","false","false","[1]","000","110","1","","","","","","",""
"","","","","","image-keyboard-response","37","139022","0.0-12.0","5e6982499d7ba9245e58262a","665500ab8938657b03fbdba8","665792de4aff42002d7d08de","914","stimuli/10001101.jpg"," ","","feedback_trial","1","","","","","","","","","","","","","","","","","","","","",""
"","","","","","image-keyboard-response","38","141793","0.0-13.0","5e6982499d7ba9245e58262a","665500ab8938657b03fbdba8","665792de4aff42002d7d08de","2762","stimuli/0001100.jpg","2","","prediction_trial","0","","false","","0","false","true","true","true","false","true","[0]","001","100","0","","","","","","",""
"","","","","","image-keyboard-response","39","142528","0.0-14.0","5e6982499d7ba9245e58262a","665500ab8938657b03fbdba8","665792de4aff42002d7d08de","725","stimuli/00011000.jpg"," ","","feedback_trial","0","","","","","","","","","","","","","","","","","","","","",""
"","","","","","image-keyboard-response","40","148081","0.0-15.0","5e6982499d7ba9245e58262a","665500ab8938657b03fbdba8","665792de4aff42002d7d08de","5543","stimuli/1101110.jpg","0","","prediction_trial","1","","false","","1","false","false","true","true","false","false","[1]","101","110","0","","","","","","",""
"","","","","","image-keyboard-response","41","148939","0.0-16.0","5e6982499d7ba9245e58262a","665500ab8938657b03fbdba8","665792de4aff42002d7d08de","847","stimuli/11011101.jpg"," ","","feedback_trial","1","","","","","","","","","","","","","","","","","","","","",""
"","","","","","image-keyboard-response","42","152075","0.0-17.0","5e6982499d7ba9245e58262a","665500ab8938657b03fbdba8","665792de4aff42002d7d08de","3131","stimuli/2100001.jpg","0","","prediction_trial","2","","false","","2","false","true","true","true","false","true","[2]","100","001","0","","","","","","",""
"","","","","","image-keyboard-response","43","152868","0.0-18.0","5e6982499d7ba9245e58262a","665500ab8938657b03fbdba8","665792de4aff42002d7d08de","783","stimuli/21000012.jpg"," ","","feedback_trial","2","","","","","","","","","","","","","","","","","","","","",""
"","","","","","image-keyboard-response","44","155944","0.0-19.0","5e6982499d7ba9245e58262a","665500ab8938657b03fbdba8","665792de4aff42002d7d08de","3065","stimuli/2001011.jpg","2","","prediction_trial","2","","true","","2","false","false","false","true","false","false","[2]","001","011","1","","","","","","",""
"","","","","","image-keyboard-response","45","156925","0.0-20.0","5e6982499d7ba9245e58262a","665500ab8938657b03fbdba8","665792de4aff42002d7d08de","970","stimuli/20010112.jpg"," ","","feedback_trial","2","","","","","","","","","","","","","","","","","","","","",""
"","","","","","image-keyboard-response","46","160305","0.0-21.0","5e6982499d7ba9245e58262a","665500ab8938657b03fbdba8","665792de4aff42002d7d08de","3370","stimuli/0101001.jpg","0","","prediction_trial","2","","false","","0","true","true","false","false","false","false","[0,2]","101","001","0","","","","","","",""
"","","","","","image-keyboard-response","47","161163","0.0-22.0","5e6982499d7ba9245e58262a","665500ab8938657b03fbdba8","665792de4aff42002d7d08de","846","stimuli/01010012.jpg"," ","","feedback_trial","0","","","","","","","","","","","","","","","","","","","","",""
"","","","","","image-keyboard-response","48","164277","0.0-23.0","5e6982499d7ba9245e58262a","665500ab8938657b03fbdba8","665792de4aff42002d7d08de","3104","stimuli/0101100.jpg","0","","prediction_trial","2","","false","","0","false","true","false","false","false","false","[2,0]","101","100","0","","","","","","",""
"","","","","","image-keyboard-response","49","165339","0.0-24.0","5e6982499d7ba9245e58262a","665500ab8938657b03fbdba8","665792de4aff42002d7d08de","1057","stimuli/01011002.jpg"," ","","feedback_trial","2","","","","","","","","","","","","","","","","","","","","",""
"","","","","","image-keyboard-response","50","167014","0.0-25.0","5e6982499d7ba9245e58262a","665500ab8938657b03fbdba8","665792de4aff42002d7d08de","1665","stimuli/2001001.jpg","2","","prediction_trial","2","","true","","2","false","true","false","true","false","true","[2]","001","001","1","","","","","","",""
"","","","","","image-keyboard-response","51","167760","0.0-26.0","5e6982499d7ba9245e58262a","665500ab8938657b03fbdba8","665792de4aff42002d7d08de","735","stimuli/20010012.jpg"," ","","feedback_trial","2","","","","","","","","","","","","","","","","","","","","",""
"","","","","","image-keyboard-response","52","169250","0.0-27.0","5e6982499d7ba9245e58262a","665500ab8938657b03fbdba8","665792de4aff42002d7d08de","1480","stimuli/1001100.jpg","1","","prediction_trial","1","","true","","1","true","true","true","true","true","true","[1]","001","100","1","","","","","","",""
"","","","","","image-keyboard-response","53","169716","0.0-28.0","5e6982499d7ba9245e58262a","665500ab8938657b03fbdba8","665792de4aff42002d7d08de","454","stimuli/10011001.jpg"," ","","feedback_trial","1","","","","","","","","","","","","","","","","","","","","",""
"","","","","","image-keyboard-response","54","170976","0.0-29.0","5e6982499d7ba9245e58262a","665500ab8938657b03fbdba8","665792de4aff42002d7d08de","1249","stimuli/1001101.jpg","1","","prediction_trial","1","","true","","1","true","true","true","true","true","true","[1]","001","101","1","","","","","","",""
"","","","","","image-keyboard-response","55","171451","0.0-30.0","5e6982499d7ba9245e58262a","665500ab8938657b03fbdba8","665792de4aff42002d7d08de","456","stimuli/10011011.jpg"," ","","feedback_trial","1","","","","","","","","","","","","","","","","","","","","",""
"","","","","","image-keyboard-response","56","172677","0.0-31.0","5e6982499d7ba9245e58262a","665500ab8938657b03fbdba8","665792de4aff42002d7d08de","1214","stimuli/0000010.jpg","0","","prediction_trial","0","","true","","0","true","true","true","true","true","true","[0]","000","010","1","","","","","","",""
"","","","","","image-keyboard-response","57","173128","0.0-32.0","5e6982499d7ba9245e58262a","665500ab8938657b03fbdba8","665792de4aff42002d7d08de","441","stimuli/00000100.jpg"," ","","feedback_trial","0","","","","","","","","","","","","","","","","","","","","",""
"","","","","","image-keyboard-response","58","174347","0.0-33.0","5e6982499d7ba9245e58262a","665500ab8938657b03fbdba8","665792de4aff42002d7d08de","1209","stimuli/0000000.jpg","0","","prediction_trial","0","","true","","0","true","true","true","true","true","true","[0]","000","000","1","","","","","","",""
"","","","","","image-keyboard-response","59","174828","0.0-34.0","5e6982499d7ba9245e58262a","665500ab8938657b03fbdba8","665792de4aff42002d7d08de","478","stimuli/00000000.jpg"," ","","feedback_trial","0","","","","","","","","","","","","","","","","","","","","",""
"","","","","","image-keyboard-response","60","175805","0.0-35.0","5e6982499d7ba9245e58262a","665500ab8938657b03fbdba8","665792de4aff42002d7d08de","966","stimuli/0001001.jpg","0","","prediction_trial","0","","true","","0","true","true","true","true","true","true","[0]","001","001","1","","","","","","",""
"","","","","","image-keyboard-response","61","176289","0.0-36.0","5e6982499d7ba9245e58262a","665500ab8938657b03fbdba8","665792de4aff42002d7d08de","474","stimuli/00010010.jpg"," ","","feedback_trial","0","","","","","","","","","","","","","","","","","","","","",""
"","","","","","image-keyboard-response","62","180588","0.0-37.0","5e6982499d7ba9245e58262a","665500ab8938657b03fbdba8","665792de4aff42002d7d08de","4289","stimuli/0011100.jpg","0","","prediction_trial","0","","true","","0","false","true","true","true","false","true","[0]","011","100","1","","","","","","",""
"","","","","","image-keyboard-response","63","181390","0.0-38.0","5e6982499d7ba9245e58262a","665500ab8938657b03fbdba8","665792de4aff42002d7d08de","792","stimuli/00111000.jpg"," ","","feedback_trial","0","","","","","","","","","","","","","","","","","","","","",""
"","","","","","image-keyboard-response","64","184098","0.0-39.0","5e6982499d7ba9245e58262a","665500ab8938657b03fbdba8","665792de4aff42002d7d08de","2711","stimuli/2001100.jpg","2","","prediction_trial","2","","true","","2","true","true","false","true","false","true","[2]","001","100","1","","","","","","",""
"","","","","","image-keyboard-response","65","184877","0.0-40.0","5e6982499d7ba9245e58262a","665500ab8938657b03fbdba8","665792de4aff42002d7d08de","769","stimuli/20011002.jpg"," ","","feedback_trial","2","","","","","","","","","","","","","","","","","","","","",""
"","","","","","image-keyboard-response","66","186112","0.0-41.0","5e6982499d7ba9245e58262a","665500ab8938657b03fbdba8","665792de4aff42002d7d08de","1226","stimuli/0100000.jpg","0","","prediction_trial","0","","true","","0","true","true","false","true","false","true","[0]","100","000","1","","","","","","",""
"","","","","","image-keyboard-response","67","186847","0.0-42.0","5e6982499d7ba9245e58262a","665500ab8938657b03fbdba8","665792de4aff42002d7d08de","725","stimuli/01000000.jpg"," ","","feedback_trial","0","","","","","","","","","","","","","","","","","","","","",""
"","","","","","image-keyboard-response","68","187938","0.0-43.0","5e6982499d7ba9245e58262a","665500ab8938657b03fbdba8","665792de4aff42002d7d08de","1081","stimuli/2111000.jpg","2","","prediction_trial","0","","false","","2","true","true","false","false","false","false","[0,1,2]","111","000","0","","","","","","",""
"","","","","","image-keyboard-response","69","188703","0.0-44.0","5e6982499d7ba9245e58262a","665500ab8938657b03fbdba8","665792de4aff42002d7d08de","755","stimuli/21110000.jpg"," ","","feedback_trial","0","","","","","","","","","","","","","","","","","","","","",""
"","","","","","image-keyboard-response","70","190104","0.0-45.0","5e6982499d7ba9245e58262a","665500ab8938657b03fbdba8","665792de4aff42002d7d08de","1391","stimuli/1010011.jpg","1","","prediction_trial","1","","true","","1","false","false","false","true","false","false","[1]","010","011","1","","","","","","",""
"","","","","","image-keyboard-response","71","190754","0.0-46.0","5e6982499d7ba9245e58262a","665500ab8938657b03fbdba8","665792de4aff42002d7d08de","638","stimuli/10100111.jpg"," ","","feedback_trial","1","","","","","","","","","","","","","","","","","","","","",""
"","","","","","image-keyboard-response","72","191974","0.0-47.0","5e6982499d7ba9245e58262a","665500ab8938657b03fbdba8","665792de4aff42002d7d08de","1207","stimuli/2100101.jpg","0","","prediction_trial","2","","false","","2","false","false","true","true","false","false","[2]","100","101","0","","","","","","",""
"","","","","","image-keyboard-response","73","192689","0.0-48.0","5e6982499d7ba9245e58262a","665500ab8938657b03fbdba8","665792de4aff42002d7d08de","705","stimuli/21001012.jpg"," ","","feedback_trial","2","","","","","","","","","","","","","","","","","","","","",""
"","","","","","image-keyboard-response","74","193720","0.0-49.0","5e6982499d7ba9245e58262a","665500ab8938657b03fbdba8","665792de4aff42002d7d08de","1020","stimuli/2010111.jpg","1","","prediction_trial","2","","false","","2","false","false","true","true","false","false","[2]","010","111","0","","","","","","",""
"","","","","","image-keyboard-response","75","194399","0.0-50.0","5e6982499d7ba9245e58262a","665500ab8938657b03fbdba8","665792de4aff42002d7d08de","668","stimuli/20101112.jpg"," ","","feedback_trial","2","","","","","","","","","","","","","","","","","","","","",""
"","","","","","image-keyboard-response","76","197022","0.0-51.0","5e6982499d7ba9245e58262a","665500ab8938657b03fbdba8","665792de4aff42002d7d08de","2619","stimuli/1111010.jpg","1","","prediction_trial","2","","false","","1","false","true","false","false","false","false","[1,2,0]","111","010","0","","","","","","",""
"","","","","","image-keyboard-response","77","197722","0.0-52.0","5e6982499d7ba9245e58262a","665500ab8938657b03fbdba8","665792de4aff42002d7d08de","689","stimuli/11110102.jpg"," ","","feedback_trial","1","","","","","","","","","","","","","","","","","","","","",""
"","","","","","image-keyboard-response","78","199727","0.0-53.0","5e6982499d7ba9245e58262a","665500ab8938657b03fbdba8","665792de4aff42002d7d08de","1994","stimuli/1010111.jpg","1","","prediction_trial","1","","true","","1","false","false","false","true","false","false","[1]","010","111","1","","","","","","",""
"","","","","","image-keyboard-response","79","200393","0.0-54.0","5e6982499d7ba9245e58262a","665500ab8938657b03fbdba8","665792de4aff42002d7d08de","655","stimuli/10101111.jpg"," ","","feedback_trial","1","","","","","","","","","","","","","","","","","","","","",""
"","","","","","image-keyboard-response","80","201442","0.0-55.0","5e6982499d7ba9245e58262a","665500ab8938657b03fbdba8","665792de4aff42002d7d08de","1038","stimuli/0000001.jpg","0","","prediction_trial","0","","true","","0","true","true","true","true","true","true","[0]","000","001","1","","","","","","",""
"","","","","","image-keyboard-response","81","202100","0.0-56.0","5e6982499d7ba9245e58262a","665500ab8938657b03fbdba8","665792de4aff42002d7d08de","653","stimuli/00000010.jpg"," ","","feedback_trial","0","","","","","","","","","","","","","","","","","","","","",""
"","","","","","image-keyboard-response","82","203175","0.0-57.0","5e6982499d7ba9245e58262a","665500ab8938657b03fbdba8","665792de4aff42002d7d08de","1065","stimuli/1110100.jpg","1","","prediction_trial","0","","false","","1","true","true","false","false","false","false","[0,1]","110","100","0","","","","","","",""
"","","","","","image-keyboard-response","83","203880","0.0-58.0","5e6982499d7ba9245e58262a","665500ab8938657b03fbdba8","665792de4aff42002d7d08de","695","stimuli/11101000.jpg"," ","","feedback_trial","0","","","","","","","","","","","","","","","","","","","","",""
"","","","","","image-keyboard-response","84","204790","0.0-59.0","5e6982499d7ba9245e58262a","665500ab8938657b03fbdba8","665792de4aff42002d7d08de","901","stimuli/0001011.jpg","0","","prediction_trial","0","","true","","0","true","true","true","true","true","true","[0]","001","011","1","","","","","","",""
"","","","","","image-keyboard-response","85","205429","0.0-60.0","5e6982499d7ba9245e58262a","665500ab8938657b03fbdba8","665792de4aff42002d7d08de","628","stimuli/00010110.jpg"," ","","feedback_trial","0","","","","","","","","","","","","","","","","","","","","",""
"","","","","","image-keyboard-response","86","206454","0.0-61.0","5e6982499d7ba9245e58262a","665500ab8938657b03fbdba8","665792de4aff42002d7d08de","1022","stimuli/1010100.jpg","1","","prediction_trial","1","","true","","1","true","true","false","true","false","true","[1]","010","100","1","","","","","","",""
"","","","","","image-keyboard-response","87","206976","0.0-62.0","5e6982499d7ba9245e58262a","665500ab8938657b03fbdba8","665792de4aff42002d7d08de","518","stimuli/10101001.jpg"," ","","feedback_trial","1","","","","","","","","","","","","","","","","","","","","",""
"","","","","","image-keyboard-response","88","207842","0.0-63.0","5e6982499d7ba9245e58262a","665500ab8938657b03fbdba8","665792de4aff42002d7d08de","856","stimuli/0001000.jpg","0","","prediction_trial","0","","true","","0","true","true","true","true","true","true","[0]","001","000","1","","","","","","",""
"","","","","","image-keyboard-response","89","208247","0.0-64.0","5e6982499d7ba9245e58262a","665500ab8938657b03fbdba8","665792de4aff42002d7d08de","395","stimuli/00010000.jpg"," ","","feedback_trial","0","","","","","","","","","","","","","","","","","","","","",""
"","","","","","image-keyboard-response","90","209277","0.0-65.0","5e6982499d7ba9245e58262a","665500ab8938657b03fbdba8","665792de4aff42002d7d08de","1020","stimuli/2100000.jpg","2","","prediction_trial","2","","true","","2","true","true","true","true","true","true","[2]","100","000","1","","","","","","",""
"","","","","","image-keyboard-response","91","209876","0.0-66.0","5e6982499d7ba9245e58262a","665500ab8938657b03fbdba8","665792de4aff42002d7d08de","589","stimuli/21000002.jpg"," ","","feedback_trial","2","","","","","","","","","","","","","","","","","","","","",""
"","","","","","image-keyboard-response","92","211939","0.0-67.0","5e6982499d7ba9245e58262a","665500ab8938657b03fbdba8","665792de4aff42002d7d08de","2058","stimuli/1011011.jpg","2","","prediction_trial","1","","false","","1","false","false","false","false","false","false","[2,1]","011","011","0","","","","","","",""
"","","","","","image-keyboard-response","93","212664","0.0-68.0","5e6982499d7ba9245e58262a","665500ab8938657b03fbdba8","665792de4aff42002d7d08de","715","stimuli/10110111.jpg"," ","","feedback_trial","2","","","","","","","","","","","","","","","","","","","","",""
"","","","","","image-keyboard-response","94","213904","0.0-69.0","5e6982499d7ba9245e58262a","665500ab8938657b03fbdba8","665792de4aff42002d7d08de","1230","stimuli/0001010.jpg","0","","prediction_trial","0","","true","","0","true","true","true","true","true","true","[0]","001","010","1","","","","","","",""
"","","","","","image-keyboard-response","95","214270","0.0-70.0","5e6982499d7ba9245e58262a","665500ab8938657b03fbdba8","665792de4aff42002d7d08de","354","stimuli/00010100.jpg"," ","","feedback_trial","0","","","","","","","","","","","","","","","","","","","","",""
"","","","","","image-keyboard-response","96","215270","0.0-71.0","5e6982499d7ba9245e58262a","665500ab8938657b03fbdba8","665792de4aff42002d7d08de","989","stimuli/1000010.jpg","1","","prediction_trial","1","","true","","1","false","true","true","true","false","true","[1]","000","010","1","","","","","","",""
"","","","","","image-keyboard-response","97","215821","0.0-72.0","5e6982499d7ba9245e58262a","665500ab8938657b03fbdba8","665792de4aff42002d7d08de","540","stimuli/10000101.jpg"," ","","feedback_trial","1","","","","","","","","","","","","","","","","","","","","",""
"","","","","","image-keyboard-response","98","216966","0.0-73.0","5e6982499d7ba9245e58262a","665500ab8938657b03fbdba8","665792de4aff42002d7d08de","1134","stimuli/2110010.jpg","2","","prediction_trial","2","","true","","2","true","true","true","true","true","true","[2]","110","010","1","","","","","","",""
"","","","","","image-keyboard-response","99","217306","0.0-74.0","5e6982499d7ba9245e58262a","665500ab8938657b03fbdba8","665792de4aff42002d7d08de","330","stimuli/21100102.jpg"," ","","feedback_trial","2","","","","","","","","","","","","","","","","","","","","",""
"","","","","","image-keyboard-response","100","218772","0.0-75.0","5e6982499d7ba9245e58262a","665500ab8938657b03fbdba8","665792de4aff42002d7d08de","1454","stimuli/0111100.jpg","0","","prediction_trial","2","","false","","0","false","true","false","false","false","false","[0,2,1]","111","100","0","","","","","","",""
"","","","","","image-keyboard-response","101","219475","0.0-76.0","5e6982499d7ba9245e58262a","665500ab8938657b03fbdba8","665792de4aff42002d7d08de","693","stimuli/01111002.jpg"," ","","feedback_trial","0","","","","","","","","","","","","","","","","","","","","",""
"","","","","","image-keyboard-response","102","220602","0.0-77.0","5e6982499d7ba9245e58262a","665500ab8938657b03fbdba8","665792de4aff42002d7d08de","1123","stimuli/2111111.jpg","1","","prediction_trial","2","","false","","2","false","false","false","false","false","false","[2,0,1]","111","111","0","","","","","","",""
"","","","","","image-keyboard-response","103","221119","0.0-78.0","5e6982499d7ba9245e58262a","665500ab8938657b03fbdba8","665792de4aff42002d7d08de","506","stimuli/21111112.jpg"," ","","feedback_trial","2","","","","","","","","","","","","","","","","","","","","",""
"","","","","","image-keyboard-response","104","222567","0.0-79.0","5e6982499d7ba9245e58262a","665500ab8938657b03fbdba8","665792de4aff42002d7d08de","1438","stimuli/2000001.jpg","2","","prediction_trial","2","","true","","2","false","true","true","true","false","true","[2]","000","001","1","","","","","","",""
"","","","","","image-keyboard-response","105","223124","0.0-80.0","5e6982499d7ba9245e58262a","665500ab8938657b03fbdba8","665792de4aff42002d7d08de","553","stimuli/20000012.jpg"," ","","feedback_trial","2","","","","","","","","","","","","","","","","","","","","",""
"","","","","","image-keyboard-response","106","225140","0.0-81.0","5e6982499d7ba9245e58262a","665500ab8938657b03fbdba8","665792de4aff42002d7d08de","2012","stimuli/2101001.jpg","0","","prediction_trial","2","","false","","2","false","true","false","false","false","false","[0,2]","101","001","0","","","","","","",""
"","","","","","image-keyboard-response","107","225610","0.0-82.0","5e6982499d7ba9245e58262a","665500ab8938657b03fbdba8","665792de4aff42002d7d08de","459","stimuli/21010012.jpg"," ","","feedback_trial","0","","","","","","","","","","","","","","","","","","","","",""
"","","","","","image-keyboard-response","108","228421","0.0-83.0","5e6982499d7ba9245e58262a","665500ab8938657b03fbdba8","665792de4aff42002d7d08de","2801","stimuli/1101111.jpg","1","","prediction_trial","1","","true","","1","false","false","true","true","false","false","[1]","101","111","1","","","","","","",""
"","","","","","image-keyboard-response","109","228932","0.0-84.0","5e6982499d7ba9245e58262a","665500ab8938657b03fbdba8","665792de4aff42002d7d08de","501","stimuli/11011111.jpg"," ","","feedback_trial","1","","","","","","","","","","","","","","","","","","","","",""
"","","","","","image-keyboard-response","110","230477","0.0-85.0","5e6982499d7ba9245e58262a","665500ab8938657b03fbdba8","665792de4aff42002d7d08de","1535","stimuli/0100011.jpg","0","","prediction_trial","0","","true","","0","true","true","false","true","false","true","[0]","100","011","1","","","","","","",""
"","","","","","image-keyboard-response","111","230952","0.0-86.0","5e6982499d7ba9245e58262a","665500ab8938657b03fbdba8","665792de4aff42002d7d08de","465","stimuli/01000110.jpg"," ","","feedback_trial","0","","","","","","","","","","","","","","","","","","","","",""
"","","","","","image-keyboard-response","112","231953","0.0-87.0","5e6982499d7ba9245e58262a","665500ab8938657b03fbdba8","665792de4aff42002d7d08de","991","stimuli/2101010.jpg","2","","prediction_trial","2","","true","","2","true","true","false","false","false","false","[0,2]","101","010","1","","","","","","",""
"","","","","","image-keyboard-response","113","232458","0.0-88.0","5e6982499d7ba9245e58262a","665500ab8938657b03fbdba8","665792de4aff42002d7d08de","495","stimuli/21010102.jpg"," ","","feedback_trial","0","","","","","","","","","","","","","","","","","","","","",""
"","","","","","image-keyboard-response","114","233378","0.0-89.0","5e6982499d7ba9245e58262a","665500ab8938657b03fbdba8","665792de4aff42002d7d08de","910","stimuli/0010010.jpg","0","","prediction_trial","0","","true","","0","true","true","true","true","true","true","[0]","010","010","1","","","","","","",""
"","","","","","image-keyboard-response","115","233799","0.0-90.0","5e6982499d7ba9245e58262a","665500ab8938657b03fbdba8","665792de4aff42002d7d08de","411","stimuli/00100100.jpg"," ","","feedback_trial","0","","","","","","","","","","","","","","","","","","","","",""
"","","","","","image-keyboard-response","116","235553","0.0-91.0","5e6982499d7ba9245e58262a","665500ab8938657b03fbdba8","665792de4aff42002d7d08de","1745","stimuli/0111000.jpg","0","","prediction_trial","0","","true","","0","true","true","false","false","false","false","[2,0,1]","111","000","1","","","","","","",""
"","","","","","image-keyboard-response","117","236055","0.0-92.0","5e6982499d7ba9245e58262a","665500ab8938657b03fbdba8","665792de4aff42002d7d08de","498","stimuli/01110000.jpg"," ","","feedback_trial","2","","","","","","","","","","","","","","","","","","","","",""
"","","","","","image-keyboard-response","118","240717","0.0-93.0","5e6982499d7ba9245e58262a","665500ab8938657b03fbdba8","665792de4aff42002d7d08de","4653","stimuli/1110011.jpg","2","","prediction_trial","0","","false","","1","false","false","false","false","false","false","[1,0]","110","011","0","","","","","","",""
"","","","","","image-keyboard-response","119","241262","0.0-94.0","5e6982499d7ba9245e58262a","665500ab8938657b03fbdba8","665792de4aff42002d7d08de","535","stimuli/11100110.jpg"," ","","feedback_trial","1","","","","","","","","","","","","","","","","","","","","",""
"","","","","","image-keyboard-response","120","243982","0.0-95.0","5e6982499d7ba9245e58262a","665500ab8938657b03fbdba8","665792de4aff42002d7d08de","2710","stimuli/0011101.jpg","2","","prediction_trial","0","","false","","0","false","false","true","true","false","false","[0]","011","101","0","","","","","","",""
"","","","","","image-keyboard-response","121","244471","0.0-96.0","5e6982499d7ba9245e58262a","665500ab8938657b03fbdba8","665792de4aff42002d7d08de","480","stimuli/00111010.jpg"," ","","feedback_trial","0","","","","","","","","","","","","","","","","","","","","",""
"","","","","","image-keyboard-response","122","245996","0.0-97.0","5e6982499d7ba9245e58262a","665500ab8938657b03fbdba8","665792de4aff42002d7d08de","1514","stimuli/1000001.jpg","1","","prediction_trial","1","","true","","1","true","true","true","true","true","true","[1]","000","001","1","","","","","","",""
"","","","","","image-keyboard-response","123","246452","0.0-98.0","5e6982499d7ba9245e58262a","665500ab8938657b03fbdba8","665792de4aff42002d7d08de","445","stimuli/10000011.jpg"," ","","feedback_trial","1","","","","","","","","","","","","","","","","","","","","",""
"","","","","","image-keyboard-response","124","248508","0.0-99.0","5e6982499d7ba9245e58262a","665500ab8938657b03fbdba8","665792de4aff42002d7d08de","2045","stimuli/2111011.jpg","2","","prediction_trial","0","","false","","2","false","false","false","false","false","false","[1,2,0]","111","011","0","","","","","","",""
"","","","","","image-keyboard-response","125","249003","0.0-100.0","5e6982499d7ba9245e58262a","665500ab8938657b03fbdba8","665792de4aff42002d7d08de","485","stimuli/21110110.jpg"," ","","feedback_trial","1","","","","","","","","","","","","","","","","","","","","",""
"","","","","","image-keyboard-response","126","250468","0.0-101.0","5e6982499d7ba9245e58262a","665500ab8938657b03fbdba8","665792de4aff42002d7d08de","1455","stimuli/0000100.jpg","0","","prediction_trial","0","","true","","0","false","true","true","true","false","true","[0]","000","100","1","","","","","","",""
"","","","","","image-keyboard-response","127","251113","0.0-102.0","5e6982499d7ba9245e58262a","665500ab8938657b03fbdba8","665792de4aff42002d7d08de","634","stimuli/00001000.jpg"," ","","feedback_trial","0","","","","","","","","","","","","","","","","","","","","",""
"","","","","","image-keyboard-response","128","252205","0.0-103.0","5e6982499d7ba9245e58262a","665500ab8938657b03fbdba8","665792de4aff42002d7d08de","1088","stimuli/0100110.jpg","0","","prediction_trial","0","","true","","0","false","false","false","true","false","false","[0]","100","110","1","","","","","","",""
"","","","","","image-keyboard-response","129","252750","0.0-104.0","5e6982499d7ba9245e58262a","665500ab8938657b03fbdba8","665792de4aff42002d7d08de","534","stimuli/01001100.jpg"," ","","feedback_trial","0","","","","","","","","","","","","","","","","","","","","",""
"","","","","","image-keyboard-response","130","253875","0.0-105.0","5e6982499d7ba9245e58262a","665500ab8938657b03fbdba8","665792de4aff42002d7d08de","1113","stimuli/1000000.jpg","1","","prediction_trial","1","","true","","1","true","true","true","true","true","true","[1]","000","000","1","","","","","","",""
"","","","","","image-keyboard-response","131","254340","0.0-106.0","5e6982499d7ba9245e58262a","665500ab8938657b03fbdba8","665792de4aff42002d7d08de","455","stimuli/10000001.jpg"," ","","feedback_trial","1","","","","","","","","","","","","","","","","","","","","",""
"","","","","","image-keyboard-response","132","256375","0.0-107.0","5e6982499d7ba9245e58262a","665500ab8938657b03fbdba8","665792de4aff42002d7d08de","2024","stimuli/0101110.jpg","0","","prediction_trial","0","","true","","0","false","false","false","false","false","false","[0,2]","101","110","1","","","","","","",""
"","","","","","image-keyboard-response","133","256882","0.0-108.0","5e6982499d7ba9245e58262a","665500ab8938657b03fbdba8","665792de4aff42002d7d08de","502","stimuli/01011100.jpg"," ","","feedback_trial","0","","","","","","","","","","","","","","","","","","","","",""
"","","","","","image-keyboard-response","134","257847","0.0-109.0","5e6982499d7ba9245e58262a","665500ab8938657b03fbdba8","665792de4aff42002d7d08de","954","stimuli/1101100.jpg","1","","prediction_trial","1","","true","","1","true","true","true","true","true","true","[1]","101","100","1","","","","","","",""
"","","","","","image-keyboard-response","135","258313","0.0-110.0","5e6982499d7ba9245e58262a","665500ab8938657b03fbdba8","665792de4aff42002d7d08de","456","stimuli/11011001.jpg"," ","","feedback_trial","1","","","","","","","","","","","","","","","","","","","","",""
"","","","","","image-keyboard-response","136","259378","0.0-111.0","5e6982499d7ba9245e58262a","665500ab8938657b03fbdba8","665792de4aff42002d7d08de","1055","stimuli/0111011.jpg","0","","prediction_trial","0","","true","","0","true","true","false","false","false","false","[1,2,0]","111","011","1","","","","","","",""
"","","","","","image-keyboard-response","137","259863","0.0-112.0","5e6982499d7ba9245e58262a","665500ab8938657b03fbdba8","665792de4aff42002d7d08de","476","stimuli/01110110.jpg"," ","","feedback_trial","1","","","","","","","","","","","","","","","","","","","","",""
"","","","","","image-keyboard-response","138","260928","0.0-113.0","5e6982499d7ba9245e58262a","665500ab8938657b03fbdba8","665792de4aff42002d7d08de","1056","stimuli/0000101.jpg","0","","prediction_trial","0","","true","","0","false","false","true","true","false","false","[0]","000","101","1","","","","","","",""
"","","","","","image-keyboard-response","139","261414","0.0-114.0","5e6982499d7ba9245e58262a","665500ab8938657b03fbdba8","665792de4aff42002d7d08de","477","stimuli/00001010.jpg"," ","","feedback_trial","0","","","","","","","","","","","","","","","","","","","","",""
"","","","","","image-keyboard-response","140","262339","0.0-115.0","5e6982499d7ba9245e58262a","665500ab8938657b03fbdba8","665792de4aff42002d7d08de","915","stimuli/1100001.jpg","1","","prediction_trial","1","","true","","1","true","true","true","true","true","true","[1]","100","001","1","","","","","","",""
"","","","","","image-keyboard-response","141","262779","0.0-116.0","5e6982499d7ba9245e58262a","665500ab8938657b03fbdba8","665792de4aff42002d7d08de","431","stimuli/11000011.jpg"," ","","feedback_trial","1","","","","","","","","","","","","","","","","","","","","",""
"","","","","","image-keyboard-response","142","264694","0.0-117.0","5e6982499d7ba9245e58262a","665500ab8938657b03fbdba8","665792de4aff42002d7d08de","1905","stimuli/2011000.jpg","2","","prediction_trial","1","","false","","2","true","true","false","false","false","false","[2,1]","011","000","0","","","","","","",""
"","","","","","image-keyboard-response","143","265251","0.0-118.0","5e6982499d7ba9245e58262a","665500ab8938657b03fbdba8","665792de4aff42002d7d08de","547","stimuli/20110001.jpg"," ","","feedback_trial","2","","","","","","","","","","","","","","","","","","","","",""
"","","","","","image-keyboard-response","144","267787","0.0-119.0","5e6982499d7ba9245e58262a","665500ab8938657b03fbdba8","665792de4aff42002d7d08de","2526","stimuli/0100001.jpg","0","","prediction_trial","0","","true","","0","true","true","false","true","false","true","[0]","100","001","1","","","","","","",""
"","","","","","image-keyboard-response","145","268267","0.0-120.0","5e6982499d7ba9245e58262a","665500ab8938657b03fbdba8","665792de4aff42002d7d08de","471","stimuli/01000010.jpg"," ","","feedback_trial","0","","","","","","","","","","","","","","","","","","","","",""
"","","","","","image-keyboard-response","146","269552","0.0-121.0","5e6982499d7ba9245e58262a","665500ab8938657b03fbdba8","665792de4aff42002d7d08de","1276","stimuli/1100110.jpg","0","","prediction_trial","1","","false","","1","false","false","true","true","false","false","[1]","100","110","0","","","","","","",""
"","","","","","image-keyboard-response","147","270081","0.0-122.0","5e6982499d7ba9245e58262a","665500ab8938657b03fbdba8","665792de4aff42002d7d08de","519","stimuli/11001101.jpg"," ","","feedback_trial","1","","","","","","","","","","","","","","","","","","","","",""
"","","","","","image-keyboard-response","148","271373","0.0-123.0","5e6982499d7ba9245e58262a","665500ab8938657b03fbdba8","665792de4aff42002d7d08de","1288","stimuli/0011111.jpg","2","","prediction_trial","0","","false","","0","false","false","true","true","false","false","[0]","011","111","0","","","","","","",""
"","","","","","image-keyboard-response","149","271859","0.0-124.0","5e6982499d7ba9245e58262a","665500ab8938657b03fbdba8","665792de4aff42002d7d08de","476","stimuli/00111110.jpg"," ","","feedback_trial","0","","","","","","","","","","","","","","","","","","","","",""
"","","","","","image-keyboard-response","150","272738","0.0-125.0","5e6982499d7ba9245e58262a","665500ab8938657b03fbdba8","665792de4aff42002d7d08de","869","stimuli/1101101.jpg","1","","prediction_trial","1","","true","","1","true","true","true","true","true","true","[1]","101","101","1","","","","","","",""
"","","","","","image-keyboard-response","151","273049","0.0-126.0","5e6982499d7ba9245e58262a","665500ab8938657b03fbdba8","665792de4aff42002d7d08de","302","stimuli/11011011.jpg"," ","","feedback_trial","1","","","","","","","","","","","","","","","","","","","","",""
"","","","","","image-keyboard-response","152","273694","0.0-127.0","5e6982499d7ba9245e58262a","665500ab8938657b03fbdba8","665792de4aff42002d7d08de","635","stimuli/2111100.jpg","2","","prediction_trial","0","","false","","2","true","true","false","false","false","false","[2,0,1]","111","100","0","","","","","","",""
"","","","","","image-keyboard-response","153","274240","0.0-128.0","5e6982499d7ba9245e58262a","665500ab8938657b03fbdba8","665792de4aff42002d7d08de","535","stimuli/21111000.jpg"," ","","feedback_trial","2","","","","","","","","","","","","","","","","","","","","",""
"","","","","","image-keyboard-response","154","275410","0.0-129.0","5e6982499d7ba9245e58262a","665500ab8938657b03fbdba8","665792de4aff42002d7d08de","1160","stimuli/1011111.jpg","1","","prediction_trial","1","","true","","1","false","false","false","false","false","false","[2,1]","011","111","1","","","","","","",""
"","","","","","image-keyboard-response","155","275891","0.0-130.0","5e6982499d7ba9245e58262a","665500ab8938657b03fbdba8","665792de4aff42002d7d08de","470","stimuli/10111111.jpg"," ","","feedback_trial","2","","","","","","","","","","","","","","","","","","","","",""
"","","","","","image-keyboard-response","156","276846","0.0-131.0","5e6982499d7ba9245e58262a","665500ab8938657b03fbdba8","665792de4aff42002d7d08de","945","stimuli/2101100.jpg","2","","prediction_trial","0","","false","","2","true","true","false","false","false","false","[0,2]","101","100","0","","","","","","",""
"","","","","","image-keyboard-response","157","277311","0.0-132.0","5e6982499d7ba9245e58262a","665500ab8938657b03fbdba8","665792de4aff42002d7d08de","455","stimuli/21011000.jpg"," ","","feedback_trial","0","","","","","","","","","","","","","","","","","","","","",""
"","","","","","image-keyboard-response","158","278257","0.0-133.0","5e6982499d7ba9245e58262a","665500ab8938657b03fbdba8","665792de4aff42002d7d08de","935","stimuli/1001011.jpg","1","","prediction_trial","1","","true","","1","false","false","true","true","false","false","[1]","001","011","1","","","","","","",""
"","","","","","image-keyboard-response","159","278816","0.0-134.0","5e6982499d7ba9245e58262a","665500ab8938657b03fbdba8","665792de4aff42002d7d08de","548","stimuli/10010111.jpg"," ","","feedback_trial","1","","","","","","","","","","","","","","","","","","","","",""
"","","","","","image-keyboard-response","160","280268","0.0-135.0","5e6982499d7ba9245e58262a","665500ab8938657b03fbdba8","665792de4aff42002d7d08de","1441","stimuli/0110111.jpg","0","","prediction_trial","0","","true","","0","false","false","false","false","false","false","[0,1]","110","111","1","","","","","","",""
"","","","","","image-keyboard-response","161","280727","0.0-136.0","5e6982499d7ba9245e58262a","665500ab8938657b03fbdba8","665792de4aff42002d7d08de","450","stimuli/01101110.jpg"," ","","feedback_trial","0","","","","","","","","","","","","","","","","","","","","",""
"","","","","","image-keyboard-response","162","281724","0.0-137.0","5e6982499d7ba9245e58262a","665500ab8938657b03fbdba8","665792de4aff42002d7d08de","993","stimuli/2001000.jpg","2","","prediction_trial","2","","true","","2","true","true","false","true","false","true","[2]","001","000","1","","","","","","",""
"","","","","","image-keyboard-response","163","282170","0.0-138.0","5e6982499d7ba9245e58262a","665500ab8938657b03fbdba8","665792de4aff42002d7d08de","437","stimuli/20010002.jpg"," ","","feedback_trial","2","","","","","","","","","","","","","","","","","","","","",""
"","","","","","image-keyboard-response","164","283044","0.0-139.0","5e6982499d7ba9245e58262a","665500ab8938657b03fbdba8","665792de4aff42002d7d08de","864","stimuli/1010110.jpg","1","","prediction_trial","1","","true","","1","false","false","false","true","false","false","[1]","010","110","1","","","","","","",""
"","","","","","image-keyboard-response","165","283474","0.0-140.0","5e6982499d7ba9245e58262a","665500ab8938657b03fbdba8","665792de4aff42002d7d08de","421","stimuli/10101101.jpg"," ","","feedback_trial","1","","","","","","","","","","","","","","","","","","","","",""
"","","","","","image-keyboard-response","166","284254","0.0-141.0","5e6982499d7ba9245e58262a","665500ab8938657b03fbdba8","665792de4aff42002d7d08de","770","stimuli/0100111.jpg","0","","prediction_trial","0","","true","","0","false","false","false","true","false","false","[0]","100","111","1","","","","","","",""
"","","","","","image-keyboard-response","167","284670","0.0-142.0","5e6982499d7ba9245e58262a","665500ab8938657b03fbdba8","665792de4aff42002d7d08de","406","stimuli/01001110.jpg"," ","","feedback_trial","0","","","","","","","","","","","","","","","","","","","","",""
"","","","","","image-keyboard-response","168","285865","0.0-143.0","5e6982499d7ba9245e58262a","665500ab8938657b03fbdba8","665792de4aff42002d7d08de","1185","stimuli/1100011.jpg","0","","prediction_trial","1","","false","","1","false","false","true","true","false","false","[1]","100","011","0","","","","","","",""
"","","","","","image-keyboard-response","169","287922","0.0-144.0","5e6982499d7ba9245e58262a","665500ab8938657b03fbdba8","665792de4aff42002d7d08de","2053","stimuli/11000111.jpg"," ","","feedback_trial","1","","","","","","","","","","","","","","","","","","","","",""
"","","","","","image-keyboard-response","170","289143","0.0-145.0","5e6982499d7ba9245e58262a","665500ab8938657b03fbdba8","665792de4aff42002d7d08de","1211","stimuli/2000000.jpg","2","","prediction_trial","2","","true","","2","true","true","true","true","true","true","[2]","000","000","1","","","","","","",""
"","","","","","image-keyboard-response","171","289467","0.0-146.0","5e6982499d7ba9245e58262a","665500ab8938657b03fbdba8","665792de4aff42002d7d08de","315","stimuli/20000002.jpg"," ","","feedback_trial","2","","","","","","","","","","","","","","","","","","","","",""
"","","","","","image-keyboard-response","172","290816","0.0-147.0","5e6982499d7ba9245e58262a","665500ab8938657b03fbdba8","665792de4aff42002d7d08de","1339","stimuli/1001111.jpg","2","","prediction_trial","1","","false","","1","false","false","true","true","false","false","[1]","001","111","0","","","","","","",""
"","","","","","image-keyboard-response","173","292254","0.0-148.0","5e6982499d7ba9245e58262a","665500ab8938657b03fbdba8","665792de4aff42002d7d08de","1434","stimuli/10011111.jpg"," ","","feedback_trial","1","","","","","","","","","","","","","","","","","","","","",""
"","","","","","image-keyboard-response","174","294195","0.0-149.0","5e6982499d7ba9245e58262a","665500ab8938657b03fbdba8","665792de4aff42002d7d08de","1932","stimuli/2101111.jpg","1","","prediction_trial","0","","false","","2","false","false","false","false","false","false","[2,0]","101","111","0","","","","","","",""
"","","","","","image-keyboard-response","175","295470","0.0-150.0","5e6982499d7ba9245e58262a","665500ab8938657b03fbdba8","665792de4aff42002d7d08de","1265","stimuli/21011110.jpg"," ","","feedback_trial","2","","","","","","","","","","","","","","","","","","","","",""
"","","","","","image-keyboard-response","176","296281","0.0-151.0","5e6982499d7ba9245e58262a","665500ab8938657b03fbdba8","665792de4aff42002d7d08de","801","stimuli/2010010.jpg","2","","prediction_trial","2","","true","","2","true","true","true","true","true","true","[2]","010","010","1","","","","","","",""
"","","","","","image-keyboard-response","177","296633","0.0-152.0","5e6982499d7ba9245e58262a","665500ab8938657b03fbdba8","665792de4aff42002d7d08de","342","stimuli/20100102.jpg"," ","","feedback_trial","2","","","","","","","","","","","","","","","","","","","","",""
"","","","","","image-keyboard-response","178","298302","0.0-153.0","5e6982499d7ba9245e58262a","665500ab8938657b03fbdba8","665792de4aff42002d7d08de","1659","stimuli/2000101.jpg","2","","prediction_trial","2","","true","","2","false","false","true","true","false","false","[2]","000","101","1","","","","","","",""
"","","","","","image-keyboard-response","179","298662","0.0-154.0","5e6982499d7ba9245e58262a","665500ab8938657b03fbdba8","665792de4aff42002d7d08de","351","stimuli/20001012.jpg"," ","","feedback_trial","2","","","","","","","","","","","","","","","","","","","","",""
"","","","","","image-keyboard-response","180","300976","0.0-155.0","5e6982499d7ba9245e58262a","665500ab8938657b03fbdba8","665792de4aff42002d7d08de","2305","stimuli/0111001.jpg","2","","prediction_trial","1","","false","","0","true","true","false","false","false","false","[0,1,2]","111","001","0","","","","","","",""
"","","","","","image-keyboard-response","181","301313","0.0-156.0","5e6982499d7ba9245e58262a","665500ab8938657b03fbdba8","665792de4aff42002d7d08de","332","stimuli/01110011.jpg"," ","","feedback_trial","0","","","","","","","","","","","","","","","","","","","","",""
"","","","","","image-keyboard-response","182","302694","0.0-157.0","5e6982499d7ba9245e58262a","665500ab8938657b03fbdba8","665792de4aff42002d7d08de","1373","stimuli/0110110.jpg","1","","prediction_trial","0","","false","","0","false","false","false","false","false","false","[1,0]","110","110","0","","","","","","",""
"","","","","","image-keyboard-response","183","302959","0.0-158.0","5e6982499d7ba9245e58262a","665500ab8938657b03fbdba8","665792de4aff42002d7d08de","255","stimuli/01101100.jpg"," ","","feedback_trial","1","","","","","","","","","","","","","","","","","","","","",""
"","","","","","image-keyboard-response","184","304124","0.0-159.0","5e6982499d7ba9245e58262a","665500ab8938657b03fbdba8","665792de4aff42002d7d08de","1155","stimuli/1010010.jpg","1","","prediction_trial","1","","true","","1","false","true","false","true","false","true","[1]","010","010","1","","","","","","",""
"","","","","","image-keyboard-response","185","304320","0.0-160.0","5e6982499d7ba9245e58262a","665500ab8938657b03fbdba8","665792de4aff42002d7d08de","184","stimuli/10100101.jpg"," ","","feedback_trial","1","","","","","","","","","","","","","","","","","","","","",""
"","","","","","image-keyboard-response","186","305179","0.0-161.0","5e6982499d7ba9245e58262a","665500ab8938657b03fbdba8","665792de4aff42002d7d08de","851","stimuli/2010110.jpg","2","","prediction_trial","2","","true","","2","true","true","true","true","true","true","[2]","010","110","1","","","","","","",""
"","","","","","image-keyboard-response","187","305539","0.0-162.0","5e6982499d7ba9245e58262a","665500ab8938657b03fbdba8","665792de4aff42002d7d08de","350","stimuli/20101102.jpg"," ","","feedback_trial","2","","","","","","","","","","","","","","","","","","","","",""
"","","","","","image-keyboard-response","188","307464","0.0-163.0","5e6982499d7ba9245e58262a","665500ab8938657b03fbdba8","665792de4aff42002d7d08de","1916","stimuli/0111101.jpg","0","","prediction_trial","2","","false","","0","false","false","false","false","false","false","[1,2,0]","111","101","0","","","","","","",""
"","","","","","image-keyboard-response","189","307710","0.0-164.0","5e6982499d7ba9245e58262a","665500ab8938657b03fbdba8","665792de4aff42002d7d08de","236","stimuli/01111012.jpg"," ","","feedback_trial","1","","","","","","","","","","","","","","","","","","","","",""
"","","","","","image-keyboard-response","190","309551","0.0-165.0","5e6982499d7ba9245e58262a","665500ab8938657b03fbdba8","665792de4aff42002d7d08de","1831","stimuli/0011000.jpg","0","","prediction_trial","0","","true","","0","true","true","true","true","true","true","[0]","011","000","1","","","","","","",""
"","","","","","image-keyboard-response","191","309820","0.0-166.0","5e6982499d7ba9245e58262a","665500ab8938657b03fbdba8","665792de4aff42002d7d08de","260","stimuli/00110000.jpg"," ","","feedback_trial","0","","","","","","","","","","","","","","","","","","","","",""
"","","","","","image-keyboard-response","192","310832","0.0-167.0","5e6982499d7ba9245e58262a","665500ab8938657b03fbdba8","665792de4aff42002d7d08de","1002","stimuli/2000100.jpg","2","","prediction_trial","2","","true","","2","true","true","true","true","true","true","[2]","000","100","1","","","","","","",""
"","","","","","image-keyboard-response","193","311081","0.0-168.0","5e6982499d7ba9245e58262a","665500ab8938657b03fbdba8","665792de4aff42002d7d08de","240","stimuli/20001002.jpg"," ","","feedback_trial","2","","","","","","","","","","","","","","","","","","","","",""
"","","","","","image-keyboard-response","194","312122","0.0-169.0","5e6982499d7ba9245e58262a","665500ab8938657b03fbdba8","665792de4aff42002d7d08de","1031","stimuli/2011110.jpg","2","","prediction_trial","2","","true","","2","true","true","false","false","false","false","[2,1]","011","110","1","","","","","","",""
"","","","","","image-keyboard-response","195","312632","0.0-170.0","5e6982499d7ba9245e58262a","665500ab8938657b03fbdba8","665792de4aff42002d7d08de","501","stimuli/20111102.jpg"," ","","feedback_trial","2","","","","","","","","","","","","","","","","","","","","",""
"","","","","","image-keyboard-response","196","313927","0.0-171.0","5e6982499d7ba9245e58262a","665500ab8938657b03fbdba8","665792de4aff42002d7d08de","1285","stimuli/2110101.jpg","2","","prediction_trial","2","","true","","2","false","false","true","true","false","false","[2]","110","101","1","","","","","","",""
"","","","","","image-keyboard-response","197","314528","0.0-172.0","5e6982499d7ba9245e58262a","665500ab8938657b03fbdba8","665792de4aff42002d7d08de","598","stimuli/21101012.jpg"," ","","feedback_trial","2","","","","","","","","","","","","","","","","","","","","",""
"","","","","","image-keyboard-response","198","315393","0.0-173.0","5e6982499d7ba9245e58262a","665500ab8938657b03fbdba8","665792de4aff42002d7d08de","855","stimuli/2111101.jpg","2","","prediction_trial","1","","false","","2","false","false","false","false","false","false","[2,0,1]","111","101","0","","","","","","",""
"","","","","","image-keyboard-response","199","316094","0.0-174.0","5e6982499d7ba9245e58262a","665500ab8938657b03fbdba8","665792de4aff42002d7d08de","691","stimuli/21111011.jpg"," ","","feedback_trial","2","","","","","","","","","","","","","","","","","","","","",""
"","","","","","image-keyboard-response","200","317684","0.0-175.0","5e6982499d7ba9245e58262a","665500ab8938657b03fbdba8","665792de4aff42002d7d08de","1580","stimuli/2110001.jpg","1","","prediction_trial","2","","false","","2","false","true","true","true","false","true","[2]","110","001","0","","","","","","",""
"","","","","","image-keyboard-response","201","318226","0.0-176.0","5e6982499d7ba9245e58262a","665500ab8938657b03fbdba8","665792de4aff42002d7d08de","532","stimuli/21100012.jpg"," ","","feedback_trial","2","","","","","","","","","","","","","","","","","","","","",""
"","","","","","image-keyboard-response","202","319142","0.0-177.0","5e6982499d7ba9245e58262a","665500ab8938657b03fbdba8","665792de4aff42002d7d08de","906","stimuli/0011011.jpg","0","","prediction_trial","0","","true","","0","true","true","true","true","true","true","[0]","011","011","1","","","","","","",""
"","","","","","image-keyboard-response","203","319455","0.0-178.0","5e6982499d7ba9245e58262a","665500ab8938657b03fbdba8","665792de4aff42002d7d08de","303","stimuli/00110110.jpg"," ","","feedback_trial","0","","","","","","","","","","","","","","","","","","","","",""
"","","","","","image-keyboard-response","204","320576","0.0-179.0","5e6982499d7ba9245e58262a","665500ab8938657b03fbdba8","665792de4aff42002d7d08de","1110","stimuli/2010001.jpg","1","","prediction_trial","2","","false","","2","false","true","true","true","false","true","[2]","010","001","0","","","","","","",""
"","","","","","image-keyboard-response","205","321011","0.0-180.0","5e6982499d7ba9245e58262a","665500ab8938657b03fbdba8","665792de4aff42002d7d08de","426","stimuli/20100012.jpg"," ","","feedback_trial","2","","","","","","","","","","","","","","","","","","","","",""
"","","","","","image-keyboard-response","206","321925","0.0-181.0","5e6982499d7ba9245e58262a","665500ab8938657b03fbdba8","665792de4aff42002d7d08de","904","stimuli/1010000.jpg","1","","prediction_trial","1","","true","","1","true","true","false","true","false","true","[1]","010","000","1","","","","","","",""
"","","","","","image-keyboard-response","207","322282","0.0-182.0","5e6982499d7ba9245e58262a","665500ab8938657b03fbdba8","665792de4aff42002d7d08de","353","stimuli/10100001.jpg"," ","","feedback_trial","1","","","","","","","","","","","","","","","","","","","","",""
"","","","","","image-keyboard-response","208","323193","0.0-183.0","5e6982499d7ba9245e58262a","665500ab8938657b03fbdba8","665792de4aff42002d7d08de","902","stimuli/0110011.jpg","0","","prediction_trial","1","","false","","0","true","true","false","false","false","false","[0,1]","110","011","0","","","","","","",""
"","","","","","image-keyboard-response","209","323618","0.0-184.0","5e6982499d7ba9245e58262a","665500ab8938657b03fbdba8","665792de4aff42002d7d08de","415","stimuli/01100111.jpg"," ","","feedback_trial","0","","","","","","","","","","","","","","","","","","","","",""
"","","","","","image-keyboard-response","210","324508","0.0-185.0","5e6982499d7ba9245e58262a","665500ab8938657b03fbdba8","665792de4aff42002d7d08de","880","stimuli/1000100.jpg","1","","prediction_trial","1","","true","","1","true","true","true","true","true","true","[1]","000","100","1","","","","","","",""
"","","","","","image-keyboard-response","211","324903","0.0-186.0","5e6982499d7ba9245e58262a","665500ab8938657b03fbdba8","665792de4aff42002d7d08de","384","stimuli/10001001.jpg"," ","","feedback_trial","1","","","","","","","","","","","","","","","","","","","","",""
"","","","","","image-keyboard-response","212","326504","0.0-187.0","5e6982499d7ba9245e58262a","665500ab8938657b03fbdba8","665792de4aff42002d7d08de","1590","stimuli/2011101.jpg","0","","prediction_trial","1","","false","","2","false","false","false","false","false","false","[2,1]","011","101","0","","","","","","",""
"","","","","","image-keyboard-response","213","327003","0.0-188.0","5e6982499d7ba9245e58262a","665500ab8938657b03fbdba8","665792de4aff42002d7d08de","489","stimuli/20111011.jpg"," ","","feedback_trial","2","","","","","","","","","","","","","","","","","","","","",""
"","","","","","image-keyboard-response","214","327939","0.0-189.0","5e6982499d7ba9245e58262a","665500ab8938657b03fbdba8","665792de4aff42002d7d08de","932","stimuli/2001101.jpg","2","","prediction_trial","2","","true","","2","false","false","false","true","false","false","[2]","001","101","1","","","","","","",""
"","","","","","image-keyboard-response","215","328395","0.0-190.0","5e6982499d7ba9245e58262a","665500ab8938657b03fbdba8","665792de4aff42002d7d08de","445","stimuli/20011012.jpg"," ","","feedback_trial","2","","","","","","","","","","","","","","","","","","","","",""
"","","","","","image-keyboard-response","216","329680","0.0-191.0","5e6982499d7ba9245e58262a","665500ab8938657b03fbdba8","665792de4aff42002d7d08de","1276","stimuli/2110100.jpg","2","","prediction_trial","2","","true","","2","true","true","true","true","true","true","[2]","110","100","1","","","","","","",""
"","","","","","image-keyboard-response","217","330661","0.0-192.0","5e6982499d7ba9245e58262a","665500ab8938657b03fbdba8","665792de4aff42002d7d08de","970","stimuli/21101002.jpg"," ","","feedback_trial","2","","","","","","","","","","","","","","","","","","","","",""
"","","","","","image-keyboard-response","218","331602","0.0-193.0","5e6982499d7ba9245e58262a","665500ab8938657b03fbdba8","665792de4aff42002d7d08de","931","stimuli/0000011.jpg","0","","prediction_trial","0","","true","","0","true","true","true","true","true","true","[0]","000","011","1","","","","","","",""
"","","","","","image-keyboard-response","219","331842","0.0-194.0","5e6982499d7ba9245e58262a","665500ab8938657b03fbdba8","665792de4aff42002d7d08de","230","stimuli/00000110.jpg"," ","","feedback_trial","0","","","","","","","","","","","","","","","","","","","","",""
"","","","","","image-keyboard-response","220","332957","0.0-195.0","5e6982499d7ba9245e58262a","665500ab8938657b03fbdba8","665792de4aff42002d7d08de","1105","stimuli/2100111.jpg","0","","prediction_trial","2","","false","","2","false","false","true","true","false","false","[2]","100","111","0","","","","","","",""
"","","","","","image-keyboard-response","221","333457","0.0-196.0","5e6982499d7ba9245e58262a","665500ab8938657b03fbdba8","665792de4aff42002d7d08de","490","stimuli/21001112.jpg"," ","","feedback_trial","2","","","","","","","","","","","","","","","","","","","","",""
"","","","","","image-keyboard-response","222","334273","0.0-197.0","5e6982499d7ba9245e58262a","665500ab8938657b03fbdba8","665792de4aff42002d7d08de","805","stimuli/1100000.jpg","1","","prediction_trial","1","","true","","1","true","true","true","true","true","true","[1]","100","000","1","","","","","","",""
"","","","","","image-keyboard-response","223","334638","0.0-198.0","5e6982499d7ba9245e58262a","665500ab8938657b03fbdba8","665792de4aff42002d7d08de","356","stimuli/11000001.jpg"," ","","feedback_trial","1","","","","","","","","","","","","","","","","","","","","",""
"","","","","","image-keyboard-response","224","336444","0.0-199.0","5e6982499d7ba9245e58262a","665500ab8938657b03fbdba8","665792de4aff42002d7d08de","1796","stimuli/2110011.jpg","1","","prediction_trial","2","","false","","2","false","false","true","true","false","false","[2]","110","011","0","","","","","","",""
"","","","","","image-keyboard-response","225","336619","0.0-200.0","5e6982499d7ba9245e58262a","665500ab8938657b03fbdba8","665792de4aff42002d7d08de","165","stimuli/21100112.jpg"," ","","feedback_trial","2","","","","","","","","","","","","","","","","","","","","",""
"","","","","","image-keyboard-response","226","337389","0.0-201.0","5e6982499d7ba9245e58262a","665500ab8938657b03fbdba8","665792de4aff42002d7d08de","761","stimuli/2010100.jpg","2","","prediction_trial","2","","true","","2","true","true","true","true","true","true","[2]","010","100","1","","","","","","",""
"","","","","","image-keyboard-response","227","337624","0.0-202.0","5e6982499d7ba9245e58262a","665500ab8938657b03fbdba8","665792de4aff42002d7d08de","225","stimuli/20101002.jpg"," ","","feedback_trial","2","","","","","","","","","","","","","","","","","","","","",""
"","","","","","image-keyboard-response","228","338655","0.0-203.0","5e6982499d7ba9245e58262a","665500ab8938657b03fbdba8","665792de4aff42002d7d08de","1020","stimuli/2011001.jpg","2","","prediction_trial","2","","true","","2","false","true","false","false","false","false","[1,2]","011","001","1","","","","","","",""
"","","","","","image-keyboard-response","229","338815","0.0-204.0","5e6982499d7ba9245e58262a","665500ab8938657b03fbdba8","665792de4aff42002d7d08de","150","stimuli/20110012.jpg"," ","","feedback_trial","1","","","","","","","","","","","","","","","","","","","","",""
"","","","","","image-keyboard-response","230","340049","0.0-205.0","5e6982499d7ba9245e58262a","665500ab8938657b03fbdba8","665792de4aff42002d7d08de","1224","stimuli/2011010.jpg","2","","prediction_trial","1","","false","","2","true","true","false","false","false","false","[1,2]","011","010","0","","","","","","",""
"","","","","","image-keyboard-response","231","340186","0.0-206.0","5e6982499d7ba9245e58262a","665500ab8938657b03fbdba8","665792de4aff42002d7d08de","133","stimuli/20110101.jpg"," ","","feedback_trial","1","","","","","","","","","","","","","","","","","","","","",""
"","","","","","image-keyboard-response","232","341341","0.0-207.0","5e6982499d7ba9245e58262a","665500ab8938657b03fbdba8","665792de4aff42002d7d08de","1146","stimuli/2101101.jpg","0","","prediction_trial","2","","false","","2","false","false","false","false","false","false","[2,0]","101","101","0","","","","","","",""
"","","","","","image-keyboard-response","233","341445","0.0-208.0","5e6982499d7ba9245e58262a","665500ab8938657b03fbdba8","665792de4aff42002d7d08de","94","stimuli/21011012.jpg"," ","","feedback_trial","2","","","","","","","","","","","","","","","","","","","","",""
"","","","","","image-keyboard-response","234","343096","0.0-209.0","5e6982499d7ba9245e58262a","665500ab8938657b03fbdba8","665792de4aff42002d7d08de","1647","stimuli/2111001.jpg","2","","prediction_trial","2","","true","","2","false","true","false","false","false","false","[0,2,1]","111","001","1","","","","","","",""
"","","","","","image-keyboard-response","235","343167","0.0-210.0","5e6982499d7ba9245e58262a","665500ab8938657b03fbdba8","665792de4aff42002d7d08de","67","stimuli/21110012.jpg"," ","","feedback_trial","0","","","","","","","","","","","","","","","","","","","","",""
"","","","","","image-keyboard-response","236","345794","0.0-211.0","5e6982499d7ba9245e58262a","665500ab8938657b03fbdba8","665792de4aff42002d7d08de","2623","stimuli/1101010.jpg","1","","prediction_trial","1","","true","","1","false","true","true","true","false","true","[1]","101","010","1","","","","","","",""
"","","","","","image-keyboard-response","237","345888","0.0-212.0","5e6982499d7ba9245e58262a","665500ab8938657b03fbdba8","665792de4aff42002d7d08de","82","stimuli/11010101.jpg"," ","","feedback_trial","1","","","","","","","","","","","","","","","","","","","","",""
"","","","","","image-keyboard-response","238","346914","0.0-213.0","5e6982499d7ba9245e58262a","665500ab8938657b03fbdba8","665792de4aff42002d7d08de","1021","stimuli/0011010.jpg","0","","prediction_trial","0","","true","","0","true","true","true","true","true","true","[0]","011","010","1","","","","","","",""
"","","","","","image-keyboard-response","239","347034","0.0-214.0","5e6982499d7ba9245e58262a","665500ab8938657b03fbdba8","665792de4aff42002d7d08de","110","stimuli/00110100.jpg"," ","","feedback_trial","0","","","","","","","","","","","","","","","","","","","","",""
"","","","","","image-keyboard-response","240","348965","0.0-215.0","5e6982499d7ba9245e58262a","665500ab8938657b03fbdba8","665792de4aff42002d7d08de","1927","stimuli/0001101.jpg","2","","prediction_trial","0","","false","","0","false","false","true","true","false","false","[0]","001","101","0","","","","","","",""
"","","","","","image-keyboard-response","241","349119","0.0-216.0","5e6982499d7ba9245e58262a","665500ab8938657b03fbdba8","665792de4aff42002d7d08de","144","stimuli/00011010.jpg"," ","","feedback_trial","0","","","","","","","","","","","","","","","","","","","","",""
"","","","","","image-keyboard-response","242","350099","0.0-217.0","5e6982499d7ba9245e58262a","665500ab8938657b03fbdba8","665792de4aff42002d7d08de","971","stimuli/1111100.jpg","1","","prediction_trial","2","","false","","1","true","true","false","false","false","false","[1,2,0]","111","100","0","","","","","","",""
"","","","","","image-keyboard-response","243","350242","0.0-218.0","5e6982499d7ba9245e58262a","665500ab8938657b03fbdba8","665792de4aff42002d7d08de","133","stimuli/11111002.jpg"," ","","feedback_trial","1","","","","","","","","","","","","","","","","","","","","",""
"","","","","","image-keyboard-response","244","351982","0.0-219.0","5e6982499d7ba9245e58262a","665500ab8938657b03fbdba8","665792de4aff42002d7d08de","1732","stimuli/1011001.jpg","2","","prediction_trial","2","","true","","1","true","true","false","false","false","false","[2,1]","011","001","1","","","","","","",""
"","","","","","image-keyboard-response","245","352602","0.0-220.0","5e6982499d7ba9245e58262a","665500ab8938657b03fbdba8","665792de4aff42002d7d08de","611","stimuli/10110012.jpg"," ","","feedback_trial","2","","","","","","","","","","","","","","","","","","","","",""
"","","","","","image-keyboard-response","246","353738","0.0-221.0","5e6982499d7ba9245e58262a","665500ab8938657b03fbdba8","665792de4aff42002d7d08de","1126","stimuli/0010000.jpg","0","","prediction_trial","0","","true","","0","true","true","true","true","true","true","[0]","010","000","1","","","","","","",""
"","","","","","image-keyboard-response","247","353897","0.0-222.0","5e6982499d7ba9245e58262a","665500ab8938657b03fbdba8","665792de4aff42002d7d08de","150","stimuli/00100000.jpg"," ","","feedback_trial","0","","","","","","","","","","","","","","","","","","","","",""
"","","","","","image-keyboard-response","248","355153","0.0-223.0","5e6982499d7ba9245e58262a","665500ab8938657b03fbdba8","665792de4aff42002d7d08de","1252","stimuli/1001001.jpg","1","","prediction_trial","1","","true","","1","true","true","true","true","true","true","[1]","001","001","1","","","","","","",""
"","","","","","image-keyboard-response","249","355394","0.0-224.0","5e6982499d7ba9245e58262a","665500ab8938657b03fbdba8","665792de4aff42002d7d08de","232","stimuli/10010011.jpg"," ","","feedback_trial","1","","","","","","","","","","","","","","","","","","","","",""
"","","","","","image-keyboard-response","250","355989","0.0-225.0","5e6982499d7ba9245e58262a","665500ab8938657b03fbdba8","665792de4aff42002d7d08de","586","stimuli/2111010.jpg","2","","prediction_trial","2","","true","","2","true","true","false","false","false","false","[1,2,0]","111","010","1","","","","","","",""
"","","","","","image-keyboard-response","251","356379","0.0-226.0","5e6982499d7ba9245e58262a","665500ab8938657b03fbdba8","665792de4aff42002d7d08de","381","stimuli/21110102.jpg"," ","","feedback_trial","1","","","","","","","","","","","","","","","","","","","","",""
"","","","","","image-keyboard-response","252","357445","0.0-227.0","5e6982499d7ba9245e58262a","665500ab8938657b03fbdba8","665792de4aff42002d7d08de","1055","stimuli/1101011.jpg","1","","prediction_trial","1","","true","","1","false","false","true","true","false","false","[1]","101","011","1","","","","","","",""
"","","","","","image-keyboard-response","253","357950","0.0-228.0","5e6982499d7ba9245e58262a","665500ab8938657b03fbdba8","665792de4aff42002d7d08de","496","stimuli/11010111.jpg"," ","","feedback_trial","1","","","","","","","","","","","","","","","","","","","","",""
"","","","","","image-keyboard-response","254","358800","0.0-229.0","5e6982499d7ba9245e58262a","665500ab8938657b03fbdba8","665792de4aff42002d7d08de","840","stimuli/1100111.jpg","0","","prediction_trial","1","","false","","1","false","false","true","true","false","false","[1]","100","111","0","","","","","","",""
"","","","","","image-keyboard-response","255","359321","0.0-230.0","5e6982499d7ba9245e58262a","665500ab8938657b03fbdba8","665792de4aff42002d7d08de","511","stimuli/11001111.jpg"," ","","feedback_trial","1","","","","","","","","","","","","","","","","","","","","",""
"","","","","","image-keyboard-response","256","360232","0.0-231.0","5e6982499d7ba9245e58262a","665500ab8938657b03fbdba8","665792de4aff42002d7d08de","901","stimuli/2110110.jpg","2","","prediction_trial","2","","true","","2","true","true","true","true","true","true","[2]","110","110","1","","","","","","",""
"","","","","","image-keyboard-response","257","360682","0.0-232.0","5e6982499d7ba9245e58262a","665500ab8938657b03fbdba8","665792de4aff42002d7d08de","440","stimuli/21101102.jpg"," ","","feedback_trial","2","","","","","","","","","","","","","","","","","","","","",""
"","","","","","image-keyboard-response","258","361248","0.0-233.0","5e6982499d7ba9245e58262a","665500ab8938657b03fbdba8","665792de4aff42002d7d08de","556","stimuli/1110010.jpg","1","","prediction_trial","0","","false","","1","false","true","false","false","false","false","[0,1]","110","010","0","","","","","","",""
"","","","","","image-keyboard-response","259","361927","0.0-234.0","5e6982499d7ba9245e58262a","665500ab8938657b03fbdba8","665792de4aff42002d7d08de","670","stimuli/11100100.jpg"," ","","feedback_trial","0","","","","","","","","","","","","","","","","","","","","",""
"","","","","","image-keyboard-response","260","363152","0.0-235.0","5e6982499d7ba9245e58262a","665500ab8938657b03fbdba8","665792de4aff42002d7d08de","1215","stimuli/1111110.jpg","0","","prediction_trial","0","","true","","1","false","false","false","false","false","false","[0,2,1]","111","110","1","","","","","","",""
"","","","","","image-keyboard-response","261","363713","0.0-236.0","5e6982499d7ba9245e58262a","665500ab8938657b03fbdba8","665792de4aff42002d7d08de","557","stimuli/11111100.jpg"," ","","feedback_trial","0","","","","","","","","","","","","","","","","","","","","",""
"","","","","","image-keyboard-response","262","364464","0.0-237.0","5e6982499d7ba9245e58262a","665500ab8938657b03fbdba8","665792de4aff42002d7d08de","740","stimuli/0010011.jpg","0","","prediction_trial","0","","true","","0","true","true","true","true","true","true","[0]","010","011","1","","","","","","",""
"","","","","","image-keyboard-response","263","364924","0.0-238.0","5e6982499d7ba9245e58262a","665500ab8938657b03fbdba8","665792de4aff42002d7d08de","450","stimuli/00100110.jpg"," ","","feedback_trial","0","","","","","","","","","","","","","","","","","","","","",""
"","","","","","image-keyboard-response","264","366417","0.0-239.0","5e6982499d7ba9245e58262a","665500ab8938657b03fbdba8","665792de4aff42002d7d08de","1476","stimuli/1011010.jpg","1","","prediction_trial","2","","false","","1","false","true","false","false","false","false","[2,1]","011","010","0","","","","","","",""
"","","","","","image-keyboard-response","265","367077","0.0-240.0","5e6982499d7ba9245e58262a","665500ab8938657b03fbdba8","665792de4aff42002d7d08de","650","stimuli/10110102.jpg"," ","","feedback_trial","2","","","","","","","","","","","","","","","","","","","","",""
"","","","","","image-keyboard-response","266","368042","0.0-241.0","5e6982499d7ba9245e58262a","665500ab8938657b03fbdba8","665792de4aff42002d7d08de","956","stimuli/0010001.jpg","0","","prediction_trial","0","","true","","0","true","true","true","true","true","true","[0]","010","001","1","","","","","","",""
"","","","","","image-keyboard-response","267","368398","0.0-242.0","5e6982499d7ba9245e58262a","665500ab8938657b03fbdba8","665792de4aff42002d7d08de","346","stimuli/00100010.jpg"," ","","feedback_trial","0","","","","","","","","","","","","","","","","","","","","",""
"","","","","","image-keyboard-response","268","369483","0.0-243.0","5e6982499d7ba9245e58262a","665500ab8938657b03fbdba8","665792de4aff42002d7d08de","1075","stimuli/0000110.jpg","0","","prediction_trial","0","","true","","0","false","false","true","true","false","false","[0]","000","110","1","","","","","","",""
"","","","","","image-keyboard-response","269","369934","0.0-244.0","5e6982499d7ba9245e58262a","665500ab8938657b03fbdba8","665792de4aff42002d7d08de","441","stimuli/00001100.jpg"," ","","feedback_trial","0","","","","","","","","","","","","","","","","","","","","",""
"","","","","","image-keyboard-response","270","370764","0.0-245.0","5e6982499d7ba9245e58262a","665500ab8938657b03fbdba8","665792de4aff42002d7d08de","820","stimuli/0111010.jpg","0","","prediction_trial","1","","false","","0","true","true","false","false","false","false","[2,0,1]","111","010","0","","","","","","",""
"","","","","","image-keyboard-response","271","371265","0.0-246.0","5e6982499d7ba9245e58262a","665500ab8938657b03fbdba8","665792de4aff42002d7d08de","491","stimuli/01110101.jpg"," ","","feedback_trial","2","","","","","","","","","","","","","","","","","","","","",""
"","","","","","image-keyboard-response","272","372205","0.0-247.0","5e6982499d7ba9245e58262a","665500ab8938657b03fbdba8","665792de4aff42002d7d08de","931","stimuli/1100101.jpg","1","","prediction_trial","1","","true","","1","true","true","true","true","true","true","[1]","100","101","1","","","","","","",""
"","","","","","image-keyboard-response","273","372700","0.0-248.0","5e6982499d7ba9245e58262a","665500ab8938657b03fbdba8","665792de4aff42002d7d08de","485","stimuli/11001011.jpg"," ","","feedback_trial","1","","","","","","","","","","","","","","","","","","","","",""
"","","","","","image-keyboard-response","274","373595","0.0-249.0","5e6982499d7ba9245e58262a","665500ab8938657b03fbdba8","665792de4aff42002d7d08de","885","stimuli/1011101.jpg","1","","prediction_trial","1","","true","","1","true","true","false","false","false","false","[1,2]","011","101","1","","","","","","",""
"","","","","","image-keyboard-response","275","374060","0.0-250.0","5e6982499d7ba9245e58262a","665500ab8938657b03fbdba8","665792de4aff42002d7d08de","456","stimuli/10111011.jpg"," ","","feedback_trial","1","","","","","","","","","","","","","","","","","","","","",""
"","","","","","image-keyboard-response","276","375036","0.0-251.0","5e6982499d7ba9245e58262a","665500ab8938657b03fbdba8","665792de4aff42002d7d08de","965","stimuli/1011100.jpg","1","","prediction_trial","1","","true","","1","true","true","false","false","false","false","[2,1]","011","100","1","","","","","","",""
"","","","","","image-keyboard-response","277","375501","0.0-252.0","5e6982499d7ba9245e58262a","665500ab8938657b03fbdba8","665792de4aff42002d7d08de","456","stimuli/10111001.jpg"," ","","feedback_trial","2","","","","","","","","","","","","","","","","","","","","",""
"","","","","","image-keyboard-response","278","376867","0.0-253.0","5e6982499d7ba9245e58262a","665500ab8938657b03fbdba8","665792de4aff42002d7d08de","1357","stimuli/2010101.jpg","1","","prediction_trial","2","","false","","2","false","false","true","true","false","false","[2]","010","101","0","","","","","","",""
"","","","","","image-keyboard-response","279","377433","0.0-254.0","5e6982499d7ba9245e58262a","665500ab8938657b03fbdba8","665792de4aff42002d7d08de","556","stimuli/20101012.jpg"," ","","feedback_trial","2","","","","","","","","","","","","","","","","","","","","",""
"","","","","","image-keyboard-response","280","378588","0.0-255.0","5e6982499d7ba9245e58262a","665500ab8938657b03fbdba8","665792de4aff42002d7d08de","1145","stimuli/0010111.jpg","2","","prediction_trial","0","","false","","0","false","false","true","true","false","false","[0]","010","111","0","","","","","","",""
"","","","","","image-keyboard-response","281","379172","0.0-256.0","5e6982499d7ba9245e58262a","665500ab8938657b03fbdba8","665792de4aff42002d7d08de","574","stimuli/00101110.jpg"," ","","feedback_trial","0","","","","","","","","","","","","","","","","","","","","",""
"","","","","","image-keyboard-response","282","380167","0.0-257.0","5e6982499d7ba9245e58262a","665500ab8938657b03fbdba8","665792de4aff42002d7d08de","992","stimuli/1111001.jpg","1","","prediction_trial","2","","false","","1","true","true","false","false","false","false","[1,2,0]","111","001","0","","","","","","",""
"","","","","","image-keyboard-response","283","380639","0.0-258.0","5e6982499d7ba9245e58262a","665500ab8938657b03fbdba8","665792de4aff42002d7d08de","467","stimuli/11110012.jpg"," ","","feedback_trial","1","","","","","","","","","","","","","","","","","","","","",""
"","","","","","image-keyboard-response","284","381649","0.0-259.0","5e6982499d7ba9245e58262a","665500ab8938657b03fbdba8","665792de4aff42002d7d08de","1000","stimuli/0101011.jpg","0","","prediction_trial","2","","false","","0","true","true","false","false","false","false","[0,2]","101","011","0","","","","","","",""
"","","","","","image-keyboard-response","285","382158","0.0-260.0","5e6982499d7ba9245e58262a","665500ab8938657b03fbdba8","665792de4aff42002d7d08de","499","stimuli/01010112.jpg"," ","","feedback_trial","0","","","","","","","","","","","","","","","","","","","","",""
"","","","","","image-keyboard-response","286","383370","0.0-261.0","5e6982499d7ba9245e58262a","665500ab8938657b03fbdba8","665792de4aff42002d7d08de","1208","stimuli/1110111.jpg","2","","prediction_trial","0","","false","","1","false","false","false","false","false","false","[0,1]","110","111","0","","","","","","",""
"","","","","","image-keyboard-response","287","383911","0.0-262.0","5e6982499d7ba9245e58262a","665500ab8938657b03fbdba8","665792de4aff42002d7d08de","530","stimuli/11101110.jpg"," ","","feedback_trial","0","","","","","","","","","","","","","","","","","","","","",""
"","","","","","image-keyboard-response","288","384861","0.0-263.0","5e6982499d7ba9245e58262a","665500ab8938657b03fbdba8","665792de4aff42002d7d08de","940","stimuli/0110001.jpg","0","","prediction_trial","0","","true","","0","true","true","false","false","false","false","[0,1]","110","001","1","","","","","","",""
"","","","","","image-keyboard-response","289","385421","0.0-264.0","5e6982499d7ba9245e58262a","665500ab8938657b03fbdba8","665792de4aff42002d7d08de","549","stimuli/01100010.jpg"," ","","feedback_trial","0","","","","","","","","","","","","","","","","","","","","",""
"","","","","","image-keyboard-response","290","386427","0.0-265.0","5e6982499d7ba9245e58262a","665500ab8938657b03fbdba8","665792de4aff42002d7d08de","995","stimuli/0110101.jpg","0","","prediction_trial","0","","true","","0","false","false","false","false","false","false","[0,1]","110","101","1","","","","","","",""
"","","","","","image-keyboard-response","291","386872","0.0-266.0","5e6982499d7ba9245e58262a","665500ab8938657b03fbdba8","665792de4aff42002d7d08de","435","stimuli/01101010.jpg"," ","","feedback_trial","0","","","","","","","","","","","","","","","","","","","","",""
"","","","","","image-keyboard-response","292","388123","0.0-267.0","5e6982499d7ba9245e58262a","665500ab8938657b03fbdba8","665792de4aff42002d7d08de","1241","stimuli/0101111.jpg","0","","prediction_trial","0","","true","","0","false","false","false","false","false","false","[0,2]","101","111","1","","","","","","",""
"","","","","","image-keyboard-response","293","388593","0.0-268.0","5e6982499d7ba9245e58262a","665500ab8938657b03fbdba8","665792de4aff42002d7d08de","460","stimuli/01011110.jpg"," ","","feedback_trial","0","","","","","","","","","","","","","","","","","","","","",""
"","","","","","image-keyboard-response","294","390594","0.0-269.0","5e6982499d7ba9245e58262a","665500ab8938657b03fbdba8","665792de4aff42002d7d08de","1991","stimuli/2100010.jpg","2","","prediction_trial","2","","true","","2","true","true","true","true","true","true","[2]","100","010","1","","","","","","",""
"","","","","","image-keyboard-response","295","390919","0.0-270.0","5e6982499d7ba9245e58262a","665500ab8938657b03fbdba8","665792de4aff42002d7d08de","315","stimuli/21000102.jpg"," ","","feedback_trial","2","","","","","","","","","","","","","","","","","","","","",""
"","","","","","image-keyboard-response","296","392600","0.0-271.0","5e6982499d7ba9245e58262a","665500ab8938657b03fbdba8","665792de4aff42002d7d08de","1671","stimuli/1011000.jpg","1","","prediction_trial","2","","false","","1","true","true","false","false","false","false","[1,2]","011","000","0","","","","","","",""
"","","","","","image-keyboard-response","297","393095","0.0-272.0","5e6982499d7ba9245e58262a","665500ab8938657b03fbdba8","665792de4aff42002d7d08de","485","stimuli/10110002.jpg"," ","","feedback_trial","1","","","","","","","","","","","","","","","","","","","","",""
"","","","","","image-keyboard-response","298","394421","0.0-273.0","5e6982499d7ba9245e58262a","665500ab8938657b03fbdba8","665792de4aff42002d7d08de","1316","stimuli/1101001.jpg","1","","prediction_trial","1","","true","","1","true","true","true","true","true","true","[1]","101","001","1","","","","","","",""
"","","","","","image-keyboard-response","299","394736","0.0-274.0","5e6982499d7ba9245e58262a","665500ab8938657b03fbdba8","665792de4aff42002d7d08de","306","stimuli/11010011.jpg"," ","","feedback_trial","1","","","","","","","","","","","","","","","","","","","","",""
"","","","","","image-keyboard-response","300","395661","0.0-275.0","5e6982499d7ba9245e58262a","665500ab8938657b03fbdba8","665792de4aff42002d7d08de","914","stimuli/0001111.jpg","2","","prediction_trial","0","","false","","0","false","false","true","true","false","false","[0]","001","111","0","","","","","","",""
"","","","","","image-keyboard-response","301","396087","0.0-276.0","5e6982499d7ba9245e58262a","665500ab8938657b03fbdba8","665792de4aff42002d7d08de","416","stimuli/00011110.jpg"," ","","feedback_trial","0","","","","","","","","","","","","","","","","","","","","",""
"","","","","","image-keyboard-response","302","397147","0.0-277.0","5e6982499d7ba9245e58262a","665500ab8938657b03fbdba8","665792de4aff42002d7d08de","1051","stimuli/0010101.jpg","1","","prediction_trial","0","","false","","0","false","false","true","true","false","false","[0]","010","101","0","","","","","","",""
"","","","","","image-keyboard-response","303","397568","0.0-278.0","5e6982499d7ba9245e58262a","665500ab8938657b03fbdba8","665792de4aff42002d7d08de","411","stimuli/00101010.jpg"," ","","feedback_trial","0","","","","","","","","","","","","","","","","","","","","",""
"","","","","","image-keyboard-response","304","398583","0.0-279.0","5e6982499d7ba9245e58262a","665500ab8938657b03fbdba8","665792de4aff42002d7d08de","1005","stimuli/2100011.jpg","0","","prediction_trial","2","","false","","2","false","false","true","true","false","false","[2]","100","011","0","","","","","","",""
"","","","","","image-keyboard-response","305","398998","0.0-280.0","5e6982499d7ba9245e58262a","665500ab8938657b03fbdba8","665792de4aff42002d7d08de","405","stimuli/21000112.jpg"," ","","feedback_trial","2","","","","","","","","","","","","","","","","","","","","",""
"","","","","","image-keyboard-response","306","399939","0.0-281.0","5e6982499d7ba9245e58262a","665500ab8938657b03fbdba8","665792de4aff42002d7d08de","931","stimuli/0100100.jpg","0","","prediction_trial","0","","true","","0","false","true","false","true","false","true","[0]","100","100","1","","","","","","",""
"","","","","","image-keyboard-response","307","400504","0.0-282.0","5e6982499d7ba9245e58262a","665500ab8938657b03fbdba8","665792de4aff42002d7d08de","555","stimuli/01001000.jpg"," ","","feedback_trial","0","","","","","","","","","","","","","","","","","","","","",""
"","","","","","image-keyboard-response","308","401810","0.0-283.0","5e6982499d7ba9245e58262a","665500ab8938657b03fbdba8","665792de4aff42002d7d08de","1295","stimuli/2000110.jpg","2","","prediction_trial","2","","true","","2","true","true","true","true","true","true","[2]","000","110","1","","","","","","",""
"","","","","","image-keyboard-response","309","402095","0.0-284.0","5e6982499d7ba9245e58262a","665500ab8938657b03fbdba8","665792de4aff42002d7d08de","276","stimuli/20001102.jpg"," ","","feedback_trial","2","","","","","","","","","","","","","","","","","","","","",""
"","","","","","image-keyboard-response","310","403005","0.0-285.0","5e6982499d7ba9245e58262a","665500ab8938657b03fbdba8","665792de4aff42002d7d08de","901","stimuli/1111101.jpg","1","","prediction_trial","2","","false","","1","true","true","false","false","false","false","[2,0,1]","111","101","0","","","","","","",""
"","","","","","image-keyboard-response","311","403441","0.0-286.0","5e6982499d7ba9245e58262a","665500ab8938657b03fbdba8","665792de4aff42002d7d08de","426","stimuli/11111012.jpg"," ","","feedback_trial","2","","","","","","","","","","","","","","","","","","","","",""
"","","","","","image-keyboard-response","312","404356","0.0-287.0","5e6982499d7ba9245e58262a","665500ab8938657b03fbdba8","665792de4aff42002d7d08de","904","stimuli/0000111.jpg","2","","prediction_trial","0","","false","","0","false","false","true","true","false","false","[0]","000","111","0","","","","","","",""
"","","","","","image-keyboard-response","313","404882","0.0-288.0","5e6982499d7ba9245e58262a","665500ab8938657b03fbdba8","665792de4aff42002d7d08de","516","stimuli/00001110.jpg"," ","","feedback_trial","0","","","","","","","","","","","","","","","","","","","","",""
"","","","","","image-keyboard-response","314","405645","0.0-289.0","5e6982499d7ba9245e58262a","665500ab8938657b03fbdba8","665792de4aff42002d7d08de","759","stimuli/2001110.jpg","2","","prediction_trial","2","","true","","2","true","true","false","true","false","true","[2]","001","110","1","","","","","","",""
"","","","","","image-keyboard-response","315","406032","0.0-290.0","5e6982499d7ba9245e58262a","665500ab8938657b03fbdba8","665792de4aff42002d7d08de","382","stimuli/20011102.jpg"," ","","feedback_trial","2","","","","","","","","","","","","","","","","","","","","",""
"","","","","","image-keyboard-response","316","407348","0.0-291.0","5e6982499d7ba9245e58262a","665500ab8938657b03fbdba8","665792de4aff42002d7d08de","1305","stimuli/0101101.jpg","2","","prediction_trial","2","","true","","0","false","false","false","false","false","false","[0,2]","101","101","1","","","","","","",""
"","","","","","image-keyboard-response","317","407778","0.0-292.0","5e6982499d7ba9245e58262a","665500ab8938657b03fbdba8","665792de4aff42002d7d08de","421","stimuli/01011012.jpg"," ","","feedback_trial","0","","","","","","","","","","","","","","","","","","","","",""
"","","","","","survey-html-form","318","501761","0.0-293.0","5e6982499d7ba9245e58262a","665500ab8938657b03fbdba8","665792de4aff42002d7d08de","93976","","{""feedback"":""I tried to find patterns in his selections, but mostly I just went with my gut instinct and tried not to overthink my choices too much. I was obviously striving for accuracy, but I tried not to stress too much about it because anxiety can affect my cognition at times if I get flustered."",""age"":""43"",""gender"":""Male"",""other_gender"":"""",""race"":""White"",""other_race"":""""}","","exit_survey","","","","","","","","","","","","","","","","I tried to find patterns in his selections, but mostly I just went with my gut instinct and tried not to overthink my choices too much. I was obviously striving for accuracy, but I tried not to stress too much about it because anxiety can affect my cognition at times if I get flustered.","43","","Male","White","0.6111111111111112","0.6111111111111112"
