"success","timeout","failed_images","failed_audio","failed_video","trial_type","trial_index","time_elapsed","internal_node_id","prolific_id","prolific_study_id","prolific_session_id","rt","stimulus","response","view_history","trial","character_choice","stimulus_dict","accuracy","correct_response","ball_pos","ego_ball_visible","ego_can_infer","alter_ball_visible","alter_can_infer","collective_ball_visible","collective_can_infer","search_locations","alter_occluders","ego_occluders","accuracy_bool","feedback","age","ethnicity","gender","race","overall_accuracy","bonus"
"true","false","[]","[]","[]","preload","0","5290","0.0-0.0","632f09dfbcfe2edefdae1447","665500ab8938657b03fbdba8","6657962aaefcd1f383a6a4f4","","","","","","","","","","","","","","","","","","","","","","","","","","",""
"true","","","","","fullscreen","1","9152","0.0-1.0","632f09dfbcfe2edefdae1447","665500ab8938657b03fbdba8","6657962aaefcd1f383a6a4f4","","","","","","","","","","","","","","","","","","","","","","","","","","",""
"","","","","","html-button-response","2","12264","0.0-2.0","632f09dfbcfe2edefdae1447","665500ab8938657b03fbdba8","6657962aaefcd1f383a6a4f4","3110","<p><b>Consent Form</b></p> <div style=""text-align:left;background-color:lightgrey; padding:20px; max-width:900px;""><p>Please consider this information carefully before deciding whether to participate in this research.</p> <p>The purpose of this research is to examine which factors influence social judgment and decision-making. You will be asked to make judgements about individuals and actions in social scenarios. We are simply interested in your judgement. The study will take less than 1 hour to complete, and you will receive less than $20 on Prolific. Your compensation and time commitment are specified in the study description. There are no anticipated risks associated with participating in this study. The effects of participating should be comparable to those you would ordinarily experience from viewing a computer monitor and using a mouse or keyboard for a similar amount of time. At the end of the study, we will provide an explanation of the questions that motivate this line of research and will describe the potential implications. </p><p> Your participation in this study is completely voluntary and you may refuse to participate or you may choose to withdraw at any time without penalty or loss of benefits to you which are otherwise entitled. Your participation in this study will remain confidential. No personally identifiable information will be associated with your data. Also, all analyses of the data will be averaged across all the participants, so your individual responses will never be specifically analyzed. </p><p> If you have questions or concerns about your participation or payment, or want to request a summary of research findings, please contact Dr. Jonathan Phillips at Jonathan.S.Phillips@dartmouth.edu. </p><p> Please save a copy of this form for your records. </p><p><b>Agreement: </b>The nature and purpose of this research have been sufficiently explained and I agree to participate in this study. I understand that I am free to withdraw at any time without incurring any penalty. Please consent by clicking the button below to continue. Otherwise, please exit the study at any time. </p>","0","","","","","","","","","","","","","","","","","","","","","","","",""
"","","","","","instructions","3","76125","0.0-3.0-0.0","632f09dfbcfe2edefdae1447","665500ab8938657b03fbdba8","6657962aaefcd1f383a6a4f4","63859","","","[{""page_index"":0,""viewing_time"":1061},{""page_index"":1,""viewing_time"":10359},{""page_index"":2,""viewing_time"":1637},{""page_index"":3,""viewing_time"":5961},{""page_index"":4,""viewing_time"":4136},{""page_index"":5,""viewing_time"":5025},{""page_index"":6,""viewing_time"":3617},{""page_index"":7,""viewing_time"":3307},{""page_index"":8,""viewing_time"":4186},{""page_index"":9,""viewing_time"":3135},{""page_index"":10,""viewing_time"":5101},{""page_index"":11,""viewing_time"":9657},{""page_index"":12,""viewing_time"":5821},{""page_index"":13,""viewing_time"":853}]","intro","","","","","","","","","","","","","","","","","","","","","",""
"","","","","","image-keyboard-response","4","77917","0.0-3.0-1.0","632f09dfbcfe2edefdae1447","665500ab8938657b03fbdba8","6657962aaefcd1f383a6a4f4","1789","stimuli/0111101.jpg","1","","prediction_practice","2","{""filepath"":""stimuli/0111101.jpg"",""ball_pos"":0,""ego_ball_visible"":false,""ego_can_infer"":false,""alter_ball_visible"":false,""alter_can_infer"":false,""collective_ball_visible"":false,""collective_can_infer"":false,""search_locations"":[2,0,1],""alter_occluders"":""111"",""ego_occluders"":""101""}","false","","","","","","","","","","","","","","","","","","",""
"","","","","","image-keyboard-response","5","80721","0.0-3.0-2.0","632f09dfbcfe2edefdae1447","665500ab8938657b03fbdba8","6657962aaefcd1f383a6a4f4","2801","stimuli/01111012.jpg"," ","","practrice_feedback","2","","","","","","","","","","","","","","","","","","","","",""
"","","","","","image-keyboard-response","6","81986","0.0-3.0-3.0","632f09dfbcfe2edefdae1447","665500ab8938657b03fbdba8","6657962aaefcd1f383a6a4f4","1263","stimuli/2110010.jpg","2","","prediction_practice","2","{""filepath"":""stimuli/2110010.jpg"",""ball_pos"":2,""ego_ball_visible"":true,""ego_can_infer"":true,""alter_ball_visible"":true,""alter_can_infer"":true,""collective_ball_visible"":true,""collective_can_infer"":true,""search_locations"":[2],""alter_occluders"":""110"",""ego_occluders"":""010""}","true","","","","","","","","","","","","","","","","","","",""
"","","","","","image-keyboard-response","7","83716","0.0-3.0-4.0","632f09dfbcfe2edefdae1447","665500ab8938657b03fbdba8","6657962aaefcd1f383a6a4f4","1728","stimuli/21100102.jpg"," ","","practrice_feedback","2","","","","","","","","","","","","","","","","","","","","",""
"","","","","","image-keyboard-response","8","87097","0.0-3.0-5.0","632f09dfbcfe2edefdae1447","665500ab8938657b03fbdba8","6657962aaefcd1f383a6a4f4","3381","stimuli/2001011.jpg","0","","prediction_practice","2","{""filepath"":""stimuli/2001011.jpg"",""ball_pos"":2,""ego_ball_visible"":false,""ego_can_infer"":false,""alter_ball_visible"":false,""alter_can_infer"":true,""collective_ball_visible"":false,""collective_can_infer"":false,""search_locations"":[2],""alter_occluders"":""001"",""ego_occluders"":""011""}","false","","","","","","","","","","","","","","","","","","",""
"","","","","","image-keyboard-response","9","89166","0.0-3.0-6.0","632f09dfbcfe2edefdae1447","665500ab8938657b03fbdba8","6657962aaefcd1f383a6a4f4","2069","stimuli/20010112.jpg"," ","","practrice_feedback","2","","","","","","","","","","","","","","","","","","","","",""
"","","","","","image-keyboard-response","10","93009","0.0-3.0-7.0","632f09dfbcfe2edefdae1447","665500ab8938657b03fbdba8","6657962aaefcd1f383a6a4f4","3842","stimuli/2101100.jpg","2","","prediction_practice","0","{""filepath"":""stimuli/2101100.jpg"",""ball_pos"":2,""ego_ball_visible"":true,""ego_can_infer"":true,""alter_ball_visible"":false,""alter_can_infer"":false,""collective_ball_visible"":false,""collective_can_infer"":false,""search_locations"":[0,2],""alter_occluders"":""101"",""ego_occluders"":""100""}","false","","","","","","","","","","","","","","","","","","",""
"","","","","","image-keyboard-response","11","94298","0.0-3.0-8.0","632f09dfbcfe2edefdae1447","665500ab8938657b03fbdba8","6657962aaefcd1f383a6a4f4","1288","stimuli/21011000.jpg"," ","","practrice_feedback","0","","","","","","","","","","","","","","","","","","","","",""
"","","","","","image-keyboard-response","12","95943","0.0-3.0-9.0","632f09dfbcfe2edefdae1447","665500ab8938657b03fbdba8","6657962aaefcd1f383a6a4f4","1639","stimuli/0001001.jpg","0","","prediction_practice","0","{""filepath"":""stimuli/0001001.jpg"",""ball_pos"":0,""ego_ball_visible"":true,""ego_can_infer"":true,""alter_ball_visible"":true,""alter_can_infer"":true,""collective_ball_visible"":true,""collective_can_infer"":true,""search_locations"":[0],""alter_occluders"":""001"",""ego_occluders"":""001""}","true","","","","","","","","","","","","","","","","","","",""
"","","","","","image-keyboard-response","13","96718","0.0-3.0-10.0","632f09dfbcfe2edefdae1447","665500ab8938657b03fbdba8","6657962aaefcd1f383a6a4f4","773","stimuli/00010010.jpg"," ","","practrice_feedback","0","","","","","","","","","","","","","","","","","","","","",""
"","","","","","image-keyboard-response","14","97980","0.0-3.0-11.0","632f09dfbcfe2edefdae1447","665500ab8938657b03fbdba8","6657962aaefcd1f383a6a4f4","1261","stimuli/2111111.jpg","1","","prediction_practice","0","{""filepath"":""stimuli/2111111.jpg"",""ball_pos"":2,""ego_ball_visible"":false,""ego_can_infer"":false,""alter_ball_visible"":false,""alter_can_infer"":false,""collective_ball_visible"":false,""collective_can_infer"":false,""search_locations"":[1,0,2],""alter_occluders"":""111"",""ego_occluders"":""111""}","false","","","","","","","","","","","","","","","","","","",""
"","","","","","image-keyboard-response","15","98633","0.0-3.0-12.0","632f09dfbcfe2edefdae1447","665500ab8938657b03fbdba8","6657962aaefcd1f383a6a4f4","652","stimuli/21111110.jpg"," ","","practrice_feedback","1","","","","","","","","","","","","","","","","","","","","",""
"","","","","","image-keyboard-response","16","99546","0.0-3.0-13.0","632f09dfbcfe2edefdae1447","665500ab8938657b03fbdba8","6657962aaefcd1f383a6a4f4","912","stimuli/0010000.jpg","0","","prediction_practice","0","{""filepath"":""stimuli/0010000.jpg"",""ball_pos"":0,""ego_ball_visible"":true,""ego_can_infer"":true,""alter_ball_visible"":true,""alter_can_infer"":true,""collective_ball_visible"":true,""collective_can_infer"":true,""search_locations"":[0],""alter_occluders"":""010"",""ego_occluders"":""000""}","true","","","","","","","","","","","","","","","","","","",""
"","","","","","image-keyboard-response","17","100027","0.0-3.0-14.0","632f09dfbcfe2edefdae1447","665500ab8938657b03fbdba8","6657962aaefcd1f383a6a4f4","479","stimuli/00100000.jpg"," ","","practrice_feedback","0","","","","","","","","","","","","","","","","","","","","",""
"","","","","","image-keyboard-response","18","104017","0.0-3.0-15.0","632f09dfbcfe2edefdae1447","665500ab8938657b03fbdba8","6657962aaefcd1f383a6a4f4","3990","stimuli/1001110.jpg","1","","prediction_practice","1","{""filepath"":""stimuli/1001110.jpg"",""ball_pos"":1,""ego_ball_visible"":false,""ego_can_infer"":false,""alter_ball_visible"":true,""alter_can_infer"":true,""collective_ball_visible"":false,""collective_can_infer"":false,""search_locations"":[1],""alter_occluders"":""001"",""ego_occluders"":""110""}","true","","","","","","","","","","","","","","","","","","",""
"","","","","","image-keyboard-response","19","104947","0.0-3.0-16.0","632f09dfbcfe2edefdae1447","665500ab8938657b03fbdba8","6657962aaefcd1f383a6a4f4","929","stimuli/10011101.jpg"," ","","practrice_feedback","1","","","","","","","","","","","","","","","","","","","","",""
"","","","","","image-keyboard-response","20","106774","0.0-3.0-17.0","632f09dfbcfe2edefdae1447","665500ab8938657b03fbdba8","6657962aaefcd1f383a6a4f4","1826","stimuli/2100011.jpg","2","","prediction_practice","2","{""filepath"":""stimuli/2100011.jpg"",""ball_pos"":2,""ego_ball_visible"":false,""ego_can_infer"":false,""alter_ball_visible"":true,""alter_can_infer"":true,""collective_ball_visible"":false,""collective_can_infer"":false,""search_locations"":[2],""alter_occluders"":""100"",""ego_occluders"":""011""}","true","","","","","","","","","","","","","","","","","","",""
"","","","","","image-keyboard-response","21","107329","0.0-3.0-18.0","632f09dfbcfe2edefdae1447","665500ab8938657b03fbdba8","6657962aaefcd1f383a6a4f4","553","stimuli/21000112.jpg"," ","","practrice_feedback","2","","","","","","","","","","","","","","","","","","","","",""
"","","","","","image-keyboard-response","22","115317","0.0-3.0-19.0","632f09dfbcfe2edefdae1447","665500ab8938657b03fbdba8","6657962aaefcd1f383a6a4f4","7985","stimuli/0010111.jpg","1","","prediction_practice","0","{""filepath"":""stimuli/0010111.jpg"",""ball_pos"":0,""ego_ball_visible"":false,""ego_can_infer"":false,""alter_ball_visible"":true,""alter_can_infer"":true,""collective_ball_visible"":false,""collective_can_infer"":false,""search_locations"":[0],""alter_occluders"":""010"",""ego_occluders"":""111""}","false","","","","","","","","","","","","","","","","","","",""
"","","","","","image-keyboard-response","23","115900","0.0-3.0-20.0","632f09dfbcfe2edefdae1447","665500ab8938657b03fbdba8","6657962aaefcd1f383a6a4f4","581","stimuli/00101110.jpg"," ","","practrice_feedback","0","","","","","","","","","","","","","","","","","","","","",""
"","","","","","html-button-response","24","117759","0.0-3.0-21.0","632f09dfbcfe2edefdae1447","665500ab8938657b03fbdba8","6657962aaefcd1f383a6a4f4","1858","Now that you've had some practice, you'll be tested with a couple of easy trials. If you correctly predict Sam's choice, you'll move on to complete the experiment!","0","","","","","","","","","","","","","","","","","","","","","","","",""
"","","","","","image-keyboard-response","25","119318","0.0-3.0-22.0-0.0","632f09dfbcfe2edefdae1447","665500ab8938657b03fbdba8","6657962aaefcd1f383a6a4f4","1566","stimuli/0000011.jpg","arrowleft","","comprehension_quiz","","","true","arrowleft","","","","","","","","","","","","","","","","","",""
"","","","","","image-keyboard-response","26","119971","0.0-3.0-22.0-1.0","632f09dfbcfe2edefdae1447","665500ab8938657b03fbdba8","6657962aaefcd1f383a6a4f4","650","stimuli/00000110.jpg"," ","","comprehension_quiz","","","true"," ","","","","","","","","","","","","","","","","","",""
"","","","","","image-keyboard-response","27","121282","0.0-3.0-22.0-2.0","632f09dfbcfe2edefdae1447","665500ab8938657b03fbdba8","6657962aaefcd1f383a6a4f4","1311","stimuli/1010010.jpg","arrowdown","","comprehension_quiz","","","true","arrowdown","","","","","","","","","","","","","","","","","",""
"","","","","","image-keyboard-response","28","121630","0.0-3.0-22.0-3.0","632f09dfbcfe2edefdae1447","665500ab8938657b03fbdba8","6657962aaefcd1f383a6a4f4","346","stimuli/10100101.jpg"," ","","comprehension_quiz","","","true"," ","","","","","","","","","","","","","","","","","",""
"","","","","","html-button-response","29","123212","0.0-4.0","632f09dfbcfe2edefdae1447","665500ab8938657b03fbdba8","6657962aaefcd1f383a6a4f4","1580","The experiment will now begin.","0","","","","","","","","","","","","","","","","","","","","","","","",""
"","","","","","image-keyboard-response","30","124491","0.0-5.0","632f09dfbcfe2edefdae1447","665500ab8938657b03fbdba8","6657962aaefcd1f383a6a4f4","1277","stimuli/2000100.jpg","2","","prediction_trial","2","","true","","2","true","true","true","true","true","true","[2]","000","100","1","","","","","","",""
"","","","","","image-keyboard-response","31","125419","0.0-6.0","632f09dfbcfe2edefdae1447","665500ab8938657b03fbdba8","6657962aaefcd1f383a6a4f4","926","stimuli/20001002.jpg"," ","","feedback_trial","2","","","","","","","","","","","","","","","","","","","","",""
"","","","","","image-keyboard-response","32","127023","0.0-7.0","632f09dfbcfe2edefdae1447","665500ab8938657b03fbdba8","6657962aaefcd1f383a6a4f4","1603","stimuli/2110001.jpg","2","","prediction_trial","2","","true","","2","false","true","true","true","false","true","[2]","110","001","1","","","","","","",""
"","","","","","image-keyboard-response","33","127387","0.0-8.0","632f09dfbcfe2edefdae1447","665500ab8938657b03fbdba8","6657962aaefcd1f383a6a4f4","362","stimuli/21100012.jpg"," ","","feedback_trial","2","","","","","","","","","","","","","","","","","","","","",""
"","","","","","image-keyboard-response","34","133063","0.0-9.0","632f09dfbcfe2edefdae1447","665500ab8938657b03fbdba8","6657962aaefcd1f383a6a4f4","5675","stimuli/0011110.jpg","1","","prediction_trial","0","","false","","0","false","false","true","true","false","false","[0]","011","110","0","","","","","","",""
"","","","","","image-keyboard-response","35","133526","0.0-10.0","632f09dfbcfe2edefdae1447","665500ab8938657b03fbdba8","6657962aaefcd1f383a6a4f4","462","stimuli/00111100.jpg"," ","","feedback_trial","0","","","","","","","","","","","","","","","","","","","","",""
"","","","","","image-keyboard-response","36","136002","0.0-11.0","632f09dfbcfe2edefdae1447","665500ab8938657b03fbdba8","6657962aaefcd1f383a6a4f4","2475","stimuli/2001000.jpg","2","","prediction_trial","2","","true","","2","true","true","false","true","false","true","[2]","001","000","1","","","","","","",""
"","","","","","image-keyboard-response","37","136585","0.0-12.0","632f09dfbcfe2edefdae1447","665500ab8938657b03fbdba8","6657962aaefcd1f383a6a4f4","582","stimuli/20010002.jpg"," ","","feedback_trial","2","","","","","","","","","","","","","","","","","","","","",""
"","","","","","image-keyboard-response","38","137359","0.0-13.0","632f09dfbcfe2edefdae1447","665500ab8938657b03fbdba8","6657962aaefcd1f383a6a4f4","773","stimuli/0011010.jpg","0","","prediction_trial","0","","true","","0","true","true","true","true","true","true","[0]","011","010","1","","","","","","",""
"","","","","","image-keyboard-response","39","137701","0.0-14.0","632f09dfbcfe2edefdae1447","665500ab8938657b03fbdba8","6657962aaefcd1f383a6a4f4","340","stimuli/00110100.jpg"," ","","feedback_trial","0","","","","","","","","","","","","","","","","","","","","",""
"","","","","","image-keyboard-response","40","138495","0.0-15.0","632f09dfbcfe2edefdae1447","665500ab8938657b03fbdba8","6657962aaefcd1f383a6a4f4","794","stimuli/1000100.jpg","1","","prediction_trial","1","","true","","1","true","true","true","true","true","true","[1]","000","100","1","","","","","","",""
"","","","","","image-keyboard-response","41","138826","0.0-16.0","632f09dfbcfe2edefdae1447","665500ab8938657b03fbdba8","6657962aaefcd1f383a6a4f4","327","stimuli/10001001.jpg"," ","","feedback_trial","1","","","","","","","","","","","","","","","","","","","","",""
"","","","","","image-keyboard-response","42","140130","0.0-17.0","632f09dfbcfe2edefdae1447","665500ab8938657b03fbdba8","6657962aaefcd1f383a6a4f4","1302","stimuli/1000011.jpg","2","","prediction_trial","1","","false","","1","false","false","true","true","false","false","[1]","000","011","0","","","","","","",""
"","","","","","image-keyboard-response","43","140490","0.0-18.0","632f09dfbcfe2edefdae1447","665500ab8938657b03fbdba8","6657962aaefcd1f383a6a4f4","358","stimuli/10000111.jpg"," ","","feedback_trial","1","","","","","","","","","","","","","","","","","","","","",""
"","","","","","image-keyboard-response","44","141299","0.0-19.0","632f09dfbcfe2edefdae1447","665500ab8938657b03fbdba8","6657962aaefcd1f383a6a4f4","808","stimuli/1101100.jpg","1","","prediction_trial","1","","true","","1","true","true","true","true","true","true","[1]","101","100","1","","","","","","",""
"","","","","","image-keyboard-response","45","141603","0.0-20.0","632f09dfbcfe2edefdae1447","665500ab8938657b03fbdba8","6657962aaefcd1f383a6a4f4","302","stimuli/11011001.jpg"," ","","feedback_trial","1","","","","","","","","","","","","","","","","","","","","",""
"","","","","","image-keyboard-response","46","142320","0.0-21.0","632f09dfbcfe2edefdae1447","665500ab8938657b03fbdba8","6657962aaefcd1f383a6a4f4","715","stimuli/2111110.jpg","2","","prediction_trial","1","","false","","2","true","true","false","false","false","false","[1,0,2]","111","110","0","","","","","","",""
"","","","","","image-keyboard-response","47","142640","0.0-22.0","632f09dfbcfe2edefdae1447","665500ab8938657b03fbdba8","6657962aaefcd1f383a6a4f4","318","stimuli/21111101.jpg"," ","","feedback_trial","1","","","","","","","","","","","","","","","","","","","","",""
"","","","","","image-keyboard-response","48","143976","0.0-23.0","632f09dfbcfe2edefdae1447","665500ab8938657b03fbdba8","6657962aaefcd1f383a6a4f4","1334","stimuli/2000011.jpg","2","","prediction_trial","2","","true","","2","false","false","true","true","false","false","[2]","000","011","1","","","","","","",""
"","","","","","image-keyboard-response","49","144300","0.0-24.0","632f09dfbcfe2edefdae1447","665500ab8938657b03fbdba8","6657962aaefcd1f383a6a4f4","322","stimuli/20000112.jpg"," ","","feedback_trial","2","","","","","","","","","","","","","","","","","","","","",""
"","","","","","image-keyboard-response","50","145123","0.0-25.0","632f09dfbcfe2edefdae1447","665500ab8938657b03fbdba8","6657962aaefcd1f383a6a4f4","816","stimuli/1111100.jpg","1","","prediction_trial","0","","false","","1","true","true","false","false","false","false","[2,1,0]","111","100","0","","","","","","",""
"","","","","","image-keyboard-response","51","145443","0.0-26.0","632f09dfbcfe2edefdae1447","665500ab8938657b03fbdba8","6657962aaefcd1f383a6a4f4","317","stimuli/11111000.jpg"," ","","feedback_trial","2","","","","","","","","","","","","","","","","","","","","",""
"","","","","","image-keyboard-response","52","147128","0.0-27.0","632f09dfbcfe2edefdae1447","665500ab8938657b03fbdba8","6657962aaefcd1f383a6a4f4","1684","stimuli/1000111.jpg","1","","prediction_trial","1","","true","","1","false","false","true","true","false","false","[1]","000","111","1","","","","","","",""
"","","","","","image-keyboard-response","53","147422","0.0-28.0","632f09dfbcfe2edefdae1447","665500ab8938657b03fbdba8","6657962aaefcd1f383a6a4f4","293","stimuli/10001111.jpg"," ","","feedback_trial","1","","","","","","","","","","","","","","","","","","","","",""
"","","","","","image-keyboard-response","54","148085","0.0-29.0","632f09dfbcfe2edefdae1447","665500ab8938657b03fbdba8","6657962aaefcd1f383a6a4f4","661","stimuli/1100100.jpg","1","","prediction_trial","1","","true","","1","true","true","true","true","true","true","[1]","100","100","1","","","","","","",""
"","","","","","image-keyboard-response","55","148350","0.0-30.0","632f09dfbcfe2edefdae1447","665500ab8938657b03fbdba8","6657962aaefcd1f383a6a4f4","263","stimuli/11001001.jpg"," ","","feedback_trial","1","","","","","","","","","","","","","","","","","","","","",""
"","","","","","image-keyboard-response","56","150651","0.0-31.0","632f09dfbcfe2edefdae1447","665500ab8938657b03fbdba8","6657962aaefcd1f383a6a4f4","2299","stimuli/0011111.jpg","1","","prediction_trial","0","","false","","0","false","false","true","true","false","false","[0]","011","111","0","","","","","","",""
"","","","","","image-keyboard-response","57","151001","0.0-32.0","632f09dfbcfe2edefdae1447","665500ab8938657b03fbdba8","6657962aaefcd1f383a6a4f4","350","stimuli/00111110.jpg"," ","","feedback_trial","0","","","","","","","","","","","","","","","","","","","","",""
"","","","","","image-keyboard-response","58","152406","0.0-33.0","632f09dfbcfe2edefdae1447","665500ab8938657b03fbdba8","6657962aaefcd1f383a6a4f4","1403","stimuli/1111101.jpg","1","","prediction_trial","0","","false","","1","true","true","false","false","false","false","[0,1,2]","111","101","0","","","","","","",""
"","","","","","image-keyboard-response","59","153182","0.0-34.0","632f09dfbcfe2edefdae1447","665500ab8938657b03fbdba8","6657962aaefcd1f383a6a4f4","768","stimuli/11111010.jpg"," ","","feedback_trial","0","","","","","","","","","","","","","","","","","","","","",""
"","","","","","image-keyboard-response","60","154156","0.0-35.0","632f09dfbcfe2edefdae1447","665500ab8938657b03fbdba8","6657962aaefcd1f383a6a4f4","972","stimuli/2011110.jpg","2","","prediction_trial","2","","true","","2","true","true","false","false","false","false","[1,2]","011","110","1","","","","","","",""
"","","","","","image-keyboard-response","61","154611","0.0-36.0","632f09dfbcfe2edefdae1447","665500ab8938657b03fbdba8","6657962aaefcd1f383a6a4f4","453","stimuli/20111102.jpg"," ","","feedback_trial","1","","","","","","","","","","","","","","","","","","","","",""
"","","","","","image-keyboard-response","62","155333","0.0-37.0","632f09dfbcfe2edefdae1447","665500ab8938657b03fbdba8","6657962aaefcd1f383a6a4f4","721","stimuli/0011000.jpg","0","","prediction_trial","0","","true","","0","true","true","true","true","true","true","[0]","011","000","1","","","","","","",""
"","","","","","image-keyboard-response","63","155694","0.0-38.0","632f09dfbcfe2edefdae1447","665500ab8938657b03fbdba8","6657962aaefcd1f383a6a4f4","360","stimuli/00110000.jpg"," ","","feedback_trial","0","","","","","","","","","","","","","","","","","","","","",""
"","","","","","image-keyboard-response","64","156552","0.0-39.0","632f09dfbcfe2edefdae1447","665500ab8938657b03fbdba8","6657962aaefcd1f383a6a4f4","857","stimuli/2001100.jpg","2","","prediction_trial","2","","true","","2","true","true","false","true","false","true","[2]","001","100","1","","","","","","",""
"","","","","","image-keyboard-response","65","156917","0.0-40.0","632f09dfbcfe2edefdae1447","665500ab8938657b03fbdba8","6657962aaefcd1f383a6a4f4","363","stimuli/20011002.jpg"," ","","feedback_trial","2","","","","","","","","","","","","","","","","","","","","",""
"","","","","","image-keyboard-response","66","162618","0.0-41.0","632f09dfbcfe2edefdae1447","665500ab8938657b03fbdba8","6657962aaefcd1f383a6a4f4","5700","stimuli/2001110.jpg","2","","prediction_trial","2","","true","","2","true","true","false","true","false","true","[2]","001","110","1","","","","","","",""
"","","","","","image-keyboard-response","67","162983","0.0-42.0","632f09dfbcfe2edefdae1447","665500ab8938657b03fbdba8","6657962aaefcd1f383a6a4f4","364","stimuli/20011102.jpg"," ","","feedback_trial","2","","","","","","","","","","","","","","","","","","","","",""
"","","","","","image-keyboard-response","68","165791","0.0-43.0","632f09dfbcfe2edefdae1447","665500ab8938657b03fbdba8","6657962aaefcd1f383a6a4f4","2803","stimuli/0010010.jpg","0","","prediction_trial","0","","true","","0","true","true","true","true","true","true","[0]","010","010","1","","","","","","",""
"","","","","","image-keyboard-response","69","166095","0.0-44.0","632f09dfbcfe2edefdae1447","665500ab8938657b03fbdba8","6657962aaefcd1f383a6a4f4","302","stimuli/00100100.jpg"," ","","feedback_trial","0","","","","","","","","","","","","","","","","","","","","",""
"","","","","","image-keyboard-response","70","168914","0.0-45.0","632f09dfbcfe2edefdae1447","665500ab8938657b03fbdba8","6657962aaefcd1f383a6a4f4","2817","stimuli/0101010.jpg","0","","prediction_trial","0","","true","","0","true","true","false","false","false","false","[0,2]","101","010","1","","","","","","",""
"","","","","","image-keyboard-response","71","169270","0.0-46.0","632f09dfbcfe2edefdae1447","665500ab8938657b03fbdba8","6657962aaefcd1f383a6a4f4","355","stimuli/01010100.jpg"," ","","feedback_trial","0","","","","","","","","","","","","","","","","","","","","",""
"","","","","","image-keyboard-response","72","171946","0.0-47.0","632f09dfbcfe2edefdae1447","665500ab8938657b03fbdba8","6657962aaefcd1f383a6a4f4","2676","stimuli/0000101.jpg","0","","prediction_trial","0","","true","","0","false","false","true","true","false","false","[0]","000","101","1","","","","","","",""
"","","","","","image-keyboard-response","73","172310","0.0-48.0","632f09dfbcfe2edefdae1447","665500ab8938657b03fbdba8","6657962aaefcd1f383a6a4f4","363","stimuli/00001010.jpg"," ","","feedback_trial","0","","","","","","","","","","","","","","","","","","","","",""
"","","","","","image-keyboard-response","74","177013","0.0-49.0","632f09dfbcfe2edefdae1447","665500ab8938657b03fbdba8","6657962aaefcd1f383a6a4f4","4701","stimuli/2010011.jpg","1","","prediction_trial","2","","false","","2","false","false","true","true","false","false","[2]","010","011","0","","","","","","",""
"","","","","","image-keyboard-response","75","177412","0.0-50.0","632f09dfbcfe2edefdae1447","665500ab8938657b03fbdba8","6657962aaefcd1f383a6a4f4","399","stimuli/20100112.jpg"," ","","feedback_trial","2","","","","","","","","","","","","","","","","","","","","",""
"","","","","","image-keyboard-response","76","178362","0.0-51.0","632f09dfbcfe2edefdae1447","665500ab8938657b03fbdba8","6657962aaefcd1f383a6a4f4","948","stimuli/1010010.jpg","1","","prediction_trial","1","","true","","1","false","true","false","true","false","true","[1]","010","010","1","","","","","","",""
"","","","","","image-keyboard-response","77","178665","0.0-52.0","632f09dfbcfe2edefdae1447","665500ab8938657b03fbdba8","6657962aaefcd1f383a6a4f4","295","stimuli/10100101.jpg"," ","","feedback_trial","1","","","","","","","","","","","","","","","","","","","","",""
"","","","","","image-keyboard-response","78","179240","0.0-53.0","632f09dfbcfe2edefdae1447","665500ab8938657b03fbdba8","6657962aaefcd1f383a6a4f4","574","stimuli/0001010.jpg","0","","prediction_trial","0","","true","","0","true","true","true","true","true","true","[0]","001","010","1","","","","","","",""
"","","","","","image-keyboard-response","79","179476","0.0-54.0","632f09dfbcfe2edefdae1447","665500ab8938657b03fbdba8","6657962aaefcd1f383a6a4f4","236","stimuli/00010100.jpg"," ","","feedback_trial","0","","","","","","","","","","","","","","","","","","","","",""
"","","","","","image-keyboard-response","80","180285","0.0-55.0","632f09dfbcfe2edefdae1447","665500ab8938657b03fbdba8","6657962aaefcd1f383a6a4f4","808","stimuli/0111000.jpg","0","","prediction_trial","0","","true","","0","true","true","false","false","false","false","[0,1,2]","111","000","1","","","","","","",""
"","","","","","image-keyboard-response","81","180543","0.0-56.0","632f09dfbcfe2edefdae1447","665500ab8938657b03fbdba8","6657962aaefcd1f383a6a4f4","257","stimuli/01110000.jpg"," ","","feedback_trial","0","","","","","","","","","","","","","","","","","","","","",""
"","","","","","image-keyboard-response","82","181178","0.0-57.0","632f09dfbcfe2edefdae1447","665500ab8938657b03fbdba8","6657962aaefcd1f383a6a4f4","633","stimuli/1000101.jpg","1","","prediction_trial","1","","true","","1","true","true","true","true","true","true","[1]","000","101","1","","","","","","",""
"","","","","","image-keyboard-response","83","181384","0.0-58.0","632f09dfbcfe2edefdae1447","665500ab8938657b03fbdba8","6657962aaefcd1f383a6a4f4","204","stimuli/10001011.jpg"," ","","feedback_trial","1","","","","","","","","","","","","","","","","","","","","",""
"","","","","","image-keyboard-response","84","182436","0.0-59.0","632f09dfbcfe2edefdae1447","665500ab8938657b03fbdba8","6657962aaefcd1f383a6a4f4","1052","stimuli/2011111.jpg","2","","prediction_trial","2","","true","","2","false","false","false","false","false","false","[1,2]","011","111","1","","","","","","",""
"","","","","","image-keyboard-response","85","182689","0.0-60.0","632f09dfbcfe2edefdae1447","665500ab8938657b03fbdba8","6657962aaefcd1f383a6a4f4","251","stimuli/20111112.jpg"," ","","feedback_trial","1","","","","","","","","","","","","","","","","","","","","",""
"","","","","","image-keyboard-response","86","184677","0.0-61.0","632f09dfbcfe2edefdae1447","665500ab8938657b03fbdba8","6657962aaefcd1f383a6a4f4","1979","stimuli/1110110.jpg","0","","prediction_trial","0","","true","","1","false","false","false","false","false","false","[0,1]","110","110","1","","","","","","",""
"","","","","","image-keyboard-response","87","184871","0.0-62.0","632f09dfbcfe2edefdae1447","665500ab8938657b03fbdba8","6657962aaefcd1f383a6a4f4","192","stimuli/11101100.jpg"," ","","feedback_trial","0","","","","","","","","","","","","","","","","","","","","",""
"","","","","","image-keyboard-response","88","186421","0.0-63.0","632f09dfbcfe2edefdae1447","665500ab8938657b03fbdba8","6657962aaefcd1f383a6a4f4","1549","stimuli/2011001.jpg","2","","prediction_trial","2","","true","","2","false","true","false","false","false","false","[2,1]","011","001","1","","","","","","",""
"","","","","","image-keyboard-response","89","186818","0.0-64.0","632f09dfbcfe2edefdae1447","665500ab8938657b03fbdba8","6657962aaefcd1f383a6a4f4","395","stimuli/20110012.jpg"," ","","feedback_trial","2","","","","","","","","","","","","","","","","","","","","",""
"","","","","","image-keyboard-response","90","187587","0.0-65.0","632f09dfbcfe2edefdae1447","665500ab8938657b03fbdba8","6657962aaefcd1f383a6a4f4","769","stimuli/0101000.jpg","0","","prediction_trial","0","","true","","0","true","true","false","false","false","false","[0,2]","101","000","1","","","","","","",""
"","","","","","image-keyboard-response","91","187869","0.0-66.0","632f09dfbcfe2edefdae1447","665500ab8938657b03fbdba8","6657962aaefcd1f383a6a4f4","281","stimuli/01010000.jpg"," ","","feedback_trial","0","","","","","","","","","","","","","","","","","","","","",""
"","","","","","image-keyboard-response","92","193098","0.0-67.0","632f09dfbcfe2edefdae1447","665500ab8938657b03fbdba8","6657962aaefcd1f383a6a4f4","5228","stimuli/0001101.jpg","0","","prediction_trial","0","","true","","0","false","false","true","true","false","false","[0]","001","101","1","","","","","","",""
"","","","","","image-keyboard-response","93","193477","0.0-68.0","632f09dfbcfe2edefdae1447","665500ab8938657b03fbdba8","6657962aaefcd1f383a6a4f4","377","stimuli/00011010.jpg"," ","","feedback_trial","0","","","","","","","","","","","","","","","","","","","","",""
"","","","","","image-keyboard-response","94","195666","0.0-69.0","632f09dfbcfe2edefdae1447","665500ab8938657b03fbdba8","6657962aaefcd1f383a6a4f4","2188","stimuli/2110011.jpg","1","","prediction_trial","2","","false","","2","false","false","true","true","false","false","[2]","110","011","0","","","","","","",""
"","","","","","image-keyboard-response","95","196083","0.0-70.0","632f09dfbcfe2edefdae1447","665500ab8938657b03fbdba8","6657962aaefcd1f383a6a4f4","413","stimuli/21100112.jpg"," ","","feedback_trial","2","","","","","","","","","","","","","","","","","","","","",""
"","","","","","image-keyboard-response","96","196872","0.0-71.0","632f09dfbcfe2edefdae1447","665500ab8938657b03fbdba8","6657962aaefcd1f383a6a4f4","787","stimuli/2111100.jpg","2","","prediction_trial","2","","true","","2","true","true","false","false","false","false","[1,0,2]","111","100","1","","","","","","",""
"","","","","","image-keyboard-response","97","197175","0.0-72.0","632f09dfbcfe2edefdae1447","665500ab8938657b03fbdba8","6657962aaefcd1f383a6a4f4","302","stimuli/21111002.jpg"," ","","feedback_trial","1","","","","","","","","","","","","","","","","","","","","",""
"","","","","","image-keyboard-response","98","197782","0.0-73.0","632f09dfbcfe2edefdae1447","665500ab8938657b03fbdba8","6657962aaefcd1f383a6a4f4","606","stimuli/2001010.jpg","2","","prediction_trial","2","","true","","2","true","true","false","true","false","true","[2]","001","010","1","","","","","","",""
"","","","","","image-keyboard-response","99","198013","0.0-74.0","632f09dfbcfe2edefdae1447","665500ab8938657b03fbdba8","6657962aaefcd1f383a6a4f4","230","stimuli/20010102.jpg"," ","","feedback_trial","2","","","","","","","","","","","","","","","","","","","","",""
"","","","","","image-keyboard-response","100","198532","0.0-75.0","632f09dfbcfe2edefdae1447","665500ab8938657b03fbdba8","6657962aaefcd1f383a6a4f4","517","stimuli/2000110.jpg","2","","prediction_trial","2","","true","","2","true","true","true","true","true","true","[2]","000","110","1","","","","","","",""
"","","","","","image-keyboard-response","101","198730","0.0-76.0","632f09dfbcfe2edefdae1447","665500ab8938657b03fbdba8","6657962aaefcd1f383a6a4f4","196","stimuli/20001102.jpg"," ","","feedback_trial","2","","","","","","","","","","","","","","","","","","","","",""
"","","","","","image-keyboard-response","102","199257","0.0-77.0","632f09dfbcfe2edefdae1447","665500ab8938657b03fbdba8","6657962aaefcd1f383a6a4f4","525","stimuli/0111011.jpg","0","","prediction_trial","0","","true","","0","true","true","false","false","false","false","[0,1,2]","111","011","1","","","","","","",""
"","","","","","image-keyboard-response","103","199511","0.0-78.0","632f09dfbcfe2edefdae1447","665500ab8938657b03fbdba8","6657962aaefcd1f383a6a4f4","253","stimuli/01110110.jpg"," ","","feedback_trial","0","","","","","","","","","","","","","","","","","","","","",""
"","","","","","image-keyboard-response","104","201063","0.0-79.0","632f09dfbcfe2edefdae1447","665500ab8938657b03fbdba8","6657962aaefcd1f383a6a4f4","1545","stimuli/0011100.jpg","0","","prediction_trial","0","","true","","0","false","true","true","true","false","true","[0]","011","100","1","","","","","","",""
"","","","","","image-keyboard-response","105","201336","0.0-80.0","632f09dfbcfe2edefdae1447","665500ab8938657b03fbdba8","6657962aaefcd1f383a6a4f4","272","stimuli/00111000.jpg"," ","","feedback_trial","0","","","","","","","","","","","","","","","","","","","","",""
"","","","","","image-keyboard-response","106","202647","0.0-81.0","632f09dfbcfe2edefdae1447","665500ab8938657b03fbdba8","6657962aaefcd1f383a6a4f4","1309","stimuli/0111110.jpg","1","","prediction_trial","0","","false","","0","false","false","false","false","false","false","[0,1,2]","111","110","0","","","","","","",""
"","","","","","image-keyboard-response","107","202889","0.0-82.0","632f09dfbcfe2edefdae1447","665500ab8938657b03fbdba8","6657962aaefcd1f383a6a4f4","241","stimuli/01111100.jpg"," ","","feedback_trial","0","","","","","","","","","","","","","","","","","","","","",""
"","","","","","image-keyboard-response","108","205454","0.0-83.0","632f09dfbcfe2edefdae1447","665500ab8938657b03fbdba8","6657962aaefcd1f383a6a4f4","2563","stimuli/2101110.jpg","2","","prediction_trial","2","","true","","2","true","true","false","false","false","false","[0,2]","101","110","1","","","","","","",""
"","","","","","image-keyboard-response","109","205696","0.0-84.0","632f09dfbcfe2edefdae1447","665500ab8938657b03fbdba8","6657962aaefcd1f383a6a4f4","241","stimuli/21011102.jpg"," ","","feedback_trial","0","","","","","","","","","","","","","","","","","","","","",""
"","","","","","image-keyboard-response","110","206458","0.0-85.0","632f09dfbcfe2edefdae1447","665500ab8938657b03fbdba8","6657962aaefcd1f383a6a4f4","760","stimuli/1010001.jpg","1","","prediction_trial","1","","true","","1","true","true","false","true","false","true","[1]","010","001","1","","","","","","",""
"","","","","","image-keyboard-response","111","209718","0.0-86.0","632f09dfbcfe2edefdae1447","665500ab8938657b03fbdba8","6657962aaefcd1f383a6a4f4","3259","stimuli/10100011.jpg"," ","","feedback_trial","1","","","","","","","","","","","","","","","","","","","","",""
"","","","","","image-keyboard-response","112","210511","0.0-87.0","632f09dfbcfe2edefdae1447","665500ab8938657b03fbdba8","6657962aaefcd1f383a6a4f4","791","stimuli/1010101.jpg","1","","prediction_trial","1","","true","","1","true","true","false","true","false","true","[1]","010","101","1","","","","","","",""
"","","","","","image-keyboard-response","113","210848","0.0-88.0","632f09dfbcfe2edefdae1447","665500ab8938657b03fbdba8","6657962aaefcd1f383a6a4f4","330","stimuli/10101011.jpg"," ","","feedback_trial","1","","","","","","","","","","","","","","","","","","","","",""
"","","","","","image-keyboard-response","114","211448","0.0-89.0","632f09dfbcfe2edefdae1447","665500ab8938657b03fbdba8","6657962aaefcd1f383a6a4f4","600","stimuli/2000000.jpg","2","","prediction_trial","2","","true","","2","true","true","true","true","true","true","[2]","000","000","1","","","","","","",""
"","","","","","image-keyboard-response","115","211743","0.0-90.0","632f09dfbcfe2edefdae1447","665500ab8938657b03fbdba8","6657962aaefcd1f383a6a4f4","293","stimuli/20000002.jpg"," ","","feedback_trial","2","","","","","","","","","","","","","","","","","","","","",""
"","","","","","image-keyboard-response","116","212471","0.0-91.0","632f09dfbcfe2edefdae1447","665500ab8938657b03fbdba8","6657962aaefcd1f383a6a4f4","727","stimuli/0101100.jpg","0","","prediction_trial","0","","true","","0","false","true","false","false","false","false","[0,2]","101","100","1","","","","","","",""
"","","","","","image-keyboard-response","117","212732","0.0-92.0","632f09dfbcfe2edefdae1447","665500ab8938657b03fbdba8","6657962aaefcd1f383a6a4f4","260","stimuli/01011000.jpg"," ","","feedback_trial","0","","","","","","","","","","","","","","","","","","","","",""
"","","","","","image-keyboard-response","118","213467","0.0-93.0","632f09dfbcfe2edefdae1447","665500ab8938657b03fbdba8","6657962aaefcd1f383a6a4f4","734","stimuli/1010000.jpg","1","","prediction_trial","1","","true","","1","true","true","false","true","false","true","[1]","010","000","1","","","","","","",""
"","","","","","image-keyboard-response","119","213716","0.0-94.0","632f09dfbcfe2edefdae1447","665500ab8938657b03fbdba8","6657962aaefcd1f383a6a4f4","249","stimuli/10100001.jpg"," ","","feedback_trial","1","","","","","","","","","","","","","","","","","","","","",""
"","","","","","image-keyboard-response","120","214381","0.0-95.0","632f09dfbcfe2edefdae1447","665500ab8938657b03fbdba8","6657962aaefcd1f383a6a4f4","663","stimuli/0000100.jpg","0","","prediction_trial","0","","true","","0","false","true","true","true","false","true","[0]","000","100","1","","","","","","",""
"","","","","","image-keyboard-response","121","214609","0.0-96.0","632f09dfbcfe2edefdae1447","665500ab8938657b03fbdba8","6657962aaefcd1f383a6a4f4","226","stimuli/00001000.jpg"," ","","feedback_trial","0","","","","","","","","","","","","","","","","","","","","",""
"","","","","","image-keyboard-response","122","217038","0.0-97.0","632f09dfbcfe2edefdae1447","665500ab8938657b03fbdba8","6657962aaefcd1f383a6a4f4","2420","stimuli/1100010.jpg","1","","prediction_trial","1","","true","","1","false","true","true","true","false","true","[1]","100","010","1","","","","","","",""
"","","","","","image-keyboard-response","123","217226","0.0-98.0","632f09dfbcfe2edefdae1447","665500ab8938657b03fbdba8","6657962aaefcd1f383a6a4f4","187","stimuli/11000101.jpg"," ","","feedback_trial","1","","","","","","","","","","","","","","","","","","","","",""
"","","","","","image-keyboard-response","124","218014","0.0-99.0","632f09dfbcfe2edefdae1447","665500ab8938657b03fbdba8","6657962aaefcd1f383a6a4f4","786","stimuli/2001001.jpg","2","","prediction_trial","2","","true","","2","false","true","false","true","false","true","[2]","001","001","1","","","","","","",""
"","","","","","image-keyboard-response","125","218183","0.0-100.0","632f09dfbcfe2edefdae1447","665500ab8938657b03fbdba8","6657962aaefcd1f383a6a4f4","168","stimuli/20010012.jpg"," ","","feedback_trial","2","","","","","","","","","","","","","","","","","","","","",""
"","","","","","image-keyboard-response","126","218918","0.0-101.0","632f09dfbcfe2edefdae1447","665500ab8938657b03fbdba8","6657962aaefcd1f383a6a4f4","734","stimuli/2101001.jpg","2","","prediction_trial","2","","true","","2","false","true","false","false","false","false","[2,0]","101","001","1","","","","","","",""
"","","","","","image-keyboard-response","127","219127","0.0-102.0","632f09dfbcfe2edefdae1447","665500ab8938657b03fbdba8","6657962aaefcd1f383a6a4f4","207","stimuli/21010012.jpg"," ","","feedback_trial","2","","","","","","","","","","","","","","","","","","","","",""
"","","","","","image-keyboard-response","128","221524","0.0-103.0","632f09dfbcfe2edefdae1447","665500ab8938657b03fbdba8","6657962aaefcd1f383a6a4f4","2396","stimuli/1100110.jpg","1","","prediction_trial","1","","true","","1","false","false","true","true","false","false","[1]","100","110","1","","","","","","",""
"","","","","","image-keyboard-response","129","221758","0.0-104.0","632f09dfbcfe2edefdae1447","665500ab8938657b03fbdba8","6657962aaefcd1f383a6a4f4","232","stimuli/11001101.jpg"," ","","feedback_trial","1","","","","","","","","","","","","","","","","","","","","",""
"","","","","","image-keyboard-response","130","223928","0.0-105.0","632f09dfbcfe2edefdae1447","665500ab8938657b03fbdba8","6657962aaefcd1f383a6a4f4","2169","stimuli/0101111.jpg","1","","prediction_trial","2","","false","","0","false","false","false","false","false","false","[0,2]","101","111","0","","","","","","",""
"","","","","","image-keyboard-response","131","224197","0.0-106.0","632f09dfbcfe2edefdae1447","665500ab8938657b03fbdba8","6657962aaefcd1f383a6a4f4","265","stimuli/01011112.jpg"," ","","feedback_trial","0","","","","","","","","","","","","","","","","","","","","",""
"","","","","","image-keyboard-response","132","224857","0.0-107.0","632f09dfbcfe2edefdae1447","665500ab8938657b03fbdba8","6657962aaefcd1f383a6a4f4","660","stimuli/1111001.jpg","1","","prediction_trial","1","","true","","1","true","true","false","false","false","false","[2,0,1]","111","001","1","","","","","","",""
"","","","","","image-keyboard-response","133","225079","0.0-108.0","632f09dfbcfe2edefdae1447","665500ab8938657b03fbdba8","6657962aaefcd1f383a6a4f4","220","stimuli/11110011.jpg"," ","","feedback_trial","2","","","","","","","","","","","","","","","","","","","","",""
"","","","","","image-keyboard-response","134","226095","0.0-109.0","632f09dfbcfe2edefdae1447","665500ab8938657b03fbdba8","6657962aaefcd1f383a6a4f4","1015","stimuli/1011010.jpg","1","","prediction_trial","1","","true","","1","false","true","false","false","false","false","[1,2]","011","010","1","","","","","","",""
"","","","","","image-keyboard-response","135","226293","0.0-110.0","632f09dfbcfe2edefdae1447","665500ab8938657b03fbdba8","6657962aaefcd1f383a6a4f4","197","stimuli/10110101.jpg"," ","","feedback_trial","1","","","","","","","","","","","","","","","","","","","","",""
"","","","","","image-keyboard-response","136","227045","0.0-111.0","632f09dfbcfe2edefdae1447","665500ab8938657b03fbdba8","6657962aaefcd1f383a6a4f4","750","stimuli/0101101.jpg","0","","prediction_trial","0","","true","","0","false","false","false","false","false","false","[0,2]","101","101","1","","","","","","",""
"","","","","","image-keyboard-response","137","227286","0.0-112.0","632f09dfbcfe2edefdae1447","665500ab8938657b03fbdba8","6657962aaefcd1f383a6a4f4","241","stimuli/01011010.jpg"," ","","feedback_trial","0","","","","","","","","","","","","","","","","","","","","",""
"","","","","","image-keyboard-response","138","227984","0.0-113.0","632f09dfbcfe2edefdae1447","665500ab8938657b03fbdba8","6657962aaefcd1f383a6a4f4","697","stimuli/1101101.jpg","1","","prediction_trial","1","","true","","1","true","true","true","true","true","true","[1]","101","101","1","","","","","","",""
"","","","","","image-keyboard-response","139","228224","0.0-114.0","632f09dfbcfe2edefdae1447","665500ab8938657b03fbdba8","6657962aaefcd1f383a6a4f4","238","stimuli/11011011.jpg"," ","","feedback_trial","1","","","","","","","","","","","","","","","","","","","","",""
"","","","","","image-keyboard-response","140","228769","0.0-115.0","632f09dfbcfe2edefdae1447","665500ab8938657b03fbdba8","6657962aaefcd1f383a6a4f4","538","stimuli/2111000.jpg","2","","prediction_trial","0","","false","","2","true","true","false","false","false","false","[1,2,0]","111","000","0","","","","","","",""
"","","","","","image-keyboard-response","141","229016","0.0-116.0","632f09dfbcfe2edefdae1447","665500ab8938657b03fbdba8","6657962aaefcd1f383a6a4f4","246","stimuli/21110000.jpg"," ","","feedback_trial","1","","","","","","","","","","","","","","","","","","","","",""
"","","","","","image-keyboard-response","142","230116","0.0-117.0","632f09dfbcfe2edefdae1447","665500ab8938657b03fbdba8","6657962aaefcd1f383a6a4f4","1099","stimuli/2011100.jpg","2","","prediction_trial","1","","false","","2","true","true","false","false","false","false","[1,2]","011","100","0","","","","","","",""
"","","","","","image-keyboard-response","143","230399","0.0-118.0","632f09dfbcfe2edefdae1447","665500ab8938657b03fbdba8","6657962aaefcd1f383a6a4f4","281","stimuli/20111001.jpg"," ","","feedback_trial","1","","","","","","","","","","","","","","","","","","","","",""
"","","","","","image-keyboard-response","144","231063","0.0-119.0","632f09dfbcfe2edefdae1447","665500ab8938657b03fbdba8","6657962aaefcd1f383a6a4f4","662","stimuli/0000010.jpg","0","","prediction_trial","0","","true","","0","true","true","true","true","true","true","[0]","000","010","1","","","","","","",""
"","","","","","image-keyboard-response","145","231482","0.0-120.0","632f09dfbcfe2edefdae1447","665500ab8938657b03fbdba8","6657962aaefcd1f383a6a4f4","418","stimuli/00000100.jpg"," ","","feedback_trial","0","","","","","","","","","","","","","","","","","","","","",""
"","","","","","image-keyboard-response","146","232436","0.0-121.0","632f09dfbcfe2edefdae1447","665500ab8938657b03fbdba8","6657962aaefcd1f383a6a4f4","952","stimuli/1001010.jpg","1","","prediction_trial","1","","true","","1","false","true","true","true","false","true","[1]","001","010","1","","","","","","",""
"","","","","","image-keyboard-response","147","232715","0.0-122.0","632f09dfbcfe2edefdae1447","665500ab8938657b03fbdba8","6657962aaefcd1f383a6a4f4","277","stimuli/10010101.jpg"," ","","feedback_trial","1","","","","","","","","","","","","","","","","","","","","",""
"","","","","","image-keyboard-response","148","233382","0.0-123.0","632f09dfbcfe2edefdae1447","665500ab8938657b03fbdba8","6657962aaefcd1f383a6a4f4","666","stimuli/2011010.jpg","2","","prediction_trial","2","","true","","2","true","true","false","false","false","false","[2,1]","011","010","1","","","","","","",""
"","","","","","image-keyboard-response","149","233591","0.0-124.0","632f09dfbcfe2edefdae1447","665500ab8938657b03fbdba8","6657962aaefcd1f383a6a4f4","199","stimuli/20110102.jpg"," ","","feedback_trial","2","","","","","","","","","","","","","","","","","","","","",""
"","","","","","image-keyboard-response","150","235504","0.0-125.0","632f09dfbcfe2edefdae1447","665500ab8938657b03fbdba8","6657962aaefcd1f383a6a4f4","1911","stimuli/2111011.jpg","1","","prediction_trial","1","","true","","2","false","false","false","false","false","false","[2,0,1]","111","011","1","","","","","","",""
"","","","","","image-keyboard-response","151","235907","0.0-126.0","632f09dfbcfe2edefdae1447","665500ab8938657b03fbdba8","6657962aaefcd1f383a6a4f4","401","stimuli/21110111.jpg"," ","","feedback_trial","2","","","","","","","","","","","","","","","","","","","","",""
"","","","","","image-keyboard-response","152","236831","0.0-127.0","632f09dfbcfe2edefdae1447","665500ab8938657b03fbdba8","6657962aaefcd1f383a6a4f4","923","stimuli/0110011.jpg","0","","prediction_trial","0","","true","","0","true","true","false","false","false","false","[1,0]","110","011","1","","","","","","",""
"","","","","","image-keyboard-response","153","237049","0.0-128.0","632f09dfbcfe2edefdae1447","665500ab8938657b03fbdba8","6657962aaefcd1f383a6a4f4","217","stimuli/01100110.jpg"," ","","feedback_trial","1","","","","","","","","","","","","","","","","","","","","",""
"","","","","","image-keyboard-response","154","237561","0.0-129.0","632f09dfbcfe2edefdae1447","665500ab8938657b03fbdba8","6657962aaefcd1f383a6a4f4","510","stimuli/2010110.jpg","2","","prediction_trial","2","","true","","2","true","true","true","true","true","true","[2]","010","110","1","","","","","","",""
"","","","","","image-keyboard-response","155","237803","0.0-130.0","632f09dfbcfe2edefdae1447","665500ab8938657b03fbdba8","6657962aaefcd1f383a6a4f4","242","stimuli/20101102.jpg"," ","","feedback_trial","2","","","","","","","","","","","","","","","","","","","","",""
"","","","","","image-keyboard-response","156","240992","0.0-131.0","632f09dfbcfe2edefdae1447","665500ab8938657b03fbdba8","6657962aaefcd1f383a6a4f4","3179","stimuli/0010110.jpg","0","","prediction_trial","0","","true","","0","false","false","true","true","false","false","[0]","010","110","1","","","","","","",""
"","","","","","image-keyboard-response","157","241204","0.0-132.0","632f09dfbcfe2edefdae1447","665500ab8938657b03fbdba8","6657962aaefcd1f383a6a4f4","211","stimuli/00101100.jpg"," ","","feedback_trial","0","","","","","","","","","","","","","","","","","","","","",""
"","","","","","image-keyboard-response","158","242422","0.0-133.0","632f09dfbcfe2edefdae1447","665500ab8938657b03fbdba8","6657962aaefcd1f383a6a4f4","1209","stimuli/2101101.jpg","0","","prediction_trial","2","","false","","2","false","false","false","false","false","false","[2,0]","101","101","0","","","","","","",""
"","","","","","image-keyboard-response","159","242736","0.0-134.0","632f09dfbcfe2edefdae1447","665500ab8938657b03fbdba8","6657962aaefcd1f383a6a4f4","314","stimuli/21011012.jpg"," ","","feedback_trial","2","","","","","","","","","","","","","","","","","","","","",""
"","","","","","image-keyboard-response","160","244255","0.0-135.0","632f09dfbcfe2edefdae1447","665500ab8938657b03fbdba8","6657962aaefcd1f383a6a4f4","1517","stimuli/1011101.jpg","1","","prediction_trial","2","","false","","1","true","true","false","false","false","false","[2,1]","011","101","0","","","","","","",""
"","","","","","image-keyboard-response","161","244877","0.0-136.0","632f09dfbcfe2edefdae1447","665500ab8938657b03fbdba8","6657962aaefcd1f383a6a4f4","621","stimuli/10111012.jpg"," ","","feedback_trial","2","","","","","","","","","","","","","","","","","","","","",""
"","","","","","image-keyboard-response","162","248079","0.0-137.0","632f09dfbcfe2edefdae1447","665500ab8938657b03fbdba8","6657962aaefcd1f383a6a4f4","3201","stimuli/0111101.jpg","0","","prediction_trial","0","","true","","0","false","false","false","false","false","false","[2,0,1]","111","101","1","","","","","","",""
"","","","","","image-keyboard-response","163","248339","0.0-138.0","632f09dfbcfe2edefdae1447","665500ab8938657b03fbdba8","6657962aaefcd1f383a6a4f4","259","stimuli/01111010.jpg"," ","","feedback_trial","2","","","","","","","","","","","","","","","","","","","","",""
"","","","","","image-keyboard-response","164","249287","0.0-139.0","632f09dfbcfe2edefdae1447","665500ab8938657b03fbdba8","6657962aaefcd1f383a6a4f4","947","stimuli/0000111.jpg","1","","prediction_trial","0","","false","","0","false","false","true","true","false","false","[0]","000","111","0","","","","","","",""
"","","","","","image-keyboard-response","165","249465","0.0-140.0","632f09dfbcfe2edefdae1447","665500ab8938657b03fbdba8","6657962aaefcd1f383a6a4f4","177","stimuli/00001110.jpg"," ","","feedback_trial","0","","","","","","","","","","","","","","","","","","","","",""
"","","","","","image-keyboard-response","166","251336","0.0-141.0","632f09dfbcfe2edefdae1447","665500ab8938657b03fbdba8","6657962aaefcd1f383a6a4f4","1869","stimuli/1110001.jpg","1","","prediction_trial","1","","true","","1","true","true","false","false","false","false","[0,1]","110","001","1","","","","","","",""
"","","","","","image-keyboard-response","167","251534","0.0-142.0","632f09dfbcfe2edefdae1447","665500ab8938657b03fbdba8","6657962aaefcd1f383a6a4f4","190","stimuli/11100011.jpg"," ","","feedback_trial","0","","","","","","","","","","","","","","","","","","","","",""
"","","","","","image-keyboard-response","168","253622","0.0-143.0","632f09dfbcfe2edefdae1447","665500ab8938657b03fbdba8","6657962aaefcd1f383a6a4f4","2086","stimuli/0010101.jpg","0","","prediction_trial","0","","true","","0","false","false","true","true","false","false","[0]","010","101","1","","","","","","",""
"","","","","","image-keyboard-response","169","253858","0.0-144.0","632f09dfbcfe2edefdae1447","665500ab8938657b03fbdba8","6657962aaefcd1f383a6a4f4","235","stimuli/00101010.jpg"," ","","feedback_trial","0","","","","","","","","","","","","","","","","","","","","",""
"","","","","","image-keyboard-response","170","254773","0.0-145.0","632f09dfbcfe2edefdae1447","665500ab8938657b03fbdba8","6657962aaefcd1f383a6a4f4","915","stimuli/1001000.jpg","1","","prediction_trial","1","","true","","1","true","true","true","true","true","true","[1]","001","000","1","","","","","","",""
"","","","","","image-keyboard-response","171","254941","0.0-146.0","632f09dfbcfe2edefdae1447","665500ab8938657b03fbdba8","6657962aaefcd1f383a6a4f4","167","stimuli/10010001.jpg"," ","","feedback_trial","1","","","","","","","","","","","","","","","","","","","","",""
"","","","","","image-keyboard-response","172","256119","0.0-147.0","632f09dfbcfe2edefdae1447","665500ab8938657b03fbdba8","6657962aaefcd1f383a6a4f4","1177","stimuli/2010101.jpg","0","","prediction_trial","2","","false","","2","false","false","true","true","false","false","[2]","010","101","0","","","","","","",""
"","","","","","image-keyboard-response","173","256290","0.0-148.0","632f09dfbcfe2edefdae1447","665500ab8938657b03fbdba8","6657962aaefcd1f383a6a4f4","170","stimuli/20101012.jpg"," ","","feedback_trial","2","","","","","","","","","","","","","","","","","","","","",""
"","","","","","image-keyboard-response","174","257199","0.0-149.0","632f09dfbcfe2edefdae1447","665500ab8938657b03fbdba8","6657962aaefcd1f383a6a4f4","908","stimuli/0101011.jpg","0","","prediction_trial","0","","true","","0","true","true","false","false","false","false","[2,0]","101","011","1","","","","","","",""
"","","","","","image-keyboard-response","175","257339","0.0-150.0","632f09dfbcfe2edefdae1447","665500ab8938657b03fbdba8","6657962aaefcd1f383a6a4f4","139","stimuli/01010110.jpg"," ","","feedback_trial","2","","","","","","","","","","","","","","","","","","","","",""
"","","","","","image-keyboard-response","176","257926","0.0-151.0","632f09dfbcfe2edefdae1447","665500ab8938657b03fbdba8","6657962aaefcd1f383a6a4f4","578","stimuli/1001100.jpg","1","","prediction_trial","1","","true","","1","true","true","true","true","true","true","[1]","001","100","1","","","","","","",""
"","","","","","image-keyboard-response","177","258093","0.0-152.0","632f09dfbcfe2edefdae1447","665500ab8938657b03fbdba8","6657962aaefcd1f383a6a4f4","165","stimuli/10011001.jpg"," ","","feedback_trial","1","","","","","","","","","","","","","","","","","","","","",""
"","","","","","image-keyboard-response","178","258582","0.0-153.0","632f09dfbcfe2edefdae1447","665500ab8938657b03fbdba8","6657962aaefcd1f383a6a4f4","489","stimuli/0100001.jpg","0","","prediction_trial","0","","true","","0","true","true","false","true","false","true","[0]","100","001","1","","","","","","",""
"","","","","","image-keyboard-response","179","258728","0.0-154.0","632f09dfbcfe2edefdae1447","665500ab8938657b03fbdba8","6657962aaefcd1f383a6a4f4","145","stimuli/01000010.jpg"," ","","feedback_trial","0","","","","","","","","","","","","","","","","","","","","",""
"","","","","","image-keyboard-response","180","259660","0.0-155.0","632f09dfbcfe2edefdae1447","665500ab8938657b03fbdba8","6657962aaefcd1f383a6a4f4","931","stimuli/2000111.jpg","1","","prediction_trial","2","","false","","2","false","false","true","true","false","false","[2]","000","111","0","","","","","","",""
"","","","","","image-keyboard-response","181","259801","0.0-156.0","632f09dfbcfe2edefdae1447","665500ab8938657b03fbdba8","6657962aaefcd1f383a6a4f4","140","stimuli/20001112.jpg"," ","","feedback_trial","2","","","","","","","","","","","","","","","","","","","","",""
"","","","","","image-keyboard-response","182","261571","0.0-157.0","632f09dfbcfe2edefdae1447","665500ab8938657b03fbdba8","6657962aaefcd1f383a6a4f4","1769","stimuli/0001110.jpg","1","","prediction_trial","0","","false","","0","false","false","true","true","false","false","[0]","001","110","0","","","","","","",""
"","","","","","image-keyboard-response","183","261735","0.0-158.0","632f09dfbcfe2edefdae1447","665500ab8938657b03fbdba8","6657962aaefcd1f383a6a4f4","162","stimuli/00011100.jpg"," ","","feedback_trial","0","","","","","","","","","","","","","","","","","","","","",""
"","","","","","image-keyboard-response","184","262406","0.0-159.0","632f09dfbcfe2edefdae1447","665500ab8938657b03fbdba8","6657962aaefcd1f383a6a4f4","669","stimuli/1010100.jpg","1","","prediction_trial","1","","true","","1","true","true","false","true","false","true","[1]","010","100","1","","","","","","",""
"","","","","","image-keyboard-response","185","262582","0.0-160.0","632f09dfbcfe2edefdae1447","665500ab8938657b03fbdba8","6657962aaefcd1f383a6a4f4","167","stimuli/10101001.jpg"," ","","feedback_trial","1","","","","","","","","","","","","","","","","","","","","",""
"","","","","","image-keyboard-response","186","263263","0.0-161.0","632f09dfbcfe2edefdae1447","665500ab8938657b03fbdba8","6657962aaefcd1f383a6a4f4","679","stimuli/1100000.jpg","1","","prediction_trial","1","","true","","1","true","true","true","true","true","true","[1]","100","000","1","","","","","","",""
"","","","","","image-keyboard-response","187","263425","0.0-162.0","632f09dfbcfe2edefdae1447","665500ab8938657b03fbdba8","6657962aaefcd1f383a6a4f4","161","stimuli/11000001.jpg"," ","","feedback_trial","1","","","","","","","","","","","","","","","","","","","","",""
"","","","","","image-keyboard-response","188","264058","0.0-163.0","632f09dfbcfe2edefdae1447","665500ab8938657b03fbdba8","6657962aaefcd1f383a6a4f4","632","stimuli/2100110.jpg","2","","prediction_trial","2","","true","","2","true","true","true","true","true","true","[2]","100","110","1","","","","","","",""
"","","","","","image-keyboard-response","189","264207","0.0-164.0","632f09dfbcfe2edefdae1447","665500ab8938657b03fbdba8","6657962aaefcd1f383a6a4f4","147","stimuli/21001102.jpg"," ","","feedback_trial","2","","","","","","","","","","","","","","","","","","","","",""
"","","","","","image-keyboard-response","190","264884","0.0-165.0","632f09dfbcfe2edefdae1447","665500ab8938657b03fbdba8","6657962aaefcd1f383a6a4f4","676","stimuli/2010100.jpg","2","","prediction_trial","2","","true","","2","true","true","true","true","true","true","[2]","010","100","1","","","","","","",""
"","","","","","image-keyboard-response","191","265028","0.0-166.0","632f09dfbcfe2edefdae1447","665500ab8938657b03fbdba8","6657962aaefcd1f383a6a4f4","142","stimuli/20101002.jpg"," ","","feedback_trial","2","","","","","","","","","","","","","","","","","","","","",""
"","","","","","image-keyboard-response","192","268473","0.0-167.0","632f09dfbcfe2edefdae1447","665500ab8938657b03fbdba8","6657962aaefcd1f383a6a4f4","3444","stimuli/1011100.jpg","1","","prediction_trial","2","","false","","1","true","true","false","false","false","false","[2,1]","011","100","0","","","","","","",""
"","","","","","image-keyboard-response","193","268678","0.0-168.0","632f09dfbcfe2edefdae1447","665500ab8938657b03fbdba8","6657962aaefcd1f383a6a4f4","203","stimuli/10111002.jpg"," ","","feedback_trial","2","","","","","","","","","","","","","","","","","","","","",""
"","","","","","image-keyboard-response","194","271696","0.0-169.0","632f09dfbcfe2edefdae1447","665500ab8938657b03fbdba8","6657962aaefcd1f383a6a4f4","3011","stimuli/1110000.jpg","1","","prediction_trial","1","","true","","1","true","true","false","false","false","false","[1,0]","110","000","1","","","","","","",""
"","","","","","image-keyboard-response","195","271863","0.0-170.0","632f09dfbcfe2edefdae1447","665500ab8938657b03fbdba8","6657962aaefcd1f383a6a4f4","165","stimuli/11100001.jpg"," ","","feedback_trial","1","","","","","","","","","","","","","","","","","","","","",""
"","","","","","image-keyboard-response","196","273691","0.0-171.0","632f09dfbcfe2edefdae1447","665500ab8938657b03fbdba8","6657962aaefcd1f383a6a4f4","1828","stimuli/1010011.jpg","1","","prediction_trial","1","","true","","1","false","false","false","true","false","false","[1]","010","011","1","","","","","","",""
"","","","","","image-keyboard-response","197","273845","0.0-172.0","632f09dfbcfe2edefdae1447","665500ab8938657b03fbdba8","6657962aaefcd1f383a6a4f4","152","stimuli/10100111.jpg"," ","","feedback_trial","1","","","","","","","","","","","","","","","","","","","","",""
"","","","","","image-keyboard-response","198","275265","0.0-173.0","632f09dfbcfe2edefdae1447","665500ab8938657b03fbdba8","6657962aaefcd1f383a6a4f4","1419","stimuli/0010100.jpg","0","","prediction_trial","0","","true","","0","false","true","true","true","false","true","[0]","010","100","1","","","","","","",""
"","","","","","image-keyboard-response","199","275424","0.0-174.0","632f09dfbcfe2edefdae1447","665500ab8938657b03fbdba8","6657962aaefcd1f383a6a4f4","157","stimuli/00101000.jpg"," ","","feedback_trial","0","","","","","","","","","","","","","","","","","","","","",""
"","","","","","image-keyboard-response","200","275977","0.0-175.0","632f09dfbcfe2edefdae1447","665500ab8938657b03fbdba8","6657962aaefcd1f383a6a4f4","551","stimuli/2100000.jpg","2","","prediction_trial","2","","true","","2","true","true","true","true","true","true","[2]","100","000","1","","","","","","",""
"","","","","","image-keyboard-response","201","276169","0.0-176.0","632f09dfbcfe2edefdae1447","665500ab8938657b03fbdba8","6657962aaefcd1f383a6a4f4","191","stimuli/21000002.jpg"," ","","feedback_trial","2","","","","","","","","","","","","","","","","","","","","",""
"","","","","","image-keyboard-response","202","277063","0.0-177.0","632f09dfbcfe2edefdae1447","665500ab8938657b03fbdba8","6657962aaefcd1f383a6a4f4","892","stimuli/1111111.jpg","1","","prediction_trial","2","","false","","1","false","false","false","false","false","false","[1,0,2]","111","111","0","","","","","","",""
"","","","","","image-keyboard-response","203","277207","0.0-178.0","632f09dfbcfe2edefdae1447","665500ab8938657b03fbdba8","6657962aaefcd1f383a6a4f4","136","stimuli/11111112.jpg"," ","","feedback_trial","1","","","","","","","","","","","","","","","","","","","","",""
"","","","","","image-keyboard-response","204","277694","0.0-179.0","632f09dfbcfe2edefdae1447","665500ab8938657b03fbdba8","6657962aaefcd1f383a6a4f4","485","stimuli/1110100.jpg","1","","prediction_trial","1","","true","","1","true","true","false","false","false","false","[1,0]","110","100","1","","","","","","",""
"","","","","","image-keyboard-response","205","277840","0.0-180.0","632f09dfbcfe2edefdae1447","665500ab8938657b03fbdba8","6657962aaefcd1f383a6a4f4","145","stimuli/11101001.jpg"," ","","feedback_trial","1","","","","","","","","","","","","","","","","","","","","",""
"","","","","","image-keyboard-response","206","279658","0.0-181.0","632f09dfbcfe2edefdae1447","665500ab8938657b03fbdba8","6657962aaefcd1f383a6a4f4","1816","stimuli/1001011.jpg","1","","prediction_trial","1","","true","","1","false","false","true","true","false","false","[1]","001","011","1","","","","","","",""
"","","","","","image-keyboard-response","207","279839","0.0-182.0","632f09dfbcfe2edefdae1447","665500ab8938657b03fbdba8","6657962aaefcd1f383a6a4f4","181","stimuli/10010111.jpg"," ","","feedback_trial","1","","","","","","","","","","","","","","","","","","","","",""
"","","","","","image-keyboard-response","208","280357","0.0-183.0","632f09dfbcfe2edefdae1447","665500ab8938657b03fbdba8","6657962aaefcd1f383a6a4f4","517","stimuli/1000001.jpg","1","","prediction_trial","1","","true","","1","true","true","true","true","true","true","[1]","000","001","1","","","","","","",""
"","","","","","image-keyboard-response","209","280520","0.0-184.0","632f09dfbcfe2edefdae1447","665500ab8938657b03fbdba8","6657962aaefcd1f383a6a4f4","161","stimuli/10000011.jpg"," ","","feedback_trial","1","","","","","","","","","","","","","","","","","","","","",""
"","","","","","image-keyboard-response","210","280974","0.0-185.0","632f09dfbcfe2edefdae1447","665500ab8938657b03fbdba8","6657962aaefcd1f383a6a4f4","453","stimuli/0101001.jpg","0","","prediction_trial","2","","false","","0","true","true","false","false","false","false","[0,2]","101","001","0","","","","","","",""
"","","","","","image-keyboard-response","211","281109","0.0-186.0","632f09dfbcfe2edefdae1447","665500ab8938657b03fbdba8","6657962aaefcd1f383a6a4f4","134","stimuli/01010012.jpg"," ","","feedback_trial","0","","","","","","","","","","","","","","","","","","","","",""
"","","","","","image-keyboard-response","212","282471","0.0-187.0","632f09dfbcfe2edefdae1447","665500ab8938657b03fbdba8","6657962aaefcd1f383a6a4f4","1356","stimuli/1111110.jpg","1","","prediction_trial","2","","false","","1","false","false","false","false","false","false","[2,0,1]","111","110","0","","","","","","",""
"","","","","","image-keyboard-response","213","282937","0.0-188.0","632f09dfbcfe2edefdae1447","665500ab8938657b03fbdba8","6657962aaefcd1f383a6a4f4","466","stimuli/11111102.jpg"," ","","feedback_trial","2","","","","","","","","","","","","","","","","","","","","",""
"","","","","","image-keyboard-response","214","283695","0.0-189.0","632f09dfbcfe2edefdae1447","665500ab8938657b03fbdba8","6657962aaefcd1f383a6a4f4","756","stimuli/1000010.jpg","1","","prediction_trial","1","","true","","1","false","true","true","true","false","true","[1]","000","010","1","","","","","","",""
"","","","","","image-keyboard-response","215","283902","0.0-190.0","632f09dfbcfe2edefdae1447","665500ab8938657b03fbdba8","6657962aaefcd1f383a6a4f4","206","stimuli/10000101.jpg"," ","","feedback_trial","1","","","","","","","","","","","","","","","","","","","","",""
"","","","","","image-keyboard-response","216","284566","0.0-191.0","632f09dfbcfe2edefdae1447","665500ab8938657b03fbdba8","6657962aaefcd1f383a6a4f4","663","stimuli/2111101.jpg","0","","prediction_trial","0","","true","","2","false","false","false","false","false","false","[2,0,1]","111","101","1","","","","","","",""
"","","","","","image-keyboard-response","217","284711","0.0-192.0","632f09dfbcfe2edefdae1447","665500ab8938657b03fbdba8","6657962aaefcd1f383a6a4f4","143","stimuli/21111010.jpg"," ","","feedback_trial","2","","","","","","","","","","","","","","","","","","","","",""
"","","","","","image-keyboard-response","218","285248","0.0-193.0","632f09dfbcfe2edefdae1447","665500ab8938657b03fbdba8","6657962aaefcd1f383a6a4f4","535","stimuli/2100100.jpg","2","","prediction_trial","2","","true","","2","true","true","true","true","true","true","[2]","100","100","1","","","","","","",""
"","","","","","image-keyboard-response","219","285407","0.0-194.0","632f09dfbcfe2edefdae1447","665500ab8938657b03fbdba8","6657962aaefcd1f383a6a4f4","157","stimuli/21001002.jpg"," ","","feedback_trial","2","","","","","","","","","","","","","","","","","","","","",""
"","","","","","image-keyboard-response","220","286077","0.0-195.0","632f09dfbcfe2edefdae1447","665500ab8938657b03fbdba8","6657962aaefcd1f383a6a4f4","668","stimuli/1011111.jpg","1","","prediction_trial","1","","true","","1","false","false","false","false","false","false","[2,1]","011","111","1","","","","","","",""
"","","","","","image-keyboard-response","221","286278","0.0-196.0","632f09dfbcfe2edefdae1447","665500ab8938657b03fbdba8","6657962aaefcd1f383a6a4f4","193","stimuli/10111111.jpg"," ","","feedback_trial","2","","","","","","","","","","","","","","","","","","","","",""
"","","","","","image-keyboard-response","222","286938","0.0-197.0","632f09dfbcfe2edefdae1447","665500ab8938657b03fbdba8","6657962aaefcd1f383a6a4f4","660","stimuli/0110110.jpg","0","","prediction_trial","0","","true","","0","false","false","false","false","false","false","[0,1]","110","110","1","","","","","","",""
"","","","","","image-keyboard-response","223","287049","0.0-198.0","632f09dfbcfe2edefdae1447","665500ab8938657b03fbdba8","6657962aaefcd1f383a6a4f4","109","stimuli/01101100.jpg"," ","","feedback_trial","0","","","","","","","","","","","","","","","","","","","","",""
"","","","","","image-keyboard-response","224","287720","0.0-199.0","632f09dfbcfe2edefdae1447","665500ab8938657b03fbdba8","6657962aaefcd1f383a6a4f4","671","stimuli/1011110.jpg","1","","prediction_trial","1","","true","","1","false","false","false","false","false","false","[1,2]","011","110","1","","","","","","",""
"","","","","","image-keyboard-response","225","287957","0.0-200.0","632f09dfbcfe2edefdae1447","665500ab8938657b03fbdba8","6657962aaefcd1f383a6a4f4","235","stimuli/10111101.jpg"," ","","feedback_trial","1","","","","","","","","","","","","","","","","","","","","",""
"","","","","","image-keyboard-response","226","288842","0.0-201.0","632f09dfbcfe2edefdae1447","665500ab8938657b03fbdba8","6657962aaefcd1f383a6a4f4","885","stimuli/2000001.jpg","2","","prediction_trial","2","","true","","2","false","true","true","true","false","true","[2]","000","001","1","","","","","","",""
"","","","","","image-keyboard-response","227","288971","0.0-202.0","632f09dfbcfe2edefdae1447","665500ab8938657b03fbdba8","6657962aaefcd1f383a6a4f4","127","stimuli/20000012.jpg"," ","","feedback_trial","2","","","","","","","","","","","","","","","","","","","","",""
"","","","","","image-keyboard-response","228","291186","0.0-203.0","632f09dfbcfe2edefdae1447","665500ab8938657b03fbdba8","6657962aaefcd1f383a6a4f4","2214","stimuli/2011101.jpg","2","","prediction_trial","2","","true","","2","false","false","false","false","false","false","[2,1]","011","101","1","","","","","","",""
"","","","","","image-keyboard-response","229","291462","0.0-204.0","632f09dfbcfe2edefdae1447","665500ab8938657b03fbdba8","6657962aaefcd1f383a6a4f4","274","stimuli/20111012.jpg"," ","","feedback_trial","2","","","","","","","","","","","","","","","","","","","","",""
"","","","","","image-keyboard-response","230","292009","0.0-205.0","632f09dfbcfe2edefdae1447","665500ab8938657b03fbdba8","6657962aaefcd1f383a6a4f4","540","stimuli/0010011.jpg","0","","prediction_trial","0","","true","","0","true","true","true","true","true","true","[0]","010","011","1","","","","","","",""
"","","","","","image-keyboard-response","231","292193","0.0-206.0","632f09dfbcfe2edefdae1447","665500ab8938657b03fbdba8","6657962aaefcd1f383a6a4f4","184","stimuli/00100110.jpg"," ","","feedback_trial","0","","","","","","","","","","","","","","","","","","","","",""
"","","","","","image-keyboard-response","232","293558","0.0-207.0","632f09dfbcfe2edefdae1447","665500ab8938657b03fbdba8","6657962aaefcd1f383a6a4f4","1363","stimuli/1111010.jpg","1","","prediction_trial","1","","true","","1","false","true","false","false","false","false","[0,2,1]","111","010","1","","","","","","",""
"","","","","","image-keyboard-response","233","293702","0.0-208.0","632f09dfbcfe2edefdae1447","665500ab8938657b03fbdba8","6657962aaefcd1f383a6a4f4","143","stimuli/11110101.jpg"," ","","feedback_trial","0","","","","","","","","","","","","","","","","","","","","",""
"","","","","","image-keyboard-response","234","294341","0.0-209.0","632f09dfbcfe2edefdae1447","665500ab8938657b03fbdba8","6657962aaefcd1f383a6a4f4","637","stimuli/1011000.jpg","1","","prediction_trial","2","","false","","1","true","true","false","false","false","false","[1,2]","011","000","0","","","","","","",""
"","","","","","image-keyboard-response","235","294489","0.0-210.0","632f09dfbcfe2edefdae1447","665500ab8938657b03fbdba8","6657962aaefcd1f383a6a4f4","146","stimuli/10110002.jpg"," ","","feedback_trial","1","","","","","","","","","","","","","","","","","","","","",""
"","","","","","image-keyboard-response","236","295258","0.0-211.0","632f09dfbcfe2edefdae1447","665500ab8938657b03fbdba8","6657962aaefcd1f383a6a4f4","767","stimuli/0010111.jpg","1","","prediction_trial","0","","false","","0","false","false","true","true","false","false","[0]","010","111","0","","","","","","",""
"","","","","","image-keyboard-response","237","295501","0.0-212.0","632f09dfbcfe2edefdae1447","665500ab8938657b03fbdba8","6657962aaefcd1f383a6a4f4","242","stimuli/00101110.jpg"," ","","feedback_trial","0","","","","","","","","","","","","","","","","","","","","",""
"","","","","","image-keyboard-response","238","296123","0.0-213.0","632f09dfbcfe2edefdae1447","665500ab8938657b03fbdba8","6657962aaefcd1f383a6a4f4","620","stimuli/0001000.jpg","0","","prediction_trial","0","","true","","0","true","true","true","true","true","true","[0]","001","000","1","","","","","","",""
"","","","","","image-keyboard-response","239","296253","0.0-214.0","632f09dfbcfe2edefdae1447","665500ab8938657b03fbdba8","6657962aaefcd1f383a6a4f4","126","stimuli/00010000.jpg"," ","","feedback_trial","0","","","","","","","","","","","","","","","","","","","","",""
"","","","","","image-keyboard-response","240","296872","0.0-215.0","632f09dfbcfe2edefdae1447","665500ab8938657b03fbdba8","6657962aaefcd1f383a6a4f4","617","stimuli/2011000.jpg","2","","prediction_trial","2","","true","","2","true","true","false","false","false","false","[2,1]","011","000","1","","","","","","",""
"","","","","","image-keyboard-response","241","296985","0.0-216.0","632f09dfbcfe2edefdae1447","665500ab8938657b03fbdba8","6657962aaefcd1f383a6a4f4","111","stimuli/20110002.jpg"," ","","feedback_trial","2","","","","","","","","","","","","","","","","","","","","",""
"","","","","","image-keyboard-response","242","298346","0.0-217.0","632f09dfbcfe2edefdae1447","665500ab8938657b03fbdba8","6657962aaefcd1f383a6a4f4","1360","stimuli/1011011.jpg","1","","prediction_trial","1","","true","","1","false","false","false","false","false","false","[1,2]","011","011","1","","","","","","",""
"","","","","","image-keyboard-response","243","298537","0.0-218.0","632f09dfbcfe2edefdae1447","665500ab8938657b03fbdba8","6657962aaefcd1f383a6a4f4","190","stimuli/10110111.jpg"," ","","feedback_trial","1","","","","","","","","","","","","","","","","","","","","",""
"","","","","","image-keyboard-response","244","299395","0.0-219.0","632f09dfbcfe2edefdae1447","665500ab8938657b03fbdba8","6657962aaefcd1f383a6a4f4","858","stimuli/1101111.jpg","1","","prediction_trial","1","","true","","1","false","false","true","true","false","false","[1]","101","111","1","","","","","","",""
"","","","","","image-keyboard-response","245","299541","0.0-220.0","632f09dfbcfe2edefdae1447","665500ab8938657b03fbdba8","6657962aaefcd1f383a6a4f4","144","stimuli/11011111.jpg"," ","","feedback_trial","1","","","","","","","","","","","","","","","","","","","","",""
"","","","","","image-keyboard-response","246","300139","0.0-221.0","632f09dfbcfe2edefdae1447","665500ab8938657b03fbdba8","6657962aaefcd1f383a6a4f4","596","stimuli/1100001.jpg","1","","prediction_trial","1","","true","","1","true","true","true","true","true","true","[1]","100","001","1","","","","","","",""
"","","","","","image-keyboard-response","247","300271","0.0-222.0","632f09dfbcfe2edefdae1447","665500ab8938657b03fbdba8","6657962aaefcd1f383a6a4f4","131","stimuli/11000011.jpg"," ","","feedback_trial","1","","","","","","","","","","","","","","","","","","","","",""
"","","","","","image-keyboard-response","248","300859","0.0-223.0","632f09dfbcfe2edefdae1447","665500ab8938657b03fbdba8","6657962aaefcd1f383a6a4f4","581","stimuli/1101000.jpg","1","","prediction_trial","1","","true","","1","true","true","true","true","true","true","[1]","101","000","1","","","","","","",""
"","","","","","image-keyboard-response","249","300996","0.0-224.0","632f09dfbcfe2edefdae1447","665500ab8938657b03fbdba8","6657962aaefcd1f383a6a4f4","136","stimuli/11010001.jpg"," ","","feedback_trial","1","","","","","","","","","","","","","","","","","","","","",""
"","","","","","image-keyboard-response","250","301948","0.0-225.0","632f09dfbcfe2edefdae1447","665500ab8938657b03fbdba8","6657962aaefcd1f383a6a4f4","951","stimuli/1000110.jpg","1","","prediction_trial","1","","true","","1","false","false","true","true","false","false","[1]","000","110","1","","","","","","",""
"","","","","","image-keyboard-response","251","302103","0.0-226.0","632f09dfbcfe2edefdae1447","665500ab8938657b03fbdba8","6657962aaefcd1f383a6a4f4","153","stimuli/10001101.jpg"," ","","feedback_trial","1","","","","","","","","","","","","","","","","","","","","",""
"","","","","","image-keyboard-response","252","302640","0.0-227.0","632f09dfbcfe2edefdae1447","665500ab8938657b03fbdba8","6657962aaefcd1f383a6a4f4","536","stimuli/2101000.jpg","2","","prediction_trial","2","","true","","2","true","true","false","false","false","false","[2,0]","101","000","1","","","","","","",""
"","","","","","image-keyboard-response","253","302795","0.0-228.0","632f09dfbcfe2edefdae1447","665500ab8938657b03fbdba8","6657962aaefcd1f383a6a4f4","153","stimuli/21010002.jpg"," ","","feedback_trial","2","","","","","","","","","","","","","","","","","","","","",""
"","","","","","image-keyboard-response","254","303637","0.0-229.0","632f09dfbcfe2edefdae1447","665500ab8938657b03fbdba8","6657962aaefcd1f383a6a4f4","841","stimuli/2110000.jpg","2","","prediction_trial","2","","true","","2","true","true","true","true","true","true","[2]","110","000","1","","","","","","",""
"","","","","","image-keyboard-response","255","303731","0.0-230.0","632f09dfbcfe2edefdae1447","665500ab8938657b03fbdba8","6657962aaefcd1f383a6a4f4","93","stimuli/21100002.jpg"," ","","feedback_trial","2","","","","","","","","","","","","","","","","","","","","",""
"","","","","","image-keyboard-response","256","304885","0.0-231.0","632f09dfbcfe2edefdae1447","665500ab8938657b03fbdba8","6657962aaefcd1f383a6a4f4","1152","stimuli/0001111.jpg","1","","prediction_trial","0","","false","","0","false","false","true","true","false","false","[0]","001","111","0","","","","","","",""
"","","","","","image-keyboard-response","257","305055","0.0-232.0","632f09dfbcfe2edefdae1447","665500ab8938657b03fbdba8","6657962aaefcd1f383a6a4f4","164","stimuli/00011110.jpg"," ","","feedback_trial","0","","","","","","","","","","","","","","","","","","","","",""
"","","","","","image-keyboard-response","258","305638","0.0-233.0","632f09dfbcfe2edefdae1447","665500ab8938657b03fbdba8","6657962aaefcd1f383a6a4f4","581","stimuli/0100100.jpg","0","","prediction_trial","0","","true","","0","false","true","false","true","false","true","[0]","100","100","1","","","","","","",""
"","","","","","image-keyboard-response","259","305767","0.0-234.0","632f09dfbcfe2edefdae1447","665500ab8938657b03fbdba8","6657962aaefcd1f383a6a4f4","127","stimuli/01001000.jpg"," ","","feedback_trial","0","","","","","","","","","","","","","","","","","","","","",""
"","","","","","image-keyboard-response","260","306586","0.0-235.0","632f09dfbcfe2edefdae1447","665500ab8938657b03fbdba8","6657962aaefcd1f383a6a4f4","817","stimuli/2010001.jpg","2","","prediction_trial","2","","true","","2","false","true","true","true","false","true","[2]","010","001","1","","","","","","",""
"","","","","","image-keyboard-response","261","306738","0.0-236.0","632f09dfbcfe2edefdae1447","665500ab8938657b03fbdba8","6657962aaefcd1f383a6a4f4","151","stimuli/20100012.jpg"," ","","feedback_trial","2","","","","","","","","","","","","","","","","","","","","",""
"","","","","","image-keyboard-response","262","307332","0.0-237.0","632f09dfbcfe2edefdae1447","665500ab8938657b03fbdba8","6657962aaefcd1f383a6a4f4","592","stimuli/2101010.jpg","2","","prediction_trial","0","","false","","2","true","true","false","false","false","false","[2,0]","101","010","0","","","","","","",""
"","","","","","image-keyboard-response","263","307471","0.0-238.0","632f09dfbcfe2edefdae1447","665500ab8938657b03fbdba8","6657962aaefcd1f383a6a4f4","137","stimuli/21010100.jpg"," ","","feedback_trial","2","","","","","","","","","","","","","","","","","","","","",""
"","","","","","image-keyboard-response","264","308079","0.0-239.0","632f09dfbcfe2edefdae1447","665500ab8938657b03fbdba8","6657962aaefcd1f383a6a4f4","606","stimuli/2010000.jpg","2","","prediction_trial","2","","true","","2","true","true","true","true","true","true","[2]","010","000","1","","","","","","",""
"","","","","","image-keyboard-response","265","308207","0.0-240.0","632f09dfbcfe2edefdae1447","665500ab8938657b03fbdba8","6657962aaefcd1f383a6a4f4","127","stimuli/20100002.jpg"," ","","feedback_trial","2","","","","","","","","","","","","","","","","","","","","",""
"","","","","","image-keyboard-response","266","308770","0.0-241.0","632f09dfbcfe2edefdae1447","665500ab8938657b03fbdba8","6657962aaefcd1f383a6a4f4","554","stimuli/0110000.jpg","0","","prediction_trial","1","","false","","0","true","true","false","false","false","false","[1,0]","110","000","0","","","","","","",""
"","","","","","image-keyboard-response","267","308966","0.0-242.0","632f09dfbcfe2edefdae1447","665500ab8938657b03fbdba8","6657962aaefcd1f383a6a4f4","195","stimuli/01100001.jpg"," ","","feedback_trial","1","","","","","","","","","","","","","","","","","","","","",""
"","","","","","image-keyboard-response","268","309856","0.0-243.0","632f09dfbcfe2edefdae1447","665500ab8938657b03fbdba8","6657962aaefcd1f383a6a4f4","889","stimuli/2001111.jpg","1","","prediction_trial","2","","false","","2","false","false","false","true","false","false","[2]","001","111","0","","","","","","",""
"","","","","","image-keyboard-response","269","310021","0.0-244.0","632f09dfbcfe2edefdae1447","665500ab8938657b03fbdba8","6657962aaefcd1f383a6a4f4","164","stimuli/20011112.jpg"," ","","feedback_trial","2","","","","","","","","","","","","","","","","","","","","",""
"","","","","","image-keyboard-response","270","310669","0.0-245.0","632f09dfbcfe2edefdae1447","665500ab8938657b03fbdba8","6657962aaefcd1f383a6a4f4","647","stimuli/1101110.jpg","1","","prediction_trial","1","","true","","1","false","false","true","true","false","false","[1]","101","110","1","","","","","","",""
"","","","","","image-keyboard-response","271","310837","0.0-246.0","632f09dfbcfe2edefdae1447","665500ab8938657b03fbdba8","6657962aaefcd1f383a6a4f4","166","stimuli/11011101.jpg"," ","","feedback_trial","1","","","","","","","","","","","","","","","","","","","","",""
"","","","","","image-keyboard-response","272","311675","0.0-247.0","632f09dfbcfe2edefdae1447","665500ab8938657b03fbdba8","6657962aaefcd1f383a6a4f4","838","stimuli/2000101.jpg","0","","prediction_trial","2","","false","","2","false","false","true","true","false","false","[2]","000","101","0","","","","","","",""
"","","","","","image-keyboard-response","273","311776","0.0-248.0","632f09dfbcfe2edefdae1447","665500ab8938657b03fbdba8","6657962aaefcd1f383a6a4f4","101","stimuli/20001012.jpg"," ","","feedback_trial","2","","","","","","","","","","","","","","","","","","","","",""
"","","","","","image-keyboard-response","274","312757","0.0-249.0","632f09dfbcfe2edefdae1447","665500ab8938657b03fbdba8","6657962aaefcd1f383a6a4f4","980","stimuli/1110011.jpg","2","","prediction_trial","0","","false","","1","false","false","false","false","false","false","[0,1]","110","011","0","","","","","","",""
"","","","","","image-keyboard-response","275","312932","0.0-250.0","632f09dfbcfe2edefdae1447","665500ab8938657b03fbdba8","6657962aaefcd1f383a6a4f4","168","stimuli/11100110.jpg"," ","","feedback_trial","0","","","","","","","","","","","","","","","","","","","","",""
"","","","","","image-keyboard-response","276","314199","0.0-251.0","632f09dfbcfe2edefdae1447","665500ab8938657b03fbdba8","6657962aaefcd1f383a6a4f4","1266","stimuli/2001101.jpg","0","","prediction_trial","2","","false","","2","false","false","false","true","false","false","[2]","001","101","0","","","","","","",""
"","","","","","image-keyboard-response","277","314347","0.0-252.0","632f09dfbcfe2edefdae1447","665500ab8938657b03fbdba8","6657962aaefcd1f383a6a4f4","147","stimuli/20011012.jpg"," ","","feedback_trial","2","","","","","","","","","","","","","","","","","","","","",""
"","","","","","image-keyboard-response","278","315315","0.0-253.0","632f09dfbcfe2edefdae1447","665500ab8938657b03fbdba8","6657962aaefcd1f383a6a4f4","966","stimuli/2010010.jpg","2","","prediction_trial","2","","true","","2","true","true","true","true","true","true","[2]","010","010","1","","","","","","",""
"","","","","","image-keyboard-response","279","315531","0.0-254.0","632f09dfbcfe2edefdae1447","665500ab8938657b03fbdba8","6657962aaefcd1f383a6a4f4","216","stimuli/20100102.jpg"," ","","feedback_trial","2","","","","","","","","","","","","","","","","","","","","",""
"","","","","","image-keyboard-response","280","316154","0.0-255.0","632f09dfbcfe2edefdae1447","665500ab8938657b03fbdba8","6657962aaefcd1f383a6a4f4","621","stimuli/2100010.jpg","2","","prediction_trial","2","","true","","2","true","true","true","true","true","true","[2]","100","010","1","","","","","","",""
"","","","","","image-keyboard-response","281","316326","0.0-256.0","632f09dfbcfe2edefdae1447","665500ab8938657b03fbdba8","6657962aaefcd1f383a6a4f4","171","stimuli/21000102.jpg"," ","","feedback_trial","2","","","","","","","","","","","","","","","","","","","","",""
"","","","","","image-keyboard-response","282","317066","0.0-257.0","632f09dfbcfe2edefdae1447","665500ab8938657b03fbdba8","6657962aaefcd1f383a6a4f4","738","stimuli/2101011.jpg","1","","prediction_trial","0","","false","","2","false","false","false","false","false","false","[0,2]","101","011","0","","","","","","",""
"","","","","","image-keyboard-response","283","317239","0.0-258.0","632f09dfbcfe2edefdae1447","665500ab8938657b03fbdba8","6657962aaefcd1f383a6a4f4","172","stimuli/21010110.jpg"," ","","feedback_trial","0","","","","","","","","","","","","","","","","","","","","",""
"","","","","","image-keyboard-response","284","317982","0.0-259.0","632f09dfbcfe2edefdae1447","665500ab8938657b03fbdba8","6657962aaefcd1f383a6a4f4","733","stimuli/2011011.jpg","1","","prediction_trial","2","","false","","2","false","false","false","false","false","false","[2,1]","011","011","0","","","","","","",""
"","","","","","image-keyboard-response","285","318141","0.0-260.0","632f09dfbcfe2edefdae1447","665500ab8938657b03fbdba8","6657962aaefcd1f383a6a4f4","157","stimuli/20110112.jpg"," ","","feedback_trial","2","","","","","","","","","","","","","","","","","","","","",""
"","","","","","image-keyboard-response","286","318722","0.0-261.0","632f09dfbcfe2edefdae1447","665500ab8938657b03fbdba8","6657962aaefcd1f383a6a4f4","579","stimuli/1000000.jpg","1","","prediction_trial","1","","true","","1","true","true","true","true","true","true","[1]","000","000","1","","","","","","",""
"","","","","","image-keyboard-response","287","318939","0.0-262.0","632f09dfbcfe2edefdae1447","665500ab8938657b03fbdba8","6657962aaefcd1f383a6a4f4","217","stimuli/10000001.jpg"," ","","feedback_trial","1","","","","","","","","","","","","","","","","","","","","",""
"","","","","","image-keyboard-response","288","319967","0.0-263.0","632f09dfbcfe2edefdae1447","665500ab8938657b03fbdba8","6657962aaefcd1f383a6a4f4","1027","stimuli/2001011.jpg","1","","prediction_trial","2","","false","","2","false","false","false","true","false","false","[2]","001","011","0","","","","","","",""
"","","","","","image-keyboard-response","289","320136","0.0-264.0","632f09dfbcfe2edefdae1447","665500ab8938657b03fbdba8","6657962aaefcd1f383a6a4f4","167","stimuli/20010112.jpg"," ","","feedback_trial","2","","","","","","","","","","","","","","","","","","","","",""
"","","","","","image-keyboard-response","290","320684","0.0-265.0","632f09dfbcfe2edefdae1447","665500ab8938657b03fbdba8","6657962aaefcd1f383a6a4f4","547","stimuli/1001101.jpg","1","","prediction_trial","1","","true","","1","true","true","true","true","true","true","[1]","001","101","1","","","","","","",""
"","","","","","image-keyboard-response","291","320878","0.0-266.0","632f09dfbcfe2edefdae1447","665500ab8938657b03fbdba8","6657962aaefcd1f383a6a4f4","192","stimuli/10011011.jpg"," ","","feedback_trial","1","","","","","","","","","","","","","","","","","","","","",""
"","","","","","image-keyboard-response","292","321815","0.0-267.0","632f09dfbcfe2edefdae1447","665500ab8938657b03fbdba8","6657962aaefcd1f383a6a4f4","936","stimuli/1110111.jpg","2","","prediction_trial","0","","false","","1","false","false","false","false","false","false","[1,0]","110","111","0","","","","","","",""
"","","","","","image-keyboard-response","293","321970","0.0-268.0","632f09dfbcfe2edefdae1447","665500ab8938657b03fbdba8","6657962aaefcd1f383a6a4f4","152","stimuli/11101110.jpg"," ","","feedback_trial","1","","","","","","","","","","","","","","","","","","","","",""
"","","","","","image-keyboard-response","294","322651","0.0-269.0","632f09dfbcfe2edefdae1447","665500ab8938657b03fbdba8","6657962aaefcd1f383a6a4f4","679","stimuli/0110101.jpg","1","","prediction_trial","1","","true","","0","false","false","false","false","false","false","[0,1]","110","101","1","","","","","","",""
"","","","","","image-keyboard-response","295","322810","0.0-270.0","632f09dfbcfe2edefdae1447","665500ab8938657b03fbdba8","6657962aaefcd1f383a6a4f4","158","stimuli/01101011.jpg"," ","","feedback_trial","0","","","","","","","","","","","","","","","","","","","","",""
"","","","","","image-keyboard-response","296","323302","0.0-271.0","632f09dfbcfe2edefdae1447","665500ab8938657b03fbdba8","6657962aaefcd1f383a6a4f4","492","stimuli/0111010.jpg","0","","prediction_trial","2","","false","","0","true","true","false","false","false","false","[0,1,2]","111","010","0","","","","","","",""
"","","","","","image-keyboard-response","297","323469","0.0-272.0","632f09dfbcfe2edefdae1447","665500ab8938657b03fbdba8","6657962aaefcd1f383a6a4f4","166","stimuli/01110102.jpg"," ","","feedback_trial","0","","","","","","","","","","","","","","","","","","","","",""
"","","","","","image-keyboard-response","298","324037","0.0-273.0","632f09dfbcfe2edefdae1447","665500ab8938657b03fbdba8","6657962aaefcd1f383a6a4f4","567","stimuli/1011001.jpg","1","","prediction_trial","2","","false","","1","true","true","false","false","false","false","[2,1]","011","001","0","","","","","","",""
"","","","","","image-keyboard-response","299","324225","0.0-274.0","632f09dfbcfe2edefdae1447","665500ab8938657b03fbdba8","6657962aaefcd1f383a6a4f4","187","stimuli/10110012.jpg"," ","","feedback_trial","2","","","","","","","","","","","","","","","","","","","","",""
"","","","","","image-keyboard-response","300","324678","0.0-275.0","632f09dfbcfe2edefdae1447","665500ab8938657b03fbdba8","6657962aaefcd1f383a6a4f4","451","stimuli/0100010.jpg","0","","prediction_trial","0","","true","","0","true","true","false","true","false","true","[0]","100","010","1","","","","","","",""
"","","","","","image-keyboard-response","301","324860","0.0-276.0","632f09dfbcfe2edefdae1447","665500ab8938657b03fbdba8","6657962aaefcd1f383a6a4f4","180","stimuli/01000100.jpg"," ","","feedback_trial","0","","","","","","","","","","","","","","","","","","","","",""
"","","","","","image-keyboard-response","302","326046","0.0-277.0","632f09dfbcfe2edefdae1447","665500ab8938657b03fbdba8","6657962aaefcd1f383a6a4f4","1182","stimuli/0100101.jpg","0","","prediction_trial","0","","true","","0","false","false","false","true","false","false","[0]","100","101","1","","","","","","",""
"","","","","","image-keyboard-response","303","326216","0.0-278.0","632f09dfbcfe2edefdae1447","665500ab8938657b03fbdba8","6657962aaefcd1f383a6a4f4","168","stimuli/01001010.jpg"," ","","feedback_trial","0","","","","","","","","","","","","","","","","","","","","",""
"","","","","","image-keyboard-response","304","326901","0.0-279.0","632f09dfbcfe2edefdae1447","665500ab8938657b03fbdba8","6657962aaefcd1f383a6a4f4","684","stimuli/0000000.jpg","0","","prediction_trial","0","","true","","0","true","true","true","true","true","true","[0]","000","000","1","","","","","","",""
"","","","","","image-keyboard-response","305","327104","0.0-280.0","632f09dfbcfe2edefdae1447","665500ab8938657b03fbdba8","6657962aaefcd1f383a6a4f4","202","stimuli/00000000.jpg"," ","","feedback_trial","0","","","","","","","","","","","","","","","","","","","","",""
"","","","","","image-keyboard-response","306","327650","0.0-281.0","632f09dfbcfe2edefdae1447","665500ab8938657b03fbdba8","6657962aaefcd1f383a6a4f4","545","stimuli/2110100.jpg","2","","prediction_trial","2","","true","","2","true","true","true","true","true","true","[2]","110","100","1","","","","","","",""
"","","","","","image-keyboard-response","307","327810","0.0-282.0","632f09dfbcfe2edefdae1447","665500ab8938657b03fbdba8","6657962aaefcd1f383a6a4f4","158","stimuli/21101002.jpg"," ","","feedback_trial","2","","","","","","","","","","","","","","","","","","","","",""
"","","","","","image-keyboard-response","308","328819","0.0-283.0","632f09dfbcfe2edefdae1447","665500ab8938657b03fbdba8","6657962aaefcd1f383a6a4f4","1008","stimuli/0111100.jpg","0","","prediction_trial","1","","false","","0","false","true","false","false","false","false","[1,0,2]","111","100","0","","","","","","",""
"","","","","","image-keyboard-response","309","328980","0.0-284.0","632f09dfbcfe2edefdae1447","665500ab8938657b03fbdba8","6657962aaefcd1f383a6a4f4","160","stimuli/01111001.jpg"," ","","feedback_trial","1","","","","","","","","","","","","","","","","","","","","",""
"","","","","","image-keyboard-response","310","329726","0.0-285.0","632f09dfbcfe2edefdae1447","665500ab8938657b03fbdba8","6657962aaefcd1f383a6a4f4","745","stimuli/0000011.jpg","0","","prediction_trial","0","","true","","0","true","true","true","true","true","true","[0]","000","011","1","","","","","","",""
"","","","","","image-keyboard-response","311","330047","0.0-286.0","632f09dfbcfe2edefdae1447","665500ab8938657b03fbdba8","6657962aaefcd1f383a6a4f4","314","stimuli/00000110.jpg"," ","","feedback_trial","0","","","","","","","","","","","","","","","","","","","","",""
"","","","","","image-keyboard-response","312","331665","0.0-287.0","632f09dfbcfe2edefdae1447","665500ab8938657b03fbdba8","6657962aaefcd1f383a6a4f4","1618","stimuli/1101010.jpg","1","","prediction_trial","1","","true","","1","false","true","true","true","false","true","[1]","101","010","1","","","","","","",""
"","","","","","image-keyboard-response","313","331898","0.0-288.0","632f09dfbcfe2edefdae1447","665500ab8938657b03fbdba8","6657962aaefcd1f383a6a4f4","231","stimuli/11010101.jpg"," ","","feedback_trial","1","","","","","","","","","","","","","","","","","","","","",""
"","","","","","image-keyboard-response","314","332560","0.0-289.0","632f09dfbcfe2edefdae1447","665500ab8938657b03fbdba8","6657962aaefcd1f383a6a4f4","662","stimuli/2100101.jpg","0","","prediction_trial","2","","false","","2","false","false","true","true","false","false","[2]","100","101","0","","","","","","",""
"","","","","","image-keyboard-response","315","332758","0.0-290.0","632f09dfbcfe2edefdae1447","665500ab8938657b03fbdba8","6657962aaefcd1f383a6a4f4","197","stimuli/21001012.jpg"," ","","feedback_trial","2","","","","","","","","","","","","","","","","","","","","",""
"","","","","","image-keyboard-response","316","333424","0.0-291.0","632f09dfbcfe2edefdae1447","665500ab8938657b03fbdba8","6657962aaefcd1f383a6a4f4","665","stimuli/1010110.jpg","0","","prediction_trial","1","","false","","1","false","false","false","true","false","false","[1]","010","110","0","","","","","","",""
"","","","","","image-keyboard-response","317","333613","0.0-292.0","632f09dfbcfe2edefdae1447","665500ab8938657b03fbdba8","6657962aaefcd1f383a6a4f4","187","stimuli/10101101.jpg"," ","","feedback_trial","1","","","","","","","","","","","","","","","","","","","","",""
"","","","","","survey-html-form","318","342535","0.0-293.0","632f09dfbcfe2edefdae1447","665500ab8938657b03fbdba8","6657962aaefcd1f383a6a4f4","8918","","{""feedback"":"""",""age"":""32"",""gender"":""Male"",""other_gender"":"""",""race"":""Asian"",""other_race"":"""",""ethnicity"":""Non-Hispanic""}","","exit_survey","","","","","","","","","","","","","","","","","32","Non-Hispanic","Male","Asian","0.7222222222222222","0.7222222222222222"
