"success","timeout","failed_images","failed_audio","failed_video","trial_type","trial_index","time_elapsed","internal_node_id","prolific_id","prolific_study_id","prolific_session_id","rt","stimulus","response","view_history","trial","character_choice","stimulus_dict","accuracy","correct_response","ball_pos","ego_ball_visible","ego_can_infer","alter_ball_visible","alter_can_infer","collective_ball_visible","collective_can_infer","search_locations","alter_occluders","ego_occluders","accuracy_bool","feedback","age","ethnicity","gender","race","overall_accuracy","bonus"
"true","false","[]","[]","[]","preload","0","13700","0.0-0.0","631b485e2d1909111a6fb09a","665500ab8938657b03fbdba8","665792a26003e3601401a61d","","","","","","","","","","","","","","","","","","","","","","","","","","",""
"true","","","","","fullscreen","1","17163","0.0-1.0","631b485e2d1909111a6fb09a","665500ab8938657b03fbdba8","665792a26003e3601401a61d","","","","","","","","","","","","","","","","","","","","","","","","","","",""
"","","","","","html-button-response","2","18851","0.0-2.0","631b485e2d1909111a6fb09a","665500ab8938657b03fbdba8","665792a26003e3601401a61d","1687","<p><b>Consent Form</b></p> <div style=""text-align:left;background-color:lightgrey; padding:20px; max-width:900px;""><p>Please consider this information carefully before deciding whether to participate in this research.</p> <p>The purpose of this research is to examine which factors influence social judgment and decision-making. You will be asked to make judgements about individuals and actions in social scenarios. We are simply interested in your judgement. The study will take less than 1 hour to complete, and you will receive less than $20 on Prolific. Your compensation and time commitment are specified in the study description. There are no anticipated risks associated with participating in this study. The effects of participating should be comparable to those you would ordinarily experience from viewing a computer monitor and using a mouse or keyboard for a similar amount of time. At the end of the study, we will provide an explanation of the questions that motivate this line of research and will describe the potential implications. </p><p> Your participation in this study is completely voluntary and you may refuse to participate or you may choose to withdraw at any time without penalty or loss of benefits to you which are otherwise entitled. Your participation in this study will remain confidential. No personally identifiable information will be associated with your data. Also, all analyses of the data will be averaged across all the participants, so your individual responses will never be specifically analyzed. </p><p> If you have questions or concerns about your participation or payment, or want to request a summary of research findings, please contact Dr. Jonathan Phillips at Jonathan.S.Phillips@dartmouth.edu. </p><p> Please save a copy of this form for your records. </p><p><b>Agreement: </b>The nature and purpose of this research have been sufficiently explained and I agree to participate in this study. I understand that I am free to withdraw at any time without incurring any penalty. Please consent by clicking the button below to continue. Otherwise, please exit the study at any time. </p>","0","","","","","","","","","","","","","","","","","","","","","","","",""
"","","","","","instructions","3","103285","0.0-3.0-0.0","631b485e2d1909111a6fb09a","665500ab8938657b03fbdba8","665792a26003e3601401a61d","84433","","","[{""page_index"":0,""viewing_time"":1046},{""page_index"":1,""viewing_time"":1924},{""page_index"":2,""viewing_time"":4016},{""page_index"":3,""viewing_time"":6570},{""page_index"":4,""viewing_time"":4005},{""page_index"":5,""viewing_time"":4230},{""page_index"":6,""viewing_time"":5299},{""page_index"":7,""viewing_time"":6480},{""page_index"":8,""viewing_time"":5591},{""page_index"":9,""viewing_time"":3938},{""page_index"":10,""viewing_time"":15436},{""page_index"":11,""viewing_time"":11284},{""page_index"":12,""viewing_time"":12083},{""page_index"":13,""viewing_time"":2531}]","intro","","","","","","","","","","","","","","","","","","","","","",""
"","","","","","image-keyboard-response","4","107406","0.0-3.0-1.0","631b485e2d1909111a6fb09a","665500ab8938657b03fbdba8","665792a26003e3601401a61d","4119","stimuli/0000100.jpg","0","","prediction_practice","0","{""filepath"":""stimuli/0000100.jpg"",""ball_pos"":0,""ego_ball_visible"":false,""ego_can_infer"":true,""alter_ball_visible"":true,""alter_can_infer"":true,""collective_ball_visible"":false,""collective_can_infer"":true,""search_locations"":[0],""alter_occluders"":""000"",""ego_occluders"":""100""}","true","","","","","","","","","","","","","","","","","","",""
"","","","","","image-keyboard-response","5","109010","0.0-3.0-2.0","631b485e2d1909111a6fb09a","665500ab8938657b03fbdba8","665792a26003e3601401a61d","1603","stimuli/00001000.jpg"," ","","practrice_feedback","0","","","","","","","","","","","","","","","","","","","","",""
"","","","","","image-keyboard-response","6","110464","0.0-3.0-3.0","631b485e2d1909111a6fb09a","665500ab8938657b03fbdba8","665792a26003e3601401a61d","1453","stimuli/2100000.jpg","2","","prediction_practice","2","{""filepath"":""stimuli/2100000.jpg"",""ball_pos"":2,""ego_ball_visible"":true,""ego_can_infer"":true,""alter_ball_visible"":true,""alter_can_infer"":true,""collective_ball_visible"":true,""collective_can_infer"":true,""search_locations"":[2],""alter_occluders"":""100"",""ego_occluders"":""000""}","true","","","","","","","","","","","","","","","","","","",""
"","","","","","image-keyboard-response","7","111307","0.0-3.0-4.0","631b485e2d1909111a6fb09a","665500ab8938657b03fbdba8","665792a26003e3601401a61d","842","stimuli/21000002.jpg"," ","","practrice_feedback","2","","","","","","","","","","","","","","","","","","","","",""
"","","","","","image-keyboard-response","8","112456","0.0-3.0-5.0","631b485e2d1909111a6fb09a","665500ab8938657b03fbdba8","665792a26003e3601401a61d","1149","stimuli/0011010.jpg","0","","prediction_practice","0","{""filepath"":""stimuli/0011010.jpg"",""ball_pos"":0,""ego_ball_visible"":true,""ego_can_infer"":true,""alter_ball_visible"":true,""alter_can_infer"":true,""collective_ball_visible"":true,""collective_can_infer"":true,""search_locations"":[0],""alter_occluders"":""011"",""ego_occluders"":""010""}","true","","","","","","","","","","","","","","","","","","",""
"","","","","","image-keyboard-response","9","112990","0.0-3.0-6.0","631b485e2d1909111a6fb09a","665500ab8938657b03fbdba8","665792a26003e3601401a61d","533","stimuli/00110100.jpg"," ","","practrice_feedback","0","","","","","","","","","","","","","","","","","","","","",""
"","","","","","image-keyboard-response","10","135760","0.0-3.0-7.0","631b485e2d1909111a6fb09a","665500ab8938657b03fbdba8","665792a26003e3601401a61d","22769","stimuli/0011111.jpg","0","","prediction_practice","0","{""filepath"":""stimuli/0011111.jpg"",""ball_pos"":0,""ego_ball_visible"":false,""ego_can_infer"":false,""alter_ball_visible"":true,""alter_can_infer"":true,""collective_ball_visible"":false,""collective_can_infer"":false,""search_locations"":[0],""alter_occluders"":""011"",""ego_occluders"":""111""}","true","","","","","","","","","","","","","","","","","","",""
"","","","","","image-keyboard-response","11","137336","0.0-3.0-8.0","631b485e2d1909111a6fb09a","665500ab8938657b03fbdba8","665792a26003e3601401a61d","1575","stimuli/00111110.jpg"," ","","practrice_feedback","0","","","","","","","","","","","","","","","","","","","","",""
"","","","","","image-keyboard-response","12","139431","0.0-3.0-9.0","631b485e2d1909111a6fb09a","665500ab8938657b03fbdba8","665792a26003e3601401a61d","2095","stimuli/0101010.jpg","0","","prediction_practice","2","{""filepath"":""stimuli/0101010.jpg"",""ball_pos"":0,""ego_ball_visible"":true,""ego_can_infer"":true,""alter_ball_visible"":false,""alter_can_infer"":false,""collective_ball_visible"":false,""collective_can_infer"":false,""search_locations"":[2,0],""alter_occluders"":""101"",""ego_occluders"":""010""}","false","","","","","","","","","","","","","","","","","","",""
"","","","","","image-keyboard-response","13","142716","0.0-3.0-10.0","631b485e2d1909111a6fb09a","665500ab8938657b03fbdba8","665792a26003e3601401a61d","3283","stimuli/01010102.jpg"," ","","practrice_feedback","2","","","","","","","","","","","","","","","","","","","","",""
"","","","","","image-keyboard-response","14","143452","0.0-3.0-11.0","631b485e2d1909111a6fb09a","665500ab8938657b03fbdba8","665792a26003e3601401a61d","736","stimuli/0111100.jpg","0","","prediction_practice","0","{""filepath"":""stimuli/0111100.jpg"",""ball_pos"":0,""ego_ball_visible"":false,""ego_can_infer"":true,""alter_ball_visible"":false,""alter_can_infer"":false,""collective_ball_visible"":false,""collective_can_infer"":false,""search_locations"":[1,2,0],""alter_occluders"":""111"",""ego_occluders"":""100""}","true","","","","","","","","","","","","","","","","","","",""
"","","","","","image-keyboard-response","15","143861","0.0-3.0-12.0","631b485e2d1909111a6fb09a","665500ab8938657b03fbdba8","665792a26003e3601401a61d","409","stimuli/01111000.jpg"," ","","practrice_feedback","1","","","","","","","","","","","","","","","","","","","","",""
"","","","","","image-keyboard-response","16","144702","0.0-3.0-13.0","631b485e2d1909111a6fb09a","665500ab8938657b03fbdba8","665792a26003e3601401a61d","840","stimuli/1001000.jpg","1","","prediction_practice","1","{""filepath"":""stimuli/1001000.jpg"",""ball_pos"":1,""ego_ball_visible"":true,""ego_can_infer"":true,""alter_ball_visible"":true,""alter_can_infer"":true,""collective_ball_visible"":true,""collective_can_infer"":true,""search_locations"":[1],""alter_occluders"":""001"",""ego_occluders"":""000""}","true","","","","","","","","","","","","","","","","","","",""
"","","","","","image-keyboard-response","17","145049","0.0-3.0-14.0","631b485e2d1909111a6fb09a","665500ab8938657b03fbdba8","665792a26003e3601401a61d","347","stimuli/10010001.jpg"," ","","practrice_feedback","1","","","","","","","","","","","","","","","","","","","","",""
"","","","","","image-keyboard-response","18","145952","0.0-3.0-15.0","631b485e2d1909111a6fb09a","665500ab8938657b03fbdba8","665792a26003e3601401a61d","902","stimuli/2101010.jpg","2","","prediction_practice","0","{""filepath"":""stimuli/2101010.jpg"",""ball_pos"":2,""ego_ball_visible"":true,""ego_can_infer"":true,""alter_ball_visible"":false,""alter_can_infer"":false,""collective_ball_visible"":false,""collective_can_infer"":false,""search_locations"":[2,0],""alter_occluders"":""101"",""ego_occluders"":""010""}","false","","","","","","","","","","","","","","","","","","",""
"","","","","","image-keyboard-response","19","147134","0.0-3.0-16.0","631b485e2d1909111a6fb09a","665500ab8938657b03fbdba8","665792a26003e3601401a61d","1182","stimuli/21010100.jpg"," ","","practrice_feedback","2","","","","","","","","","","","","","","","","","","","","",""
"","","","","","image-keyboard-response","20","149884","0.0-3.0-17.0","631b485e2d1909111a6fb09a","665500ab8938657b03fbdba8","665792a26003e3601401a61d","2750","stimuli/1011111.jpg","0","","prediction_practice","1","{""filepath"":""stimuli/1011111.jpg"",""ball_pos"":1,""ego_ball_visible"":false,""ego_can_infer"":false,""alter_ball_visible"":false,""alter_can_infer"":false,""collective_ball_visible"":false,""collective_can_infer"":false,""search_locations"":[2,1],""alter_occluders"":""011"",""ego_occluders"":""111""}","false","","","","","","","","","","","","","","","","","","",""
"","","","","","image-keyboard-response","21","150943","0.0-3.0-18.0","631b485e2d1909111a6fb09a","665500ab8938657b03fbdba8","665792a26003e3601401a61d","1058","stimuli/10111111.jpg"," ","","practrice_feedback","2","","","","","","","","","","","","","","","","","","","","",""
"","","","","","image-keyboard-response","22","154919","0.0-3.0-19.0","631b485e2d1909111a6fb09a","665500ab8938657b03fbdba8","665792a26003e3601401a61d","3976","stimuli/2101011.jpg","1","","prediction_practice","0","{""filepath"":""stimuli/2101011.jpg"",""ball_pos"":2,""ego_ball_visible"":false,""ego_can_infer"":false,""alter_ball_visible"":false,""alter_can_infer"":false,""collective_ball_visible"":false,""collective_can_infer"":false,""search_locations"":[0,2],""alter_occluders"":""101"",""ego_occluders"":""011""}","false","","","","","","","","","","","","","","","","","","",""
"","","","","","image-keyboard-response","23","155910","0.0-3.0-20.0","631b485e2d1909111a6fb09a","665500ab8938657b03fbdba8","665792a26003e3601401a61d","990","stimuli/21010110.jpg"," ","","practrice_feedback","0","","","","","","","","","","","","","","","","","","","","",""
"","","","","","html-button-response","24","164432","0.0-3.0-21.0","631b485e2d1909111a6fb09a","665500ab8938657b03fbdba8","665792a26003e3601401a61d","8521","Now that you've had some practice, you'll be tested with a couple of easy trials. If you correctly predict Sam's choice, you'll move on to complete the experiment!","0","","","","","","","","","","","","","","","","","","","","","","","",""
"","","","","","image-keyboard-response","25","165649","0.0-3.0-22.0-0.0","631b485e2d1909111a6fb09a","665500ab8938657b03fbdba8","665792a26003e3601401a61d","1217","stimuli/0000011.jpg","arrowleft","","comprehension_quiz","","","true","arrowleft","","","","","","","","","","","","","","","","","",""
"","","","","","image-keyboard-response","26","166348","0.0-3.0-22.0-1.0","631b485e2d1909111a6fb09a","665500ab8938657b03fbdba8","665792a26003e3601401a61d","698","stimuli/00000110.jpg"," ","","comprehension_quiz","","","true"," ","","","","","","","","","","","","","","","","","",""
"","","","","","image-keyboard-response","27","167563","0.0-3.0-22.0-2.0","631b485e2d1909111a6fb09a","665500ab8938657b03fbdba8","665792a26003e3601401a61d","1215","stimuli/1010010.jpg","arrowdown","","comprehension_quiz","","","true","arrowdown","","","","","","","","","","","","","","","","","",""
"","","","","","image-keyboard-response","28","167842","0.0-3.0-22.0-3.0","631b485e2d1909111a6fb09a","665500ab8938657b03fbdba8","665792a26003e3601401a61d","278","stimuli/10100101.jpg"," ","","comprehension_quiz","","","true"," ","","","","","","","","","","","","","","","","","",""
"","","","","","html-button-response","29","170102","0.0-4.0","631b485e2d1909111a6fb09a","665500ab8938657b03fbdba8","665792a26003e3601401a61d","2258","The experiment will now begin.","0","","","","","","","","","","","","","","","","","","","","","","","",""
"","","","","","image-keyboard-response","30","181995","0.0-5.0","631b485e2d1909111a6fb09a","665500ab8938657b03fbdba8","665792a26003e3601401a61d","11893","stimuli/2100101.jpg","2","","prediction_trial","2","","true","","2","false","false","true","true","false","false","[2]","100","101","1","","","","","","",""
"","","","","","image-keyboard-response","31","182787","0.0-6.0","631b485e2d1909111a6fb09a","665500ab8938657b03fbdba8","665792a26003e3601401a61d","790","stimuli/21001012.jpg"," ","","feedback_trial","2","","","","","","","","","","","","","","","","","","","","",""
"","","","","","image-keyboard-response","32","184160","0.0-7.0","631b485e2d1909111a6fb09a","665500ab8938657b03fbdba8","665792a26003e3601401a61d","1372","stimuli/2100001.jpg","2","","prediction_trial","2","","true","","2","false","true","true","true","false","true","[2]","100","001","1","","","","","","",""
"","","","","","image-keyboard-response","33","184556","0.0-8.0","631b485e2d1909111a6fb09a","665500ab8938657b03fbdba8","665792a26003e3601401a61d","396","stimuli/21000012.jpg"," ","","feedback_trial","2","","","","","","","","","","","","","","","","","","","","",""
"","","","","","image-keyboard-response","34","187200","0.0-9.0","631b485e2d1909111a6fb09a","665500ab8938657b03fbdba8","665792a26003e3601401a61d","2644","stimuli/0100111.jpg","1","","prediction_trial","0","","false","","0","false","false","false","true","false","false","[0]","100","111","0","","","","","","",""
"","","","","","image-keyboard-response","35","187928","0.0-10.0","631b485e2d1909111a6fb09a","665500ab8938657b03fbdba8","665792a26003e3601401a61d","728","stimuli/01001110.jpg"," ","","feedback_trial","0","","","","","","","","","","","","","","","","","","","","",""
"","","","","","image-keyboard-response","36","197113","0.0-11.0","631b485e2d1909111a6fb09a","665500ab8938657b03fbdba8","665792a26003e3601401a61d","9184","stimuli/0011101.jpg","0","","prediction_trial","0","","true","","0","false","false","true","true","false","false","[0]","011","101","1","","","","","","",""
"","","","","","image-keyboard-response","37","197718","0.0-12.0","631b485e2d1909111a6fb09a","665500ab8938657b03fbdba8","665792a26003e3601401a61d","604","stimuli/00111010.jpg"," ","","feedback_trial","0","","","","","","","","","","","","","","","","","","","","",""
"","","","","","image-keyboard-response","38","200906","0.0-13.0","631b485e2d1909111a6fb09a","665500ab8938657b03fbdba8","665792a26003e3601401a61d","3188","stimuli/0110101.jpg","2","","prediction_trial","0","","false","","0","false","false","false","false","false","false","[0,1]","110","101","0","","","","","","",""
"","","","","","image-keyboard-response","39","202078","0.0-14.0","631b485e2d1909111a6fb09a","665500ab8938657b03fbdba8","665792a26003e3601401a61d","1171","stimuli/01101010.jpg"," ","","feedback_trial","0","","","","","","","","","","","","","","","","","","","","",""
"","","","","","image-keyboard-response","40","202874","0.0-15.0","631b485e2d1909111a6fb09a","665500ab8938657b03fbdba8","665792a26003e3601401a61d","795","stimuli/2100010.jpg","2","","prediction_trial","2","","true","","2","true","true","true","true","true","true","[2]","100","010","1","","","","","","",""
"","","","","","image-keyboard-response","41","203215","0.0-16.0","631b485e2d1909111a6fb09a","665500ab8938657b03fbdba8","665792a26003e3601401a61d","341","stimuli/21000102.jpg"," ","","feedback_trial","2","","","","","","","","","","","","","","","","","","","","",""
"","","","","","image-keyboard-response","42","203751","0.0-17.0","631b485e2d1909111a6fb09a","665500ab8938657b03fbdba8","665792a26003e3601401a61d","536","stimuli/0001010.jpg","0","","prediction_trial","0","","true","","0","true","true","true","true","true","true","[0]","001","010","1","","","","","","",""
"","","","","","image-keyboard-response","43","204020","0.0-18.0","631b485e2d1909111a6fb09a","665500ab8938657b03fbdba8","665792a26003e3601401a61d","268","stimuli/00010100.jpg"," ","","feedback_trial","0","","","","","","","","","","","","","","","","","","","","",""
"","","","","","image-keyboard-response","44","204495","0.0-19.0","631b485e2d1909111a6fb09a","665500ab8938657b03fbdba8","665792a26003e3601401a61d","474","stimuli/0101011.jpg","0","","prediction_trial","2","","false","","0","true","true","false","false","false","false","[2,0]","101","011","0","","","","","","",""
"","","","","","image-keyboard-response","45","205255","0.0-20.0","631b485e2d1909111a6fb09a","665500ab8938657b03fbdba8","665792a26003e3601401a61d","760","stimuli/01010112.jpg"," ","","feedback_trial","2","","","","","","","","","","","","","","","","","","","","",""
"","","","","","image-keyboard-response","46","205673","0.0-21.0","631b485e2d1909111a6fb09a","665500ab8938657b03fbdba8","665792a26003e3601401a61d","416","stimuli/0100000.jpg","0","","prediction_trial","0","","true","","0","true","true","false","true","false","true","[0]","100","000","1","","","","","","",""
"","","","","","image-keyboard-response","47","206031","0.0-22.0","631b485e2d1909111a6fb09a","665500ab8938657b03fbdba8","665792a26003e3601401a61d","358","stimuli/01000000.jpg"," ","","feedback_trial","0","","","","","","","","","","","","","","","","","","","","",""
"","","","","","image-keyboard-response","48","206959","0.0-23.0","631b485e2d1909111a6fb09a","665500ab8938657b03fbdba8","665792a26003e3601401a61d","927","stimuli/1001100.jpg","1","","prediction_trial","1","","true","","1","true","true","true","true","true","true","[1]","001","100","1","","","","","","",""
"","","","","","image-keyboard-response","49","207233","0.0-24.0","631b485e2d1909111a6fb09a","665500ab8938657b03fbdba8","665792a26003e3601401a61d","273","stimuli/10011001.jpg"," ","","feedback_trial","1","","","","","","","","","","","","","","","","","","","","",""
"","","","","","image-keyboard-response","50","211153","0.0-25.0","631b485e2d1909111a6fb09a","665500ab8938657b03fbdba8","665792a26003e3601401a61d","3920","stimuli/2110011.jpg","2","","prediction_trial","2","","true","","2","false","false","true","true","false","false","[2]","110","011","1","","","","","","",""
"","","","","","image-keyboard-response","51","211614","0.0-26.0","631b485e2d1909111a6fb09a","665500ab8938657b03fbdba8","665792a26003e3601401a61d","460","stimuli/21100112.jpg"," ","","feedback_trial","2","","","","","","","","","","","","","","","","","","","","",""
"","","","","","image-keyboard-response","52","212273","0.0-27.0","631b485e2d1909111a6fb09a","665500ab8938657b03fbdba8","665792a26003e3601401a61d","659","stimuli/0000010.jpg","0","","prediction_trial","0","","true","","0","true","true","true","true","true","true","[0]","000","010","1","","","","","","",""
"","","","","","image-keyboard-response","53","212481","0.0-28.0","631b485e2d1909111a6fb09a","665500ab8938657b03fbdba8","665792a26003e3601401a61d","207","stimuli/00000100.jpg"," ","","feedback_trial","0","","","","","","","","","","","","","","","","","","","","",""
"","","","","","image-keyboard-response","54","213139","0.0-29.0","631b485e2d1909111a6fb09a","665500ab8938657b03fbdba8","665792a26003e3601401a61d","657","stimuli/1101000.jpg","1","","prediction_trial","1","","true","","1","true","true","true","true","true","true","[1]","101","000","1","","","","","","",""
"","","","","","image-keyboard-response","55","213463","0.0-30.0","631b485e2d1909111a6fb09a","665500ab8938657b03fbdba8","665792a26003e3601401a61d","323","stimuli/11010001.jpg"," ","","feedback_trial","1","","","","","","","","","","","","","","","","","","","","",""
"","","","","","image-keyboard-response","56","214009","0.0-31.0","631b485e2d1909111a6fb09a","665500ab8938657b03fbdba8","665792a26003e3601401a61d","545","stimuli/0000001.jpg","0","","prediction_trial","0","","true","","0","true","true","true","true","true","true","[0]","000","001","1","","","","","","",""
"","","","","","image-keyboard-response","57","214253","0.0-32.0","631b485e2d1909111a6fb09a","665500ab8938657b03fbdba8","665792a26003e3601401a61d","244","stimuli/00000010.jpg"," ","","feedback_trial","0","","","","","","","","","","","","","","","","","","","","",""
"","","","","","image-keyboard-response","58","215198","0.0-33.0","631b485e2d1909111a6fb09a","665500ab8938657b03fbdba8","665792a26003e3601401a61d","944","stimuli/0101001.jpg","0","","prediction_trial","2","","false","","0","true","true","false","false","false","false","[0,2]","101","001","0","","","","","","",""
"","","","","","image-keyboard-response","59","215604","0.0-34.0","631b485e2d1909111a6fb09a","665500ab8938657b03fbdba8","665792a26003e3601401a61d","406","stimuli/01010012.jpg"," ","","feedback_trial","0","","","","","","","","","","","","","","","","","","","","",""
"","","","","","image-keyboard-response","60","217776","0.0-35.0","631b485e2d1909111a6fb09a","665500ab8938657b03fbdba8","665792a26003e3601401a61d","2171","stimuli/0111111.jpg","0","","prediction_trial","1","","false","","0","false","false","false","false","false","false","[2,0,1]","111","111","0","","","","","","",""
"","","","","","image-keyboard-response","61","218337","0.0-36.0","631b485e2d1909111a6fb09a","665500ab8938657b03fbdba8","665792a26003e3601401a61d","560","stimuli/01111111.jpg"," ","","feedback_trial","2","","","","","","","","","","","","","","","","","","","","",""
"","","","","","image-keyboard-response","62","223944","0.0-37.0","631b485e2d1909111a6fb09a","665500ab8938657b03fbdba8","665792a26003e3601401a61d","5607","stimuli/1010110.jpg","0","","prediction_trial","1","","false","","1","false","false","false","true","false","false","[1]","010","110","0","","","","","","",""
"","","","","","image-keyboard-response","63","224476","0.0-38.0","631b485e2d1909111a6fb09a","665500ab8938657b03fbdba8","665792a26003e3601401a61d","531","stimuli/10101101.jpg"," ","","feedback_trial","1","","","","","","","","","","","","","","","","","","","","",""
"","","","","","image-keyboard-response","64","225513","0.0-39.0","631b485e2d1909111a6fb09a","665500ab8938657b03fbdba8","665792a26003e3601401a61d","1036","stimuli/2101100.jpg","2","","prediction_trial","2","","true","","2","true","true","false","false","false","false","[2,0]","101","100","1","","","","","","",""
"","","","","","image-keyboard-response","65","225823","0.0-40.0","631b485e2d1909111a6fb09a","665500ab8938657b03fbdba8","665792a26003e3601401a61d","309","stimuli/21011002.jpg"," ","","feedback_trial","2","","","","","","","","","","","","","","","","","","","","",""
"","","","","","image-keyboard-response","66","229224","0.0-41.0","631b485e2d1909111a6fb09a","665500ab8938657b03fbdba8","665792a26003e3601401a61d","3401","stimuli/2001011.jpg","1","","prediction_trial","2","","false","","2","false","false","false","true","false","false","[2]","001","011","0","","","","","","",""
"","","","","","image-keyboard-response","67","229710","0.0-42.0","631b485e2d1909111a6fb09a","665500ab8938657b03fbdba8","665792a26003e3601401a61d","485","stimuli/20010112.jpg"," ","","feedback_trial","2","","","","","","","","","","","","","","","","","","","","",""
"","","","","","image-keyboard-response","68","231329","0.0-43.0","631b485e2d1909111a6fb09a","665500ab8938657b03fbdba8","665792a26003e3601401a61d","1618","stimuli/1111001.jpg","1","","prediction_trial","1","","true","","1","true","true","false","false","false","false","[1,0,2]","111","001","1","","","","","","",""
"","","","","","image-keyboard-response","69","231662","0.0-44.0","631b485e2d1909111a6fb09a","665500ab8938657b03fbdba8","665792a26003e3601401a61d","332","stimuli/11110011.jpg"," ","","feedback_trial","1","","","","","","","","","","","","","","","","","","","","",""
"","","","","","image-keyboard-response","70","232544","0.0-45.0","631b485e2d1909111a6fb09a","665500ab8938657b03fbdba8","665792a26003e3601401a61d","882","stimuli/0011010.jpg","0","","prediction_trial","0","","true","","0","true","true","true","true","true","true","[0]","011","010","1","","","","","","",""
"","","","","","image-keyboard-response","71","232807","0.0-46.0","631b485e2d1909111a6fb09a","665500ab8938657b03fbdba8","665792a26003e3601401a61d","262","stimuli/00110100.jpg"," ","","feedback_trial","0","","","","","","","","","","","","","","","","","","","","",""
"","","","","","image-keyboard-response","72","233300","0.0-47.0","631b485e2d1909111a6fb09a","665500ab8938657b03fbdba8","665792a26003e3601401a61d","493","stimuli/1010000.jpg","1","","prediction_trial","1","","true","","1","true","true","false","true","false","true","[1]","010","000","1","","","","","","",""
"","","","","","image-keyboard-response","73","233549","0.0-48.0","631b485e2d1909111a6fb09a","665500ab8938657b03fbdba8","665792a26003e3601401a61d","248","stimuli/10100001.jpg"," ","","feedback_trial","1","","","","","","","","","","","","","","","","","","","","",""
"","","","","","image-keyboard-response","74","235783","0.0-49.0","631b485e2d1909111a6fb09a","665500ab8938657b03fbdba8","665792a26003e3601401a61d","2233","stimuli/2011111.jpg","2","","prediction_trial","1","","false","","2","false","false","false","false","false","false","[1,2]","011","111","0","","","","","","",""
"","","","","","image-keyboard-response","75","236272","0.0-50.0","631b485e2d1909111a6fb09a","665500ab8938657b03fbdba8","665792a26003e3601401a61d","489","stimuli/20111111.jpg"," ","","feedback_trial","1","","","","","","","","","","","","","","","","","","","","",""
"","","","","","image-keyboard-response","76","240569","0.0-51.0","631b485e2d1909111a6fb09a","665500ab8938657b03fbdba8","665792a26003e3601401a61d","4296","stimuli/2100111.jpg","1","","prediction_trial","2","","false","","2","false","false","true","true","false","false","[2]","100","111","0","","","","","","",""
"","","","","","image-keyboard-response","77","240960","0.0-52.0","631b485e2d1909111a6fb09a","665500ab8938657b03fbdba8","665792a26003e3601401a61d","390","stimuli/21001112.jpg"," ","","feedback_trial","2","","","","","","","","","","","","","","","","","","","","",""
"","","","","","image-keyboard-response","78","241743","0.0-53.0","631b485e2d1909111a6fb09a","665500ab8938657b03fbdba8","665792a26003e3601401a61d","782","stimuli/2100110.jpg","2","","prediction_trial","2","","true","","2","true","true","true","true","true","true","[2]","100","110","1","","","","","","",""
"","","","","","image-keyboard-response","79","241947","0.0-54.0","631b485e2d1909111a6fb09a","665500ab8938657b03fbdba8","665792a26003e3601401a61d","204","stimuli/21001102.jpg"," ","","feedback_trial","2","","","","","","","","","","","","","","","","","","","","",""
"","","","","","image-keyboard-response","80","244211","0.0-55.0","631b485e2d1909111a6fb09a","665500ab8938657b03fbdba8","665792a26003e3601401a61d","2263","stimuli/0111101.jpg","1","","prediction_trial","2","","false","","0","false","false","false","false","false","false","[2,1,0]","111","101","0","","","","","","",""
"","","","","","image-keyboard-response","81","244899","0.0-56.0","631b485e2d1909111a6fb09a","665500ab8938657b03fbdba8","665792a26003e3601401a61d","688","stimuli/01111012.jpg"," ","","feedback_trial","2","","","","","","","","","","","","","","","","","","","","",""
"","","","","","image-keyboard-response","82","247159","0.0-57.0","631b485e2d1909111a6fb09a","665500ab8938657b03fbdba8","665792a26003e3601401a61d","2259","stimuli/1000110.jpg","0","","prediction_trial","1","","false","","1","false","false","true","true","false","false","[1]","000","110","0","","","","","","",""
"","","","","","image-keyboard-response","83","247858","0.0-58.0","631b485e2d1909111a6fb09a","665500ab8938657b03fbdba8","665792a26003e3601401a61d","698","stimuli/10001101.jpg"," ","","feedback_trial","1","","","","","","","","","","","","","","","","","","","","",""
"","","","","","image-keyboard-response","84","250416","0.0-59.0","631b485e2d1909111a6fb09a","665500ab8938657b03fbdba8","665792a26003e3601401a61d","2558","stimuli/2000111.jpg","1","","prediction_trial","2","","false","","2","false","false","true","true","false","false","[2]","000","111","0","","","","","","",""
"","","","","","image-keyboard-response","85","250794","0.0-60.0","631b485e2d1909111a6fb09a","665500ab8938657b03fbdba8","665792a26003e3601401a61d","377","stimuli/20001112.jpg"," ","","feedback_trial","2","","","","","","","","","","","","","","","","","","","","",""
"","","","","","image-keyboard-response","86","251597","0.0-61.0","631b485e2d1909111a6fb09a","665500ab8938657b03fbdba8","665792a26003e3601401a61d","802","stimuli/2100000.jpg","2","","prediction_trial","2","","true","","2","true","true","true","true","true","true","[2]","100","000","1","","","","","","",""
"","","","","","image-keyboard-response","87","251848","0.0-62.0","631b485e2d1909111a6fb09a","665500ab8938657b03fbdba8","665792a26003e3601401a61d","251","stimuli/21000002.jpg"," ","","feedback_trial","2","","","","","","","","","","","","","","","","","","","","",""
"","","","","","image-keyboard-response","88","254743","0.0-63.0","631b485e2d1909111a6fb09a","665500ab8938657b03fbdba8","665792a26003e3601401a61d","2894","stimuli/0101100.jpg","0","","prediction_trial","2","","false","","0","false","true","false","false","false","false","[2,0]","101","100","0","","","","","","",""
"","","","","","image-keyboard-response","89","255862","0.0-64.0","631b485e2d1909111a6fb09a","665500ab8938657b03fbdba8","665792a26003e3601401a61d","1118","stimuli/01011002.jpg"," ","","feedback_trial","2","","","","","","","","","","","","","","","","","","","","",""
"","","","","","image-keyboard-response","90","256852","0.0-65.0","631b485e2d1909111a6fb09a","665500ab8938657b03fbdba8","665792a26003e3601401a61d","990","stimuli/1001001.jpg","1","","prediction_trial","1","","true","","1","true","true","true","true","true","true","[1]","001","001","1","","","","","","",""
"","","","","","image-keyboard-response","91","257399","0.0-66.0","631b485e2d1909111a6fb09a","665500ab8938657b03fbdba8","665792a26003e3601401a61d","546","stimuli/10010011.jpg"," ","","feedback_trial","1","","","","","","","","","","","","","","","","","","","","",""
"","","","","","image-keyboard-response","92","259738","0.0-67.0","631b485e2d1909111a6fb09a","665500ab8938657b03fbdba8","665792a26003e3601401a61d","2338","stimuli/0111110.jpg","1","","prediction_trial","1","","true","","0","false","false","false","false","false","false","[1,2,0]","111","110","1","","","","","","",""
"","","","","","image-keyboard-response","93","260042","0.0-68.0","631b485e2d1909111a6fb09a","665500ab8938657b03fbdba8","665792a26003e3601401a61d","303","stimuli/01111101.jpg"," ","","feedback_trial","1","","","","","","","","","","","","","","","","","","","","",""
"","","","","","image-keyboard-response","94","260787","0.0-69.0","631b485e2d1909111a6fb09a","665500ab8938657b03fbdba8","665792a26003e3601401a61d","744","stimuli/1011001.jpg","1","","prediction_trial","2","","false","","1","true","true","false","false","false","false","[2,1]","011","001","0","","","","","","",""
"","","","","","image-keyboard-response","95","260908","0.0-70.0","631b485e2d1909111a6fb09a","665500ab8938657b03fbdba8","665792a26003e3601401a61d","120","stimuli/10110012.jpg"," ","","feedback_trial","2","","","","","","","","","","","","","","","","","","","","",""
"","","","","","image-keyboard-response","96","263462","0.0-71.0","631b485e2d1909111a6fb09a","665500ab8938657b03fbdba8","665792a26003e3601401a61d","2554","stimuli/1110111.jpg","2","","prediction_trial","1","","false","","1","false","false","false","false","false","false","[1,0]","110","111","0","","","","","","",""
"","","","","","image-keyboard-response","97","264182","0.0-72.0","631b485e2d1909111a6fb09a","665500ab8938657b03fbdba8","665792a26003e3601401a61d","718","stimuli/11101111.jpg"," ","","feedback_trial","1","","","","","","","","","","","","","","","","","","","","",""
"","","","","","image-keyboard-response","98","264809","0.0-73.0","631b485e2d1909111a6fb09a","665500ab8938657b03fbdba8","665792a26003e3601401a61d","626","stimuli/2100100.jpg","2","","prediction_trial","2","","true","","2","true","true","true","true","true","true","[2]","100","100","1","","","","","","",""
"","","","","","image-keyboard-response","99","265095","0.0-74.0","631b485e2d1909111a6fb09a","665500ab8938657b03fbdba8","665792a26003e3601401a61d","286","stimuli/21001002.jpg"," ","","feedback_trial","2","","","","","","","","","","","","","","","","","","","","",""
"","","","","","image-keyboard-response","100","265911","0.0-75.0","631b485e2d1909111a6fb09a","665500ab8938657b03fbdba8","665792a26003e3601401a61d","815","stimuli/2101010.jpg","2","","prediction_trial","0","","false","","2","true","true","false","false","false","false","[2,0]","101","010","0","","","","","","",""
"","","","","","image-keyboard-response","101","266141","0.0-76.0","631b485e2d1909111a6fb09a","665500ab8938657b03fbdba8","665792a26003e3601401a61d","230","stimuli/21010100.jpg"," ","","feedback_trial","2","","","","","","","","","","","","","","","","","","","","",""
"","","","","","image-keyboard-response","102","266829","0.0-77.0","631b485e2d1909111a6fb09a","665500ab8938657b03fbdba8","665792a26003e3601401a61d","687","stimuli/2101000.jpg","2","","prediction_trial","2","","true","","2","true","true","false","false","false","false","[0,2]","101","000","1","","","","","","",""
"","","","","","image-keyboard-response","103","267067","0.0-78.0","631b485e2d1909111a6fb09a","665500ab8938657b03fbdba8","665792a26003e3601401a61d","238","stimuli/21010002.jpg"," ","","feedback_trial","0","","","","","","","","","","","","","","","","","","","","",""
"","","","","","image-keyboard-response","104","269972","0.0-79.0","631b485e2d1909111a6fb09a","665500ab8938657b03fbdba8","665792a26003e3601401a61d","2904","stimuli/2111011.jpg","2","","prediction_trial","2","","true","","2","false","false","false","false","false","false","[0,1,2]","111","011","1","","","","","","",""
"","","","","","image-keyboard-response","105","270341","0.0-80.0","631b485e2d1909111a6fb09a","665500ab8938657b03fbdba8","665792a26003e3601401a61d","368","stimuli/21110112.jpg"," ","","feedback_trial","0","","","","","","","","","","","","","","","","","","","","",""
"","","","","","image-keyboard-response","106","272439","0.0-81.0","631b485e2d1909111a6fb09a","665500ab8938657b03fbdba8","665792a26003e3601401a61d","2097","stimuli/1100100.jpg","1","","prediction_trial","1","","true","","1","true","true","true","true","true","true","[1]","100","100","1","","","","","","",""
"","","","","","image-keyboard-response","107","272669","0.0-82.0","631b485e2d1909111a6fb09a","665500ab8938657b03fbdba8","665792a26003e3601401a61d","230","stimuli/11001001.jpg"," ","","feedback_trial","1","","","","","","","","","","","","","","","","","","","","",""
"","","","","","image-keyboard-response","108","274888","0.0-83.0","631b485e2d1909111a6fb09a","665500ab8938657b03fbdba8","665792a26003e3601401a61d","2219","stimuli/1101011.jpg","2","","prediction_trial","1","","false","","1","false","false","true","true","false","false","[1]","101","011","0","","","","","","",""
"","","","","","image-keyboard-response","109","275375","0.0-84.0","631b485e2d1909111a6fb09a","665500ab8938657b03fbdba8","665792a26003e3601401a61d","487","stimuli/11010111.jpg"," ","","feedback_trial","1","","","","","","","","","","","","","","","","","","","","",""
"","","","","","image-keyboard-response","110","279831","0.0-85.0","631b485e2d1909111a6fb09a","665500ab8938657b03fbdba8","665792a26003e3601401a61d","4455","stimuli/2110101.jpg","2","","prediction_trial","2","","true","","2","false","false","true","true","false","false","[2]","110","101","1","","","","","","",""
"","","","","","image-keyboard-response","111","280215","0.0-86.0","631b485e2d1909111a6fb09a","665500ab8938657b03fbdba8","665792a26003e3601401a61d","383","stimuli/21101012.jpg"," ","","feedback_trial","2","","","","","","","","","","","","","","","","","","","","",""
"","","","","","image-keyboard-response","112","280955","0.0-87.0","631b485e2d1909111a6fb09a","665500ab8938657b03fbdba8","665792a26003e3601401a61d","739","stimuli/2011000.jpg","2","","prediction_trial","2","","true","","2","true","true","false","false","false","false","[2,1]","011","000","1","","","","","","",""
"","","","","","image-keyboard-response","113","281256","0.0-88.0","631b485e2d1909111a6fb09a","665500ab8938657b03fbdba8","665792a26003e3601401a61d","301","stimuli/20110002.jpg"," ","","feedback_trial","2","","","","","","","","","","","","","","","","","","","","",""
"","","","","","image-keyboard-response","114","281988","0.0-89.0","631b485e2d1909111a6fb09a","665500ab8938657b03fbdba8","665792a26003e3601401a61d","732","stimuli/0111001.jpg","0","","prediction_trial","0","","true","","0","true","true","false","false","false","false","[0,1,2]","111","001","1","","","","","","",""
"","","","","","image-keyboard-response","115","282292","0.0-90.0","631b485e2d1909111a6fb09a","665500ab8938657b03fbdba8","665792a26003e3601401a61d","303","stimuli/01110010.jpg"," ","","feedback_trial","0","","","","","","","","","","","","","","","","","","","","",""
"","","","","","image-keyboard-response","116","283012","0.0-91.0","631b485e2d1909111a6fb09a","665500ab8938657b03fbdba8","665792a26003e3601401a61d","720","stimuli/2011010.jpg","2","","prediction_trial","1","","false","","2","true","true","false","false","false","false","[1,2]","011","010","0","","","","","","",""
"","","","","","image-keyboard-response","117","283742","0.0-92.0","631b485e2d1909111a6fb09a","665500ab8938657b03fbdba8","665792a26003e3601401a61d","728","stimuli/20110101.jpg"," ","","feedback_trial","1","","","","","","","","","","","","","","","","","","","","",""
"","","","","","image-keyboard-response","118","285811","0.0-93.0","631b485e2d1909111a6fb09a","665500ab8938657b03fbdba8","665792a26003e3601401a61d","2069","stimuli/0000110.jpg","0","","prediction_trial","0","","true","","0","false","false","true","true","false","false","[0]","000","110","1","","","","","","",""
"","","","","","image-keyboard-response","119","286173","0.0-94.0","631b485e2d1909111a6fb09a","665500ab8938657b03fbdba8","665792a26003e3601401a61d","362","stimuli/00001100.jpg"," ","","feedback_trial","0","","","","","","","","","","","","","","","","","","","","",""
"","","","","","image-keyboard-response","120","286789","0.0-95.0","631b485e2d1909111a6fb09a","665500ab8938657b03fbdba8","665792a26003e3601401a61d","615","stimuli/0001011.jpg","0","","prediction_trial","0","","true","","0","true","true","true","true","true","true","[0]","001","011","1","","","","","","",""
"","","","","","image-keyboard-response","121","287041","0.0-96.0","631b485e2d1909111a6fb09a","665500ab8938657b03fbdba8","665792a26003e3601401a61d","251","stimuli/00010110.jpg"," ","","feedback_trial","0","","","","","","","","","","","","","","","","","","","","",""
"","","","","","image-keyboard-response","122","289703","0.0-97.0","631b485e2d1909111a6fb09a","665500ab8938657b03fbdba8","665792a26003e3601401a61d","2662","stimuli/2000001.jpg","2","","prediction_trial","2","","true","","2","false","true","true","true","false","true","[2]","000","001","1","","","","","","",""
"","","","","","image-keyboard-response","123","290431","0.0-98.0","631b485e2d1909111a6fb09a","665500ab8938657b03fbdba8","665792a26003e3601401a61d","727","stimuli/20000012.jpg"," ","","feedback_trial","2","","","","","","","","","","","","","","","","","","","","",""
"","","","","","image-keyboard-response","124","294477","0.0-99.0","631b485e2d1909111a6fb09a","665500ab8938657b03fbdba8","665792a26003e3601401a61d","4045","stimuli/1010011.jpg","1","","prediction_trial","1","","true","","1","false","false","false","true","false","false","[1]","010","011","1","","","","","","",""
"","","","","","image-keyboard-response","125","294936","0.0-100.0","631b485e2d1909111a6fb09a","665500ab8938657b03fbdba8","665792a26003e3601401a61d","459","stimuli/10100111.jpg"," ","","feedback_trial","1","","","","","","","","","","","","","","","","","","","","",""
"","","","","","image-keyboard-response","126","295621","0.0-101.0","631b485e2d1909111a6fb09a","665500ab8938657b03fbdba8","665792a26003e3601401a61d","684","stimuli/1001101.jpg","1","","prediction_trial","1","","true","","1","true","true","true","true","true","true","[1]","001","101","1","","","","","","",""
"","","","","","image-keyboard-response","127","295847","0.0-102.0","631b485e2d1909111a6fb09a","665500ab8938657b03fbdba8","665792a26003e3601401a61d","226","stimuli/10011011.jpg"," ","","feedback_trial","1","","","","","","","","","","","","","","","","","","","","",""
"","","","","","image-keyboard-response","128","296539","0.0-103.0","631b485e2d1909111a6fb09a","665500ab8938657b03fbdba8","665792a26003e3601401a61d","691","stimuli/2001110.jpg","2","","prediction_trial","2","","true","","2","true","true","false","true","false","true","[2]","001","110","1","","","","","","",""
"","","","","","image-keyboard-response","129","296799","0.0-104.0","631b485e2d1909111a6fb09a","665500ab8938657b03fbdba8","665792a26003e3601401a61d","260","stimuli/20011102.jpg"," ","","feedback_trial","2","","","","","","","","","","","","","","","","","","","","",""
"","","","","","image-keyboard-response","130","300395","0.0-105.0","631b485e2d1909111a6fb09a","665500ab8938657b03fbdba8","665792a26003e3601401a61d","3596","stimuli/1111110.jpg","0","","prediction_trial","2","","false","","1","false","false","false","false","false","false","[0,2,1]","111","110","0","","","","","","",""
"","","","","","image-keyboard-response","131","300789","0.0-106.0","631b485e2d1909111a6fb09a","665500ab8938657b03fbdba8","665792a26003e3601401a61d","393","stimuli/11111102.jpg"," ","","feedback_trial","0","","","","","","","","","","","","","","","","","","","","",""
"","","","","","image-keyboard-response","132","301465","0.0-107.0","631b485e2d1909111a6fb09a","665500ab8938657b03fbdba8","665792a26003e3601401a61d","675","stimuli/2011110.jpg","2","","prediction_trial","2","","true","","2","true","true","false","false","false","false","[1,2]","011","110","1","","","","","","",""
"","","","","","image-keyboard-response","133","301773","0.0-108.0","631b485e2d1909111a6fb09a","665500ab8938657b03fbdba8","665792a26003e3601401a61d","308","stimuli/20111102.jpg"," ","","feedback_trial","1","","","","","","","","","","","","","","","","","","","","",""
"","","","","","image-keyboard-response","134","308564","0.0-109.0","631b485e2d1909111a6fb09a","665500ab8938657b03fbdba8","665792a26003e3601401a61d","6790","stimuli/0100101.jpg","0","","prediction_trial","0","","true","","0","false","false","false","true","false","false","[0]","100","101","1","","","","","","",""
"","","","","","image-keyboard-response","135","308902","0.0-110.0","631b485e2d1909111a6fb09a","665500ab8938657b03fbdba8","665792a26003e3601401a61d","337","stimuli/01001010.jpg"," ","","feedback_trial","0","","","","","","","","","","","","","","","","","","","","",""
"","","","","","image-keyboard-response","136","311796","0.0-111.0","631b485e2d1909111a6fb09a","665500ab8938657b03fbdba8","665792a26003e3601401a61d","2893","stimuli/2000011.jpg","1","","prediction_trial","2","","false","","2","false","false","true","true","false","false","[2]","000","011","0","","","","","","",""
"","","","","","image-keyboard-response","137","312120","0.0-112.0","631b485e2d1909111a6fb09a","665500ab8938657b03fbdba8","665792a26003e3601401a61d","323","stimuli/20000112.jpg"," ","","feedback_trial","2","","","","","","","","","","","","","","","","","","","","",""
"","","","","","image-keyboard-response","138","312749","0.0-113.0","631b485e2d1909111a6fb09a","665500ab8938657b03fbdba8","665792a26003e3601401a61d","629","stimuli/2111100.jpg","2","","prediction_trial","2","","true","","2","true","true","false","false","false","false","[0,1,2]","111","100","1","","","","","","",""
"","","","","","image-keyboard-response","139","312979","0.0-114.0","631b485e2d1909111a6fb09a","665500ab8938657b03fbdba8","665792a26003e3601401a61d","229","stimuli/21111002.jpg"," ","","feedback_trial","0","","","","","","","","","","","","","","","","","","","","",""
"","","","","","image-keyboard-response","140","318433","0.0-115.0","631b485e2d1909111a6fb09a","665500ab8938657b03fbdba8","665792a26003e3601401a61d","5453","stimuli/2010101.jpg","2","","prediction_trial","2","","true","","2","false","false","true","true","false","false","[2]","010","101","1","","","","","","",""
"","","","","","image-keyboard-response","141","318758","0.0-116.0","631b485e2d1909111a6fb09a","665500ab8938657b03fbdba8","665792a26003e3601401a61d","325","stimuli/20101012.jpg"," ","","feedback_trial","2","","","","","","","","","","","","","","","","","","","","",""
"","","","","","image-keyboard-response","142","319394","0.0-117.0","631b485e2d1909111a6fb09a","665500ab8938657b03fbdba8","665792a26003e3601401a61d","635","stimuli/0011001.jpg","0","","prediction_trial","0","","true","","0","true","true","true","true","true","true","[0]","011","001","1","","","","","","",""
"","","","","","image-keyboard-response","143","319566","0.0-118.0","631b485e2d1909111a6fb09a","665500ab8938657b03fbdba8","665792a26003e3601401a61d","171","stimuli/00110010.jpg"," ","","feedback_trial","0","","","","","","","","","","","","","","","","","","","","",""
"","","","","","image-keyboard-response","144","322524","0.0-119.0","631b485e2d1909111a6fb09a","665500ab8938657b03fbdba8","665792a26003e3601401a61d","2958","stimuli/0010110.jpg","1","","prediction_trial","0","","false","","0","false","false","true","true","false","false","[0]","010","110","0","","","","","","",""
"","","","","","image-keyboard-response","145","322971","0.0-120.0","631b485e2d1909111a6fb09a","665500ab8938657b03fbdba8","665792a26003e3601401a61d","447","stimuli/00101100.jpg"," ","","feedback_trial","0","","","","","","","","","","","","","","","","","","","","",""
"","","","","","image-keyboard-response","146","323662","0.0-121.0","631b485e2d1909111a6fb09a","665500ab8938657b03fbdba8","665792a26003e3601401a61d","691","stimuli/0100010.jpg","0","","prediction_trial","0","","true","","0","true","true","false","true","false","true","[0]","100","010","1","","","","","","",""
"","","","","","image-keyboard-response","147","324037","0.0-122.0","631b485e2d1909111a6fb09a","665500ab8938657b03fbdba8","665792a26003e3601401a61d","374","stimuli/01000100.jpg"," ","","feedback_trial","0","","","","","","","","","","","","","","","","","","","","",""
"","","","","","image-keyboard-response","148","326669","0.0-123.0","631b485e2d1909111a6fb09a","665500ab8938657b03fbdba8","665792a26003e3601401a61d","2632","stimuli/2111101.jpg","2","","prediction_trial","0","","false","","2","false","false","false","false","false","false","[1,2,0]","111","101","0","","","","","","",""
"","","","","","image-keyboard-response","149","327094","0.0-124.0","631b485e2d1909111a6fb09a","665500ab8938657b03fbdba8","665792a26003e3601401a61d","424","stimuli/21111010.jpg"," ","","feedback_trial","1","","","","","","","","","","","","","","","","","","","","",""
"","","","","","image-keyboard-response","150","329305","0.0-125.0","631b485e2d1909111a6fb09a","665500ab8938657b03fbdba8","665792a26003e3601401a61d","2210","stimuli/1000011.jpg","1","","prediction_trial","1","","true","","1","false","false","true","true","false","false","[1]","000","011","1","","","","","","",""
"","","","","","image-keyboard-response","151","329688","0.0-126.0","631b485e2d1909111a6fb09a","665500ab8938657b03fbdba8","665792a26003e3601401a61d","382","stimuli/10000111.jpg"," ","","feedback_trial","1","","","","","","","","","","","","","","","","","","","","",""
"","","","","","image-keyboard-response","152","332065","0.0-127.0","631b485e2d1909111a6fb09a","665500ab8938657b03fbdba8","665792a26003e3601401a61d","2376","stimuli/1011011.jpg","2","","prediction_trial","2","","true","","1","false","false","false","false","false","false","[2,1]","011","011","1","","","","","","",""
"","","","","","image-keyboard-response","153","332427","0.0-128.0","631b485e2d1909111a6fb09a","665500ab8938657b03fbdba8","665792a26003e3601401a61d","361","stimuli/10110112.jpg"," ","","feedback_trial","2","","","","","","","","","","","","","","","","","","","","",""
"","","","","","image-keyboard-response","154","332964","0.0-129.0","631b485e2d1909111a6fb09a","665500ab8938657b03fbdba8","665792a26003e3601401a61d","536","stimuli/2111000.jpg","2","","prediction_trial","0","","false","","2","true","true","false","false","false","false","[1,2,0]","111","000","0","","","","","","",""
"","","","","","image-keyboard-response","155","333185","0.0-130.0","631b485e2d1909111a6fb09a","665500ab8938657b03fbdba8","665792a26003e3601401a61d","221","stimuli/21110000.jpg"," ","","feedback_trial","1","","","","","","","","","","","","","","","","","","","","",""
"","","","","","image-keyboard-response","156","333900","0.0-131.0","631b485e2d1909111a6fb09a","665500ab8938657b03fbdba8","665792a26003e3601401a61d","714","stimuli/1110001.jpg","1","","prediction_trial","0","","false","","1","true","true","false","false","false","false","[1,0]","110","001","0","","","","","","",""
"","","","","","image-keyboard-response","157","334120","0.0-132.0","631b485e2d1909111a6fb09a","665500ab8938657b03fbdba8","665792a26003e3601401a61d","220","stimuli/11100010.jpg"," ","","feedback_trial","1","","","","","","","","","","","","","","","","","","","","",""
"","","","","","image-keyboard-response","158","334596","0.0-133.0","631b485e2d1909111a6fb09a","665500ab8938657b03fbdba8","665792a26003e3601401a61d","476","stimuli/1011101.jpg","1","","prediction_trial","2","","false","","1","true","true","false","false","false","false","[2,1]","011","101","0","","","","","","",""
"","","","","","image-keyboard-response","159","334821","0.0-134.0","631b485e2d1909111a6fb09a","665500ab8938657b03fbdba8","665792a26003e3601401a61d","224","stimuli/10111012.jpg"," ","","feedback_trial","2","","","","","","","","","","","","","","","","","","","","",""
"","","","","","image-keyboard-response","160","335250","0.0-135.0","631b485e2d1909111a6fb09a","665500ab8938657b03fbdba8","665792a26003e3601401a61d","429","stimuli/1110000.jpg","1","","prediction_trial","0","","false","","1","true","true","false","false","false","false","[1,0]","110","000","0","","","","","","",""
"","","","","","image-keyboard-response","161","335469","0.0-136.0","631b485e2d1909111a6fb09a","665500ab8938657b03fbdba8","665792a26003e3601401a61d","219","stimuli/11100000.jpg"," ","","feedback_trial","1","","","","","","","","","","","","","","","","","","","","",""
"","","","","","image-keyboard-response","162","338040","0.0-137.0","631b485e2d1909111a6fb09a","665500ab8938657b03fbdba8","665792a26003e3601401a61d","2570","stimuli/2100011.jpg","2","","prediction_trial","2","","true","","2","false","false","true","true","false","false","[2]","100","011","1","","","","","","",""
"","","","","","image-keyboard-response","163","338303","0.0-138.0","631b485e2d1909111a6fb09a","665500ab8938657b03fbdba8","665792a26003e3601401a61d","262","stimuli/21000112.jpg"," ","","feedback_trial","2","","","","","","","","","","","","","","","","","","","","",""
"","","","","","image-keyboard-response","164","338923","0.0-139.0","631b485e2d1909111a6fb09a","665500ab8938657b03fbdba8","665792a26003e3601401a61d","620","stimuli/0101000.jpg","0","","prediction_trial","0","","true","","0","true","true","false","false","false","false","[0,2]","101","000","1","","","","","","",""
"","","","","","image-keyboard-response","165","339144","0.0-140.0","631b485e2d1909111a6fb09a","665500ab8938657b03fbdba8","665792a26003e3601401a61d","220","stimuli/01010000.jpg"," ","","feedback_trial","0","","","","","","","","","","","","","","","","","","","","",""
"","","","","","image-keyboard-response","166","339757","0.0-141.0","631b485e2d1909111a6fb09a","665500ab8938657b03fbdba8","665792a26003e3601401a61d","612","stimuli/0100011.jpg","0","","prediction_trial","0","","true","","0","true","true","false","true","false","true","[0]","100","011","1","","","","","","",""
"","","","","","image-keyboard-response","167","339958","0.0-142.0","631b485e2d1909111a6fb09a","665500ab8938657b03fbdba8","665792a26003e3601401a61d","200","stimuli/01000110.jpg"," ","","feedback_trial","0","","","","","","","","","","","","","","","","","","","","",""
"","","","","","image-keyboard-response","168","340559","0.0-143.0","631b485e2d1909111a6fb09a","665500ab8938657b03fbdba8","665792a26003e3601401a61d","601","stimuli/2001000.jpg","2","","prediction_trial","2","","true","","2","true","true","false","true","false","true","[2]","001","000","1","","","","","","",""
"","","","","","image-keyboard-response","169","340745","0.0-144.0","631b485e2d1909111a6fb09a","665500ab8938657b03fbdba8","665792a26003e3601401a61d","185","stimuli/20010002.jpg"," ","","feedback_trial","2","","","","","","","","","","","","","","","","","","","","",""
"","","","","","image-keyboard-response","170","346822","0.0-145.0","631b485e2d1909111a6fb09a","665500ab8938657b03fbdba8","665792a26003e3601401a61d","6077","stimuli/0001101.jpg","0","","prediction_trial","0","","true","","0","false","false","true","true","false","false","[0]","001","101","1","","","","","","",""
"","","","","","image-keyboard-response","171","347413","0.0-146.0","631b485e2d1909111a6fb09a","665500ab8938657b03fbdba8","665792a26003e3601401a61d","590","stimuli/00011010.jpg"," ","","feedback_trial","0","","","","","","","","","","","","","","","","","","","","",""
"","","","","","image-keyboard-response","172","347956","0.0-147.0","631b485e2d1909111a6fb09a","665500ab8938657b03fbdba8","665792a26003e3601401a61d","543","stimuli/1110100.jpg","1","","prediction_trial","0","","false","","1","true","true","false","false","false","false","[0,1]","110","100","0","","","","","","",""
"","","","","","image-keyboard-response","173","348146","0.0-148.0","631b485e2d1909111a6fb09a","665500ab8938657b03fbdba8","665792a26003e3601401a61d","190","stimuli/11101000.jpg"," ","","feedback_trial","0","","","","","","","","","","","","","","","","","","","","",""
"","","","","","image-keyboard-response","174","350157","0.0-149.0","631b485e2d1909111a6fb09a","665500ab8938657b03fbdba8","665792a26003e3601401a61d","2010","stimuli/0011100.jpg","0","","prediction_trial","0","","true","","0","false","true","true","true","false","true","[0]","011","100","1","","","","","","",""
"","","","","","image-keyboard-response","175","350627","0.0-150.0","631b485e2d1909111a6fb09a","665500ab8938657b03fbdba8","665792a26003e3601401a61d","470","stimuli/00111000.jpg"," ","","feedback_trial","0","","","","","","","","","","","","","","","","","","","","",""
"","","","","","image-keyboard-response","176","355061","0.0-151.0","631b485e2d1909111a6fb09a","665500ab8938657b03fbdba8","665792a26003e3601401a61d","4433","stimuli/2000101.jpg","2","","prediction_trial","2","","true","","2","false","false","true","true","false","false","[2]","000","101","1","","","","","","",""
"","","","","","image-keyboard-response","177","355663","0.0-152.0","631b485e2d1909111a6fb09a","665500ab8938657b03fbdba8","665792a26003e3601401a61d","601","stimuli/20001012.jpg"," ","","feedback_trial","2","","","","","","","","","","","","","","","","","","","","",""
"","","","","","image-keyboard-response","178","357703","0.0-153.0","631b485e2d1909111a6fb09a","665500ab8938657b03fbdba8","665792a26003e3601401a61d","2039","stimuli/0000111.jpg","1","","prediction_trial","0","","false","","0","false","false","true","true","false","false","[0]","000","111","0","","","","","","",""
"","","","","","image-keyboard-response","179","358124","0.0-154.0","631b485e2d1909111a6fb09a","665500ab8938657b03fbdba8","665792a26003e3601401a61d","420","stimuli/00001110.jpg"," ","","feedback_trial","0","","","","","","","","","","","","","","","","","","","","",""
"","","","","","image-keyboard-response","180","358650","0.0-155.0","631b485e2d1909111a6fb09a","665500ab8938657b03fbdba8","665792a26003e3601401a61d","526","stimuli/1000000.jpg","1","","prediction_trial","1","","true","","1","true","true","true","true","true","true","[1]","000","000","1","","","","","","",""
"","","","","","image-keyboard-response","181","358912","0.0-156.0","631b485e2d1909111a6fb09a","665500ab8938657b03fbdba8","665792a26003e3601401a61d","261","stimuli/10000001.jpg"," ","","feedback_trial","1","","","","","","","","","","","","","","","","","","","","",""
"","","","","","image-keyboard-response","182","361934","0.0-157.0","631b485e2d1909111a6fb09a","665500ab8938657b03fbdba8","665792a26003e3601401a61d","3022","stimuli/0010111.jpg","2","","prediction_trial","0","","false","","0","false","false","true","true","false","false","[0]","010","111","0","","","","","","",""
"","","","","","image-keyboard-response","183","362312","0.0-158.0","631b485e2d1909111a6fb09a","665500ab8938657b03fbdba8","665792a26003e3601401a61d","377","stimuli/00101110.jpg"," ","","feedback_trial","0","","","","","","","","","","","","","","","","","","","","",""
"","","","","","image-keyboard-response","184","362921","0.0-159.0","631b485e2d1909111a6fb09a","665500ab8938657b03fbdba8","665792a26003e3601401a61d","608","stimuli/2101110.jpg","2","","prediction_trial","2","","true","","2","true","true","false","false","false","false","[0,2]","101","110","1","","","","","","",""
"","","","","","image-keyboard-response","185","363128","0.0-160.0","631b485e2d1909111a6fb09a","665500ab8938657b03fbdba8","665792a26003e3601401a61d","207","stimuli/21011102.jpg"," ","","feedback_trial","0","","","","","","","","","","","","","","","","","","","","",""
"","","","","","image-keyboard-response","186","366373","0.0-161.0","631b485e2d1909111a6fb09a","665500ab8938657b03fbdba8","665792a26003e3601401a61d","3244","stimuli/1001011.jpg","2","","prediction_trial","1","","false","","1","false","false","true","true","false","false","[1]","001","011","0","","","","","","",""
"","","","","","image-keyboard-response","187","366755","0.0-162.0","631b485e2d1909111a6fb09a","665500ab8938657b03fbdba8","665792a26003e3601401a61d","381","stimuli/10010111.jpg"," ","","feedback_trial","1","","","","","","","","","","","","","","","","","","","","",""
"","","","","","image-keyboard-response","188","367537","0.0-163.0","631b485e2d1909111a6fb09a","665500ab8938657b03fbdba8","665792a26003e3601401a61d","782","stimuli/2110110.jpg","2","","prediction_trial","2","","true","","2","true","true","true","true","true","true","[2]","110","110","1","","","","","","",""
"","","","","","image-keyboard-response","189","367743","0.0-164.0","631b485e2d1909111a6fb09a","665500ab8938657b03fbdba8","665792a26003e3601401a61d","206","stimuli/21101102.jpg"," ","","feedback_trial","2","","","","","","","","","","","","","","","","","","","","",""
"","","","","","image-keyboard-response","190","371675","0.0-165.0","631b485e2d1909111a6fb09a","665500ab8938657b03fbdba8","665792a26003e3601401a61d","3932","stimuli/1110011.jpg","1","","prediction_trial","1","","true","","1","false","false","false","false","false","false","[0,1]","110","011","1","","","","","","",""
"","","","","","image-keyboard-response","191","372142","0.0-166.0","631b485e2d1909111a6fb09a","665500ab8938657b03fbdba8","665792a26003e3601401a61d","466","stimuli/11100111.jpg"," ","","feedback_trial","0","","","","","","","","","","","","","","","","","","","","",""
"","","","","","image-keyboard-response","192","375196","0.0-167.0","631b485e2d1909111a6fb09a","665500ab8938657b03fbdba8","665792a26003e3601401a61d","3054","stimuli/0101101.jpg","0","","prediction_trial","2","","false","","0","false","false","false","false","false","false","[0,2]","101","101","0","","","","","","",""
"","","","","","image-keyboard-response","193","375701","0.0-168.0","631b485e2d1909111a6fb09a","665500ab8938657b03fbdba8","665792a26003e3601401a61d","504","stimuli/01011012.jpg"," ","","feedback_trial","0","","","","","","","","","","","","","","","","","","","","",""
"","","","","","image-keyboard-response","194","376658","0.0-169.0","631b485e2d1909111a6fb09a","665500ab8938657b03fbdba8","665792a26003e3601401a61d","956","stimuli/1101101.jpg","1","","prediction_trial","1","","true","","1","true","true","true","true","true","true","[1]","101","101","1","","","","","","",""
"","","","","","image-keyboard-response","195","377017","0.0-170.0","631b485e2d1909111a6fb09a","665500ab8938657b03fbdba8","665792a26003e3601401a61d","358","stimuli/11011011.jpg"," ","","feedback_trial","1","","","","","","","","","","","","","","","","","","","","",""
"","","","","","image-keyboard-response","196","378922","0.0-171.0","631b485e2d1909111a6fb09a","665500ab8938657b03fbdba8","665792a26003e3601401a61d","1905","stimuli/2001111.jpg","1","","prediction_trial","2","","false","","2","false","false","false","true","false","false","[2]","001","111","0","","","","","","",""
"","","","","","image-keyboard-response","197","379295","0.0-172.0","631b485e2d1909111a6fb09a","665500ab8938657b03fbdba8","665792a26003e3601401a61d","372","stimuli/20011112.jpg"," ","","feedback_trial","2","","","","","","","","","","","","","","","","","","","","",""
"","","","","","image-keyboard-response","198","379886","0.0-173.0","631b485e2d1909111a6fb09a","665500ab8938657b03fbdba8","665792a26003e3601401a61d","591","stimuli/1100101.jpg","1","","prediction_trial","1","","true","","1","true","true","true","true","true","true","[1]","100","101","1","","","","","","",""
"","","","","","image-keyboard-response","199","380079","0.0-174.0","631b485e2d1909111a6fb09a","665500ab8938657b03fbdba8","665792a26003e3601401a61d","192","stimuli/11001011.jpg"," ","","feedback_trial","1","","","","","","","","","","","","","","","","","","","","",""
"","","","","","image-keyboard-response","200","382745","0.0-175.0","631b485e2d1909111a6fb09a","665500ab8938657b03fbdba8","665792a26003e3601401a61d","2665","stimuli/0001110.jpg","0","","prediction_trial","0","","true","","0","false","false","true","true","false","false","[0]","001","110","1","","","","","","",""
"","","","","","image-keyboard-response","201","383043","0.0-176.0","631b485e2d1909111a6fb09a","665500ab8938657b03fbdba8","665792a26003e3601401a61d","297","stimuli/00011100.jpg"," ","","feedback_trial","0","","","","","","","","","","","","","","","","","","","","",""
"","","","","","image-keyboard-response","202","386320","0.0-177.0","631b485e2d1909111a6fb09a","665500ab8938657b03fbdba8","665792a26003e3601401a61d","3277","stimuli/1010111.jpg","2","","prediction_trial","1","","false","","1","false","false","false","true","false","false","[1]","010","111","0","","","","","","",""
"","","","","","image-keyboard-response","203","386594","0.0-178.0","631b485e2d1909111a6fb09a","665500ab8938657b03fbdba8","665792a26003e3601401a61d","273","stimuli/10101111.jpg"," ","","feedback_trial","1","","","","","","","","","","","","","","","","","","","","",""
"","","","","","image-keyboard-response","204","387184","0.0-179.0","631b485e2d1909111a6fb09a","665500ab8938657b03fbdba8","665792a26003e3601401a61d","589","stimuli/0011000.jpg","0","","prediction_trial","0","","true","","0","true","true","true","true","true","true","[0]","011","000","1","","","","","","",""
"","","","","","image-keyboard-response","205","387404","0.0-180.0","631b485e2d1909111a6fb09a","665500ab8938657b03fbdba8","665792a26003e3601401a61d","219","stimuli/00110000.jpg"," ","","feedback_trial","0","","","","","","","","","","","","","","","","","","","","",""
"","","","","","image-keyboard-response","206","390077","0.0-181.0","631b485e2d1909111a6fb09a","665500ab8938657b03fbdba8","665792a26003e3601401a61d","2672","stimuli/1101110.jpg","0","","prediction_trial","1","","false","","1","false","false","true","true","false","false","[1]","101","110","0","","","","","","",""
"","","","","","image-keyboard-response","207","390397","0.0-182.0","631b485e2d1909111a6fb09a","665500ab8938657b03fbdba8","665792a26003e3601401a61d","320","stimuli/11011101.jpg"," ","","feedback_trial","1","","","","","","","","","","","","","","","","","","","","",""
"","","","","","image-keyboard-response","208","392663","0.0-183.0","631b485e2d1909111a6fb09a","665500ab8938657b03fbdba8","665792a26003e3601401a61d","2266","stimuli/0101111.jpg","1","","prediction_trial","0","","false","","0","false","false","false","false","false","false","[0,2]","101","111","0","","","","","","",""
"","","","","","image-keyboard-response","209","393007","0.0-184.0","631b485e2d1909111a6fb09a","665500ab8938657b03fbdba8","665792a26003e3601401a61d","343","stimuli/01011110.jpg"," ","","feedback_trial","0","","","","","","","","","","","","","","","","","","","","",""
"","","","","","image-keyboard-response","210","396398","0.0-185.0","631b485e2d1909111a6fb09a","665500ab8938657b03fbdba8","665792a26003e3601401a61d","3390","stimuli/0000101.jpg","0","","prediction_trial","0","","true","","0","false","false","true","true","false","false","[0]","000","101","1","","","","","","",""
"","","","","","image-keyboard-response","211","396691","0.0-186.0","631b485e2d1909111a6fb09a","665500ab8938657b03fbdba8","665792a26003e3601401a61d","293","stimuli/00001010.jpg"," ","","feedback_trial","0","","","","","","","","","","","","","","","","","","","","",""
"","","","","","image-keyboard-response","212","397540","0.0-187.0","631b485e2d1909111a6fb09a","665500ab8938657b03fbdba8","665792a26003e3601401a61d","847","stimuli/1000101.jpg","1","","prediction_trial","1","","true","","1","true","true","true","true","true","true","[1]","000","101","1","","","","","","",""
"","","","","","image-keyboard-response","213","397777","0.0-188.0","631b485e2d1909111a6fb09a","665500ab8938657b03fbdba8","665792a26003e3601401a61d","237","stimuli/10001011.jpg"," ","","feedback_trial","1","","","","","","","","","","","","","","","","","","","","",""
"","","","","","image-keyboard-response","214","398445","0.0-189.0","631b485e2d1909111a6fb09a","665500ab8938657b03fbdba8","665792a26003e3601401a61d","667","stimuli/0110010.jpg","0","","prediction_trial","1","","false","","0","true","true","false","false","false","false","[1,0]","110","010","0","","","","","","",""
"","","","","","image-keyboard-response","215","398649","0.0-190.0","631b485e2d1909111a6fb09a","665500ab8938657b03fbdba8","665792a26003e3601401a61d","203","stimuli/01100101.jpg"," ","","feedback_trial","1","","","","","","","","","","","","","","","","","","","","",""
"","","","","","image-keyboard-response","216","399189","0.0-191.0","631b485e2d1909111a6fb09a","665500ab8938657b03fbdba8","665792a26003e3601401a61d","538","stimuli/0111010.jpg","0","","prediction_trial","1","","false","","0","true","true","false","false","false","false","[1,0,2]","111","010","0","","","","","","",""
"","","","","","image-keyboard-response","217","399337","0.0-192.0","631b485e2d1909111a6fb09a","665500ab8938657b03fbdba8","665792a26003e3601401a61d","147","stimuli/01110101.jpg"," ","","feedback_trial","1","","","","","","","","","","","","","","","","","","","","",""
"","","","","","image-keyboard-response","218","403441","0.0-193.0","631b485e2d1909111a6fb09a","665500ab8938657b03fbdba8","665792a26003e3601401a61d","4104","stimuli/1001010.jpg","1","","prediction_trial","1","","true","","1","false","true","true","true","false","true","[1]","001","010","1","","","","","","",""
"","","","","","image-keyboard-response","219","403735","0.0-194.0","631b485e2d1909111a6fb09a","665500ab8938657b03fbdba8","665792a26003e3601401a61d","293","stimuli/10010101.jpg"," ","","feedback_trial","1","","","","","","","","","","","","","","","","","","","","",""
"","","","","","image-keyboard-response","220","404433","0.0-195.0","631b485e2d1909111a6fb09a","665500ab8938657b03fbdba8","665792a26003e3601401a61d","698","stimuli/0000011.jpg","0","","prediction_trial","0","","true","","0","true","true","true","true","true","true","[0]","000","011","1","","","","","","",""
"","","","","","image-keyboard-response","221","404666","0.0-196.0","631b485e2d1909111a6fb09a","665500ab8938657b03fbdba8","665792a26003e3601401a61d","232","stimuli/00000110.jpg"," ","","feedback_trial","0","","","","","","","","","","","","","","","","","","","","",""
"","","","","","image-keyboard-response","222","405346","0.0-197.0","631b485e2d1909111a6fb09a","665500ab8938657b03fbdba8","665792a26003e3601401a61d","680","stimuli/2110010.jpg","2","","prediction_trial","2","","true","","2","true","true","true","true","true","true","[2]","110","010","1","","","","","","",""
"","","","","","image-keyboard-response","223","405564","0.0-198.0","631b485e2d1909111a6fb09a","665500ab8938657b03fbdba8","665792a26003e3601401a61d","217","stimuli/21100102.jpg"," ","","feedback_trial","2","","","","","","","","","","","","","","","","","","","","",""
"","","","","","image-keyboard-response","224","406303","0.0-199.0","631b485e2d1909111a6fb09a","665500ab8938657b03fbdba8","665792a26003e3601401a61d","739","stimuli/2110100.jpg","2","","prediction_trial","2","","true","","2","true","true","true","true","true","true","[2]","110","100","1","","","","","","",""
"","","","","","image-keyboard-response","225","406493","0.0-200.0","631b485e2d1909111a6fb09a","665500ab8938657b03fbdba8","665792a26003e3601401a61d","189","stimuli/21101002.jpg"," ","","feedback_trial","2","","","","","","","","","","","","","","","","","","","","",""
"","","","","","image-keyboard-response","226","409202","0.0-201.0","631b485e2d1909111a6fb09a","665500ab8938657b03fbdba8","665792a26003e3601401a61d","2709","stimuli/2010011.jpg","2","","prediction_trial","2","","true","","2","false","false","true","true","false","false","[2]","010","011","1","","","","","","",""
"","","","","","image-keyboard-response","227","409492","0.0-202.0","631b485e2d1909111a6fb09a","665500ab8938657b03fbdba8","665792a26003e3601401a61d","289","stimuli/20100112.jpg"," ","","feedback_trial","2","","","","","","","","","","","","","","","","","","","","",""
"","","","","","image-keyboard-response","228","410095","0.0-203.0","631b485e2d1909111a6fb09a","665500ab8938657b03fbdba8","665792a26003e3601401a61d","603","stimuli/2000100.jpg","2","","prediction_trial","2","","true","","2","true","true","true","true","true","true","[2]","000","100","1","","","","","","",""
"","","","","","image-keyboard-response","229","410290","0.0-204.0","631b485e2d1909111a6fb09a","665500ab8938657b03fbdba8","665792a26003e3601401a61d","195","stimuli/20001002.jpg"," ","","feedback_trial","2","","","","","","","","","","","","","","","","","","","","",""
"","","","","","image-keyboard-response","230","410807","0.0-205.0","631b485e2d1909111a6fb09a","665500ab8938657b03fbdba8","665792a26003e3601401a61d","516","stimuli/2010000.jpg","2","","prediction_trial","2","","true","","2","true","true","true","true","true","true","[2]","010","000","1","","","","","","",""
"","","","","","image-keyboard-response","231","411013","0.0-206.0","631b485e2d1909111a6fb09a","665500ab8938657b03fbdba8","665792a26003e3601401a61d","205","stimuli/20100002.jpg"," ","","feedback_trial","2","","","","","","","","","","","","","","","","","","","","",""
"","","","","","image-keyboard-response","232","414991","0.0-207.0","631b485e2d1909111a6fb09a","665500ab8938657b03fbdba8","665792a26003e3601401a61d","3978","stimuli/1101010.jpg","1","","prediction_trial","1","","true","","1","false","true","true","true","false","true","[1]","101","010","1","","","","","","",""
"","","","","","image-keyboard-response","233","415198","0.0-208.0","631b485e2d1909111a6fb09a","665500ab8938657b03fbdba8","665792a26003e3601401a61d","206","stimuli/11010101.jpg"," ","","feedback_trial","1","","","","","","","","","","","","","","","","","","","","",""
"","","","","","image-keyboard-response","234","419267","0.0-209.0","631b485e2d1909111a6fb09a","665500ab8938657b03fbdba8","665792a26003e3601401a61d","4068","stimuli/0011111.jpg","2","","prediction_trial","0","","false","","0","false","false","true","true","false","false","[0]","011","111","0","","","","","","",""
"","","","","","image-keyboard-response","235","419608","0.0-210.0","631b485e2d1909111a6fb09a","665500ab8938657b03fbdba8","665792a26003e3601401a61d","340","stimuli/00111110.jpg"," ","","feedback_trial","0","","","","","","","","","","","","","","","","","","","","",""
"","","","","","image-keyboard-response","236","422822","0.0-211.0","631b485e2d1909111a6fb09a","665500ab8938657b03fbdba8","665792a26003e3601401a61d","3214","stimuli/2010111.jpg","2","","prediction_trial","2","","true","","2","false","false","true","true","false","false","[2]","010","111","1","","","","","","",""
"","","","","","image-keyboard-response","237","423216","0.0-212.0","631b485e2d1909111a6fb09a","665500ab8938657b03fbdba8","665792a26003e3601401a61d","394","stimuli/20101112.jpg"," ","","feedback_trial","2","","","","","","","","","","","","","","","","","","","","",""
"","","","","","image-keyboard-response","238","426248","0.0-213.0","631b485e2d1909111a6fb09a","665500ab8938657b03fbdba8","665792a26003e3601401a61d","3032","stimuli/1111010.jpg","1","","prediction_trial","1","","true","","1","false","true","false","false","false","false","[2,1,0]","111","010","1","","","","","","",""
"","","","","","image-keyboard-response","239","427406","0.0-214.0","631b485e2d1909111a6fb09a","665500ab8938657b03fbdba8","665792a26003e3601401a61d","1157","stimuli/11110101.jpg"," ","","feedback_trial","2","","","","","","","","","","","","","","","","","","","","",""
"","","","","","image-keyboard-response","240","431832","0.0-215.0","631b485e2d1909111a6fb09a","665500ab8938657b03fbdba8","665792a26003e3601401a61d","4425","stimuli/1100110.jpg","0","","prediction_trial","1","","false","","1","false","false","true","true","false","false","[1]","100","110","0","","","","","","",""
"","","","","","image-keyboard-response","241","432289","0.0-216.0","631b485e2d1909111a6fb09a","665500ab8938657b03fbdba8","665792a26003e3601401a61d","456","stimuli/11001101.jpg"," ","","feedback_trial","1","","","","","","","","","","","","","","","","","","","","",""
"","","","","","image-keyboard-response","242","434632","0.0-217.0","631b485e2d1909111a6fb09a","665500ab8938657b03fbdba8","665792a26003e3601401a61d","2342","stimuli/1101111.jpg","1","","prediction_trial","1","","true","","1","false","false","true","true","false","false","[1]","101","111","1","","","","","","",""
"","","","","","image-keyboard-response","243","434927","0.0-218.0","631b485e2d1909111a6fb09a","665500ab8938657b03fbdba8","665792a26003e3601401a61d","294","stimuli/11011111.jpg"," ","","feedback_trial","1","","","","","","","","","","","","","","","","","","","","",""
"","","","","","image-keyboard-response","244","435529","0.0-219.0","631b485e2d1909111a6fb09a","665500ab8938657b03fbdba8","665792a26003e3601401a61d","602","stimuli/0111000.jpg","0","","prediction_trial","2","","false","","0","true","true","false","false","false","false","[1,0,2]","111","000","0","","","","","","",""
"","","","","","image-keyboard-response","245","435722","0.0-220.0","631b485e2d1909111a6fb09a","665500ab8938657b03fbdba8","665792a26003e3601401a61d","192","stimuli/01110002.jpg"," ","","feedback_trial","1","","","","","","","","","","","","","","","","","","","","",""
"","","","","","image-keyboard-response","246","436333","0.0-221.0","631b485e2d1909111a6fb09a","665500ab8938657b03fbdba8","665792a26003e3601401a61d","610","stimuli/0110011.jpg","0","","prediction_trial","0","","true","","0","true","true","false","false","false","false","[1,0]","110","011","1","","","","","","",""
"","","","","","image-keyboard-response","247","436629","0.0-222.0","631b485e2d1909111a6fb09a","665500ab8938657b03fbdba8","665792a26003e3601401a61d","296","stimuli/01100110.jpg"," ","","feedback_trial","1","","","","","","","","","","","","","","","","","","","","",""
"","","","","","image-keyboard-response","248","438657","0.0-223.0","631b485e2d1909111a6fb09a","665500ab8938657b03fbdba8","665792a26003e3601401a61d","2027","stimuli/2011101.jpg","0","","prediction_trial","1","","false","","2","false","false","false","false","false","false","[1,2]","011","101","0","","","","","","",""
"","","","","","image-keyboard-response","249","439235","0.0-224.0","631b485e2d1909111a6fb09a","665500ab8938657b03fbdba8","665792a26003e3601401a61d","578","stimuli/20111011.jpg"," ","","feedback_trial","1","","","","","","","","","","","","","","","","","","","","",""
"","","","","","image-keyboard-response","250","439863","0.0-225.0","631b485e2d1909111a6fb09a","665500ab8938657b03fbdba8","665792a26003e3601401a61d","627","stimuli/2000000.jpg","2","","prediction_trial","2","","true","","2","true","true","true","true","true","true","[2]","000","000","1","","","","","","",""
"","","","","","image-keyboard-response","251","440212","0.0-226.0","631b485e2d1909111a6fb09a","665500ab8938657b03fbdba8","665792a26003e3601401a61d","349","stimuli/20000002.jpg"," ","","feedback_trial","2","","","","","","","","","","","","","","","","","","","","",""
"","","","","","image-keyboard-response","252","440819","0.0-227.0","631b485e2d1909111a6fb09a","665500ab8938657b03fbdba8","665792a26003e3601401a61d","606","stimuli/0010001.jpg","0","","prediction_trial","0","","true","","0","true","true","true","true","true","true","[0]","010","001","1","","","","","","",""
"","","","","","image-keyboard-response","253","441059","0.0-228.0","631b485e2d1909111a6fb09a","665500ab8938657b03fbdba8","665792a26003e3601401a61d","239","stimuli/00100010.jpg"," ","","feedback_trial","0","","","","","","","","","","","","","","","","","","","","",""
"","","","","","image-keyboard-response","254","443207","0.0-229.0","631b485e2d1909111a6fb09a","665500ab8938657b03fbdba8","665792a26003e3601401a61d","2148","stimuli/1000010.jpg","1","","prediction_trial","1","","true","","1","false","true","true","true","false","true","[1]","000","010","1","","","","","","",""
"","","","","","image-keyboard-response","255","443550","0.0-230.0","631b485e2d1909111a6fb09a","665500ab8938657b03fbdba8","665792a26003e3601401a61d","342","stimuli/10000101.jpg"," ","","feedback_trial","1","","","","","","","","","","","","","","","","","","","","",""
"","","","","","image-keyboard-response","256","446398","0.0-231.0","631b485e2d1909111a6fb09a","665500ab8938657b03fbdba8","665792a26003e3601401a61d","2847","stimuli/2011011.jpg","2","","prediction_trial","1","","false","","2","false","false","false","false","false","false","[2,1]","011","011","0","","","","","","",""
"","","","","","image-keyboard-response","257","446782","0.0-232.0","631b485e2d1909111a6fb09a","665500ab8938657b03fbdba8","665792a26003e3601401a61d","384","stimuli/20110111.jpg"," ","","feedback_trial","2","","","","","","","","","","","","","","","","","","","","",""
"","","","","","image-keyboard-response","258","447437","0.0-233.0","631b485e2d1909111a6fb09a","665500ab8938657b03fbdba8","665792a26003e3601401a61d","654","stimuli/1000100.jpg","1","","prediction_trial","1","","true","","1","true","true","true","true","true","true","[1]","000","100","1","","","","","","",""
"","","","","","image-keyboard-response","259","447654","0.0-234.0","631b485e2d1909111a6fb09a","665500ab8938657b03fbdba8","665792a26003e3601401a61d","217","stimuli/10001001.jpg"," ","","feedback_trial","1","","","","","","","","","","","","","","","","","","","","",""
"","","","","","image-keyboard-response","260","451174","0.0-235.0","631b485e2d1909111a6fb09a","665500ab8938657b03fbdba8","665792a26003e3601401a61d","3519","stimuli/2111001.jpg","2","","prediction_trial","0","","false","","2","false","true","false","false","false","false","[1,2,0]","111","001","0","","","","","","",""
"","","","","","image-keyboard-response","261","451821","0.0-236.0","631b485e2d1909111a6fb09a","665500ab8938657b03fbdba8","665792a26003e3601401a61d","646","stimuli/21110010.jpg"," ","","feedback_trial","1","","","","","","","","","","","","","","","","","","","","",""
"","","","","","image-keyboard-response","262","452955","0.0-237.0","631b485e2d1909111a6fb09a","665500ab8938657b03fbdba8","665792a26003e3601401a61d","1133","stimuli/0111011.jpg","0","","prediction_trial","2","","false","","0","true","true","false","false","false","false","[2,0,1]","111","011","0","","","","","","",""
"","","","","","image-keyboard-response","263","453209","0.0-238.0","631b485e2d1909111a6fb09a","665500ab8938657b03fbdba8","665792a26003e3601401a61d","254","stimuli/01110112.jpg"," ","","feedback_trial","2","","","","","","","","","","","","","","","","","","","","",""
"","","","","","image-keyboard-response","264","458395","0.0-239.0","631b485e2d1909111a6fb09a","665500ab8938657b03fbdba8","665792a26003e3601401a61d","5185","stimuli/1100011.jpg","2","","prediction_trial","1","","false","","1","false","false","true","true","false","false","[1]","100","011","0","","","","","","",""
"","","","","","image-keyboard-response","265","458727","0.0-240.0","631b485e2d1909111a6fb09a","665500ab8938657b03fbdba8","665792a26003e3601401a61d","331","stimuli/11000111.jpg"," ","","feedback_trial","1","","","","","","","","","","","","","","","","","","","","",""
"","","","","","image-keyboard-response","266","459325","0.0-241.0","631b485e2d1909111a6fb09a","665500ab8938657b03fbdba8","665792a26003e3601401a61d","597","stimuli/1111101.jpg","1","","prediction_trial","0","","false","","1","true","true","false","false","false","false","[2,0,1]","111","101","0","","","","","","",""
"","","","","","image-keyboard-response","267","459491","0.0-242.0","631b485e2d1909111a6fb09a","665500ab8938657b03fbdba8","665792a26003e3601401a61d","164","stimuli/11111010.jpg"," ","","feedback_trial","2","","","","","","","","","","","","","","","","","","","","",""
"","","","","","image-keyboard-response","268","462668","0.0-243.0","631b485e2d1909111a6fb09a","665500ab8938657b03fbdba8","665792a26003e3601401a61d","3177","stimuli/0001100.jpg","0","","prediction_trial","0","","true","","0","false","true","true","true","false","true","[0]","001","100","1","","","","","","",""
"","","","","","image-keyboard-response","269","463023","0.0-244.0","631b485e2d1909111a6fb09a","665500ab8938657b03fbdba8","665792a26003e3601401a61d","354","stimuli/00011000.jpg"," ","","feedback_trial","0","","","","","","","","","","","","","","","","","","","","",""
"","","","","","image-keyboard-response","270","464186","0.0-245.0","631b485e2d1909111a6fb09a","665500ab8938657b03fbdba8","665792a26003e3601401a61d","1163","stimuli/2111010.jpg","2","","prediction_trial","2","","true","","2","true","true","false","false","false","false","[1,0,2]","111","010","1","","","","","","",""
"","","","","","image-keyboard-response","271","464417","0.0-246.0","631b485e2d1909111a6fb09a","665500ab8938657b03fbdba8","665792a26003e3601401a61d","230","stimuli/21110102.jpg"," ","","feedback_trial","1","","","","","","","","","","","","","","","","","","","","",""
"","","","","","image-keyboard-response","272","466763","0.0-247.0","631b485e2d1909111a6fb09a","665500ab8938657b03fbdba8","665792a26003e3601401a61d","2345","stimuli/0110111.jpg","1","","prediction_trial","0","","false","","0","false","false","false","false","false","false","[0,1]","110","111","0","","","","","","",""
"","","","","","image-keyboard-response","273","467089","0.0-248.0","631b485e2d1909111a6fb09a","665500ab8938657b03fbdba8","665792a26003e3601401a61d","325","stimuli/01101110.jpg"," ","","feedback_trial","0","","","","","","","","","","","","","","","","","","","","",""
"","","","","","image-keyboard-response","274","469547","0.0-249.0","631b485e2d1909111a6fb09a","665500ab8938657b03fbdba8","665792a26003e3601401a61d","2457","stimuli/2010110.jpg","2","","prediction_trial","2","","true","","2","true","true","true","true","true","true","[2]","010","110","1","","","","","","",""
"","","","","","image-keyboard-response","275","469778","0.0-250.0","631b485e2d1909111a6fb09a","665500ab8938657b03fbdba8","665792a26003e3601401a61d","231","stimuli/20101102.jpg"," ","","feedback_trial","2","","","","","","","","","","","","","","","","","","","","",""
"","","","","","image-keyboard-response","276","472327","0.0-251.0","631b485e2d1909111a6fb09a","665500ab8938657b03fbdba8","665792a26003e3601401a61d","2548","stimuli/1000111.jpg","0","","prediction_trial","1","","false","","1","false","false","true","true","false","false","[1]","000","111","0","","","","","","",""
"","","","","","image-keyboard-response","277","472750","0.0-252.0","631b485e2d1909111a6fb09a","665500ab8938657b03fbdba8","665792a26003e3601401a61d","422","stimuli/10001111.jpg"," ","","feedback_trial","1","","","","","","","","","","","","","","","","","","","","",""
"","","","","","image-keyboard-response","278","473311","0.0-253.0","631b485e2d1909111a6fb09a","665500ab8938657b03fbdba8","665792a26003e3601401a61d","561","stimuli/0110000.jpg","0","","prediction_trial","0","","true","","0","true","true","false","false","false","false","[0,1]","110","000","1","","","","","","",""
"","","","","","image-keyboard-response","279","473514","0.0-254.0","631b485e2d1909111a6fb09a","665500ab8938657b03fbdba8","665792a26003e3601401a61d","203","stimuli/01100000.jpg"," ","","feedback_trial","0","","","","","","","","","","","","","","","","","","","","",""
"","","","","","image-keyboard-response","280","474175","0.0-255.0","631b485e2d1909111a6fb09a","665500ab8938657b03fbdba8","665792a26003e3601401a61d","661","stimuli/2010100.jpg","2","","prediction_trial","2","","true","","2","true","true","true","true","true","true","[2]","010","100","1","","","","","","",""
"","","","","","image-keyboard-response","281","474354","0.0-256.0","631b485e2d1909111a6fb09a","665500ab8938657b03fbdba8","665792a26003e3601401a61d","178","stimuli/20101002.jpg"," ","","feedback_trial","2","","","","","","","","","","","","","","","","","","","","",""
"","","","","","image-keyboard-response","282","474884","0.0-257.0","631b485e2d1909111a6fb09a","665500ab8938657b03fbdba8","665792a26003e3601401a61d","530","stimuli/0000000.jpg","0","","prediction_trial","0","","true","","0","true","true","true","true","true","true","[0]","000","000","1","","","","","","",""
"","","","","","image-keyboard-response","283","475082","0.0-258.0","631b485e2d1909111a6fb09a","665500ab8938657b03fbdba8","665792a26003e3601401a61d","198","stimuli/00000000.jpg"," ","","feedback_trial","0","","","","","","","","","","","","","","","","","","","","",""
"","","","","","image-keyboard-response","284","477200","0.0-259.0","631b485e2d1909111a6fb09a","665500ab8938657b03fbdba8","665792a26003e3601401a61d","2117","stimuli/0010100.jpg","0","","prediction_trial","0","","true","","0","false","true","true","true","false","true","[0]","010","100","1","","","","","","",""
"","","","","","image-keyboard-response","285","477552","0.0-260.0","631b485e2d1909111a6fb09a","665500ab8938657b03fbdba8","665792a26003e3601401a61d","351","stimuli/00101000.jpg"," ","","feedback_trial","0","","","","","","","","","","","","","","","","","","","","",""
"","","","","","image-keyboard-response","286","481233","0.0-261.0","631b485e2d1909111a6fb09a","665500ab8938657b03fbdba8","665792a26003e3601401a61d","3680","stimuli/0011110.jpg","1","","prediction_trial","0","","false","","0","false","false","true","true","false","false","[0]","011","110","0","","","","","","",""
"","","","","","image-keyboard-response","287","481737","0.0-262.0","631b485e2d1909111a6fb09a","665500ab8938657b03fbdba8","665792a26003e3601401a61d","503","stimuli/00111100.jpg"," ","","feedback_trial","0","","","","","","","","","","","","","","","","","","","","",""
"","","","","","image-keyboard-response","288","482688","0.0-263.0","631b485e2d1909111a6fb09a","665500ab8938657b03fbdba8","665792a26003e3601401a61d","950","stimuli/0010011.jpg","0","","prediction_trial","0","","true","","0","true","true","true","true","true","true","[0]","010","011","1","","","","","","",""
"","","","","","image-keyboard-response","289","482928","0.0-264.0","631b485e2d1909111a6fb09a","665500ab8938657b03fbdba8","665792a26003e3601401a61d","240","stimuli/00100110.jpg"," ","","feedback_trial","0","","","","","","","","","","","","","","","","","","","","",""
"","","","","","image-keyboard-response","290","483473","0.0-265.0","631b485e2d1909111a6fb09a","665500ab8938657b03fbdba8","665792a26003e3601401a61d","545","stimuli/0010000.jpg","0","","prediction_trial","0","","true","","0","true","true","true","true","true","true","[0]","010","000","1","","","","","","",""
"","","","","","image-keyboard-response","291","483648","0.0-266.0","631b485e2d1909111a6fb09a","665500ab8938657b03fbdba8","665792a26003e3601401a61d","175","stimuli/00100000.jpg"," ","","feedback_trial","0","","","","","","","","","","","","","","","","","","","","",""
"","","","","","image-keyboard-response","292","485991","0.0-267.0","631b485e2d1909111a6fb09a","665500ab8938657b03fbdba8","665792a26003e3601401a61d","2341","stimuli/2110111.jpg","0","","prediction_trial","2","","false","","2","false","false","true","true","false","false","[2]","110","111","0","","","","","","",""
"","","","","","image-keyboard-response","293","486967","0.0-268.0","631b485e2d1909111a6fb09a","665500ab8938657b03fbdba8","665792a26003e3601401a61d","976","stimuli/21101112.jpg"," ","","feedback_trial","2","","","","","","","","","","","","","","","","","","","","",""
"","","","","","image-keyboard-response","294","488633","0.0-269.0","631b485e2d1909111a6fb09a","665500ab8938657b03fbdba8","665792a26003e3601401a61d","1665","stimuli/1011010.jpg","1","","prediction_trial","1","","true","","1","false","true","false","false","false","false","[2,1]","011","010","1","","","","","","",""
"","","","","","image-keyboard-response","295","488933","0.0-270.0","631b485e2d1909111a6fb09a","665500ab8938657b03fbdba8","665792a26003e3601401a61d","298","stimuli/10110101.jpg"," ","","feedback_trial","2","","","","","","","","","","","","","","","","","","","","",""
"","","","","","image-keyboard-response","296","489954","0.0-271.0","631b485e2d1909111a6fb09a","665500ab8938657b03fbdba8","665792a26003e3601401a61d","1021","stimuli/1010010.jpg","1","","prediction_trial","1","","true","","1","false","true","false","true","false","true","[1]","010","010","1","","","","","","",""
"","","","","","image-keyboard-response","297","490165","0.0-272.0","631b485e2d1909111a6fb09a","665500ab8938657b03fbdba8","665792a26003e3601401a61d","210","stimuli/10100101.jpg"," ","","feedback_trial","1","","","","","","","","","","","","","","","","","","","","",""
"","","","","","image-keyboard-response","298","490873","0.0-273.0","631b485e2d1909111a6fb09a","665500ab8938657b03fbdba8","665792a26003e3601401a61d","707","stimuli/2110000.jpg","2","","prediction_trial","2","","true","","2","true","true","true","true","true","true","[2]","110","000","1","","","","","","",""
"","","","","","image-keyboard-response","299","491388","0.0-274.0","631b485e2d1909111a6fb09a","665500ab8938657b03fbdba8","665792a26003e3601401a61d","514","stimuli/21100002.jpg"," ","","feedback_trial","2","","","","","","","","","","","","","","","","","","","","",""
"","","","","","image-keyboard-response","300","492649","0.0-275.0","631b485e2d1909111a6fb09a","665500ab8938657b03fbdba8","665792a26003e3601401a61d","1260","stimuli/2001001.jpg","2","","prediction_trial","2","","true","","2","false","true","false","true","false","true","[2]","001","001","1","","","","","","",""
"","","","","","image-keyboard-response","301","492862","0.0-276.0","631b485e2d1909111a6fb09a","665500ab8938657b03fbdba8","665792a26003e3601401a61d","212","stimuli/20010012.jpg"," ","","feedback_trial","2","","","","","","","","","","","","","","","","","","","","",""
"","","","","","image-keyboard-response","302","495775","0.0-277.0","631b485e2d1909111a6fb09a","665500ab8938657b03fbdba8","665792a26003e3601401a61d","2912","stimuli/0110100.jpg","1","","prediction_trial","1","","true","","0","false","true","false","false","false","false","[1,0]","110","100","1","","","","","","",""
"","","","","","image-keyboard-response","303","497417","0.0-278.0","631b485e2d1909111a6fb09a","665500ab8938657b03fbdba8","665792a26003e3601401a61d","1642","stimuli/01101001.jpg"," ","","feedback_trial","1","","","","","","","","","","","","","","","","","","","","",""
"","","","","","image-keyboard-response","304","499465","0.0-279.0","631b485e2d1909111a6fb09a","665500ab8938657b03fbdba8","665792a26003e3601401a61d","2047","stimuli/0101010.jpg","0","","prediction_trial","2","","false","","0","true","true","false","false","false","false","[2,0]","101","010","0","","","","","","",""
"","","","","","image-keyboard-response","305","499800","0.0-280.0","631b485e2d1909111a6fb09a","665500ab8938657b03fbdba8","665792a26003e3601401a61d","335","stimuli/01010102.jpg"," ","","feedback_trial","2","","","","","","","","","","","","","","","","","","","","",""
"","","","","","image-keyboard-response","306","501874","0.0-281.0","631b485e2d1909111a6fb09a","665500ab8938657b03fbdba8","665792a26003e3601401a61d","2073","stimuli/0000100.jpg","0","","prediction_trial","0","","true","","0","false","true","true","true","false","true","[0]","000","100","1","","","","","","",""
"","","","","","image-keyboard-response","307","502156","0.0-282.0","631b485e2d1909111a6fb09a","665500ab8938657b03fbdba8","665792a26003e3601401a61d","281","stimuli/00001000.jpg"," ","","feedback_trial","0","","","","","","","","","","","","","","","","","","","","",""
"","","","","","image-keyboard-response","308","503059","0.0-283.0","631b485e2d1909111a6fb09a","665500ab8938657b03fbdba8","665792a26003e3601401a61d","903","stimuli/0010010.jpg","0","","prediction_trial","0","","true","","0","true","true","true","true","true","true","[0]","010","010","1","","","","","","",""
"","","","","","image-keyboard-response","309","503271","0.0-284.0","631b485e2d1909111a6fb09a","665500ab8938657b03fbdba8","665792a26003e3601401a61d","211","stimuli/00100100.jpg"," ","","feedback_trial","0","","","","","","","","","","","","","","","","","","","","",""
"","","","","","image-keyboard-response","310","504282","0.0-285.0","631b485e2d1909111a6fb09a","665500ab8938657b03fbdba8","665792a26003e3601401a61d","1011","stimuli/1111000.jpg","1","","prediction_trial","2","","false","","1","true","true","false","false","false","false","[0,2,1]","111","000","0","","","","","","",""
"","","","","","image-keyboard-response","311","504503","0.0-286.0","631b485e2d1909111a6fb09a","665500ab8938657b03fbdba8","665792a26003e3601401a61d","221","stimuli/11110002.jpg"," ","","feedback_trial","0","","","","","","","","","","","","","","","","","","","","",""
"","","","","","image-keyboard-response","312","506570","0.0-287.0","631b485e2d1909111a6fb09a","665500ab8938657b03fbdba8","665792a26003e3601401a61d","2065","stimuli/2111110.jpg","2","","prediction_trial","2","","true","","2","true","true","false","false","false","false","[2,1,0]","111","110","1","","","","","","",""
"","","","","","image-keyboard-response","313","506756","0.0-288.0","631b485e2d1909111a6fb09a","665500ab8938657b03fbdba8","665792a26003e3601401a61d","186","stimuli/21111102.jpg"," ","","feedback_trial","2","","","","","","","","","","","","","","","","","","","","",""
"","","","","","image-keyboard-response","314","507392","0.0-289.0","631b485e2d1909111a6fb09a","665500ab8938657b03fbdba8","665792a26003e3601401a61d","635","stimuli/1101001.jpg","1","","prediction_trial","1","","true","","1","true","true","true","true","true","true","[1]","101","001","1","","","","","","",""
"","","","","","image-keyboard-response","315","507613","0.0-290.0","631b485e2d1909111a6fb09a","665500ab8938657b03fbdba8","665792a26003e3601401a61d","221","stimuli/11010011.jpg"," ","","feedback_trial","1","","","","","","","","","","","","","","","","","","","","",""
"","","","","","image-keyboard-response","316","508768","0.0-291.0","631b485e2d1909111a6fb09a","665500ab8938657b03fbdba8","665792a26003e3601401a61d","1155","stimuli/0100100.jpg","0","","prediction_trial","0","","true","","0","false","true","false","true","false","true","[0]","100","100","1","","","","","","",""
"","","","","","image-keyboard-response","317","508953","0.0-292.0","631b485e2d1909111a6fb09a","665500ab8938657b03fbdba8","665792a26003e3601401a61d","184","stimuli/01001000.jpg"," ","","feedback_trial","0","","","","","","","","","","","","","","","","","","","","",""
"","","","","","survey-html-form","318","522689","0.0-293.0","631b485e2d1909111a6fb09a","665500ab8938657b03fbdba8","665792a26003e3601401a61d","13733","","{""feedback"":""Nothing I can think of"",""age"":""33"",""gender"":""Male"",""other_gender"":"""",""race"":""White"",""other_race"":"""",""ethnicity"":""Non-Hispanic""}","","exit_survey","","","","","","","","","","","","","","","","Nothing I can think of","33","Non-Hispanic","Male","White","0.6388888888888888","0.6388888888888888"
