"success","timeout","failed_images","failed_audio","failed_video","trial_type","trial_index","time_elapsed","internal_node_id","prolific_id","prolific_study_id","prolific_session_id","rt","stimulus","response","view_history","trial","character_choice","stimulus_dict","accuracy","correct_response","ball_pos","ego_ball_visible","ego_can_infer","alter_ball_visible","alter_can_infer","collective_ball_visible","collective_can_infer","search_locations","alter_occluders","ego_occluders","accuracy_bool","feedback","age","ethnicity","gender","race","overall_accuracy","bonus"
"true","false","[]","[]","[]","preload","0","3218","0.0-0.0","5c7afb18de6f7900150c33d2","665500ab8938657b03fbdba8","665777ec28b10312e5570265","","","","","","","","","","","","","","","","","","","","","","","","","","",""
"true","","","","","fullscreen","1","7260","0.0-1.0","5c7afb18de6f7900150c33d2","665500ab8938657b03fbdba8","665777ec28b10312e5570265","","","","","","","","","","","","","","","","","","","","","","","","","","",""
"","","","","","html-button-response","2","16183","0.0-2.0","5c7afb18de6f7900150c33d2","665500ab8938657b03fbdba8","665777ec28b10312e5570265","8918","<p><b>Consent Form</b></p> <div style=""text-align:left;background-color:lightgrey; padding:20px; max-width:900px;""><p>Please consider this information carefully before deciding whether to participate in this research.</p> <p>The purpose of this research is to examine which factors influence social judgment and decision-making. You will be asked to make judgements about individuals and actions in social scenarios. We are simply interested in your judgement. The study will take less than 1 hour to complete, and you will receive less than $20 on Prolific. Your compensation and time commitment are specified in the study description. There are no anticipated risks associated with participating in this study. The effects of participating should be comparable to those you would ordinarily experience from viewing a computer monitor and using a mouse or keyboard for a similar amount of time. At the end of the study, we will provide an explanation of the questions that motivate this line of research and will describe the potential implications. </p><p> Your participation in this study is completely voluntary and you may refuse to participate or you may choose to withdraw at any time without penalty or loss of benefits to you which are otherwise entitled. Your participation in this study will remain confidential. No personally identifiable information will be associated with your data. Also, all analyses of the data will be averaged across all the participants, so your individual responses will never be specifically analyzed. </p><p> If you have questions or concerns about your participation or payment, or want to request a summary of research findings, please contact Dr. Jonathan Phillips at Jonathan.S.Phillips@dartmouth.edu. </p><p> Please save a copy of this form for your records. </p><p><b>Agreement: </b>The nature and purpose of this research have been sufficiently explained and I agree to participate in this study. I understand that I am free to withdraw at any time without incurring any penalty. Please consent by clicking the button below to continue. Otherwise, please exit the study at any time. </p>","0","","","","","","","","","","","","","","","","","","","","","","","",""
"","","","","","instructions","3","100650","0.0-3.0-0.0","5c7afb18de6f7900150c33d2","665500ab8938657b03fbdba8","665777ec28b10312e5570265","84464","","","[{""page_index"":0,""viewing_time"":2476},{""page_index"":1,""viewing_time"":2771},{""page_index"":2,""viewing_time"":3862},{""page_index"":3,""viewing_time"":5389},{""page_index"":4,""viewing_time"":4878},{""page_index"":5,""viewing_time"":3970},{""page_index"":6,""viewing_time"":3972},{""page_index"":7,""viewing_time"":3194},{""page_index"":8,""viewing_time"":4645},{""page_index"":9,""viewing_time"":4474},{""page_index"":10,""viewing_time"":21294},{""page_index"":11,""viewing_time"":10199},{""page_index"":12,""viewing_time"":11306},{""page_index"":13,""viewing_time"":2030}]","intro","","","","","","","","","","","","","","","","","","","","","",""
"","","","","","image-keyboard-response","4","105144","0.0-3.0-1.0","5c7afb18de6f7900150c33d2","665500ab8938657b03fbdba8","665777ec28b10312e5570265","4483","stimuli/2110110.jpg","2","","prediction_practice","2","{""filepath"":""stimuli/2110110.jpg"",""ball_pos"":2,""ego_ball_visible"":true,""ego_can_infer"":true,""alter_ball_visible"":true,""alter_can_infer"":true,""collective_ball_visible"":true,""collective_can_infer"":true,""search_locations"":[2],""alter_occluders"":""110"",""ego_occluders"":""110""}","true","","","","","","","","","","","","","","","","","","",""
"","","","","","image-keyboard-response","5","108023","0.0-3.0-2.0","5c7afb18de6f7900150c33d2","665500ab8938657b03fbdba8","665777ec28b10312e5570265","2874","stimuli/21101102.jpg"," ","","practrice_feedback","2","","","","","","","","","","","","","","","","","","","","",""
"","","","","","image-keyboard-response","6","112674","0.0-3.0-3.0","5c7afb18de6f7900150c33d2","665500ab8938657b03fbdba8","665777ec28b10312e5570265","4648","stimuli/1100111.jpg","1","","prediction_practice","1","{""filepath"":""stimuli/1100111.jpg"",""ball_pos"":1,""ego_ball_visible"":false,""ego_can_infer"":false,""alter_ball_visible"":true,""alter_can_infer"":true,""collective_ball_visible"":false,""collective_can_infer"":false,""search_locations"":[1],""alter_occluders"":""100"",""ego_occluders"":""111""}","true","","","","","","","","","","","","","","","","","","",""
"","","","","","image-keyboard-response","7","115755","0.0-3.0-4.0","5c7afb18de6f7900150c33d2","665500ab8938657b03fbdba8","665777ec28b10312e5570265","3080","stimuli/11001111.jpg"," ","","practrice_feedback","1","","","","","","","","","","","","","","","","","","","","",""
"","","","","","image-keyboard-response","8","122154","0.0-3.0-5.0","5c7afb18de6f7900150c33d2","665500ab8938657b03fbdba8","665777ec28b10312e5570265","6404","stimuli/1001111.jpg","1","","prediction_practice","1","{""filepath"":""stimuli/1001111.jpg"",""ball_pos"":1,""ego_ball_visible"":false,""ego_can_infer"":false,""alter_ball_visible"":true,""alter_can_infer"":true,""collective_ball_visible"":false,""collective_can_infer"":false,""search_locations"":[1],""alter_occluders"":""001"",""ego_occluders"":""111""}","true","","","","","","","","","","","","","","","","","","",""
"","","","","","image-keyboard-response","9","124357","0.0-3.0-6.0","5c7afb18de6f7900150c33d2","665500ab8938657b03fbdba8","665777ec28b10312e5570265","2201","stimuli/10011111.jpg"," ","","practrice_feedback","1","","","","","","","","","","","","","","","","","","","","",""
"","","","","","image-keyboard-response","10","129123","0.0-3.0-7.0","5c7afb18de6f7900150c33d2","665500ab8938657b03fbdba8","665777ec28b10312e5570265","4762","stimuli/0111000.jpg","1","","prediction_practice","2","{""filepath"":""stimuli/0111000.jpg"",""ball_pos"":0,""ego_ball_visible"":true,""ego_can_infer"":true,""alter_ball_visible"":false,""alter_can_infer"":false,""collective_ball_visible"":false,""collective_can_infer"":false,""search_locations"":[0,2,1],""alter_occluders"":""111"",""ego_occluders"":""000""}","false","","","","","","","","","","","","","","","","","","",""
"","","","","","image-keyboard-response","11","131573","0.0-3.0-8.0","5c7afb18de6f7900150c33d2","665500ab8938657b03fbdba8","665777ec28b10312e5570265","2447","stimuli/01110002.jpg"," ","","practrice_feedback","0","","","","","","","","","","","","","","","","","","","","",""
"","","","","","image-keyboard-response","12","139698","0.0-3.0-9.0","5c7afb18de6f7900150c33d2","665500ab8938657b03fbdba8","665777ec28b10312e5570265","8122","stimuli/1101011.jpg","1","","prediction_practice","1","{""filepath"":""stimuli/1101011.jpg"",""ball_pos"":1,""ego_ball_visible"":false,""ego_can_infer"":false,""alter_ball_visible"":true,""alter_can_infer"":true,""collective_ball_visible"":false,""collective_can_infer"":false,""search_locations"":[1],""alter_occluders"":""101"",""ego_occluders"":""011""}","true","","","","","","","","","","","","","","","","","","",""
"","","","","","image-keyboard-response","13","142424","0.0-3.0-10.0","5c7afb18de6f7900150c33d2","665500ab8938657b03fbdba8","665777ec28b10312e5570265","2722","stimuli/11010111.jpg"," ","","practrice_feedback","1","","","","","","","","","","","","","","","","","","","","",""
"","","","","","image-keyboard-response","14","146125","0.0-3.0-11.0","5c7afb18de6f7900150c33d2","665500ab8938657b03fbdba8","665777ec28b10312e5570265","3698","stimuli/2111010.jpg","2","","prediction_practice","2","{""filepath"":""stimuli/2111010.jpg"",""ball_pos"":2,""ego_ball_visible"":true,""ego_can_infer"":true,""alter_ball_visible"":false,""alter_can_infer"":false,""collective_ball_visible"":false,""collective_can_infer"":false,""search_locations"":[2,1,0],""alter_occluders"":""111"",""ego_occluders"":""010""}","true","","","","","","","","","","","","","","","","","","",""
"","","","","","image-keyboard-response","15","147608","0.0-3.0-12.0","5c7afb18de6f7900150c33d2","665500ab8938657b03fbdba8","665777ec28b10312e5570265","1480","stimuli/21110102.jpg"," ","","practrice_feedback","2","","","","","","","","","","","","","","","","","","","","",""
"","","","","","image-keyboard-response","16","150014","0.0-3.0-13.0","5c7afb18de6f7900150c33d2","665500ab8938657b03fbdba8","665777ec28b10312e5570265","2404","stimuli/0010010.jpg","0","","prediction_practice","0","{""filepath"":""stimuli/0010010.jpg"",""ball_pos"":0,""ego_ball_visible"":true,""ego_can_infer"":true,""alter_ball_visible"":true,""alter_can_infer"":true,""collective_ball_visible"":true,""collective_can_infer"":true,""search_locations"":[0],""alter_occluders"":""010"",""ego_occluders"":""010""}","true","","","","","","","","","","","","","","","","","","",""
"","","","","","image-keyboard-response","17","152050","0.0-3.0-14.0","5c7afb18de6f7900150c33d2","665500ab8938657b03fbdba8","665777ec28b10312e5570265","2033","stimuli/00100100.jpg"," ","","practrice_feedback","0","","","","","","","","","","","","","","","","","","","","",""
"","","","","","image-keyboard-response","18","154424","0.0-3.0-15.0","5c7afb18de6f7900150c33d2","665500ab8938657b03fbdba8","665777ec28b10312e5570265","2371","stimuli/0111111.jpg","1","","prediction_practice","0","{""filepath"":""stimuli/0111111.jpg"",""ball_pos"":0,""ego_ball_visible"":false,""ego_can_infer"":false,""alter_ball_visible"":false,""alter_can_infer"":false,""collective_ball_visible"":false,""collective_can_infer"":false,""search_locations"":[1,0,2],""alter_occluders"":""111"",""ego_occluders"":""111""}","false","","","","","","","","","","","","","","","","","","",""
"","","","","","image-keyboard-response","19","157678","0.0-3.0-16.0","5c7afb18de6f7900150c33d2","665500ab8938657b03fbdba8","665777ec28b10312e5570265","3252","stimuli/01111110.jpg"," ","","practrice_feedback","1","","","","","","","","","","","","","","","","","","","","",""
"","","","","","image-keyboard-response","20","164819","0.0-3.0-17.0","5c7afb18de6f7900150c33d2","665500ab8938657b03fbdba8","665777ec28b10312e5570265","7137","stimuli/0110100.jpg","0","","prediction_practice","0","{""filepath"":""stimuli/0110100.jpg"",""ball_pos"":0,""ego_ball_visible"":false,""ego_can_infer"":true,""alter_ball_visible"":false,""alter_can_infer"":false,""collective_ball_visible"":false,""collective_can_infer"":false,""search_locations"":[0,1],""alter_occluders"":""110"",""ego_occluders"":""100""}","true","","","","","","","","","","","","","","","","","","",""
"","","","","","image-keyboard-response","21","166445","0.0-3.0-18.0","5c7afb18de6f7900150c33d2","665500ab8938657b03fbdba8","665777ec28b10312e5570265","1624","stimuli/01101000.jpg"," ","","practrice_feedback","0","","","","","","","","","","","","","","","","","","","","",""
"","","","","","image-keyboard-response","22","169060","0.0-3.0-19.0","5c7afb18de6f7900150c33d2","665500ab8938657b03fbdba8","665777ec28b10312e5570265","2612","stimuli/1010101.jpg","1","","prediction_practice","1","{""filepath"":""stimuli/1010101.jpg"",""ball_pos"":1,""ego_ball_visible"":true,""ego_can_infer"":true,""alter_ball_visible"":false,""alter_can_infer"":true,""collective_ball_visible"":false,""collective_can_infer"":true,""search_locations"":[1],""alter_occluders"":""010"",""ego_occluders"":""101""}","true","","","","","","","","","","","","","","","","","","",""
"","","","","","image-keyboard-response","23","170467","0.0-3.0-20.0","5c7afb18de6f7900150c33d2","665500ab8938657b03fbdba8","665777ec28b10312e5570265","1404","stimuli/10101011.jpg"," ","","practrice_feedback","1","","","","","","","","","","","","","","","","","","","","",""
"","","","","","html-button-response","24","182027","0.0-3.0-21.0","5c7afb18de6f7900150c33d2","665500ab8938657b03fbdba8","665777ec28b10312e5570265","11558","Now that you've had some practice, you'll be tested with a couple of easy trials. If you correctly predict Sam's choice, you'll move on to complete the experiment!","0","","","","","","","","","","","","","","","","","","","","","","","",""
"","","","","","image-keyboard-response","25","184349","0.0-3.0-22.0-0.0","5c7afb18de6f7900150c33d2","665500ab8938657b03fbdba8","665777ec28b10312e5570265","2294","stimuli/0000011.jpg","arrowleft","","comprehension_quiz","","","true","arrowleft","","","","","","","","","","","","","","","","","",""
"","","","","","image-keyboard-response","26","185672","0.0-3.0-22.0-1.0","5c7afb18de6f7900150c33d2","665500ab8938657b03fbdba8","665777ec28b10312e5570265","1319","stimuli/00000110.jpg"," ","","comprehension_quiz","","","true"," ","","","","","","","","","","","","","","","","","",""
"","","","","","image-keyboard-response","27","188397","0.0-3.0-22.0-2.0","5c7afb18de6f7900150c33d2","665500ab8938657b03fbdba8","665777ec28b10312e5570265","2722","stimuli/1010010.jpg","arrowdown","","comprehension_quiz","","","true","arrowdown","","","","","","","","","","","","","","","","","",""
"","","","","","image-keyboard-response","28","190264","0.0-3.0-22.0-3.0","5c7afb18de6f7900150c33d2","665500ab8938657b03fbdba8","665777ec28b10312e5570265","1864","stimuli/10100101.jpg"," ","","comprehension_quiz","","","true"," ","","","","","","","","","","","","","","","","","",""
"","","","","","html-button-response","29","193082","0.0-4.0","5c7afb18de6f7900150c33d2","665500ab8938657b03fbdba8","665777ec28b10312e5570265","2812","The experiment will now begin.","0","","","","","","","","","","","","","","","","","","","","","","","",""
"","","","","","image-keyboard-response","30","197873","0.0-5.0","5c7afb18de6f7900150c33d2","665500ab8938657b03fbdba8","665777ec28b10312e5570265","4788","stimuli/2011001.jpg","1","","prediction_trial","1","","true","","2","false","true","false","false","false","false","[2,1]","011","001","1","","","","","","",""
"","","","","","image-keyboard-response","31","199489","0.0-6.0","5c7afb18de6f7900150c33d2","665500ab8938657b03fbdba8","665777ec28b10312e5570265","1613","stimuli/20110011.jpg"," ","","feedback_trial","2","","","","","","","","","","","","","","","","","","","","",""
"","","","","","image-keyboard-response","32","201462","0.0-7.0","5c7afb18de6f7900150c33d2","665500ab8938657b03fbdba8","665777ec28b10312e5570265","1969","stimuli/0000111.jpg","1","","prediction_trial","0","","false","","0","false","false","true","true","false","false","[0]","000","111","0","","","","","","",""
"","","","","","image-keyboard-response","33","207385","0.0-8.0","5c7afb18de6f7900150c33d2","665500ab8938657b03fbdba8","665777ec28b10312e5570265","5919","stimuli/00001110.jpg"," ","","feedback_trial","0","","","","","","","","","","","","","","","","","","","","",""
"","","","","","image-keyboard-response","34","209771","0.0-9.0","5c7afb18de6f7900150c33d2","665500ab8938657b03fbdba8","665777ec28b10312e5570265","2384","stimuli/1001100.jpg","1","","prediction_trial","1","","true","","1","true","true","true","true","true","true","[1]","001","100","1","","","","","","",""
"","","","","","image-keyboard-response","35","210909","0.0-10.0","5c7afb18de6f7900150c33d2","665500ab8938657b03fbdba8","665777ec28b10312e5570265","1135","stimuli/10011001.jpg"," ","","feedback_trial","1","","","","","","","","","","","","","","","","","","","","",""
"","","","","","image-keyboard-response","36","213146","0.0-11.0","5c7afb18de6f7900150c33d2","665500ab8938657b03fbdba8","665777ec28b10312e5570265","2234","stimuli/0111101.jpg","2","","prediction_trial","0","","false","","0","false","false","false","false","false","false","[0,2,1]","111","101","0","","","","","","",""
"","","","","","image-keyboard-response","37","216367","0.0-12.0","5c7afb18de6f7900150c33d2","665500ab8938657b03fbdba8","665777ec28b10312e5570265","3218","stimuli/01111010.jpg"," ","","feedback_trial","0","","","","","","","","","","","","","","","","","","","","",""
"","","","","","image-keyboard-response","38","218153","0.0-13.0","5c7afb18de6f7900150c33d2","665500ab8938657b03fbdba8","665777ec28b10312e5570265","1784","stimuli/1000001.jpg","1","","prediction_trial","1","","true","","1","true","true","true","true","true","true","[1]","000","001","1","","","","","","",""
"","","","","","image-keyboard-response","39","219661","0.0-14.0","5c7afb18de6f7900150c33d2","665500ab8938657b03fbdba8","665777ec28b10312e5570265","1506","stimuli/10000011.jpg"," ","","feedback_trial","1","","","","","","","","","","","","","","","","","","","","",""
"","","","","","image-keyboard-response","40","222170","0.0-15.0","5c7afb18de6f7900150c33d2","665500ab8938657b03fbdba8","665777ec28b10312e5570265","2489","stimuli/0111110.jpg","1","","prediction_trial","1","","true","","0","false","false","false","false","false","false","[0,1,2]","111","110","1","","","","","","",""
"","","","","","image-keyboard-response","41","223407","0.0-16.0","5c7afb18de6f7900150c33d2","665500ab8938657b03fbdba8","665777ec28b10312e5570265","1235","stimuli/01111101.jpg"," ","","feedback_trial","0","","","","","","","","","","","","","","","","","","","","",""
"","","","","","image-keyboard-response","42","227689","0.0-17.0","5c7afb18de6f7900150c33d2","665500ab8938657b03fbdba8","665777ec28b10312e5570265","4279","stimuli/2101001.jpg","2","","prediction_trial","2","","true","","2","false","true","false","false","false","false","[0,2]","101","001","1","","","","","","",""
"","","","","","image-keyboard-response","43","228848","0.0-18.0","5c7afb18de6f7900150c33d2","665500ab8938657b03fbdba8","665777ec28b10312e5570265","1156","stimuli/21010012.jpg"," ","","feedback_trial","0","","","","","","","","","","","","","","","","","","","","",""
"","","","","","image-keyboard-response","44","231282","0.0-19.0","5c7afb18de6f7900150c33d2","665500ab8938657b03fbdba8","665777ec28b10312e5570265","2433","stimuli/0011000.jpg","0","","prediction_trial","0","","true","","0","true","true","true","true","true","true","[0]","011","000","1","","","","","","",""
"","","","","","image-keyboard-response","45","232337","0.0-20.0","5c7afb18de6f7900150c33d2","665500ab8938657b03fbdba8","665777ec28b10312e5570265","1052","stimuli/00110000.jpg"," ","","feedback_trial","0","","","","","","","","","","","","","","","","","","","","",""
"","","","","","image-keyboard-response","46","233935","0.0-21.0","5c7afb18de6f7900150c33d2","665500ab8938657b03fbdba8","665777ec28b10312e5570265","1596","stimuli/1100001.jpg","1","","prediction_trial","1","","true","","1","true","true","true","true","true","true","[1]","100","001","1","","","","","","",""
"","","","","","image-keyboard-response","47","235035","0.0-22.0","5c7afb18de6f7900150c33d2","665500ab8938657b03fbdba8","665777ec28b10312e5570265","1097","stimuli/11000011.jpg"," ","","feedback_trial","1","","","","","","","","","","","","","","","","","","","","",""
"","","","","","image-keyboard-response","48","236652","0.0-23.0","5c7afb18de6f7900150c33d2","665500ab8938657b03fbdba8","665777ec28b10312e5570265","1614","stimuli/2010100.jpg","2","","prediction_trial","2","","true","","2","true","true","true","true","true","true","[2]","010","100","1","","","","","","",""
"","","","","","image-keyboard-response","49","237850","0.0-24.0","5c7afb18de6f7900150c33d2","665500ab8938657b03fbdba8","665777ec28b10312e5570265","1195","stimuli/20101002.jpg"," ","","feedback_trial","2","","","","","","","","","","","","","","","","","","","","",""
"","","","","","image-keyboard-response","50","240743","0.0-25.0","5c7afb18de6f7900150c33d2","665500ab8938657b03fbdba8","665777ec28b10312e5570265","2891","stimuli/1111101.jpg","1","","prediction_trial","0","","false","","1","true","true","false","false","false","false","[0,2,1]","111","101","0","","","","","","",""
"","","","","","image-keyboard-response","51","255204","0.0-26.0","5c7afb18de6f7900150c33d2","665500ab8938657b03fbdba8","665777ec28b10312e5570265","14467","stimuli/11111010.jpg"," ","","feedback_trial","0","","","","","","","","","","","","","","","","","","","","",""
"","","","","","image-keyboard-response","52","257432","0.0-27.0","5c7afb18de6f7900150c33d2","665500ab8938657b03fbdba8","665777ec28b10312e5570265","2225","stimuli/1100011.jpg","1","","prediction_trial","1","","true","","1","false","false","true","true","false","false","[1]","100","011","1","","","","","","",""
"","","","","","image-keyboard-response","53","258756","0.0-28.0","5c7afb18de6f7900150c33d2","665500ab8938657b03fbdba8","665777ec28b10312e5570265","1321","stimuli/11000111.jpg"," ","","feedback_trial","1","","","","","","","","","","","","","","","","","","","","",""
"","","","","","image-keyboard-response","54","261091","0.0-29.0","5c7afb18de6f7900150c33d2","665500ab8938657b03fbdba8","665777ec28b10312e5570265","2332","stimuli/0110100.jpg","1","","prediction_trial","0","","false","","0","false","true","false","false","false","false","[0,1]","110","100","0","","","","","","",""
"","","","","","image-keyboard-response","55","262754","0.0-30.0","5c7afb18de6f7900150c33d2","665500ab8938657b03fbdba8","665777ec28b10312e5570265","1660","stimuli/01101000.jpg"," ","","feedback_trial","0","","","","","","","","","","","","","","","","","","","","",""
"","","","","","image-keyboard-response","56","264596","0.0-31.0","5c7afb18de6f7900150c33d2","665500ab8938657b03fbdba8","665777ec28b10312e5570265","1840","stimuli/1100100.jpg","1","","prediction_trial","1","","true","","1","true","true","true","true","true","true","[1]","100","100","1","","","","","","",""
"","","","","","image-keyboard-response","57","266090","0.0-32.0","5c7afb18de6f7900150c33d2","665500ab8938657b03fbdba8","665777ec28b10312e5570265","1490","stimuli/11001001.jpg"," ","","feedback_trial","1","","","","","","","","","","","","","","","","","","","","",""
"","","","","","image-keyboard-response","58","269664","0.0-33.0","5c7afb18de6f7900150c33d2","665500ab8938657b03fbdba8","665777ec28b10312e5570265","3572","stimuli/1010111.jpg","2","","prediction_trial","1","","false","","1","false","false","false","true","false","false","[1]","010","111","0","","","","","","",""
"","","","","","image-keyboard-response","59","274513","0.0-34.0","5c7afb18de6f7900150c33d2","665500ab8938657b03fbdba8","665777ec28b10312e5570265","4846","stimuli/10101111.jpg"," ","","feedback_trial","1","","","","","","","","","","","","","","","","","","","","",""
"","","","","","image-keyboard-response","60","276203","0.0-35.0","5c7afb18de6f7900150c33d2","665500ab8938657b03fbdba8","665777ec28b10312e5570265","1687","stimuli/1100101.jpg","1","","prediction_trial","1","","true","","1","true","true","true","true","true","true","[1]","100","101","1","","","","","","",""
"","","","","","image-keyboard-response","61","277323","0.0-36.0","5c7afb18de6f7900150c33d2","665500ab8938657b03fbdba8","665777ec28b10312e5570265","1118","stimuli/11001011.jpg"," ","","feedback_trial","1","","","","","","","","","","","","","","","","","","","","",""
"","","","","","image-keyboard-response","62","278617","0.0-37.0","5c7afb18de6f7900150c33d2","665500ab8938657b03fbdba8","665777ec28b10312e5570265","1273","stimuli/0011010.jpg","0","","prediction_trial","0","","true","","0","true","true","true","true","true","true","[0]","011","010","1","","","","","","",""
"","","","","","image-keyboard-response","63","279672","0.0-38.0","5c7afb18de6f7900150c33d2","665500ab8938657b03fbdba8","665777ec28b10312e5570265","1053","stimuli/00110100.jpg"," ","","feedback_trial","0","","","","","","","","","","","","","","","","","","","","",""
"","","","","","image-keyboard-response","64","282016","0.0-39.0","5c7afb18de6f7900150c33d2","665500ab8938657b03fbdba8","665777ec28b10312e5570265","2341","stimuli/2111101.jpg","1","","prediction_trial","1","","true","","2","false","false","false","false","false","false","[0,1,2]","111","101","1","","","","","","",""
"","","","","","image-keyboard-response","65","283330","0.0-40.0","5c7afb18de6f7900150c33d2","665500ab8938657b03fbdba8","665777ec28b10312e5570265","1312","stimuli/21111011.jpg"," ","","feedback_trial","0","","","","","","","","","","","","","","","","","","","","",""
"","","","","","image-keyboard-response","66","285849","0.0-41.0","5c7afb18de6f7900150c33d2","665500ab8938657b03fbdba8","665777ec28b10312e5570265","2515","stimuli/2001101.jpg","2","","prediction_trial","2","","true","","2","false","false","false","true","false","false","[2]","001","101","1","","","","","","",""
"","","","","","image-keyboard-response","67","287520","0.0-42.0","5c7afb18de6f7900150c33d2","665500ab8938657b03fbdba8","665777ec28b10312e5570265","1670","stimuli/20011012.jpg"," ","","feedback_trial","2","","","","","","","","","","","","","","","","","","","","",""
"","","","","","image-keyboard-response","68","290041","0.0-43.0","5c7afb18de6f7900150c33d2","665500ab8938657b03fbdba8","665777ec28b10312e5570265","2518","stimuli/1011000.jpg","1","","prediction_trial","2","","false","","1","true","true","false","false","false","false","[2,1]","011","000","0","","","","","","",""
"","","","","","image-keyboard-response","69","294554","0.0-44.0","5c7afb18de6f7900150c33d2","665500ab8938657b03fbdba8","665777ec28b10312e5570265","4511","stimuli/10110002.jpg"," ","","feedback_trial","2","","","","","","","","","","","","","","","","","","","","",""
"","","","","","image-keyboard-response","70","296531","0.0-45.0","5c7afb18de6f7900150c33d2","665500ab8938657b03fbdba8","665777ec28b10312e5570265","1973","stimuli/1100000.jpg","1","","prediction_trial","1","","true","","1","true","true","true","true","true","true","[1]","100","000","1","","","","","","",""
"","","","","","image-keyboard-response","71","297892","0.0-46.0","5c7afb18de6f7900150c33d2","665500ab8938657b03fbdba8","665777ec28b10312e5570265","1359","stimuli/11000001.jpg"," ","","feedback_trial","1","","","","","","","","","","","","","","","","","","","","",""
"","","","","","image-keyboard-response","72","299172","0.0-47.0","5c7afb18de6f7900150c33d2","665500ab8938657b03fbdba8","665777ec28b10312e5570265","1278","stimuli/2110010.jpg","2","","prediction_trial","2","","true","","2","true","true","true","true","true","true","[2]","110","010","1","","","","","","",""
"","","","","","image-keyboard-response","73","300262","0.0-48.0","5c7afb18de6f7900150c33d2","665500ab8938657b03fbdba8","665777ec28b10312e5570265","1086","stimuli/21100102.jpg"," ","","feedback_trial","2","","","","","","","","","","","","","","","","","","","","",""
"","","","","","image-keyboard-response","74","303539","0.0-49.0","5c7afb18de6f7900150c33d2","665500ab8938657b03fbdba8","665777ec28b10312e5570265","3274","stimuli/2111011.jpg","1","","prediction_trial","1","","true","","2","false","false","false","false","false","false","[2,1,0]","111","011","1","","","","","","",""
"","","","","","image-keyboard-response","75","304713","0.0-50.0","5c7afb18de6f7900150c33d2","665500ab8938657b03fbdba8","665777ec28b10312e5570265","1171","stimuli/21110111.jpg"," ","","feedback_trial","2","","","","","","","","","","","","","","","","","","","","",""
"","","","","","image-keyboard-response","76","308366","0.0-51.0","5c7afb18de6f7900150c33d2","665500ab8938657b03fbdba8","665777ec28b10312e5570265","3650","stimuli/2101011.jpg","1","","prediction_trial","2","","false","","2","false","false","false","false","false","false","[0,2]","101","011","0","","","","","","",""
"","","","","","image-keyboard-response","77","309897","0.0-52.0","5c7afb18de6f7900150c33d2","665500ab8938657b03fbdba8","665777ec28b10312e5570265","1529","stimuli/21010112.jpg"," ","","feedback_trial","0","","","","","","","","","","","","","","","","","","","","",""
"","","","","","image-keyboard-response","78","313403","0.0-53.0","5c7afb18de6f7900150c33d2","665500ab8938657b03fbdba8","665777ec28b10312e5570265","3504","stimuli/0101000.jpg","0","","prediction_trial","2","","false","","0","true","true","false","false","false","false","[2,0]","101","000","0","","","","","","",""
"","","","","","image-keyboard-response","79","315339","0.0-54.0","5c7afb18de6f7900150c33d2","665500ab8938657b03fbdba8","665777ec28b10312e5570265","1939","stimuli/01010002.jpg"," ","","feedback_trial","2","","","","","","","","","","","","","","","","","","","","",""
"","","","","","image-keyboard-response","80","319136","0.0-55.0","5c7afb18de6f7900150c33d2","665500ab8938657b03fbdba8","665777ec28b10312e5570265","3794","stimuli/2001010.jpg","1","","prediction_trial","2","","false","","2","true","true","false","true","false","true","[2]","001","010","0","","","","","","",""
"","","","","","image-keyboard-response","81","320219","0.0-56.0","5c7afb18de6f7900150c33d2","665500ab8938657b03fbdba8","665777ec28b10312e5570265","1078","stimuli/20010102.jpg"," ","","feedback_trial","2","","","","","","","","","","","","","","","","","","","","",""
"","","","","","image-keyboard-response","82","324419","0.0-57.0","5c7afb18de6f7900150c33d2","665500ab8938657b03fbdba8","665777ec28b10312e5570265","4197","stimuli/1001111.jpg","2","","prediction_trial","1","","false","","1","false","false","true","true","false","false","[1]","001","111","0","","","","","","",""
"","","","","","image-keyboard-response","83","325846","0.0-58.0","5c7afb18de6f7900150c33d2","665500ab8938657b03fbdba8","665777ec28b10312e5570265","1424","stimuli/10011111.jpg"," ","","feedback_trial","1","","","","","","","","","","","","","","","","","","","","",""
"","","","","","image-keyboard-response","84","327518","0.0-59.0","5c7afb18de6f7900150c33d2","665500ab8938657b03fbdba8","665777ec28b10312e5570265","1650","stimuli/1101000.jpg","1","","prediction_trial","1","","true","","1","true","true","true","true","true","true","[1]","101","000","1","","","","","","",""
"","","","","","image-keyboard-response","85","328623","0.0-60.0","5c7afb18de6f7900150c33d2","665500ab8938657b03fbdba8","665777ec28b10312e5570265","1102","stimuli/11010001.jpg"," ","","feedback_trial","1","","","","","","","","","","","","","","","","","","","","",""
"","","","","","image-keyboard-response","86","329993","0.0-61.0","5c7afb18de6f7900150c33d2","665500ab8938657b03fbdba8","665777ec28b10312e5570265","1367","stimuli/1000100.jpg","1","","prediction_trial","1","","true","","1","true","true","true","true","true","true","[1]","000","100","1","","","","","","",""
"","","","","","image-keyboard-response","87","331194","0.0-62.0","5c7afb18de6f7900150c33d2","665500ab8938657b03fbdba8","665777ec28b10312e5570265","1198","stimuli/10001001.jpg"," ","","feedback_trial","1","","","","","","","","","","","","","","","","","","","","",""
"","","","","","image-keyboard-response","88","332474","0.0-63.0","5c7afb18de6f7900150c33d2","665500ab8938657b03fbdba8","665777ec28b10312e5570265","1277","stimuli/1001001.jpg","1","","prediction_trial","1","","true","","1","true","true","true","true","true","true","[1]","001","001","1","","","","","","",""
"","","","","","image-keyboard-response","89","333602","0.0-64.0","5c7afb18de6f7900150c33d2","665500ab8938657b03fbdba8","665777ec28b10312e5570265","1125","stimuli/10010011.jpg"," ","","feedback_trial","1","","","","","","","","","","","","","","","","","","","","",""
"","","","","","image-keyboard-response","90","335449","0.0-65.0","5c7afb18de6f7900150c33d2","665500ab8938657b03fbdba8","665777ec28b10312e5570265","1845","stimuli/2001001.jpg","2","","prediction_trial","2","","true","","2","false","true","false","true","false","true","[2]","001","001","1","","","","","","",""
"","","","","","image-keyboard-response","91","336966","0.0-66.0","5c7afb18de6f7900150c33d2","665500ab8938657b03fbdba8","665777ec28b10312e5570265","1514","stimuli/20010012.jpg"," ","","feedback_trial","2","","","","","","","","","","","","","","","","","","","","",""
"","","","","","image-keyboard-response","92","338618","0.0-67.0","5c7afb18de6f7900150c33d2","665500ab8938657b03fbdba8","665777ec28b10312e5570265","1649","stimuli/2001000.jpg","2","","prediction_trial","2","","true","","2","true","true","false","true","false","true","[2]","001","000","1","","","","","","",""
"","","","","","image-keyboard-response","93","339752","0.0-68.0","5c7afb18de6f7900150c33d2","665500ab8938657b03fbdba8","665777ec28b10312e5570265","1130","stimuli/20010002.jpg"," ","","feedback_trial","2","","","","","","","","","","","","","","","","","","","","",""
"","","","","","image-keyboard-response","94","342474","0.0-69.0","5c7afb18de6f7900150c33d2","665500ab8938657b03fbdba8","665777ec28b10312e5570265","2720","stimuli/1110010.jpg","1","","prediction_trial","1","","true","","1","false","true","false","false","false","false","[0,1]","110","010","1","","","","","","",""
"","","","","","image-keyboard-response","95","343611","0.0-70.0","5c7afb18de6f7900150c33d2","665500ab8938657b03fbdba8","665777ec28b10312e5570265","1133","stimuli/11100101.jpg"," ","","feedback_trial","0","","","","","","","","","","","","","","","","","","","","",""
"","","","","","image-keyboard-response","96","345238","0.0-71.0","5c7afb18de6f7900150c33d2","665500ab8938657b03fbdba8","665777ec28b10312e5570265","1624","stimuli/2000100.jpg","2","","prediction_trial","2","","true","","2","true","true","true","true","true","true","[2]","000","100","1","","","","","","",""
"","","","","","image-keyboard-response","97","346297","0.0-72.0","5c7afb18de6f7900150c33d2","665500ab8938657b03fbdba8","665777ec28b10312e5570265","1058","stimuli/20001002.jpg"," ","","feedback_trial","2","","","","","","","","","","","","","","","","","","","","",""
"","","","","","image-keyboard-response","98","348359","0.0-73.0","5c7afb18de6f7900150c33d2","665500ab8938657b03fbdba8","665777ec28b10312e5570265","2060","stimuli/2011011.jpg","1","","prediction_trial","1","","true","","2","false","false","false","false","false","false","[2,1]","011","011","1","","","","","","",""
"","","","","","image-keyboard-response","99","349507","0.0-74.0","5c7afb18de6f7900150c33d2","665500ab8938657b03fbdba8","665777ec28b10312e5570265","1145","stimuli/20110111.jpg"," ","","feedback_trial","2","","","","","","","","","","","","","","","","","","","","",""
"","","","","","image-keyboard-response","100","352001","0.0-75.0","5c7afb18de6f7900150c33d2","665500ab8938657b03fbdba8","665777ec28b10312e5570265","2492","stimuli/1000010.jpg","1","","prediction_trial","1","","true","","1","false","true","true","true","false","true","[1]","000","010","1","","","","","","",""
"","","","","","image-keyboard-response","101","353014","0.0-76.0","5c7afb18de6f7900150c33d2","665500ab8938657b03fbdba8","665777ec28b10312e5570265","1010","stimuli/10000101.jpg"," ","","feedback_trial","1","","","","","","","","","","","","","","","","","","","","",""
"","","","","","image-keyboard-response","102","354520","0.0-77.0","5c7afb18de6f7900150c33d2","665500ab8938657b03fbdba8","665777ec28b10312e5570265","1503","stimuli/0010000.jpg","0","","prediction_trial","0","","true","","0","true","true","true","true","true","true","[0]","010","000","1","","","","","","",""
"","","","","","image-keyboard-response","103","355604","0.0-78.0","5c7afb18de6f7900150c33d2","665500ab8938657b03fbdba8","665777ec28b10312e5570265","1081","stimuli/00100000.jpg"," ","","feedback_trial","0","","","","","","","","","","","","","","","","","","","","",""
"","","","","","image-keyboard-response","104","357678","0.0-79.0","5c7afb18de6f7900150c33d2","665500ab8938657b03fbdba8","665777ec28b10312e5570265","2072","stimuli/1011011.jpg","1","","prediction_trial","1","","true","","1","false","false","false","false","false","false","[1,2]","011","011","1","","","","","","",""
"","","","","","image-keyboard-response","105","358833","0.0-80.0","5c7afb18de6f7900150c33d2","665500ab8938657b03fbdba8","665777ec28b10312e5570265","1152","stimuli/10110111.jpg"," ","","feedback_trial","1","","","","","","","","","","","","","","","","","","","","",""
"","","","","","image-keyboard-response","106","366983","0.0-81.0","5c7afb18de6f7900150c33d2","665500ab8938657b03fbdba8","665777ec28b10312e5570265","8148","stimuli/2100001.jpg","2","","prediction_trial","2","","true","","2","false","true","true","true","false","true","[2]","100","001","1","","","","","","",""
"","","","","","image-keyboard-response","107","368229","0.0-82.0","5c7afb18de6f7900150c33d2","665500ab8938657b03fbdba8","665777ec28b10312e5570265","1243","stimuli/21000012.jpg"," ","","feedback_trial","2","","","","","","","","","","","","","","","","","","","","",""
"","","","","","image-keyboard-response","108","428747","0.0-83.0","5c7afb18de6f7900150c33d2","665500ab8938657b03fbdba8","665777ec28b10312e5570265","60501","stimuli/0101100.jpg","2","","prediction_trial","0","","false","","0","false","true","false","false","false","false","[2,0]","101","100","0","","","","","","",""
"","","","","","image-keyboard-response","109","430653","0.0-84.0","5c7afb18de6f7900150c33d2","665500ab8938657b03fbdba8","665777ec28b10312e5570265","1903","stimuli/01011000.jpg"," ","","feedback_trial","2","","","","","","","","","","","","","","","","","","","","",""
"","","","","","image-keyboard-response","110","433901","0.0-85.0","5c7afb18de6f7900150c33d2","665500ab8938657b03fbdba8","665777ec28b10312e5570265","3247","stimuli/1011100.jpg","1","","prediction_trial","1","","true","","1","true","true","false","false","false","false","[2,1]","011","100","1","","","","","","",""
"","","","","","image-keyboard-response","111","435049","0.0-86.0","5c7afb18de6f7900150c33d2","665500ab8938657b03fbdba8","665777ec28b10312e5570265","1144","stimuli/10111001.jpg"," ","","feedback_trial","2","","","","","","","","","","","","","","","","","","","","",""
"","","","","","image-keyboard-response","112","437570","0.0-87.0","5c7afb18de6f7900150c33d2","665500ab8938657b03fbdba8","665777ec28b10312e5570265","2518","stimuli/2110000.jpg","2","","prediction_trial","2","","true","","2","true","true","true","true","true","true","[2]","110","000","1","","","","","","",""
"","","","","","image-keyboard-response","113","438683","0.0-88.0","5c7afb18de6f7900150c33d2","665500ab8938657b03fbdba8","665777ec28b10312e5570265","1111","stimuli/21100002.jpg"," ","","feedback_trial","2","","","","","","","","","","","","","","","","","","","","",""
"","","","","","image-keyboard-response","114","441629","0.0-89.0","5c7afb18de6f7900150c33d2","665500ab8938657b03fbdba8","665777ec28b10312e5570265","2943","stimuli/0110000.jpg","1","","prediction_trial","0","","false","","0","true","true","false","false","false","false","[1,0]","110","000","0","","","","","","",""
"","","","","","image-keyboard-response","115","442966","0.0-90.0","5c7afb18de6f7900150c33d2","665500ab8938657b03fbdba8","665777ec28b10312e5570265","1334","stimuli/01100000.jpg"," ","","feedback_trial","1","","","","","","","","","","","","","","","","","","","","",""
"","","","","","image-keyboard-response","116","447469","0.0-91.0","5c7afb18de6f7900150c33d2","665500ab8938657b03fbdba8","665777ec28b10312e5570265","4500","stimuli/0101110.jpg","1","","prediction_trial","2","","false","","0","false","false","false","false","false","false","[0,2]","101","110","0","","","","","","",""
"","","","","","image-keyboard-response","117","448778","0.0-92.0","5c7afb18de6f7900150c33d2","665500ab8938657b03fbdba8","665777ec28b10312e5570265","1305","stimuli/01011102.jpg"," ","","feedback_trial","0","","","","","","","","","","","","","","","","","","","","",""
"","","","","","image-keyboard-response","118","450979","0.0-93.0","5c7afb18de6f7900150c33d2","665500ab8938657b03fbdba8","665777ec28b10312e5570265","2198","stimuli/2011101.jpg","1","","prediction_trial","1","","true","","2","false","false","false","false","false","false","[1,2]","011","101","1","","","","","","",""
"","","","","","image-keyboard-response","119","452185","0.0-94.0","5c7afb18de6f7900150c33d2","665500ab8938657b03fbdba8","665777ec28b10312e5570265","1204","stimuli/20111011.jpg"," ","","feedback_trial","1","","","","","","","","","","","","","","","","","","","","",""
"","","","","","image-keyboard-response","120","457210","0.0-95.0","5c7afb18de6f7900150c33d2","665500ab8938657b03fbdba8","665777ec28b10312e5570265","5022","stimuli/0100111.jpg","1","","prediction_trial","0","","false","","0","false","false","false","true","false","false","[0]","100","111","0","","","","","","",""
"","","","","","image-keyboard-response","121","458579","0.0-96.0","5c7afb18de6f7900150c33d2","665500ab8938657b03fbdba8","665777ec28b10312e5570265","1367","stimuli/01001110.jpg"," ","","feedback_trial","0","","","","","","","","","","","","","","","","","","","","",""
"","","","","","image-keyboard-response","122","460750","0.0-97.0","5c7afb18de6f7900150c33d2","665500ab8938657b03fbdba8","665777ec28b10312e5570265","2168","stimuli/1110101.jpg","1","","prediction_trial","1","","true","","1","true","true","false","false","false","false","[0,1]","110","101","1","","","","","","",""
"","","","","","image-keyboard-response","123","461899","0.0-98.0","5c7afb18de6f7900150c33d2","665500ab8938657b03fbdba8","665777ec28b10312e5570265","1146","stimuli/11101011.jpg"," ","","feedback_trial","0","","","","","","","","","","","","","","","","","","","","",""
"","","","","","image-keyboard-response","124","467280","0.0-99.0","5c7afb18de6f7900150c33d2","665500ab8938657b03fbdba8","665777ec28b10312e5570265","5379","stimuli/0110011.jpg","1","","prediction_trial","1","","true","","0","true","true","false","false","false","false","[0,1]","110","011","1","","","","","","",""
"","","","","","image-keyboard-response","125","468375","0.0-100.0","5c7afb18de6f7900150c33d2","665500ab8938657b03fbdba8","665777ec28b10312e5570265","1093","stimuli/01100111.jpg"," ","","feedback_trial","0","","","","","","","","","","","","","","","","","","","","",""
"","","","","","image-keyboard-response","126","469765","0.0-101.0","5c7afb18de6f7900150c33d2","665500ab8938657b03fbdba8","665777ec28b10312e5570265","1387","stimuli/0011011.jpg","0","","prediction_trial","0","","true","","0","true","true","true","true","true","true","[0]","011","011","1","","","","","","",""
"","","","","","image-keyboard-response","127","470883","0.0-102.0","5c7afb18de6f7900150c33d2","665500ab8938657b03fbdba8","665777ec28b10312e5570265","1115","stimuli/00110110.jpg"," ","","feedback_trial","0","","","","","","","","","","","","","","","","","","","","",""
"","","","","","image-keyboard-response","128","473248","0.0-103.0","5c7afb18de6f7900150c33d2","665500ab8938657b03fbdba8","665777ec28b10312e5570265","2344","stimuli/2110011.jpg","1","","prediction_trial","2","","false","","2","false","false","true","true","false","false","[2]","110","011","0","","","","","","",""
"","","","","","image-keyboard-response","129","474397","0.0-104.0","5c7afb18de6f7900150c33d2","665500ab8938657b03fbdba8","665777ec28b10312e5570265","1148","stimuli/21100112.jpg"," ","","feedback_trial","2","","","","","","","","","","","","","","","","","","","","",""
"","","","","","image-keyboard-response","130","478927","0.0-105.0","5c7afb18de6f7900150c33d2","665500ab8938657b03fbdba8","665777ec28b10312e5570265","4527","stimuli/0100001.jpg","0","","prediction_trial","0","","true","","0","true","true","false","true","false","true","[0]","100","001","1","","","","","","",""
"","","","","","image-keyboard-response","131","480235","0.0-106.0","5c7afb18de6f7900150c33d2","665500ab8938657b03fbdba8","665777ec28b10312e5570265","1306","stimuli/01000010.jpg"," ","","feedback_trial","0","","","","","","","","","","","","","","","","","","","","",""
"","","","","","image-keyboard-response","132","482405","0.0-107.0","5c7afb18de6f7900150c33d2","665500ab8938657b03fbdba8","665777ec28b10312e5570265","2168","stimuli/2000111.jpg","1","","prediction_trial","2","","false","","2","false","false","true","true","false","false","[2]","000","111","0","","","","","","",""
"","","","","","image-keyboard-response","133","483606","0.0-108.0","5c7afb18de6f7900150c33d2","665500ab8938657b03fbdba8","665777ec28b10312e5570265","1206","stimuli/20001112.jpg"," ","","feedback_trial","2","","","","","","","","","","","","","","","","","","","","",""
"","","","","","image-keyboard-response","134","487946","0.0-109.0","5c7afb18de6f7900150c33d2","665500ab8938657b03fbdba8","665777ec28b10312e5570265","4337","stimuli/1110111.jpg","2","","prediction_trial","1","","false","","1","false","false","false","false","false","false","[1,0]","110","111","0","","","","","","",""
"","","","","","image-keyboard-response","135","489855","0.0-110.0","5c7afb18de6f7900150c33d2","665500ab8938657b03fbdba8","665777ec28b10312e5570265","1906","stimuli/11101111.jpg"," ","","feedback_trial","1","","","","","","","","","","","","","","","","","","","","",""
"","","","","","image-keyboard-response","136","491166","0.0-111.0","5c7afb18de6f7900150c33d2","665500ab8938657b03fbdba8","665777ec28b10312e5570265","1310","stimuli/2110110.jpg","2","","prediction_trial","2","","true","","2","true","true","true","true","true","true","[2]","110","110","1","","","","","","",""
"","","","","","image-keyboard-response","137","492221","0.0-112.0","5c7afb18de6f7900150c33d2","665500ab8938657b03fbdba8","665777ec28b10312e5570265","1052","stimuli/21101102.jpg"," ","","feedback_trial","2","","","","","","","","","","","","","","","","","","","","",""
"","","","","","image-keyboard-response","138","493665","0.0-113.0","5c7afb18de6f7900150c33d2","665500ab8938657b03fbdba8","665777ec28b10312e5570265","1442","stimuli/0001010.jpg","0","","prediction_trial","0","","true","","0","true","true","true","true","true","true","[0]","001","010","1","","","","","","",""
"","","","","","image-keyboard-response","139","494374","0.0-114.0","5c7afb18de6f7900150c33d2","665500ab8938657b03fbdba8","665777ec28b10312e5570265","706","stimuli/00010100.jpg"," ","","feedback_trial","0","","","","","","","","","","","","","","","","","","","","",""
"","","","","","image-keyboard-response","140","495917","0.0-115.0","5c7afb18de6f7900150c33d2","665500ab8938657b03fbdba8","665777ec28b10312e5570265","1540","stimuli/0011001.jpg","0","","prediction_trial","0","","true","","0","true","true","true","true","true","true","[0]","011","001","1","","","","","","",""
"","","","","","image-keyboard-response","141","496578","0.0-116.0","5c7afb18de6f7900150c33d2","665500ab8938657b03fbdba8","665777ec28b10312e5570265","658","stimuli/00110010.jpg"," ","","feedback_trial","0","","","","","","","","","","","","","","","","","","","","",""
"","","","","","image-keyboard-response","142","499690","0.0-117.0","5c7afb18de6f7900150c33d2","665500ab8938657b03fbdba8","665777ec28b10312e5570265","3110","stimuli/1101110.jpg","1","","prediction_trial","1","","true","","1","false","false","true","true","false","false","[1]","101","110","1","","","","","","",""
"","","","","","image-keyboard-response","143","500935","0.0-118.0","5c7afb18de6f7900150c33d2","665500ab8938657b03fbdba8","665777ec28b10312e5570265","1243","stimuli/11011101.jpg"," ","","feedback_trial","1","","","","","","","","","","","","","","","","","","","","",""
"","","","","","image-keyboard-response","144","502216","0.0-119.0","5c7afb18de6f7900150c33d2","665500ab8938657b03fbdba8","665777ec28b10312e5570265","1281","stimuli/2000110.jpg","2","","prediction_trial","2","","true","","2","true","true","true","true","true","true","[2]","000","110","1","","","","","","",""
"","","","","","image-keyboard-response","145","503169","0.0-120.0","5c7afb18de6f7900150c33d2","665500ab8938657b03fbdba8","665777ec28b10312e5570265","950","stimuli/20001102.jpg"," ","","feedback_trial","2","","","","","","","","","","","","","","","","","","","","",""
"","","","","","image-keyboard-response","146","504727","0.0-121.0","5c7afb18de6f7900150c33d2","665500ab8938657b03fbdba8","665777ec28b10312e5570265","1555","stimuli/1100111.jpg","1","","prediction_trial","1","","true","","1","false","false","true","true","false","false","[1]","100","111","1","","","","","","",""
"","","","","","image-keyboard-response","147","506528","0.0-122.0","5c7afb18de6f7900150c33d2","665500ab8938657b03fbdba8","665777ec28b10312e5570265","1798","stimuli/11001111.jpg"," ","","feedback_trial","1","","","","","","","","","","","","","","","","","","","","",""
"","","","","","image-keyboard-response","148","508640","0.0-123.0","5c7afb18de6f7900150c33d2","665500ab8938657b03fbdba8","665777ec28b10312e5570265","2110","stimuli/0101011.jpg","1","","prediction_trial","2","","false","","0","true","true","false","false","false","false","[2,0]","101","011","0","","","","","","",""
"","","","","","image-keyboard-response","149","509944","0.0-124.0","5c7afb18de6f7900150c33d2","665500ab8938657b03fbdba8","665777ec28b10312e5570265","1301","stimuli/01010112.jpg"," ","","feedback_trial","2","","","","","","","","","","","","","","","","","","","","",""
"","","","","","image-keyboard-response","150","511160","0.0-125.0","5c7afb18de6f7900150c33d2","665500ab8938657b03fbdba8","665777ec28b10312e5570265","1196","stimuli/1101101.jpg","1","","prediction_trial","1","","true","","1","true","true","true","true","true","true","[1]","101","101","1","","","","","","",""
"","","","","","image-keyboard-response","151","512171","0.0-126.0","5c7afb18de6f7900150c33d2","665500ab8938657b03fbdba8","665777ec28b10312e5570265","1009","stimuli/11011011.jpg"," ","","feedback_trial","1","","","","","","","","","","","","","","","","","","","","",""
"","","","","","image-keyboard-response","152","514018","0.0-127.0","5c7afb18de6f7900150c33d2","665500ab8938657b03fbdba8","665777ec28b10312e5570265","1843","stimuli/2011010.jpg","1","","prediction_trial","2","","false","","2","true","true","false","false","false","false","[1,2]","011","010","0","","","","","","",""
"","","","","","image-keyboard-response","153","515243","0.0-128.0","5c7afb18de6f7900150c33d2","665500ab8938657b03fbdba8","665777ec28b10312e5570265","1222","stimuli/20110102.jpg"," ","","feedback_trial","1","","","","","","","","","","","","","","","","","","","","",""
"","","","","","image-keyboard-response","154","516690","0.0-129.0","5c7afb18de6f7900150c33d2","665500ab8938657b03fbdba8","665777ec28b10312e5570265","1444","stimuli/1101111.jpg","1","","prediction_trial","1","","true","","1","false","false","true","true","false","false","[1]","101","111","1","","","","","","",""
"","","","","","image-keyboard-response","155","518114","0.0-130.0","5c7afb18de6f7900150c33d2","665500ab8938657b03fbdba8","665777ec28b10312e5570265","1421","stimuli/11011111.jpg"," ","","feedback_trial","1","","","","","","","","","","","","","","","","","","","","",""
"","","","","","image-keyboard-response","156","521343","0.0-131.0","5c7afb18de6f7900150c33d2","665500ab8938657b03fbdba8","665777ec28b10312e5570265","3227","stimuli/1010001.jpg","1","","prediction_trial","1","","true","","1","true","true","false","true","false","true","[1]","010","001","1","","","","","","",""
"","","","","","image-keyboard-response","157","522525","0.0-132.0","5c7afb18de6f7900150c33d2","665500ab8938657b03fbdba8","665777ec28b10312e5570265","1179","stimuli/10100011.jpg"," ","","feedback_trial","1","","","","","","","","","","","","","","","","","","","","",""
"","","","","","image-keyboard-response","158","525149","0.0-133.0","5c7afb18de6f7900150c33d2","665500ab8938657b03fbdba8","665777ec28b10312e5570265","2621","stimuli/0111001.jpg","1","","prediction_trial","2","","false","","0","true","true","false","false","false","false","[1,0,2]","111","001","0","","","","","","",""
"","","","","","image-keyboard-response","159","527442","0.0-134.0","5c7afb18de6f7900150c33d2","665500ab8938657b03fbdba8","665777ec28b10312e5570265","2289","stimuli/01110012.jpg"," ","","feedback_trial","1","","","","","","","","","","","","","","","","","","","","",""
"","","","","","image-keyboard-response","160","530553","0.0-135.0","5c7afb18de6f7900150c33d2","665500ab8938657b03fbdba8","665777ec28b10312e5570265","3107","stimuli/2010101.jpg","2","","prediction_trial","2","","true","","2","false","false","true","true","false","false","[2]","010","101","1","","","","","","",""
"","","","","","image-keyboard-response","161","531870","0.0-136.0","5c7afb18de6f7900150c33d2","665500ab8938657b03fbdba8","665777ec28b10312e5570265","1313","stimuli/20101012.jpg"," ","","feedback_trial","2","","","","","","","","","","","","","","","","","","","","",""
"","","","","","image-keyboard-response","162","535664","0.0-137.0","5c7afb18de6f7900150c33d2","665500ab8938657b03fbdba8","665777ec28b10312e5570265","3791","stimuli/1111001.jpg","1","","prediction_trial","2","","false","","1","true","true","false","false","false","false","[2,0,1]","111","001","0","","","","","","",""
"","","","","","image-keyboard-response","163","536753","0.0-138.0","5c7afb18de6f7900150c33d2","665500ab8938657b03fbdba8","665777ec28b10312e5570265","1086","stimuli/11110012.jpg"," ","","feedback_trial","2","","","","","","","","","","","","","","","","","","","","",""
"","","","","","image-keyboard-response","164","538426","0.0-139.0","5c7afb18de6f7900150c33d2","665500ab8938657b03fbdba8","665777ec28b10312e5570265","1671","stimuli/0000110.jpg","1","","prediction_trial","0","","false","","0","false","false","true","true","false","false","[0]","000","110","0","","","","","","",""
"","","","","","image-keyboard-response","165","539430","0.0-140.0","5c7afb18de6f7900150c33d2","665500ab8938657b03fbdba8","665777ec28b10312e5570265","1000","stimuli/00001100.jpg"," ","","feedback_trial","0","","","","","","","","","","","","","","","","","","","","",""
"","","","","","image-keyboard-response","166","541556","0.0-141.0","5c7afb18de6f7900150c33d2","665500ab8938657b03fbdba8","665777ec28b10312e5570265","2123","stimuli/0110111.jpg","1","","prediction_trial","1","","true","","0","false","false","false","false","false","false","[1,0]","110","111","1","","","","","","",""
"","","","","","image-keyboard-response","167","542722","0.0-142.0","5c7afb18de6f7900150c33d2","665500ab8938657b03fbdba8","665777ec28b10312e5570265","1163","stimuli/01101111.jpg"," ","","feedback_trial","1","","","","","","","","","","","","","","","","","","","","",""
"","","","","","image-keyboard-response","168","545266","0.0-143.0","5c7afb18de6f7900150c33d2","665500ab8938657b03fbdba8","665777ec28b10312e5570265","2545","stimuli/2011110.jpg","1","","prediction_trial","1","","true","","2","true","true","false","false","false","false","[2,1]","011","110","1","","","","","","",""
"","","","","","image-keyboard-response","169","546375","0.0-144.0","5c7afb18de6f7900150c33d2","665500ab8938657b03fbdba8","665777ec28b10312e5570265","1108","stimuli/20111101.jpg"," ","","feedback_trial","2","","","","","","","","","","","","","","","","","","","","",""
"","","","","","image-keyboard-response","170","547703","0.0-145.0","5c7afb18de6f7900150c33d2","665500ab8938657b03fbdba8","665777ec28b10312e5570265","1326","stimuli/1000000.jpg","1","","prediction_trial","1","","true","","1","true","true","true","true","true","true","[1]","000","000","1","","","","","","",""
"","","","","","image-keyboard-response","171","548673","0.0-146.0","5c7afb18de6f7900150c33d2","665500ab8938657b03fbdba8","665777ec28b10312e5570265","967","stimuli/10000001.jpg"," ","","feedback_trial","1","","","","","","","","","","","","","","","","","","","","",""
"","","","","","image-keyboard-response","172","553658","0.0-147.0","5c7afb18de6f7900150c33d2","665500ab8938657b03fbdba8","665777ec28b10312e5570265","4966","stimuli/0010111.jpg","1","","prediction_trial","0","","false","","0","false","false","true","true","false","false","[0]","010","111","0","","","","","","",""
"","","","","","image-keyboard-response","173","554706","0.0-148.0","5c7afb18de6f7900150c33d2","665500ab8938657b03fbdba8","665777ec28b10312e5570265","1046","stimuli/00101110.jpg"," ","","feedback_trial","0","","","","","","","","","","","","","","","","","","","","",""
"","","","","","image-keyboard-response","174","557021","0.0-149.0","5c7afb18de6f7900150c33d2","665500ab8938657b03fbdba8","665777ec28b10312e5570265","2312","stimuli/2110001.jpg","1","","prediction_trial","2","","false","","2","false","true","true","true","false","true","[2]","110","001","0","","","","","","",""
"","","","","","image-keyboard-response","175","561596","0.0-150.0","5c7afb18de6f7900150c33d2","665500ab8938657b03fbdba8","665777ec28b10312e5570265","4573","stimuli/21100012.jpg"," ","","feedback_trial","2","","","","","","","","","","","","","","","","","","","","",""
"","","","","","image-keyboard-response","176","563834","0.0-151.0","5c7afb18de6f7900150c33d2","665500ab8938657b03fbdba8","665777ec28b10312e5570265","2235","stimuli/2111100.jpg","1","","prediction_trial","0","","false","","2","true","true","false","false","false","false","[2,1,0]","111","100","0","","","","","","",""
"","","","","","image-keyboard-response","177","564975","0.0-152.0","5c7afb18de6f7900150c33d2","665500ab8938657b03fbdba8","665777ec28b10312e5570265","1138","stimuli/21111000.jpg"," ","","feedback_trial","2","","","","","","","","","","","","","","","","","","","","",""
"","","","","","image-keyboard-response","178","567106","0.0-153.0","5c7afb18de6f7900150c33d2","665500ab8938657b03fbdba8","665777ec28b10312e5570265","2129","stimuli/0001111.jpg","1","","prediction_trial","0","","false","","0","false","false","true","true","false","false","[0]","001","111","0","","","","","","",""
"","","","","","image-keyboard-response","179","568186","0.0-154.0","5c7afb18de6f7900150c33d2","665500ab8938657b03fbdba8","665777ec28b10312e5570265","1077","stimuli/00011110.jpg"," ","","feedback_trial","0","","","","","","","","","","","","","","","","","","","","",""
"","","","","","image-keyboard-response","180","570038","0.0-155.0","5c7afb18de6f7900150c33d2","665500ab8938657b03fbdba8","665777ec28b10312e5570265","1850","stimuli/0101101.jpg","2","","prediction_trial","2","","true","","0","false","false","false","false","false","false","[0,2]","101","101","1","","","","","","",""
"","","","","","image-keyboard-response","181","571058","0.0-156.0","5c7afb18de6f7900150c33d2","665500ab8938657b03fbdba8","665777ec28b10312e5570265","1018","stimuli/01011012.jpg"," ","","feedback_trial","0","","","","","","","","","","","","","","","","","","","","",""
"","","","","","image-keyboard-response","182","573607","0.0-157.0","5c7afb18de6f7900150c33d2","665500ab8938657b03fbdba8","665777ec28b10312e5570265","2547","stimuli/1101010.jpg","1","","prediction_trial","1","","true","","1","false","true","true","true","false","true","[1]","101","010","1","","","","","","",""
"","","","","","image-keyboard-response","183","574584","0.0-158.0","5c7afb18de6f7900150c33d2","665500ab8938657b03fbdba8","665777ec28b10312e5570265","973","stimuli/11010101.jpg"," ","","feedback_trial","1","","","","","","","","","","","","","","","","","","","","",""
"","","","","","image-keyboard-response","184","577022","0.0-159.0","5c7afb18de6f7900150c33d2","665500ab8938657b03fbdba8","665777ec28b10312e5570265","2435","stimuli/2100111.jpg","1","","prediction_trial","2","","false","","2","false","false","true","true","false","false","[2]","100","111","0","","","","","","",""
"","","","","","image-keyboard-response","185","578406","0.0-160.0","5c7afb18de6f7900150c33d2","665500ab8938657b03fbdba8","665777ec28b10312e5570265","1381","stimuli/21001112.jpg"," ","","feedback_trial","2","","","","","","","","","","","","","","","","","","","","",""
"","","","","","image-keyboard-response","186","581144","0.0-161.0","5c7afb18de6f7900150c33d2","665500ab8938657b03fbdba8","665777ec28b10312e5570265","2736","stimuli/1010110.jpg","1","","prediction_trial","1","","true","","1","false","false","false","true","false","false","[1]","010","110","1","","","","","","",""
"","","","","","image-keyboard-response","187","582155","0.0-162.0","5c7afb18de6f7900150c33d2","665500ab8938657b03fbdba8","665777ec28b10312e5570265","1007","stimuli/10101101.jpg"," ","","feedback_trial","1","","","","","","","","","","","","","","","","","","","","",""
"","","","","","image-keyboard-response","188","583826","0.0-163.0","5c7afb18de6f7900150c33d2","665500ab8938657b03fbdba8","665777ec28b10312e5570265","1669","stimuli/2110111.jpg","1","","prediction_trial","2","","false","","2","false","false","true","true","false","false","[2]","110","111","0","","","","","","",""
"","","","","","image-keyboard-response","189","585257","0.0-164.0","5c7afb18de6f7900150c33d2","665500ab8938657b03fbdba8","665777ec28b10312e5570265","1427","stimuli/21101112.jpg"," ","","feedback_trial","2","","","","","","","","","","","","","","","","","","","","",""
"","","","","","image-keyboard-response","190","586618","0.0-165.0","5c7afb18de6f7900150c33d2","665500ab8938657b03fbdba8","665777ec28b10312e5570265","1358","stimuli/0101111.jpg","1","","prediction_trial","2","","false","","0","false","false","false","false","false","false","[0,2]","101","111","0","","","","","","",""
"","","","","","image-keyboard-response","191","587842","0.0-166.0","5c7afb18de6f7900150c33d2","665500ab8938657b03fbdba8","665777ec28b10312e5570265","1222","stimuli/01011112.jpg"," ","","feedback_trial","0","","","","","","","","","","","","","","","","","","","","",""
"","","","","","image-keyboard-response","192","590099","0.0-167.0","5c7afb18de6f7900150c33d2","665500ab8938657b03fbdba8","665777ec28b10312e5570265","2254","stimuli/2101100.jpg","2","","prediction_trial","0","","false","","2","true","true","false","false","false","false","[2,0]","101","100","0","","","","","","",""
"","","","","","image-keyboard-response","193","593482","0.0-168.0","5c7afb18de6f7900150c33d2","665500ab8938657b03fbdba8","665777ec28b10312e5570265","3380","stimuli/21011000.jpg"," ","","feedback_trial","2","","","","","","","","","","","","","","","","","","","","",""
"","","","","","image-keyboard-response","194","596362","0.0-169.0","5c7afb18de6f7900150c33d2","665500ab8938657b03fbdba8","665777ec28b10312e5570265","2861","stimuli/0010001.jpg","0","","prediction_trial","0","","true","","0","true","true","true","true","true","true","[0]","010","001","1","","","","","","",""
"","","","","","image-keyboard-response","195","597394","0.0-170.0","5c7afb18de6f7900150c33d2","665500ab8938657b03fbdba8","665777ec28b10312e5570265","1029","stimuli/00100010.jpg"," ","","feedback_trial","0","","","","","","","","","","","","","","","","","","","","",""
"","","","","","image-keyboard-response","196","599372","0.0-171.0","5c7afb18de6f7900150c33d2","665500ab8938657b03fbdba8","665777ec28b10312e5570265","1975","stimuli/1100110.jpg","1","","prediction_trial","1","","true","","1","false","false","true","true","false","false","[1]","100","110","1","","","","","","",""
"","","","","","image-keyboard-response","197","600345","0.0-172.0","5c7afb18de6f7900150c33d2","665500ab8938657b03fbdba8","665777ec28b10312e5570265","970","stimuli/11001101.jpg"," ","","feedback_trial","1","","","","","","","","","","","","","","","","","","","","",""
"","","","","","image-keyboard-response","198","606668","0.0-173.0","5c7afb18de6f7900150c33d2","665500ab8938657b03fbdba8","665777ec28b10312e5570265","6313","stimuli/2010001.jpg","2","","prediction_trial","2","","true","","2","false","true","true","true","false","true","[2]","010","001","1","","","","","","",""
"","","","","","image-keyboard-response","199","607561","0.0-174.0","5c7afb18de6f7900150c33d2","665500ab8938657b03fbdba8","665777ec28b10312e5570265","891","stimuli/20100012.jpg"," ","","feedback_trial","2","","","","","","","","","","","","","","","","","","","","",""
"","","","","","image-keyboard-response","200","612678","0.0-175.0","5c7afb18de6f7900150c33d2","665500ab8938657b03fbdba8","665777ec28b10312e5570265","5114","stimuli/1011110.jpg","1","","prediction_trial","1","","true","","1","false","false","false","false","false","false","[1,2]","011","110","1","","","","","","",""
"","","","","","image-keyboard-response","201","613978","0.0-176.0","5c7afb18de6f7900150c33d2","665500ab8938657b03fbdba8","665777ec28b10312e5570265","1298","stimuli/10111101.jpg"," ","","feedback_trial","1","","","","","","","","","","","","","","","","","","","","",""
"","","","","","image-keyboard-response","202","619464","0.0-177.0","5c7afb18de6f7900150c33d2","665500ab8938657b03fbdba8","665777ec28b10312e5570265","5482","stimuli/2100011.jpg","1","","prediction_trial","2","","false","","2","false","false","true","true","false","false","[2]","100","011","0","","","","","","",""
"","","","","","image-keyboard-response","203","620612","0.0-178.0","5c7afb18de6f7900150c33d2","665500ab8938657b03fbdba8","665777ec28b10312e5570265","1146","stimuli/21000112.jpg"," ","","feedback_trial","2","","","","","","","","","","","","","","","","","","","","",""
"","","","","","image-keyboard-response","204","622038","0.0-179.0","5c7afb18de6f7900150c33d2","665500ab8938657b03fbdba8","665777ec28b10312e5570265","1423","stimuli/2110100.jpg","2","","prediction_trial","2","","true","","2","true","true","true","true","true","true","[2]","110","100","1","","","","","","",""
"","","","","","image-keyboard-response","205","622930","0.0-180.0","5c7afb18de6f7900150c33d2","665500ab8938657b03fbdba8","665777ec28b10312e5570265","889","stimuli/21101002.jpg"," ","","feedback_trial","2","","","","","","","","","","","","","","","","","","","","",""
"","","","","","image-keyboard-response","206","625359","0.0-181.0","5c7afb18de6f7900150c33d2","665500ab8938657b03fbdba8","665777ec28b10312e5570265","2428","stimuli/0101001.jpg","0","","prediction_trial","2","","false","","0","true","true","false","false","false","false","[2,0]","101","001","0","","","","","","",""
"","","","","","image-keyboard-response","207","626544","0.0-182.0","5c7afb18de6f7900150c33d2","665500ab8938657b03fbdba8","665777ec28b10312e5570265","1183","stimuli/01010012.jpg"," ","","feedback_trial","2","","","","","","","","","","","","","","","","","","","","",""
"","","","","","image-keyboard-response","208","629954","0.0-183.0","5c7afb18de6f7900150c33d2","665500ab8938657b03fbdba8","665777ec28b10312e5570265","3406","stimuli/1110001.jpg","1","","prediction_trial","0","","false","","1","true","true","false","false","false","false","[1,0]","110","001","0","","","","","","",""
"","","","","","image-keyboard-response","209","631194","0.0-184.0","5c7afb18de6f7900150c33d2","665500ab8938657b03fbdba8","665777ec28b10312e5570265","1239","stimuli/11100010.jpg"," ","","feedback_trial","1","","","","","","","","","","","","","","","","","","","","",""
"","","","","","image-keyboard-response","210","633539","0.0-185.0","5c7afb18de6f7900150c33d2","665500ab8938657b03fbdba8","665777ec28b10312e5570265","2342","stimuli/1010000.jpg","1","","prediction_trial","1","","true","","1","true","true","false","true","false","true","[1]","010","000","1","","","","","","",""
"","","","","","image-keyboard-response","211","634634","0.0-186.0","5c7afb18de6f7900150c33d2","665500ab8938657b03fbdba8","665777ec28b10312e5570265","1092","stimuli/10100001.jpg"," ","","feedback_trial","1","","","","","","","","","","","","","","","","","","","","",""
"","","","","","image-keyboard-response","212","637109","0.0-187.0","5c7afb18de6f7900150c33d2","665500ab8938657b03fbdba8","665777ec28b10312e5570265","2473","stimuli/1111010.jpg","1","","prediction_trial","0","","false","","1","false","true","false","false","false","false","[0,2,1]","111","010","0","","","","","","",""
"","","","","","image-keyboard-response","213","638393","0.0-188.0","5c7afb18de6f7900150c33d2","665500ab8938657b03fbdba8","665777ec28b10312e5570265","1282","stimuli/11110100.jpg"," ","","feedback_trial","0","","","","","","","","","","","","","","","","","","","","",""
"","","","","","image-keyboard-response","214","641253","0.0-189.0","5c7afb18de6f7900150c33d2","665500ab8938657b03fbdba8","665777ec28b10312e5570265","2858","stimuli/1110011.jpg","1","","prediction_trial","1","","true","","1","false","false","false","false","false","false","[0,1]","110","011","1","","","","","","",""
"","","","","","image-keyboard-response","215","642576","0.0-190.0","5c7afb18de6f7900150c33d2","665500ab8938657b03fbdba8","665777ec28b10312e5570265","1320","stimuli/11100111.jpg"," ","","feedback_trial","0","","","","","","","","","","","","","","","","","","","","",""
"","","","","","image-keyboard-response","216","645807","0.0-191.0","5c7afb18de6f7900150c33d2","665500ab8938657b03fbdba8","665777ec28b10312e5570265","3212","stimuli/1011111.jpg","1","","prediction_trial","1","","true","","1","false","false","false","false","false","false","[1,2]","011","111","1","","","","","","",""
"","","","","","image-keyboard-response","217","646796","0.0-192.0","5c7afb18de6f7900150c33d2","665500ab8938657b03fbdba8","665777ec28b10312e5570265","986","stimuli/10111111.jpg"," ","","feedback_trial","1","","","","","","","","","","","","","","","","","","","","",""
"","","","","","image-keyboard-response","218","648918","0.0-193.0","5c7afb18de6f7900150c33d2","665500ab8938657b03fbdba8","665777ec28b10312e5570265","2120","stimuli/0111111.jpg","1","","prediction_trial","2","","false","","0","false","false","false","false","false","false","[1,0,2]","111","111","0","","","","","","",""
"","","","","","image-keyboard-response","219","650118","0.0-194.0","5c7afb18de6f7900150c33d2","665500ab8938657b03fbdba8","665777ec28b10312e5570265","1196","stimuli/01111112.jpg"," ","","feedback_trial","1","","","","","","","","","","","","","","","","","","","","",""
"","","","","","image-keyboard-response","220","652331","0.0-195.0","5c7afb18de6f7900150c33d2","665500ab8938657b03fbdba8","665777ec28b10312e5570265","2209","stimuli/1011001.jpg","1","","prediction_trial","2","","false","","1","true","true","false","false","false","false","[1,2]","011","001","0","","","","","","",""
"","","","","","image-keyboard-response","221","653427","0.0-196.0","5c7afb18de6f7900150c33d2","665500ab8938657b03fbdba8","665777ec28b10312e5570265","1094","stimuli/10110012.jpg"," ","","feedback_trial","1","","","","","","","","","","","","","","","","","","","","",""
"","","","","","image-keyboard-response","222","657413","0.0-197.0","5c7afb18de6f7900150c33d2","665500ab8938657b03fbdba8","665777ec28b10312e5570265","3984","stimuli/1010101.jpg","1","","prediction_trial","1","","true","","1","true","true","false","true","false","true","[1]","010","101","1","","","","","","",""
"","","","","","image-keyboard-response","223","658402","0.0-198.0","5c7afb18de6f7900150c33d2","665500ab8938657b03fbdba8","665777ec28b10312e5570265","986","stimuli/10101011.jpg"," ","","feedback_trial","1","","","","","","","","","","","","","","","","","","","","",""
"","","","","","image-keyboard-response","224","660453","0.0-199.0","5c7afb18de6f7900150c33d2","665500ab8938657b03fbdba8","665777ec28b10312e5570265","2048","stimuli/1010100.jpg","1","","prediction_trial","1","","true","","1","true","true","false","true","false","true","[1]","010","100","1","","","","","","",""
"","","","","","image-keyboard-response","225","662401","0.0-200.0","5c7afb18de6f7900150c33d2","665500ab8938657b03fbdba8","665777ec28b10312e5570265","1946","stimuli/10101001.jpg"," ","","feedback_trial","1","","","","","","","","","","","","","","","","","","","","",""
"","","","","","image-keyboard-response","226","664606","0.0-201.0","5c7afb18de6f7900150c33d2","665500ab8938657b03fbdba8","665777ec28b10312e5570265","2201","stimuli/1010010.jpg","1","","prediction_trial","1","","true","","1","false","true","false","true","false","true","[1]","010","010","1","","","","","","",""
"","","","","","image-keyboard-response","227","665490","0.0-202.0","5c7afb18de6f7900150c33d2","665500ab8938657b03fbdba8","665777ec28b10312e5570265","882","stimuli/10100101.jpg"," ","","feedback_trial","1","","","","","","","","","","","","","","","","","","","","",""
"","","","","","image-keyboard-response","228","668741","0.0-203.0","5c7afb18de6f7900150c33d2","665500ab8938657b03fbdba8","665777ec28b10312e5570265","3250","stimuli/1100010.jpg","1","","prediction_trial","1","","true","","1","false","true","true","true","false","true","[1]","100","010","1","","","","","","",""
"","","","","","image-keyboard-response","229","669675","0.0-204.0","5c7afb18de6f7900150c33d2","665500ab8938657b03fbdba8","665777ec28b10312e5570265","931","stimuli/11000101.jpg"," ","","feedback_trial","1","","","","","","","","","","","","","","","","","","","","",""
"","","","","","image-keyboard-response","230","673412","0.0-205.0","5c7afb18de6f7900150c33d2","665500ab8938657b03fbdba8","665777ec28b10312e5570265","3734","stimuli/2101110.jpg","2","","prediction_trial","0","","false","","2","true","true","false","false","false","false","[0,2]","101","110","0","","","","","","",""
"","","","","","image-keyboard-response","231","675148","0.0-206.0","5c7afb18de6f7900150c33d2","665500ab8938657b03fbdba8","665777ec28b10312e5570265","1733","stimuli/21011100.jpg"," ","","feedback_trial","0","","","","","","","","","","","","","","","","","","","","",""
"","","","","","image-keyboard-response","232","677225","0.0-207.0","5c7afb18de6f7900150c33d2","665500ab8938657b03fbdba8","665777ec28b10312e5570265","2075","stimuli/0001101.jpg","2","","prediction_trial","0","","false","","0","false","false","true","true","false","false","[0]","001","101","0","","","","","","",""
"","","","","","image-keyboard-response","233","678344","0.0-208.0","5c7afb18de6f7900150c33d2","665500ab8938657b03fbdba8","665777ec28b10312e5570265","1116","stimuli/00011010.jpg"," ","","feedback_trial","0","","","","","","","","","","","","","","","","","","","","",""
"","","","","","image-keyboard-response","234","684493","0.0-209.0","5c7afb18de6f7900150c33d2","665500ab8938657b03fbdba8","665777ec28b10312e5570265","6147","stimuli/2010111.jpg","1","","prediction_trial","2","","false","","2","false","false","true","true","false","false","[2]","010","111","0","","","","","","",""
"","","","","","image-keyboard-response","235","685816","0.0-210.0","5c7afb18de6f7900150c33d2","665500ab8938657b03fbdba8","665777ec28b10312e5570265","1319","stimuli/20101112.jpg"," ","","feedback_trial","2","","","","","","","","","","","","","","","","","","","","",""
"","","","","","image-keyboard-response","236","689033","0.0-211.0","5c7afb18de6f7900150c33d2","665500ab8938657b03fbdba8","665777ec28b10312e5570265","3214","stimuli/0000100.jpg","0","","prediction_trial","0","","true","","0","false","true","true","true","false","true","[0]","000","100","1","","","","","","",""
"","","","","","image-keyboard-response","237","692256","0.0-212.0","5c7afb18de6f7900150c33d2","665500ab8938657b03fbdba8","665777ec28b10312e5570265","3220","stimuli/00001000.jpg"," ","","feedback_trial","0","","","","","","","","","","","","","","","","","","","","",""
"","","","","","image-keyboard-response","238","693748","0.0-213.0","5c7afb18de6f7900150c33d2","665500ab8938657b03fbdba8","665777ec28b10312e5570265","1490","stimuli/0001001.jpg","0","","prediction_trial","0","","true","","0","true","true","true","true","true","true","[0]","001","001","1","","","","","","",""
"","","","","","image-keyboard-response","239","694531","0.0-214.0","5c7afb18de6f7900150c33d2","665500ab8938657b03fbdba8","665777ec28b10312e5570265","780","stimuli/00010010.jpg"," ","","feedback_trial","0","","","","","","","","","","","","","","","","","","","","",""
"","","","","","image-keyboard-response","240","696246","0.0-215.0","5c7afb18de6f7900150c33d2","665500ab8938657b03fbdba8","665777ec28b10312e5570265","1712","stimuli/0100100.jpg","0","","prediction_trial","0","","true","","0","false","true","false","true","false","true","[0]","100","100","1","","","","","","",""
"","","","","","image-keyboard-response","241","696852","0.0-216.0","5c7afb18de6f7900150c33d2","665500ab8938657b03fbdba8","665777ec28b10312e5570265","603","stimuli/01001000.jpg"," ","","feedback_trial","0","","","","","","","","","","","","","","","","","","","","",""
"","","","","","image-keyboard-response","242","703366","0.0-217.0","5c7afb18de6f7900150c33d2","665500ab8938657b03fbdba8","665777ec28b10312e5570265","6511","stimuli/2111110.jpg","1","","prediction_trial","2","","false","","2","true","true","false","false","false","false","[2,0,1]","111","110","0","","","","","","",""
"","","","","","image-keyboard-response","243","704779","0.0-218.0","5c7afb18de6f7900150c33d2","665500ab8938657b03fbdba8","665777ec28b10312e5570265","1411","stimuli/21111102.jpg"," ","","feedback_trial","2","","","","","","","","","","","","","","","","","","","","",""
"","","","","","image-keyboard-response","244","706207","0.0-219.0","5c7afb18de6f7900150c33d2","665500ab8938657b03fbdba8","665777ec28b10312e5570265","1425","stimuli/0000010.jpg","0","","prediction_trial","0","","true","","0","true","true","true","true","true","true","[0]","000","010","1","","","","","","",""
"","","","","","image-keyboard-response","245","707001","0.0-220.0","5c7afb18de6f7900150c33d2","665500ab8938657b03fbdba8","665777ec28b10312e5570265","791","stimuli/00000100.jpg"," ","","feedback_trial","0","","","","","","","","","","","","","","","","","","","","",""
"","","","","","image-keyboard-response","246","709203","0.0-221.0","5c7afb18de6f7900150c33d2","665500ab8938657b03fbdba8","665777ec28b10312e5570265","2199","stimuli/0111011.jpg","1","","prediction_trial","0","","false","","0","true","true","false","false","false","false","[2,1,0]","111","011","0","","","","","","",""
"","","","","","image-keyboard-response","247","710735","0.0-222.0","5c7afb18de6f7900150c33d2","665500ab8938657b03fbdba8","665777ec28b10312e5570265","1529","stimuli/01110110.jpg"," ","","feedback_trial","2","","","","","","","","","","","","","","","","","","","","",""
"","","","","","image-keyboard-response","248","712407","0.0-223.0","5c7afb18de6f7900150c33d2","665500ab8938657b03fbdba8","665777ec28b10312e5570265","1669","stimuli/1001000.jpg","1","","prediction_trial","1","","true","","1","true","true","true","true","true","true","[1]","001","000","1","","","","","","",""
"","","","","","image-keyboard-response","249","713084","0.0-224.0","5c7afb18de6f7900150c33d2","665500ab8938657b03fbdba8","665777ec28b10312e5570265","673","stimuli/10010001.jpg"," ","","feedback_trial","1","","","","","","","","","","","","","","","","","","","","",""
"","","","","","image-keyboard-response","250","717618","0.0-225.0","5c7afb18de6f7900150c33d2","665500ab8938657b03fbdba8","665777ec28b10312e5570265","4532","stimuli/0010110.jpg","1","","prediction_trial","0","","false","","0","false","false","true","true","false","false","[0]","010","110","0","","","","","","",""
"","","","","","image-keyboard-response","251","718920","0.0-226.0","5c7afb18de6f7900150c33d2","665500ab8938657b03fbdba8","665777ec28b10312e5570265","1300","stimuli/00101100.jpg"," ","","feedback_trial","0","","","","","","","","","","","","","","","","","","","","",""
"","","","","","image-keyboard-response","252","722156","0.0-227.0","5c7afb18de6f7900150c33d2","665500ab8938657b03fbdba8","665777ec28b10312e5570265","3232","stimuli/2000011.jpg","1","","prediction_trial","2","","false","","2","false","false","true","true","false","false","[2]","000","011","0","","","","","","",""
"","","","","","image-keyboard-response","253","724503","0.0-228.0","5c7afb18de6f7900150c33d2","665500ab8938657b03fbdba8","665777ec28b10312e5570265","2344","stimuli/20000112.jpg"," ","","feedback_trial","2","","","","","","","","","","","","","","","","","","","","",""
"","","","","","image-keyboard-response","254","728337","0.0-229.0","5c7afb18de6f7900150c33d2","665500ab8938657b03fbdba8","665777ec28b10312e5570265","3831","stimuli/2001110.jpg","2","","prediction_trial","2","","true","","2","true","true","false","true","false","true","[2]","001","110","1","","","","","","",""
"","","","","","image-keyboard-response","255","730109","0.0-230.0","5c7afb18de6f7900150c33d2","665500ab8938657b03fbdba8","665777ec28b10312e5570265","1771","stimuli/20011102.jpg"," ","","feedback_trial","2","","","","","","","","","","","","","","","","","","","","",""
"","","","","","image-keyboard-response","256","731762","0.0-231.0","5c7afb18de6f7900150c33d2","665500ab8938657b03fbdba8","665777ec28b10312e5570265","1651","stimuli/0111100.jpg","1","","prediction_trial","0","","false","","0","false","true","false","false","false","false","[2,1,0]","111","100","0","","","","","","",""
"","","","","","image-keyboard-response","257","733464","0.0-232.0","5c7afb18de6f7900150c33d2","665500ab8938657b03fbdba8","665777ec28b10312e5570265","1699","stimuli/01111000.jpg"," ","","feedback_trial","2","","","","","","","","","","","","","","","","","","","","",""
"","","","","","image-keyboard-response","258","734981","0.0-233.0","5c7afb18de6f7900150c33d2","665500ab8938657b03fbdba8","665777ec28b10312e5570265","1515","stimuli/2100100.jpg","2","","prediction_trial","2","","true","","2","true","true","true","true","true","true","[2]","100","100","1","","","","","","",""
"","","","","","image-keyboard-response","259","736160","0.0-234.0","5c7afb18de6f7900150c33d2","665500ab8938657b03fbdba8","665777ec28b10312e5570265","1178","stimuli/21001002.jpg"," ","","feedback_trial","2","","","","","","","","","","","","","","","","","","","","",""
"","","","","","image-keyboard-response","260","738472","0.0-235.0","5c7afb18de6f7900150c33d2","665500ab8938657b03fbdba8","665777ec28b10312e5570265","2291","stimuli/2101000.jpg","2","","prediction_trial","2","","true","","2","true","true","false","false","false","false","[0,2]","101","000","1","","","","","","",""
"","","","","","image-keyboard-response","261","739684","0.0-236.0","5c7afb18de6f7900150c33d2","665500ab8938657b03fbdba8","665777ec28b10312e5570265","1209","stimuli/21010002.jpg"," ","","feedback_trial","0","","","","","","","","","","","","","","","","","","","","",""
"","","","","","image-keyboard-response","262","748152","0.0-237.0","5c7afb18de6f7900150c33d2","665500ab8938657b03fbdba8","665777ec28b10312e5570265","8465","stimuli/0110010.jpg","1","","prediction_trial","1","","true","","0","true","true","false","false","false","false","[0,1]","110","010","1","","","","","","",""
"","","","","","image-keyboard-response","263","749487","0.0-238.0","5c7afb18de6f7900150c33d2","665500ab8938657b03fbdba8","665777ec28b10312e5570265","1333","stimuli/01100101.jpg"," ","","feedback_trial","0","","","","","","","","","","","","","","","","","","","","",""
"","","","","","image-keyboard-response","264","752034","0.0-239.0","5c7afb18de6f7900150c33d2","665500ab8938657b03fbdba8","665777ec28b10312e5570265","2544","stimuli/2100101.jpg","2","","prediction_trial","2","","true","","2","false","false","true","true","false","false","[2]","100","101","1","","","","","","",""
"","","","","","image-keyboard-response","265","753223","0.0-240.0","5c7afb18de6f7900150c33d2","665500ab8938657b03fbdba8","665777ec28b10312e5570265","1187","stimuli/21001012.jpg"," ","","feedback_trial","2","","","","","","","","","","","","","","","","","","","","",""
"","","","","","image-keyboard-response","266","755483","0.0-241.0","5c7afb18de6f7900150c33d2","665500ab8938657b03fbdba8","665777ec28b10312e5570265","2257","stimuli/2001100.jpg","2","","prediction_trial","2","","true","","2","true","true","false","true","false","true","[2]","001","100","1","","","","","","",""
"","","","","","image-keyboard-response","267","756627","0.0-242.0","5c7afb18de6f7900150c33d2","665500ab8938657b03fbdba8","665777ec28b10312e5570265","1143","stimuli/20011002.jpg"," ","","feedback_trial","2","","","","","","","","","","","","","","","","","","","","",""
"","","","","","image-keyboard-response","268","762505","0.0-243.0","5c7afb18de6f7900150c33d2","665500ab8938657b03fbdba8","665777ec28b10312e5570265","5875","stimuli/1111011.jpg","1","","prediction_trial","0","","false","","1","false","false","false","false","false","false","[0,1,2]","111","011","0","","","","","","",""
"","","","","","image-keyboard-response","269","763676","0.0-244.0","5c7afb18de6f7900150c33d2","665500ab8938657b03fbdba8","665777ec28b10312e5570265","1169","stimuli/11110110.jpg"," ","","feedback_trial","0","","","","","","","","","","","","","","","","","","","","",""
"","","","","","image-keyboard-response","270","764966","0.0-245.0","5c7afb18de6f7900150c33d2","665500ab8938657b03fbdba8","665777ec28b10312e5570265","1287","stimuli/1101100.jpg","1","","prediction_trial","1","","true","","1","true","true","true","true","true","true","[1]","101","100","1","","","","","","",""
"","","","","","image-keyboard-response","271","765941","0.0-246.0","5c7afb18de6f7900150c33d2","665500ab8938657b03fbdba8","665777ec28b10312e5570265","972","stimuli/11011001.jpg"," ","","feedback_trial","1","","","","","","","","","","","","","","","","","","","","",""
"","","","","","image-keyboard-response","272","768240","0.0-247.0","5c7afb18de6f7900150c33d2","665500ab8938657b03fbdba8","665777ec28b10312e5570265","2297","stimuli/2000001.jpg","2","","prediction_trial","2","","true","","2","false","true","true","true","false","true","[2]","000","001","1","","","","","","",""
"","","","","","image-keyboard-response","273","769902","0.0-248.0","5c7afb18de6f7900150c33d2","665500ab8938657b03fbdba8","665777ec28b10312e5570265","1660","stimuli/20000012.jpg"," ","","feedback_trial","2","","","","","","","","","","","","","","","","","","","","",""
"","","","","","image-keyboard-response","274","771460","0.0-249.0","5c7afb18de6f7900150c33d2","665500ab8938657b03fbdba8","665777ec28b10312e5570265","1556","stimuli/0010010.jpg","0","","prediction_trial","0","","true","","0","true","true","true","true","true","true","[0]","010","010","1","","","","","","",""
"","","","","","image-keyboard-response","275","772260","0.0-250.0","5c7afb18de6f7900150c33d2","665500ab8938657b03fbdba8","665777ec28b10312e5570265","797","stimuli/00100100.jpg"," ","","feedback_trial","0","","","","","","","","","","","","","","","","","","","","",""
"","","","","","image-keyboard-response","276","775221","0.0-251.0","5c7afb18de6f7900150c33d2","665500ab8938657b03fbdba8","665777ec28b10312e5570265","2959","stimuli/0110101.jpg","1","","prediction_trial","1","","true","","0","false","false","false","false","false","false","[0,1]","110","101","1","","","","","","",""
"","","","","","image-keyboard-response","277","776438","0.0-252.0","5c7afb18de6f7900150c33d2","665500ab8938657b03fbdba8","665777ec28b10312e5570265","1213","stimuli/01101011.jpg"," ","","feedback_trial","0","","","","","","","","","","","","","","","","","","","","",""
"","","","","","image-keyboard-response","278","777880","0.0-253.0","5c7afb18de6f7900150c33d2","665500ab8938657b03fbdba8","665777ec28b10312e5570265","1440","stimuli/2100110.jpg","2","","prediction_trial","2","","true","","2","true","true","true","true","true","true","[2]","100","110","1","","","","","","",""
"","","","","","image-keyboard-response","279","778915","0.0-254.0","5c7afb18de6f7900150c33d2","665500ab8938657b03fbdba8","665777ec28b10312e5570265","1031","stimuli/21001102.jpg"," ","","feedback_trial","2","","","","","","","","","","","","","","","","","","","","",""
"","","","","","image-keyboard-response","280","780437","0.0-255.0","5c7afb18de6f7900150c33d2","665500ab8938657b03fbdba8","665777ec28b10312e5570265","1521","stimuli/2000010.jpg","2","","prediction_trial","2","","true","","2","true","true","true","true","true","true","[2]","000","010","1","","","","","","",""
"","","","","","image-keyboard-response","281","781364","0.0-256.0","5c7afb18de6f7900150c33d2","665500ab8938657b03fbdba8","665777ec28b10312e5570265","924","stimuli/20000102.jpg"," ","","feedback_trial","2","","","","","","","","","","","","","","","","","","","","",""
"","","","","","image-keyboard-response","282","782617","0.0-257.0","5c7afb18de6f7900150c33d2","665500ab8938657b03fbdba8","665777ec28b10312e5570265","1249","stimuli/1001101.jpg","1","","prediction_trial","1","","true","","1","true","true","true","true","true","true","[1]","001","101","1","","","","","","",""
"","","","","","image-keyboard-response","283","783576","0.0-258.0","5c7afb18de6f7900150c33d2","665500ab8938657b03fbdba8","665777ec28b10312e5570265","956","stimuli/10011011.jpg"," ","","feedback_trial","1","","","","","","","","","","","","","","","","","","","","",""
"","","","","","image-keyboard-response","284","784964","0.0-259.0","5c7afb18de6f7900150c33d2","665500ab8938657b03fbdba8","665777ec28b10312e5570265","1386","stimuli/0000000.jpg","0","","prediction_trial","0","","true","","0","true","true","true","true","true","true","[0]","000","000","1","","","","","","",""
"","","","","","image-keyboard-response","285","785922","0.0-260.0","5c7afb18de6f7900150c33d2","665500ab8938657b03fbdba8","665777ec28b10312e5570265","956","stimuli/00000000.jpg"," ","","feedback_trial","0","","","","","","","","","","","","","","","","","","","","",""
"","","","","","image-keyboard-response","286","788699","0.0-261.0","5c7afb18de6f7900150c33d2","665500ab8938657b03fbdba8","665777ec28b10312e5570265","2775","stimuli/1000011.jpg","1","","prediction_trial","1","","true","","1","false","false","true","true","false","false","[1]","000","011","1","","","","","","",""
"","","","","","image-keyboard-response","287","790022","0.0-262.0","5c7afb18de6f7900150c33d2","665500ab8938657b03fbdba8","665777ec28b10312e5570265","1319","stimuli/10000111.jpg"," ","","feedback_trial","1","","","","","","","","","","","","","","","","","","","","",""
"","","","","","image-keyboard-response","288","792768","0.0-263.0","5c7afb18de6f7900150c33d2","665500ab8938657b03fbdba8","665777ec28b10312e5570265","2746","stimuli/0001100.jpg","2","","prediction_trial","0","","false","","0","false","true","true","true","false","true","[0]","001","100","0","","","","","","",""
"","","","","","image-keyboard-response","289","794481","0.0-264.0","5c7afb18de6f7900150c33d2","665500ab8938657b03fbdba8","665777ec28b10312e5570265","1710","stimuli/00011000.jpg"," ","","feedback_trial","0","","","","","","","","","","","","","","","","","","","","",""
"","","","","","image-keyboard-response","290","797567","0.0-265.0","5c7afb18de6f7900150c33d2","665500ab8938657b03fbdba8","665777ec28b10312e5570265","3084","stimuli/0110001.jpg","1","","prediction_trial","0","","false","","0","true","true","false","false","false","false","[0,1]","110","001","0","","","","","","",""
"","","","","","image-keyboard-response","291","799193","0.0-266.0","5c7afb18de6f7900150c33d2","665500ab8938657b03fbdba8","665777ec28b10312e5570265","1623","stimuli/01100010.jpg"," ","","feedback_trial","0","","","","","","","","","","","","","","","","","","","","",""
"","","","","","image-keyboard-response","292","800943","0.0-267.0","5c7afb18de6f7900150c33d2","665500ab8938657b03fbdba8","665777ec28b10312e5570265","1749","stimuli/1111100.jpg","1","","prediction_trial","1","","true","","1","true","true","false","false","false","false","[0,2,1]","111","100","1","","","","","","",""
"","","","","","image-keyboard-response","293","802228","0.0-268.0","5c7afb18de6f7900150c33d2","665500ab8938657b03fbdba8","665777ec28b10312e5570265","1280","stimuli/11111001.jpg"," ","","feedback_trial","0","","","","","","","","","","","","","","","","","","","","",""
"","","","","","image-keyboard-response","294","804518","0.0-269.0","5c7afb18de6f7900150c33d2","665500ab8938657b03fbdba8","665777ec28b10312e5570265","2287","stimuli/0101010.jpg","0","","prediction_trial","0","","true","","0","true","true","false","false","false","false","[0,2]","101","010","1","","","","","","",""
"","","","","","image-keyboard-response","295","806614","0.0-270.0","5c7afb18de6f7900150c33d2","665500ab8938657b03fbdba8","665777ec28b10312e5570265","2093","stimuli/01010100.jpg"," ","","feedback_trial","0","","","","","","","","","","","","","","","","","","","","",""
"","","","","","image-keyboard-response","296","809471","0.0-271.0","5c7afb18de6f7900150c33d2","665500ab8938657b03fbdba8","665777ec28b10312e5570265","2854","stimuli/0010101.jpg","2","","prediction_trial","0","","false","","0","false","false","true","true","false","false","[0]","010","101","0","","","","","","",""
"","","","","","image-keyboard-response","297","810747","0.0-272.0","5c7afb18de6f7900150c33d2","665500ab8938657b03fbdba8","665777ec28b10312e5570265","1274","stimuli/00101010.jpg"," ","","feedback_trial","0","","","","","","","","","","","","","","","","","","","","",""
"","","","","","image-keyboard-response","298","812156","0.0-273.0","5c7afb18de6f7900150c33d2","665500ab8938657b03fbdba8","665777ec28b10312e5570265","1407","stimuli/2010010.jpg","2","","prediction_trial","2","","true","","2","true","true","true","true","true","true","[2]","010","010","1","","","","","","",""
"","","","","","image-keyboard-response","299","813240","0.0-274.0","5c7afb18de6f7900150c33d2","665500ab8938657b03fbdba8","665777ec28b10312e5570265","1082","stimuli/20100102.jpg"," ","","feedback_trial","2","","","","","","","","","","","","","","","","","","","","",""
"","","","","","image-keyboard-response","300","814516","0.0-275.0","5c7afb18de6f7900150c33d2","665500ab8938657b03fbdba8","665777ec28b10312e5570265","1273","stimuli/2000000.jpg","2","","prediction_trial","2","","true","","2","true","true","true","true","true","true","[2]","000","000","1","","","","","","",""
"","","","","","image-keyboard-response","301","815543","0.0-276.0","5c7afb18de6f7900150c33d2","665500ab8938657b03fbdba8","665777ec28b10312e5570265","1024","stimuli/20000002.jpg"," ","","feedback_trial","2","","","","","","","","","","","","","","","","","","","","",""
"","","","","","image-keyboard-response","302","817449","0.0-277.0","5c7afb18de6f7900150c33d2","665500ab8938657b03fbdba8","665777ec28b10312e5570265","1903","stimuli/1011010.jpg","1","","prediction_trial","1","","true","","1","false","true","false","false","false","false","[1,2]","011","010","1","","","","","","",""
"","","","","","image-keyboard-response","303","818703","0.0-278.0","5c7afb18de6f7900150c33d2","665500ab8938657b03fbdba8","665777ec28b10312e5570265","1252","stimuli/10110101.jpg"," ","","feedback_trial","1","","","","","","","","","","","","","","","","","","","","",""
"","","","","","image-keyboard-response","304","822072","0.0-279.0","5c7afb18de6f7900150c33d2","665500ab8938657b03fbdba8","665777ec28b10312e5570265","3348","stimuli/1001010.jpg","1","","prediction_trial","1","","true","","1","false","true","true","true","false","true","[1]","001","010","1","","","","","","",""
"","","","","","image-keyboard-response","305","823404","0.0-280.0","5c7afb18de6f7900150c33d2","665500ab8938657b03fbdba8","665777ec28b10312e5570265","1330","stimuli/10010101.jpg"," ","","feedback_trial","1","","","","","","","","","","","","","","","","","","","","",""
"","","","","","image-keyboard-response","306","825020","0.0-281.0","5c7afb18de6f7900150c33d2","665500ab8938657b03fbdba8","665777ec28b10312e5570265","1613","stimuli/0111000.jpg","1","","prediction_trial","0","","false","","0","true","true","false","false","false","false","[0,2,1]","111","000","0","","","","","","",""
"","","","","","image-keyboard-response","307","826120","0.0-282.0","5c7afb18de6f7900150c33d2","665500ab8938657b03fbdba8","665777ec28b10312e5570265","1097","stimuli/01110000.jpg"," ","","feedback_trial","0","","","","","","","","","","","","","","","","","","","","",""
"","","","","","image-keyboard-response","308","827684","0.0-283.0","5c7afb18de6f7900150c33d2","665500ab8938657b03fbdba8","665777ec28b10312e5570265","1561","stimuli/1111000.jpg","1","","prediction_trial","0","","false","","1","true","true","false","false","false","false","[2,0,1]","111","000","0","","","","","","",""
"","","","","","image-keyboard-response","309","829520","0.0-284.0","5c7afb18de6f7900150c33d2","665500ab8938657b03fbdba8","665777ec28b10312e5570265","1832","stimuli/11110000.jpg"," ","","feedback_trial","2","","","","","","","","","","","","","","","","","","","","",""
"","","","","","image-keyboard-response","310","831013","0.0-285.0","5c7afb18de6f7900150c33d2","665500ab8938657b03fbdba8","665777ec28b10312e5570265","1490","stimuli/0000011.jpg","0","","prediction_trial","0","","true","","0","true","true","true","true","true","true","[0]","000","011","1","","","","","","",""
"","","","","","image-keyboard-response","311","832159","0.0-286.0","5c7afb18de6f7900150c33d2","665500ab8938657b03fbdba8","665777ec28b10312e5570265","1144","stimuli/00000110.jpg"," ","","feedback_trial","0","","","","","","","","","","","","","","","","","","","","",""
"","","","","","image-keyboard-response","312","841969","0.0-287.0","5c7afb18de6f7900150c33d2","665500ab8938657b03fbdba8","665777ec28b10312e5570265","9807","stimuli/0100010.jpg","0","","prediction_trial","0","","true","","0","true","true","false","true","false","true","[0]","100","010","1","","","","","","",""
"","","","","","image-keyboard-response","313","843181","0.0-288.0","5c7afb18de6f7900150c33d2","665500ab8938657b03fbdba8","665777ec28b10312e5570265","1209","stimuli/01000100.jpg"," ","","feedback_trial","0","","","","","","","","","","","","","","","","","","","","",""
"","","","","","image-keyboard-response","314","847652","0.0-289.0","5c7afb18de6f7900150c33d2","665500ab8938657b03fbdba8","665777ec28b10312e5570265","4469","stimuli/0001110.jpg","1","","prediction_trial","0","","false","","0","false","false","true","true","false","false","[0]","001","110","0","","","","","","",""
"","","","","","image-keyboard-response","315","849135","0.0-290.0","5c7afb18de6f7900150c33d2","665500ab8938657b03fbdba8","665777ec28b10312e5570265","1482","stimuli/00011100.jpg"," ","","feedback_trial","0","","","","","","","","","","","","","","","","","","","","",""
"","","","","","image-keyboard-response","316","850439","0.0-291.0","5c7afb18de6f7900150c33d2","665500ab8938657b03fbdba8","665777ec28b10312e5570265","1301","stimuli/2010110.jpg","2","","prediction_trial","2","","true","","2","true","true","true","true","true","true","[2]","010","110","1","","","","","","",""
"","","","","","image-keyboard-response","317","851404","0.0-292.0","5c7afb18de6f7900150c33d2","665500ab8938657b03fbdba8","665777ec28b10312e5570265","964","stimuli/20101102.jpg"," ","","feedback_trial","2","","","","","","","","","","","","","","","","","","","","",""
"","","","","","survey-html-form","318","961050","0.0-293.0","5c7afb18de6f7900150c33d2","665500ab8938657b03fbdba8","665777ec28b10312e5570265","109628","","{""feedback"":""If he could see it I chose that one. I he couldn't see the ball in one I chose One of the others at random\n"",""age"":""71"",""gender"":""Male"",""other_gender"":"""",""race"":""White"",""other_race"":"""",""ethnicity"":""Non-Hispanic""}","","exit_survey","","","","","","","","","","","","","","","","If he could see it I chose that one. I he couldn't see the ball in one I chose One of the others at random
","71","Non-Hispanic","Male","White","0.6458333333333334","0.6458333333333334"
