"success","timeout","failed_images","failed_audio","failed_video","trial_type","trial_index","time_elapsed","internal_node_id","prolific_id","prolific_study_id","prolific_session_id","rt","stimulus","response","view_history","trial","character_choice","stimulus_dict","accuracy","correct_response","ball_pos","ego_ball_visible","ego_can_infer","alter_ball_visible","alter_can_infer","collective_ball_visible","collective_can_infer","search_locations","alter_occluders","ego_occluders","accuracy_bool","feedback","age","ethnicity","gender","race","overall_accuracy","bonus"
"true","false","[]","[]","[]","preload","0","3982","0.0-0.0","5c2eb9c30091e40001cba678","665500ab8938657b03fbdba8","66579232bd3c48cab369b629","","","","","","","","","","","","","","","","","","","","","","","","","","",""
"true","","","","","fullscreen","1","13256","0.0-1.0","5c2eb9c30091e40001cba678","665500ab8938657b03fbdba8","66579232bd3c48cab369b629","","","","","","","","","","","","","","","","","","","","","","","","","","",""
"","","","","","html-button-response","2","24339","0.0-2.0","5c2eb9c30091e40001cba678","665500ab8938657b03fbdba8","66579232bd3c48cab369b629","11081","<p><b>Consent Form</b></p> <div style=""text-align:left;background-color:lightgrey; padding:20px; max-width:900px;""><p>Please consider this information carefully before deciding whether to participate in this research.</p> <p>The purpose of this research is to examine which factors influence social judgment and decision-making. You will be asked to make judgements about individuals and actions in social scenarios. We are simply interested in your judgement. The study will take less than 1 hour to complete, and you will receive less than $20 on Prolific. Your compensation and time commitment are specified in the study description. There are no anticipated risks associated with participating in this study. The effects of participating should be comparable to those you would ordinarily experience from viewing a computer monitor and using a mouse or keyboard for a similar amount of time. At the end of the study, we will provide an explanation of the questions that motivate this line of research and will describe the potential implications. </p><p> Your participation in this study is completely voluntary and you may refuse to participate or you may choose to withdraw at any time without penalty or loss of benefits to you which are otherwise entitled. Your participation in this study will remain confidential. No personally identifiable information will be associated with your data. Also, all analyses of the data will be averaged across all the participants, so your individual responses will never be specifically analyzed. </p><p> If you have questions or concerns about your participation or payment, or want to request a summary of research findings, please contact Dr. Jonathan Phillips at Jonathan.S.Phillips@dartmouth.edu. </p><p> Please save a copy of this form for your records. </p><p><b>Agreement: </b>The nature and purpose of this research have been sufficiently explained and I agree to participate in this study. I understand that I am free to withdraw at any time without incurring any penalty. Please consent by clicking the button below to continue. Otherwise, please exit the study at any time. </p>","0","","","","","","","","","","","","","","","","","","","","","","","",""
"","","","","","instructions","3","94539","0.0-3.0-0.0","5c2eb9c30091e40001cba678","665500ab8938657b03fbdba8","66579232bd3c48cab369b629","70198","","","[{""page_index"":0,""viewing_time"":2064},{""page_index"":1,""viewing_time"":2447},{""page_index"":2,""viewing_time"":1592},{""page_index"":3,""viewing_time"":6011},{""page_index"":4,""viewing_time"":3192},{""page_index"":5,""viewing_time"":6859},{""page_index"":6,""viewing_time"":5950},{""page_index"":7,""viewing_time"":3595},{""page_index"":8,""viewing_time"":4501},{""page_index"":9,""viewing_time"":3164},{""page_index"":10,""viewing_time"":20066},{""page_index"":11,""viewing_time"":6305},{""page_index"":12,""viewing_time"":3281},{""page_index"":13,""viewing_time"":1164}]","intro","","","","","","","","","","","","","","","","","","","","","",""
"","","","","","image-keyboard-response","4","97217","0.0-3.0-1.0","5c2eb9c30091e40001cba678","665500ab8938657b03fbdba8","66579232bd3c48cab369b629","2662","stimuli/1011001.jpg","1","","prediction_practice","2","{""filepath"":""stimuli/1011001.jpg"",""ball_pos"":1,""ego_ball_visible"":true,""ego_can_infer"":true,""alter_ball_visible"":false,""alter_can_infer"":false,""collective_ball_visible"":false,""collective_can_infer"":false,""search_locations"":[1,2],""alter_occluders"":""011"",""ego_occluders"":""001""}","false","","","","","","","","","","","","","","","","","","",""
"","","","","","image-keyboard-response","5","99031","0.0-3.0-2.0","5c2eb9c30091e40001cba678","665500ab8938657b03fbdba8","66579232bd3c48cab369b629","1805","stimuli/10110012.jpg"," ","","practrice_feedback","1","","","","","","","","","","","","","","","","","","","","",""
"","","","","","image-keyboard-response","6","101176","0.0-3.0-3.0","5c2eb9c30091e40001cba678","665500ab8938657b03fbdba8","66579232bd3c48cab369b629","2141","stimuli/2101000.jpg","0","","prediction_practice","2","{""filepath"":""stimuli/2101000.jpg"",""ball_pos"":2,""ego_ball_visible"":true,""ego_can_infer"":true,""alter_ball_visible"":false,""alter_can_infer"":false,""collective_ball_visible"":false,""collective_can_infer"":false,""search_locations"":[2,0],""alter_occluders"":""101"",""ego_occluders"":""000""}","false","","","","","","","","","","","","","","","","","","",""
"","","","","","image-keyboard-response","7","102300","0.0-3.0-4.0","5c2eb9c30091e40001cba678","665500ab8938657b03fbdba8","66579232bd3c48cab369b629","1122","stimuli/21010002.jpg"," ","","practrice_feedback","2","","","","","","","","","","","","","","","","","","","","",""
"","","","","","image-keyboard-response","8","103293","0.0-3.0-5.0","5c2eb9c30091e40001cba678","665500ab8938657b03fbdba8","66579232bd3c48cab369b629","992","stimuli/1000100.jpg","1","","prediction_practice","1","{""filepath"":""stimuli/1000100.jpg"",""ball_pos"":1,""ego_ball_visible"":true,""ego_can_infer"":true,""alter_ball_visible"":true,""alter_can_infer"":true,""collective_ball_visible"":true,""collective_can_infer"":true,""search_locations"":[1],""alter_occluders"":""000"",""ego_occluders"":""100""}","true","","","","","","","","","","","","","","","","","","",""
"","","","","","image-keyboard-response","9","104326","0.0-3.0-6.0","5c2eb9c30091e40001cba678","665500ab8938657b03fbdba8","66579232bd3c48cab369b629","1032","stimuli/10001001.jpg"," ","","practrice_feedback","1","","","","","","","","","","","","","","","","","","","","",""
"","","","","","image-keyboard-response","10","105356","0.0-3.0-7.0","5c2eb9c30091e40001cba678","665500ab8938657b03fbdba8","66579232bd3c48cab369b629","1029","stimuli/2001000.jpg","2","","prediction_practice","2","{""filepath"":""stimuli/2001000.jpg"",""ball_pos"":2,""ego_ball_visible"":true,""ego_can_infer"":true,""alter_ball_visible"":false,""alter_can_infer"":true,""collective_ball_visible"":false,""collective_can_infer"":true,""search_locations"":[2],""alter_occluders"":""001"",""ego_occluders"":""000""}","true","","","","","","","","","","","","","","","","","","",""
"","","","","","image-keyboard-response","11","106467","0.0-3.0-8.0","5c2eb9c30091e40001cba678","665500ab8938657b03fbdba8","66579232bd3c48cab369b629","1109","stimuli/20010002.jpg"," ","","practrice_feedback","2","","","","","","","","","","","","","","","","","","","","",""
"","","","","","image-keyboard-response","12","107740","0.0-3.0-9.0","5c2eb9c30091e40001cba678","665500ab8938657b03fbdba8","66579232bd3c48cab369b629","1273","stimuli/1101110.jpg","1","","prediction_practice","1","{""filepath"":""stimuli/1101110.jpg"",""ball_pos"":1,""ego_ball_visible"":false,""ego_can_infer"":false,""alter_ball_visible"":true,""alter_can_infer"":true,""collective_ball_visible"":false,""collective_can_infer"":false,""search_locations"":[1],""alter_occluders"":""101"",""ego_occluders"":""110""}","true","","","","","","","","","","","","","","","","","","",""
"","","","","","image-keyboard-response","13","108667","0.0-3.0-10.0","5c2eb9c30091e40001cba678","665500ab8938657b03fbdba8","66579232bd3c48cab369b629","926","stimuli/11011101.jpg"," ","","practrice_feedback","1","","","","","","","","","","","","","","","","","","","","",""
"","","","","","image-keyboard-response","14","109538","0.0-3.0-11.0","5c2eb9c30091e40001cba678","665500ab8938657b03fbdba8","66579232bd3c48cab369b629","869","stimuli/0111011.jpg","0","","prediction_practice","1","{""filepath"":""stimuli/0111011.jpg"",""ball_pos"":0,""ego_ball_visible"":true,""ego_can_infer"":true,""alter_ball_visible"":false,""alter_can_infer"":false,""collective_ball_visible"":false,""collective_can_infer"":false,""search_locations"":[2,0,1],""alter_occluders"":""111"",""ego_occluders"":""011""}","false","","","","","","","","","","","","","","","","","","",""
"","","","","","image-keyboard-response","15","111280","0.0-3.0-12.0","5c2eb9c30091e40001cba678","665500ab8938657b03fbdba8","66579232bd3c48cab369b629","1741","stimuli/01110111.jpg"," ","","practrice_feedback","2","","","","","","","","","","","","","","","","","","","","",""
"","","","","","image-keyboard-response","16","112335","0.0-3.0-13.0","5c2eb9c30091e40001cba678","665500ab8938657b03fbdba8","66579232bd3c48cab369b629","1054","stimuli/1011111.jpg","1","","prediction_practice","1","{""filepath"":""stimuli/1011111.jpg"",""ball_pos"":1,""ego_ball_visible"":false,""ego_can_infer"":false,""alter_ball_visible"":false,""alter_can_infer"":false,""collective_ball_visible"":false,""collective_can_infer"":false,""search_locations"":[2,1],""alter_occluders"":""011"",""ego_occluders"":""111""}","true","","","","","","","","","","","","","","","","","","",""
"","","","","","image-keyboard-response","17","113616","0.0-3.0-14.0","5c2eb9c30091e40001cba678","665500ab8938657b03fbdba8","66579232bd3c48cab369b629","1280","stimuli/10111111.jpg"," ","","practrice_feedback","2","","","","","","","","","","","","","","","","","","","","",""
"","","","","","image-keyboard-response","18","114561","0.0-3.0-15.0","5c2eb9c30091e40001cba678","665500ab8938657b03fbdba8","66579232bd3c48cab369b629","944","stimuli/1110001.jpg","1","","prediction_practice","0","{""filepath"":""stimuli/1110001.jpg"",""ball_pos"":1,""ego_ball_visible"":true,""ego_can_infer"":true,""alter_ball_visible"":false,""alter_can_infer"":false,""collective_ball_visible"":false,""collective_can_infer"":false,""search_locations"":[1,0],""alter_occluders"":""110"",""ego_occluders"":""001""}","false","","","","","","","","","","","","","","","","","","",""
"","","","","","image-keyboard-response","19","115477","0.0-3.0-16.0","5c2eb9c30091e40001cba678","665500ab8938657b03fbdba8","66579232bd3c48cab369b629","915","stimuli/11100010.jpg"," ","","practrice_feedback","1","","","","","","","","","","","","","","","","","","","","",""
"","","","","","image-keyboard-response","20","116687","0.0-3.0-17.0","5c2eb9c30091e40001cba678","665500ab8938657b03fbdba8","66579232bd3c48cab369b629","1208","stimuli/1001000.jpg","1","","prediction_practice","1","{""filepath"":""stimuli/1001000.jpg"",""ball_pos"":1,""ego_ball_visible"":true,""ego_can_infer"":true,""alter_ball_visible"":true,""alter_can_infer"":true,""collective_ball_visible"":true,""collective_can_infer"":true,""search_locations"":[1],""alter_occluders"":""001"",""ego_occluders"":""000""}","true","","","","","","","","","","","","","","","","","","",""
"","","","","","image-keyboard-response","21","117366","0.0-3.0-18.0","5c2eb9c30091e40001cba678","665500ab8938657b03fbdba8","66579232bd3c48cab369b629","678","stimuli/10010001.jpg"," ","","practrice_feedback","1","","","","","","","","","","","","","","","","","","","","",""
"","","","","","image-keyboard-response","22","118521","0.0-3.0-19.0","5c2eb9c30091e40001cba678","665500ab8938657b03fbdba8","66579232bd3c48cab369b629","1154","stimuli/2010101.jpg","0","","prediction_practice","2","{""filepath"":""stimuli/2010101.jpg"",""ball_pos"":2,""ego_ball_visible"":false,""ego_can_infer"":false,""alter_ball_visible"":true,""alter_can_infer"":true,""collective_ball_visible"":false,""collective_can_infer"":false,""search_locations"":[2],""alter_occluders"":""010"",""ego_occluders"":""101""}","false","","","","","","","","","","","","","","","","","","",""
"","","","","","image-keyboard-response","23","119917","0.0-3.0-20.0","5c2eb9c30091e40001cba678","665500ab8938657b03fbdba8","66579232bd3c48cab369b629","1395","stimuli/20101012.jpg"," ","","practrice_feedback","2","","","","","","","","","","","","","","","","","","","","",""
"","","","","","html-button-response","24","122474","0.0-3.0-21.0","5c2eb9c30091e40001cba678","665500ab8938657b03fbdba8","66579232bd3c48cab369b629","2556","Now that you've had some practice, you'll be tested with a couple of easy trials. If you correctly predict Sam's choice, you'll move on to complete the experiment!","0","","","","","","","","","","","","","","","","","","","","","","","",""
"","","","","","image-keyboard-response","25","125021","0.0-3.0-22.0-0.0","5c2eb9c30091e40001cba678","665500ab8938657b03fbdba8","66579232bd3c48cab369b629","2546","stimuli/0000011.jpg","arrowleft","","comprehension_quiz","","","true","arrowleft","","","","","","","","","","","","","","","","","",""
"","","","","","image-keyboard-response","26","125976","0.0-3.0-22.0-1.0","5c2eb9c30091e40001cba678","665500ab8938657b03fbdba8","66579232bd3c48cab369b629","947","stimuli/00000110.jpg"," ","","comprehension_quiz","","","true"," ","","","","","","","","","","","","","","","","","",""
"","","","","","image-keyboard-response","27","127050","0.0-3.0-22.0-2.0","5c2eb9c30091e40001cba678","665500ab8938657b03fbdba8","66579232bd3c48cab369b629","1073","stimuli/1010010.jpg","arrowdown","","comprehension_quiz","","","true","arrowdown","","","","","","","","","","","","","","","","","",""
"","","","","","image-keyboard-response","28","127999","0.0-3.0-22.0-3.0","5c2eb9c30091e40001cba678","665500ab8938657b03fbdba8","66579232bd3c48cab369b629","948","stimuli/10100101.jpg"," ","","comprehension_quiz","","","true"," ","","","","","","","","","","","","","","","","","",""
"","","","","","html-button-response","29","129789","0.0-4.0","5c2eb9c30091e40001cba678","665500ab8938657b03fbdba8","66579232bd3c48cab369b629","1782","The experiment will now begin.","0","","","","","","","","","","","","","","","","","","","","","","","",""
"","","","","","image-keyboard-response","30","132599","0.0-5.0","5c2eb9c30091e40001cba678","665500ab8938657b03fbdba8","66579232bd3c48cab369b629","2809","stimuli/0110111.jpg","1","","prediction_trial","0","","false","","0","false","false","false","false","false","false","[0,1]","110","111","0","","","","","","",""
"","","","","","image-keyboard-response","31","133862","0.0-6.0","5c2eb9c30091e40001cba678","665500ab8938657b03fbdba8","66579232bd3c48cab369b629","1262","stimuli/01101110.jpg"," ","","feedback_trial","0","","","","","","","","","","","","","","","","","","","","",""
"","","","","","image-keyboard-response","32","134658","0.0-7.0","5c2eb9c30091e40001cba678","665500ab8938657b03fbdba8","66579232bd3c48cab369b629","795","stimuli/1001000.jpg","1","","prediction_trial","1","","true","","1","true","true","true","true","true","true","[1]","001","000","1","","","","","","",""
"","","","","","image-keyboard-response","33","135511","0.0-8.0","5c2eb9c30091e40001cba678","665500ab8938657b03fbdba8","66579232bd3c48cab369b629","852","stimuli/10010001.jpg"," ","","feedback_trial","1","","","","","","","","","","","","","","","","","","","","",""
"","","","","","image-keyboard-response","34","136436","0.0-9.0","5c2eb9c30091e40001cba678","665500ab8938657b03fbdba8","66579232bd3c48cab369b629","924","stimuli/0111010.jpg","0","","prediction_trial","2","","false","","0","true","true","false","false","false","false","[0,1,2]","111","010","0","","","","","","",""
"","","","","","image-keyboard-response","35","138528","0.0-10.0","5c2eb9c30091e40001cba678","665500ab8938657b03fbdba8","66579232bd3c48cab369b629","2091","stimuli/01110102.jpg"," ","","feedback_trial","0","","","","","","","","","","","","","","","","","","","","",""
"","","","","","image-keyboard-response","36","140338","0.0-11.0","5c2eb9c30091e40001cba678","665500ab8938657b03fbdba8","66579232bd3c48cab369b629","1809","stimuli/2100001.jpg","2","","prediction_trial","2","","true","","2","false","true","true","true","false","true","[2]","100","001","1","","","","","","",""
"","","","","","image-keyboard-response","37","142414","0.0-12.0","5c2eb9c30091e40001cba678","665500ab8938657b03fbdba8","66579232bd3c48cab369b629","2075","stimuli/21000012.jpg"," ","","feedback_trial","2","","","","","","","","","","","","","","","","","","","","",""
"","","","","","image-keyboard-response","38","147027","0.0-13.0","5c2eb9c30091e40001cba678","665500ab8938657b03fbdba8","66579232bd3c48cab369b629","4613","stimuli/2100010.jpg","2","","prediction_trial","2","","true","","2","true","true","true","true","true","true","[2]","100","010","1","","","","","","",""
"","","","","","image-keyboard-response","39","147696","0.0-14.0","5c2eb9c30091e40001cba678","665500ab8938657b03fbdba8","66579232bd3c48cab369b629","667","stimuli/21000102.jpg"," ","","feedback_trial","2","","","","","","","","","","","","","","","","","","","","",""
"","","","","","image-keyboard-response","40","151796","0.0-15.0","5c2eb9c30091e40001cba678","665500ab8938657b03fbdba8","66579232bd3c48cab369b629","4099","stimuli/2011100.jpg","1","","prediction_trial","1","","true","","2","true","true","false","false","false","false","[2,1]","011","100","1","","","","","","",""
"","","","","","image-keyboard-response","41","152690","0.0-16.0","5c2eb9c30091e40001cba678","665500ab8938657b03fbdba8","66579232bd3c48cab369b629","894","stimuli/20111001.jpg"," ","","feedback_trial","2","","","","","","","","","","","","","","","","","","","","",""
"","","","","","image-keyboard-response","42","154413","0.0-17.0","5c2eb9c30091e40001cba678","665500ab8938657b03fbdba8","66579232bd3c48cab369b629","1721","stimuli/1101101.jpg","1","","prediction_trial","1","","true","","1","true","true","true","true","true","true","[1]","101","101","1","","","","","","",""
"","","","","","image-keyboard-response","43","154887","0.0-18.0","5c2eb9c30091e40001cba678","665500ab8938657b03fbdba8","66579232bd3c48cab369b629","472","stimuli/11011011.jpg"," ","","feedback_trial","1","","","","","","","","","","","","","","","","","","","","",""
"","","","","","image-keyboard-response","44","157807","0.0-19.0","5c2eb9c30091e40001cba678","665500ab8938657b03fbdba8","66579232bd3c48cab369b629","2919","stimuli/0010110.jpg","0","","prediction_trial","0","","true","","0","false","false","true","true","false","false","[0]","010","110","1","","","","","","",""
"","","","","","image-keyboard-response","45","158653","0.0-20.0","5c2eb9c30091e40001cba678","665500ab8938657b03fbdba8","66579232bd3c48cab369b629","845","stimuli/00101100.jpg"," ","","feedback_trial","0","","","","","","","","","","","","","","","","","","","","",""
"","","","","","image-keyboard-response","46","160357","0.0-21.0","5c2eb9c30091e40001cba678","665500ab8938657b03fbdba8","66579232bd3c48cab369b629","1702","stimuli/1100101.jpg","1","","prediction_trial","1","","true","","1","true","true","true","true","true","true","[1]","100","101","1","","","","","","",""
"","","","","","image-keyboard-response","47","160891","0.0-22.0","5c2eb9c30091e40001cba678","665500ab8938657b03fbdba8","66579232bd3c48cab369b629","532","stimuli/11001011.jpg"," ","","feedback_trial","1","","","","","","","","","","","","","","","","","","","","",""
"","","","","","image-keyboard-response","48","163291","0.0-23.0","5c2eb9c30091e40001cba678","665500ab8938657b03fbdba8","66579232bd3c48cab369b629","2399","stimuli/2001010.jpg","2","","prediction_trial","2","","true","","2","true","true","false","true","false","true","[2]","001","010","1","","","","","","",""
"","","","","","image-keyboard-response","49","163954","0.0-24.0","5c2eb9c30091e40001cba678","665500ab8938657b03fbdba8","66579232bd3c48cab369b629","661","stimuli/20010102.jpg"," ","","feedback_trial","2","","","","","","","","","","","","","","","","","","","","",""
"","","","","","image-keyboard-response","50","165344","0.0-25.0","5c2eb9c30091e40001cba678","665500ab8938657b03fbdba8","66579232bd3c48cab369b629","1387","stimuli/0011000.jpg","0","","prediction_trial","0","","true","","0","true","true","true","true","true","true","[0]","011","000","1","","","","","","",""
"","","","","","image-keyboard-response","51","166042","0.0-26.0","5c2eb9c30091e40001cba678","665500ab8938657b03fbdba8","66579232bd3c48cab369b629","698","stimuli/00110000.jpg"," ","","feedback_trial","0","","","","","","","","","","","","","","","","","","","","",""
"","","","","","image-keyboard-response","52","168035","0.0-27.0","5c2eb9c30091e40001cba678","665500ab8938657b03fbdba8","66579232bd3c48cab369b629","1991","stimuli/1110111.jpg","2","","prediction_trial","0","","false","","1","false","false","false","false","false","false","[1,0]","110","111","0","","","","","","",""
"","","","","","image-keyboard-response","53","169143","0.0-28.0","5c2eb9c30091e40001cba678","665500ab8938657b03fbdba8","66579232bd3c48cab369b629","1107","stimuli/11101110.jpg"," ","","feedback_trial","1","","","","","","","","","","","","","","","","","","","","",""
"","","","","","image-keyboard-response","54","170374","0.0-29.0","5c2eb9c30091e40001cba678","665500ab8938657b03fbdba8","66579232bd3c48cab369b629","1230","stimuli/0111111.jpg","1","","prediction_trial","1","","true","","0","false","false","false","false","false","false","[0,1,2]","111","111","1","","","","","","",""
"","","","","","image-keyboard-response","55","171101","0.0-30.0","5c2eb9c30091e40001cba678","665500ab8938657b03fbdba8","66579232bd3c48cab369b629","725","stimuli/01111111.jpg"," ","","feedback_trial","0","","","","","","","","","","","","","","","","","","","","",""
"","","","","","image-keyboard-response","56","172826","0.0-31.0","5c2eb9c30091e40001cba678","665500ab8938657b03fbdba8","66579232bd3c48cab369b629","1724","stimuli/0010101.jpg","0","","prediction_trial","0","","true","","0","false","false","true","true","false","false","[0]","010","101","1","","","","","","",""
"","","","","","image-keyboard-response","57","173574","0.0-32.0","5c2eb9c30091e40001cba678","665500ab8938657b03fbdba8","66579232bd3c48cab369b629","746","stimuli/00101010.jpg"," ","","feedback_trial","0","","","","","","","","","","","","","","","","","","","","",""
"","","","","","image-keyboard-response","58","174690","0.0-33.0","5c2eb9c30091e40001cba678","665500ab8938657b03fbdba8","66579232bd3c48cab369b629","1116","stimuli/1111010.jpg","1","","prediction_trial","2","","false","","1","false","true","false","false","false","false","[1,0,2]","111","010","0","","","","","","",""
"","","","","","image-keyboard-response","59","175838","0.0-34.0","5c2eb9c30091e40001cba678","665500ab8938657b03fbdba8","66579232bd3c48cab369b629","1147","stimuli/11110102.jpg"," ","","feedback_trial","1","","","","","","","","","","","","","","","","","","","","",""
"","","","","","image-keyboard-response","60","177644","0.0-35.0","5c2eb9c30091e40001cba678","665500ab8938657b03fbdba8","66579232bd3c48cab369b629","1805","stimuli/2110111.jpg","2","","prediction_trial","2","","true","","2","false","false","true","true","false","false","[2]","110","111","1","","","","","","",""
"","","","","","image-keyboard-response","61","178402","0.0-36.0","5c2eb9c30091e40001cba678","665500ab8938657b03fbdba8","66579232bd3c48cab369b629","757","stimuli/21101112.jpg"," ","","feedback_trial","2","","","","","","","","","","","","","","","","","","","","",""
"","","","","","image-keyboard-response","62","179937","0.0-37.0","5c2eb9c30091e40001cba678","665500ab8938657b03fbdba8","66579232bd3c48cab369b629","1534","stimuli/0001101.jpg","1","","prediction_trial","0","","false","","0","false","false","true","true","false","false","[0]","001","101","0","","","","","","",""
"","","","","","image-keyboard-response","63","180705","0.0-38.0","5c2eb9c30091e40001cba678","665500ab8938657b03fbdba8","66579232bd3c48cab369b629","767","stimuli/00011010.jpg"," ","","feedback_trial","0","","","","","","","","","","","","","","","","","","","","",""
"","","","","","image-keyboard-response","64","182174","0.0-39.0","5c2eb9c30091e40001cba678","665500ab8938657b03fbdba8","66579232bd3c48cab369b629","1468","stimuli/2110001.jpg","2","","prediction_trial","2","","true","","2","false","true","true","true","false","true","[2]","110","001","1","","","","","","",""
"","","","","","image-keyboard-response","65","182900","0.0-40.0","5c2eb9c30091e40001cba678","665500ab8938657b03fbdba8","66579232bd3c48cab369b629","725","stimuli/21100012.jpg"," ","","feedback_trial","2","","","","","","","","","","","","","","","","","","","","",""
"","","","","","image-keyboard-response","66","184589","0.0-41.0","5c2eb9c30091e40001cba678","665500ab8938657b03fbdba8","66579232bd3c48cab369b629","1688","stimuli/1010000.jpg","1","","prediction_trial","1","","true","","1","true","true","false","true","false","true","[1]","010","000","1","","","","","","",""
"","","","","","image-keyboard-response","67","185224","0.0-42.0","5c2eb9c30091e40001cba678","665500ab8938657b03fbdba8","66579232bd3c48cab369b629","633","stimuli/10100001.jpg"," ","","feedback_trial","1","","","","","","","","","","","","","","","","","","","","",""
"","","","","","image-keyboard-response","68","186708","0.0-43.0","5c2eb9c30091e40001cba678","665500ab8938657b03fbdba8","66579232bd3c48cab369b629","1482","stimuli/0001000.jpg","0","","prediction_trial","0","","true","","0","true","true","true","true","true","true","[0]","001","000","1","","","","","","",""
"","","","","","image-keyboard-response","69","187425","0.0-44.0","5c2eb9c30091e40001cba678","665500ab8938657b03fbdba8","66579232bd3c48cab369b629","716","stimuli/00010000.jpg"," ","","feedback_trial","0","","","","","","","","","","","","","","","","","","","","",""
"","","","","","image-keyboard-response","70","189102","0.0-45.0","5c2eb9c30091e40001cba678","665500ab8938657b03fbdba8","66579232bd3c48cab369b629","1676","stimuli/0001111.jpg","1","","prediction_trial","0","","false","","0","false","false","true","true","false","false","[0]","001","111","0","","","","","","",""
"","","","","","image-keyboard-response","71","189880","0.0-46.0","5c2eb9c30091e40001cba678","665500ab8938657b03fbdba8","66579232bd3c48cab369b629","776","stimuli/00011110.jpg"," ","","feedback_trial","0","","","","","","","","","","","","","","","","","","","","",""
"","","","","","image-keyboard-response","72","190997","0.0-47.0","5c2eb9c30091e40001cba678","665500ab8938657b03fbdba8","66579232bd3c48cab369b629","1116","stimuli/0001001.jpg","0","","prediction_trial","0","","true","","0","true","true","true","true","true","true","[0]","001","001","1","","","","","","",""
"","","","","","image-keyboard-response","73","191695","0.0-48.0","5c2eb9c30091e40001cba678","665500ab8938657b03fbdba8","66579232bd3c48cab369b629","697","stimuli/00010010.jpg"," ","","feedback_trial","0","","","","","","","","","","","","","","","","","","","","",""
"","","","","","image-keyboard-response","74","193639","0.0-49.0","5c2eb9c30091e40001cba678","665500ab8938657b03fbdba8","66579232bd3c48cab369b629","1943","stimuli/1101110.jpg","1","","prediction_trial","1","","true","","1","false","false","true","true","false","false","[1]","101","110","1","","","","","","",""
"","","","","","image-keyboard-response","75","194242","0.0-50.0","5c2eb9c30091e40001cba678","665500ab8938657b03fbdba8","66579232bd3c48cab369b629","603","stimuli/11011101.jpg"," ","","feedback_trial","1","","","","","","","","","","","","","","","","","","","","",""
"","","","","","image-keyboard-response","76","195506","0.0-51.0","5c2eb9c30091e40001cba678","665500ab8938657b03fbdba8","66579232bd3c48cab369b629","1262","stimuli/1011111.jpg","0","","prediction_trial","2","","false","","1","false","false","false","false","false","false","[2,1]","011","111","0","","","","","","",""
"","","","","","image-keyboard-response","77","196490","0.0-52.0","5c2eb9c30091e40001cba678","665500ab8938657b03fbdba8","66579232bd3c48cab369b629","983","stimuli/10111112.jpg"," ","","feedback_trial","2","","","","","","","","","","","","","","","","","","","","",""
"","","","","","image-keyboard-response","78","199073","0.0-53.0","5c2eb9c30091e40001cba678","665500ab8938657b03fbdba8","66579232bd3c48cab369b629","2582","stimuli/0100101.jpg","2","","prediction_trial","0","","false","","0","false","false","false","true","false","false","[0]","100","101","0","","","","","","",""
"","","","","","image-keyboard-response","79","199988","0.0-54.0","5c2eb9c30091e40001cba678","665500ab8938657b03fbdba8","66579232bd3c48cab369b629","914","stimuli/01001010.jpg"," ","","feedback_trial","0","","","","","","","","","","","","","","","","","","","","",""
"","","","","","image-keyboard-response","80","201467","0.0-55.0","5c2eb9c30091e40001cba678","665500ab8938657b03fbdba8","66579232bd3c48cab369b629","1478","stimuli/1101011.jpg","1","","prediction_trial","1","","true","","1","false","false","true","true","false","false","[1]","101","011","1","","","","","","",""
"","","","","","image-keyboard-response","81","202227","0.0-56.0","5c2eb9c30091e40001cba678","665500ab8938657b03fbdba8","66579232bd3c48cab369b629","760","stimuli/11010111.jpg"," ","","feedback_trial","1","","","","","","","","","","","","","","","","","","","","",""
"","","","","","image-keyboard-response","82","203366","0.0-57.0","5c2eb9c30091e40001cba678","665500ab8938657b03fbdba8","66579232bd3c48cab369b629","1137","stimuli/2001001.jpg","2","","prediction_trial","2","","true","","2","false","true","false","true","false","true","[2]","001","001","1","","","","","","",""
"","","","","","image-keyboard-response","83","204062","0.0-58.0","5c2eb9c30091e40001cba678","665500ab8938657b03fbdba8","66579232bd3c48cab369b629","695","stimuli/20010012.jpg"," ","","feedback_trial","2","","","","","","","","","","","","","","","","","","","","",""
"","","","","","image-keyboard-response","84","206361","0.0-59.0","5c2eb9c30091e40001cba678","665500ab8938657b03fbdba8","66579232bd3c48cab369b629","2298","stimuli/1100110.jpg","0","","prediction_trial","1","","false","","1","false","false","true","true","false","false","[1]","100","110","0","","","","","","",""
"","","","","","image-keyboard-response","85","207224","0.0-60.0","5c2eb9c30091e40001cba678","665500ab8938657b03fbdba8","66579232bd3c48cab369b629","862","stimuli/11001101.jpg"," ","","feedback_trial","1","","","","","","","","","","","","","","","","","","","","",""
"","","","","","image-keyboard-response","86","208672","0.0-61.0","5c2eb9c30091e40001cba678","665500ab8938657b03fbdba8","66579232bd3c48cab369b629","1447","stimuli/1100000.jpg","1","","prediction_trial","1","","true","","1","true","true","true","true","true","true","[1]","100","000","1","","","","","","",""
"","","","","","image-keyboard-response","87","209289","0.0-62.0","5c2eb9c30091e40001cba678","665500ab8938657b03fbdba8","66579232bd3c48cab369b629","616","stimuli/11000001.jpg"," ","","feedback_trial","1","","","","","","","","","","","","","","","","","","","","",""
"","","","","","image-keyboard-response","88","210760","0.0-63.0","5c2eb9c30091e40001cba678","665500ab8938657b03fbdba8","66579232bd3c48cab369b629","1470","stimuli/2001011.jpg","1","","prediction_trial","2","","false","","2","false","false","false","true","false","false","[2]","001","011","0","","","","","","",""
"","","","","","image-keyboard-response","89","211511","0.0-64.0","5c2eb9c30091e40001cba678","665500ab8938657b03fbdba8","66579232bd3c48cab369b629","750","stimuli/20010112.jpg"," ","","feedback_trial","2","","","","","","","","","","","","","","","","","","","","",""
"","","","","","image-keyboard-response","90","214142","0.0-65.0","5c2eb9c30091e40001cba678","665500ab8938657b03fbdba8","66579232bd3c48cab369b629","2630","stimuli/1110011.jpg","2","","prediction_trial","0","","false","","1","false","false","false","false","false","false","[0,1]","110","011","0","","","","","","",""
"","","","","","image-keyboard-response","91","214872","0.0-66.0","5c2eb9c30091e40001cba678","665500ab8938657b03fbdba8","66579232bd3c48cab369b629","729","stimuli/11100110.jpg"," ","","feedback_trial","0","","","","","","","","","","","","","","","","","","","","",""
"","","","","","image-keyboard-response","92","215819","0.0-67.0","5c2eb9c30091e40001cba678","665500ab8938657b03fbdba8","66579232bd3c48cab369b629","946","stimuli/1001001.jpg","1","","prediction_trial","1","","true","","1","true","true","true","true","true","true","[1]","001","001","1","","","","","","",""
"","","","","","image-keyboard-response","93","216625","0.0-68.0","5c2eb9c30091e40001cba678","665500ab8938657b03fbdba8","66579232bd3c48cab369b629","805","stimuli/10010011.jpg"," ","","feedback_trial","1","","","","","","","","","","","","","","","","","","","","",""
"","","","","","image-keyboard-response","94","218159","0.0-69.0","5c2eb9c30091e40001cba678","665500ab8938657b03fbdba8","66579232bd3c48cab369b629","1532","stimuli/0100111.jpg","1","","prediction_trial","0","","false","","0","false","false","false","true","false","false","[0]","100","111","0","","","","","","",""
"","","","","","image-keyboard-response","95","218959","0.0-70.0","5c2eb9c30091e40001cba678","665500ab8938657b03fbdba8","66579232bd3c48cab369b629","799","stimuli/01001110.jpg"," ","","feedback_trial","0","","","","","","","","","","","","","","","","","","","","",""
"","","","","","image-keyboard-response","96","219971","0.0-71.0","5c2eb9c30091e40001cba678","665500ab8938657b03fbdba8","66579232bd3c48cab369b629","1011","stimuli/1101001.jpg","1","","prediction_trial","1","","true","","1","true","true","true","true","true","true","[1]","101","001","1","","","","","","",""
"","","","","","image-keyboard-response","97","220667","0.0-72.0","5c2eb9c30091e40001cba678","665500ab8938657b03fbdba8","66579232bd3c48cab369b629","695","stimuli/11010011.jpg"," ","","feedback_trial","1","","","","","","","","","","","","","","","","","","","","",""
"","","","","","image-keyboard-response","98","221885","0.0-73.0","5c2eb9c30091e40001cba678","665500ab8938657b03fbdba8","66579232bd3c48cab369b629","1217","stimuli/1100111.jpg","1","","prediction_trial","1","","true","","1","false","false","true","true","false","false","[1]","100","111","1","","","","","","",""
"","","","","","image-keyboard-response","99","222742","0.0-74.0","5c2eb9c30091e40001cba678","665500ab8938657b03fbdba8","66579232bd3c48cab369b629","855","stimuli/11001111.jpg"," ","","feedback_trial","1","","","","","","","","","","","","","","","","","","","","",""
"","","","","","image-keyboard-response","100","224172","0.0-75.0","5c2eb9c30091e40001cba678","665500ab8938657b03fbdba8","66579232bd3c48cab369b629","1429","stimuli/2111001.jpg","2","","prediction_trial","2","","true","","2","false","true","false","false","false","false","[1,0,2]","111","001","1","","","","","","",""
"","","","","","image-keyboard-response","101","225043","0.0-76.0","5c2eb9c30091e40001cba678","665500ab8938657b03fbdba8","66579232bd3c48cab369b629","870","stimuli/21110012.jpg"," ","","feedback_trial","1","","","","","","","","","","","","","","","","","","","","",""
"","","","","","image-keyboard-response","102","226937","0.0-77.0","5c2eb9c30091e40001cba678","665500ab8938657b03fbdba8","66579232bd3c48cab369b629","1893","stimuli/0001110.jpg","1","","prediction_trial","0","","false","","0","false","false","true","true","false","false","[0]","001","110","0","","","","","","",""
"","","","","","image-keyboard-response","103","227661","0.0-78.0","5c2eb9c30091e40001cba678","665500ab8938657b03fbdba8","66579232bd3c48cab369b629","723","stimuli/00011100.jpg"," ","","feedback_trial","0","","","","","","","","","","","","","","","","","","","","",""
"","","","","","image-keyboard-response","104","231138","0.0-79.0","5c2eb9c30091e40001cba678","665500ab8938657b03fbdba8","66579232bd3c48cab369b629","3475","stimuli/0011111.jpg","0","","prediction_trial","0","","true","","0","false","false","true","true","false","false","[0]","011","111","1","","","","","","",""
"","","","","","image-keyboard-response","105","231888","0.0-80.0","5c2eb9c30091e40001cba678","665500ab8938657b03fbdba8","66579232bd3c48cab369b629","749","stimuli/00111110.jpg"," ","","feedback_trial","0","","","","","","","","","","","","","","","","","","","","",""
"","","","","","image-keyboard-response","106","232874","0.0-81.0","5c2eb9c30091e40001cba678","665500ab8938657b03fbdba8","66579232bd3c48cab369b629","985","stimuli/0000010.jpg","0","","prediction_trial","0","","true","","0","true","true","true","true","true","true","[0]","000","010","1","","","","","","",""
"","","","","","image-keyboard-response","107","233522","0.0-82.0","5c2eb9c30091e40001cba678","665500ab8938657b03fbdba8","66579232bd3c48cab369b629","646","stimuli/00000100.jpg"," ","","feedback_trial","0","","","","","","","","","","","","","","","","","","","","",""
"","","","","","image-keyboard-response","108","234750","0.0-83.0","5c2eb9c30091e40001cba678","665500ab8938657b03fbdba8","66579232bd3c48cab369b629","1227","stimuli/1011101.jpg","1","","prediction_trial","1","","true","","1","true","true","false","false","false","false","[1,2]","011","101","1","","","","","","",""
"","","","","","image-keyboard-response","109","235335","0.0-84.0","5c2eb9c30091e40001cba678","665500ab8938657b03fbdba8","66579232bd3c48cab369b629","583","stimuli/10111011.jpg"," ","","feedback_trial","1","","","","","","","","","","","","","","","","","","","","",""
"","","","","","image-keyboard-response","110","236545","0.0-85.0","5c2eb9c30091e40001cba678","665500ab8938657b03fbdba8","66579232bd3c48cab369b629","1209","stimuli/0110110.jpg","1","","prediction_trial","1","","true","","0","false","false","false","false","false","false","[0,1]","110","110","1","","","","","","",""
"","","","","","image-keyboard-response","111","237212","0.0-86.0","5c2eb9c30091e40001cba678","665500ab8938657b03fbdba8","66579232bd3c48cab369b629","665","stimuli/01101101.jpg"," ","","feedback_trial","0","","","","","","","","","","","","","","","","","","","","",""
"","","","","","image-keyboard-response","112","238184","0.0-87.0","5c2eb9c30091e40001cba678","665500ab8938657b03fbdba8","66579232bd3c48cab369b629","971","stimuli/2001100.jpg","2","","prediction_trial","2","","true","","2","true","true","false","true","false","true","[2]","001","100","1","","","","","","",""
"","","","","","image-keyboard-response","113","238912","0.0-88.0","5c2eb9c30091e40001cba678","665500ab8938657b03fbdba8","66579232bd3c48cab369b629","727","stimuli/20011002.jpg"," ","","feedback_trial","2","","","","","","","","","","","","","","","","","","","","",""
"","","","","","image-keyboard-response","114","239903","0.0-89.0","5c2eb9c30091e40001cba678","665500ab8938657b03fbdba8","66579232bd3c48cab369b629","990","stimuli/2100000.jpg","2","","prediction_trial","2","","true","","2","true","true","true","true","true","true","[2]","100","000","1","","","","","","",""
"","","","","","image-keyboard-response","115","240396","0.0-90.0","5c2eb9c30091e40001cba678","665500ab8938657b03fbdba8","66579232bd3c48cab369b629","492","stimuli/21000002.jpg"," ","","feedback_trial","2","","","","","","","","","","","","","","","","","","","","",""
"","","","","","image-keyboard-response","116","242513","0.0-91.0","5c2eb9c30091e40001cba678","665500ab8938657b03fbdba8","66579232bd3c48cab369b629","2116","stimuli/0111101.jpg","0","","prediction_trial","2","","false","","0","false","false","false","false","false","false","[1,0,2]","111","101","0","","","","","","",""
"","","","","","image-keyboard-response","117","243472","0.0-92.0","5c2eb9c30091e40001cba678","665500ab8938657b03fbdba8","66579232bd3c48cab369b629","958","stimuli/01111012.jpg"," ","","feedback_trial","1","","","","","","","","","","","","","","","","","","","","",""
"","","","","","image-keyboard-response","118","245686","0.0-93.0","5c2eb9c30091e40001cba678","665500ab8938657b03fbdba8","66579232bd3c48cab369b629","2212","stimuli/2000101.jpg","2","","prediction_trial","2","","true","","2","false","false","true","true","false","false","[2]","000","101","1","","","","","","",""
"","","","","","image-keyboard-response","119","246319","0.0-94.0","5c2eb9c30091e40001cba678","665500ab8938657b03fbdba8","66579232bd3c48cab369b629","632","stimuli/20001012.jpg"," ","","feedback_trial","2","","","","","","","","","","","","","","","","","","","","",""
"","","","","","image-keyboard-response","120","249469","0.0-95.0","5c2eb9c30091e40001cba678","665500ab8938657b03fbdba8","66579232bd3c48cab369b629","3149","stimuli/0101001.jpg","0","","prediction_trial","2","","false","","0","true","true","false","false","false","false","[2,0]","101","001","0","","","","","","",""
"","","","","","image-keyboard-response","121","250183","0.0-96.0","5c2eb9c30091e40001cba678","665500ab8938657b03fbdba8","66579232bd3c48cab369b629","712","stimuli/01010012.jpg"," ","","feedback_trial","2","","","","","","","","","","","","","","","","","","","","",""
"","","","","","image-keyboard-response","122","251066","0.0-97.0","5c2eb9c30091e40001cba678","665500ab8938657b03fbdba8","66579232bd3c48cab369b629","882","stimuli/2000010.jpg","2","","prediction_trial","2","","true","","2","true","true","true","true","true","true","[2]","000","010","1","","","","","","",""
"","","","","","image-keyboard-response","123","251774","0.0-98.0","5c2eb9c30091e40001cba678","665500ab8938657b03fbdba8","66579232bd3c48cab369b629","707","stimuli/20000102.jpg"," ","","feedback_trial","2","","","","","","","","","","","","","","","","","","","","",""
"","","","","","image-keyboard-response","124","252905","0.0-99.0","5c2eb9c30091e40001cba678","665500ab8938657b03fbdba8","66579232bd3c48cab369b629","1130","stimuli/1010100.jpg","1","","prediction_trial","1","","true","","1","true","true","false","true","false","true","[1]","010","100","1","","","","","","",""
"","","","","","image-keyboard-response","125","253535","0.0-100.0","5c2eb9c30091e40001cba678","665500ab8938657b03fbdba8","66579232bd3c48cab369b629","628","stimuli/10101001.jpg"," ","","feedback_trial","1","","","","","","","","","","","","","","","","","","","","",""
"","","","","","image-keyboard-response","126","255294","0.0-101.0","5c2eb9c30091e40001cba678","665500ab8938657b03fbdba8","66579232bd3c48cab369b629","1759","stimuli/0111110.jpg","0","","prediction_trial","0","","true","","0","false","false","false","false","false","false","[2,1,0]","111","110","1","","","","","","",""
"","","","","","image-keyboard-response","127","256069","0.0-102.0","5c2eb9c30091e40001cba678","665500ab8938657b03fbdba8","66579232bd3c48cab369b629","773","stimuli/01111100.jpg"," ","","feedback_trial","2","","","","","","","","","","","","","","","","","","","","",""
"","","","","","image-keyboard-response","128","257086","0.0-103.0","5c2eb9c30091e40001cba678","665500ab8938657b03fbdba8","66579232bd3c48cab369b629","1016","stimuli/0011100.jpg","0","","prediction_trial","0","","true","","0","false","true","true","true","false","true","[0]","011","100","1","","","","","","",""
"","","","","","image-keyboard-response","129","257729","0.0-104.0","5c2eb9c30091e40001cba678","665500ab8938657b03fbdba8","66579232bd3c48cab369b629","642","stimuli/00111000.jpg"," ","","feedback_trial","0","","","","","","","","","","","","","","","","","","","","",""
"","","","","","image-keyboard-response","130","258685","0.0-105.0","5c2eb9c30091e40001cba678","665500ab8938657b03fbdba8","66579232bd3c48cab369b629","955","stimuli/2011111.jpg","0","","prediction_trial","1","","false","","2","false","false","false","false","false","false","[1,2]","011","111","0","","","","","","",""
"","","","","","image-keyboard-response","131","259454","0.0-106.0","5c2eb9c30091e40001cba678","665500ab8938657b03fbdba8","66579232bd3c48cab369b629","767","stimuli/20111111.jpg"," ","","feedback_trial","1","","","","","","","","","","","","","","","","","","","","",""
"","","","","","image-keyboard-response","132","260312","0.0-107.0","5c2eb9c30091e40001cba678","665500ab8938657b03fbdba8","66579232bd3c48cab369b629","856","stimuli/0011011.jpg","0","","prediction_trial","0","","true","","0","true","true","true","true","true","true","[0]","011","011","1","","","","","","",""
"","","","","","image-keyboard-response","133","260984","0.0-108.0","5c2eb9c30091e40001cba678","665500ab8938657b03fbdba8","66579232bd3c48cab369b629","670","stimuli/00110110.jpg"," ","","feedback_trial","0","","","","","","","","","","","","","","","","","","","","",""
"","","","","","image-keyboard-response","134","261964","0.0-109.0","5c2eb9c30091e40001cba678","665500ab8938657b03fbdba8","66579232bd3c48cab369b629","978","stimuli/1000101.jpg","1","","prediction_trial","1","","true","","1","true","true","true","true","true","true","[1]","000","101","1","","","","","","",""
"","","","","","image-keyboard-response","135","262603","0.0-110.0","5c2eb9c30091e40001cba678","665500ab8938657b03fbdba8","66579232bd3c48cab369b629","639","stimuli/10001011.jpg"," ","","feedback_trial","1","","","","","","","","","","","","","","","","","","","","",""
"","","","","","image-keyboard-response","136","263772","0.0-111.0","5c2eb9c30091e40001cba678","665500ab8938657b03fbdba8","66579232bd3c48cab369b629","1167","stimuli/2010001.jpg","2","","prediction_trial","2","","true","","2","false","true","true","true","false","true","[2]","010","001","1","","","","","","",""
"","","","","","image-keyboard-response","137","264467","0.0-112.0","5c2eb9c30091e40001cba678","665500ab8938657b03fbdba8","66579232bd3c48cab369b629","694","stimuli/20100012.jpg"," ","","feedback_trial","2","","","","","","","","","","","","","","","","","","","","",""
"","","","","","image-keyboard-response","138","265673","0.0-113.0","5c2eb9c30091e40001cba678","665500ab8938657b03fbdba8","66579232bd3c48cab369b629","1205","stimuli/2011110.jpg","2","","prediction_trial","1","","false","","2","true","true","false","false","false","false","[2,1]","011","110","0","","","","","","",""
"","","","","","image-keyboard-response","139","266417","0.0-114.0","5c2eb9c30091e40001cba678","665500ab8938657b03fbdba8","66579232bd3c48cab369b629","743","stimuli/20111101.jpg"," ","","feedback_trial","2","","","","","","","","","","","","","","","","","","","","",""
"","","","","","image-keyboard-response","140","267276","0.0-115.0","5c2eb9c30091e40001cba678","665500ab8938657b03fbdba8","66579232bd3c48cab369b629","859","stimuli/2110000.jpg","2","","prediction_trial","2","","true","","2","true","true","true","true","true","true","[2]","110","000","1","","","","","","",""
"","","","","","image-keyboard-response","141","267971","0.0-116.0","5c2eb9c30091e40001cba678","665500ab8938657b03fbdba8","66579232bd3c48cab369b629","693","stimuli/21100002.jpg"," ","","feedback_trial","2","","","","","","","","","","","","","","","","","","","","",""
"","","","","","image-keyboard-response","142","270011","0.0-117.0","5c2eb9c30091e40001cba678","665500ab8938657b03fbdba8","66579232bd3c48cab369b629","2039","stimuli/0011110.jpg","1","","prediction_trial","0","","false","","0","false","false","true","true","false","false","[0]","011","110","0","","","","","","",""
"","","","","","image-keyboard-response","143","270759","0.0-118.0","5c2eb9c30091e40001cba678","665500ab8938657b03fbdba8","66579232bd3c48cab369b629","747","stimuli/00111100.jpg"," ","","feedback_trial","0","","","","","","","","","","","","","","","","","","","","",""
"","","","","","image-keyboard-response","144","271435","0.0-119.0","5c2eb9c30091e40001cba678","665500ab8938657b03fbdba8","66579232bd3c48cab369b629","674","stimuli/2011010.jpg","2","","prediction_trial","2","","true","","2","true","true","false","false","false","false","[2,1]","011","010","1","","","","","","",""
"","","","","","image-keyboard-response","145","272083","0.0-120.0","5c2eb9c30091e40001cba678","665500ab8938657b03fbdba8","66579232bd3c48cab369b629","647","stimuli/20110102.jpg"," ","","feedback_trial","2","","","","","","","","","","","","","","","","","","","","",""
"","","","","","image-keyboard-response","146","273119","0.0-121.0","5c2eb9c30091e40001cba678","665500ab8938657b03fbdba8","66579232bd3c48cab369b629","1035","stimuli/0010000.jpg","0","","prediction_trial","0","","true","","0","true","true","true","true","true","true","[0]","010","000","1","","","","","","",""
"","","","","","image-keyboard-response","147","273792","0.0-122.0","5c2eb9c30091e40001cba678","665500ab8938657b03fbdba8","66579232bd3c48cab369b629","672","stimuli/00100000.jpg"," ","","feedback_trial","0","","","","","","","","","","","","","","","","","","","","",""
"","","","","","image-keyboard-response","148","274734","0.0-123.0","5c2eb9c30091e40001cba678","665500ab8938657b03fbdba8","66579232bd3c48cab369b629","941","stimuli/1001101.jpg","1","","prediction_trial","1","","true","","1","true","true","true","true","true","true","[1]","001","101","1","","","","","","",""
"","","","","","image-keyboard-response","149","275309","0.0-124.0","5c2eb9c30091e40001cba678","665500ab8938657b03fbdba8","66579232bd3c48cab369b629","574","stimuli/10011011.jpg"," ","","feedback_trial","1","","","","","","","","","","","","","","","","","","","","",""
"","","","","","image-keyboard-response","150","276599","0.0-125.0","5c2eb9c30091e40001cba678","665500ab8938657b03fbdba8","66579232bd3c48cab369b629","1288","stimuli/1000110.jpg","1","","prediction_trial","1","","true","","1","false","false","true","true","false","false","[1]","000","110","1","","","","","","",""
"","","","","","image-keyboard-response","151","277127","0.0-126.0","5c2eb9c30091e40001cba678","665500ab8938657b03fbdba8","66579232bd3c48cab369b629","527","stimuli/10001101.jpg"," ","","feedback_trial","1","","","","","","","","","","","","","","","","","","","","",""
"","","","","","image-keyboard-response","152","278382","0.0-127.0","5c2eb9c30091e40001cba678","665500ab8938657b03fbdba8","66579232bd3c48cab369b629","1254","stimuli/0111001.jpg","0","","prediction_trial","1","","false","","0","true","true","false","false","false","false","[0,1,2]","111","001","0","","","","","","",""
"","","","","","image-keyboard-response","153","279136","0.0-128.0","5c2eb9c30091e40001cba678","665500ab8938657b03fbdba8","66579232bd3c48cab369b629","752","stimuli/01110011.jpg"," ","","feedback_trial","0","","","","","","","","","","","","","","","","","","","","",""
"","","","","","image-keyboard-response","154","280018","0.0-129.0","5c2eb9c30091e40001cba678","665500ab8938657b03fbdba8","66579232bd3c48cab369b629","882","stimuli/1100001.jpg","1","","prediction_trial","1","","true","","1","true","true","true","true","true","true","[1]","100","001","1","","","","","","",""
"","","","","","image-keyboard-response","155","280751","0.0-130.0","5c2eb9c30091e40001cba678","665500ab8938657b03fbdba8","66579232bd3c48cab369b629","731","stimuli/11000011.jpg"," ","","feedback_trial","1","","","","","","","","","","","","","","","","","","","","",""
"","","","","","image-keyboard-response","156","282080","0.0-131.0","5c2eb9c30091e40001cba678","665500ab8938657b03fbdba8","66579232bd3c48cab369b629","1328","stimuli/2011101.jpg","0","","prediction_trial","2","","false","","2","false","false","false","false","false","false","[1,2]","011","101","0","","","","","","",""
"","","","","","image-keyboard-response","157","282783","0.0-132.0","5c2eb9c30091e40001cba678","665500ab8938657b03fbdba8","66579232bd3c48cab369b629","701","stimuli/20111012.jpg"," ","","feedback_trial","1","","","","","","","","","","","","","","","","","","","","",""
"","","","","","image-keyboard-response","158","283575","0.0-133.0","5c2eb9c30091e40001cba678","665500ab8938657b03fbdba8","66579232bd3c48cab369b629","790","stimuli/1010001.jpg","1","","prediction_trial","1","","true","","1","true","true","false","true","false","true","[1]","010","001","1","","","","","","",""
"","","","","","image-keyboard-response","159","284166","0.0-134.0","5c2eb9c30091e40001cba678","665500ab8938657b03fbdba8","66579232bd3c48cab369b629","590","stimuli/10100011.jpg"," ","","feedback_trial","1","","","","","","","","","","","","","","","","","","","","",""
"","","","","","image-keyboard-response","160","285137","0.0-135.0","5c2eb9c30091e40001cba678","665500ab8938657b03fbdba8","66579232bd3c48cab369b629","970","stimuli/1101100.jpg","1","","prediction_trial","1","","true","","1","true","true","true","true","true","true","[1]","101","100","1","","","","","","",""
"","","","","","image-keyboard-response","161","285740","0.0-136.0","5c2eb9c30091e40001cba678","665500ab8938657b03fbdba8","66579232bd3c48cab369b629","601","stimuli/11011001.jpg"," ","","feedback_trial","1","","","","","","","","","","","","","","","","","","","","",""
"","","","","","image-keyboard-response","162","286736","0.0-137.0","5c2eb9c30091e40001cba678","665500ab8938657b03fbdba8","66579232bd3c48cab369b629","994","stimuli/0000001.jpg","0","","prediction_trial","0","","true","","0","true","true","true","true","true","true","[0]","000","001","1","","","","","","",""
"","","","","","image-keyboard-response","163","287322","0.0-138.0","5c2eb9c30091e40001cba678","665500ab8938657b03fbdba8","66579232bd3c48cab369b629","585","stimuli/00000010.jpg"," ","","feedback_trial","0","","","","","","","","","","","","","","","","","","","","",""
"","","","","","image-keyboard-response","164","288160","0.0-139.0","5c2eb9c30091e40001cba678","665500ab8938657b03fbdba8","66579232bd3c48cab369b629","836","stimuli/0011010.jpg","0","","prediction_trial","0","","true","","0","true","true","true","true","true","true","[0]","011","010","1","","","","","","",""
"","","","","","image-keyboard-response","165","288710","0.0-140.0","5c2eb9c30091e40001cba678","665500ab8938657b03fbdba8","66579232bd3c48cab369b629","549","stimuli/00110100.jpg"," ","","feedback_trial","0","","","","","","","","","","","","","","","","","","","","",""
"","","","","","image-keyboard-response","166","289781","0.0-141.0","5c2eb9c30091e40001cba678","665500ab8938657b03fbdba8","66579232bd3c48cab369b629","1069","stimuli/1000010.jpg","1","","prediction_trial","1","","true","","1","false","true","true","true","false","true","[1]","000","010","1","","","","","","",""
"","","","","","image-keyboard-response","167","290535","0.0-142.0","5c2eb9c30091e40001cba678","665500ab8938657b03fbdba8","66579232bd3c48cab369b629","753","stimuli/10000101.jpg"," ","","feedback_trial","1","","","","","","","","","","","","","","","","","","","","",""
"","","","","","image-keyboard-response","168","292477","0.0-143.0","5c2eb9c30091e40001cba678","665500ab8938657b03fbdba8","66579232bd3c48cab369b629","1941","stimuli/0011101.jpg","2","","prediction_trial","0","","false","","0","false","false","true","true","false","false","[0]","011","101","0","","","","","","",""
"","","","","","image-keyboard-response","169","293332","0.0-144.0","5c2eb9c30091e40001cba678","665500ab8938657b03fbdba8","66579232bd3c48cab369b629","852","stimuli/00111010.jpg"," ","","feedback_trial","0","","","","","","","","","","","","","","","","","","","","",""
"","","","","","image-keyboard-response","170","294364","0.0-145.0","5c2eb9c30091e40001cba678","665500ab8938657b03fbdba8","66579232bd3c48cab369b629","1031","stimuli/1011010.jpg","1","","prediction_trial","1","","true","","1","false","true","false","false","false","false","[1,2]","011","010","1","","","","","","",""
"","","","","","image-keyboard-response","171","294961","0.0-146.0","5c2eb9c30091e40001cba678","665500ab8938657b03fbdba8","66579232bd3c48cab369b629","596","stimuli/10110101.jpg"," ","","feedback_trial","1","","","","","","","","","","","","","","","","","","","","",""
"","","","","","image-keyboard-response","172","296067","0.0-147.0","5c2eb9c30091e40001cba678","665500ab8938657b03fbdba8","66579232bd3c48cab369b629","1105","stimuli/2101010.jpg","2","","prediction_trial","0","","false","","2","true","true","false","false","false","false","[2,0]","101","010","0","","","","","","",""
"","","","","","image-keyboard-response","173","296862","0.0-148.0","5c2eb9c30091e40001cba678","665500ab8938657b03fbdba8","66579232bd3c48cab369b629","794","stimuli/21010100.jpg"," ","","feedback_trial","2","","","","","","","","","","","","","","","","","","","","",""
"","","","","","image-keyboard-response","174","297672","0.0-149.0","5c2eb9c30091e40001cba678","665500ab8938657b03fbdba8","66579232bd3c48cab369b629","809","stimuli/1111100.jpg","1","","prediction_trial","2","","false","","1","true","true","false","false","false","false","[0,2,1]","111","100","0","","","","","","",""
"","","","","","image-keyboard-response","175","298494","0.0-150.0","5c2eb9c30091e40001cba678","665500ab8938657b03fbdba8","66579232bd3c48cab369b629","821","stimuli/11111002.jpg"," ","","feedback_trial","0","","","","","","","","","","","","","","","","","","","","",""
"","","","","","image-keyboard-response","176","299390","0.0-151.0","5c2eb9c30091e40001cba678","665500ab8938657b03fbdba8","66579232bd3c48cab369b629","895","stimuli/0001011.jpg","0","","prediction_trial","0","","true","","0","true","true","true","true","true","true","[0]","001","011","1","","","","","","",""
"","","","","","image-keyboard-response","177","299927","0.0-152.0","5c2eb9c30091e40001cba678","665500ab8938657b03fbdba8","66579232bd3c48cab369b629","536","stimuli/00010110.jpg"," ","","feedback_trial","0","","","","","","","","","","","","","","","","","","","","",""
"","","","","","image-keyboard-response","178","301686","0.0-153.0","5c2eb9c30091e40001cba678","665500ab8938657b03fbdba8","66579232bd3c48cab369b629","1758","stimuli/2010101.jpg","0","","prediction_trial","2","","false","","2","false","false","true","true","false","false","[2]","010","101","0","","","","","","",""
"","","","","","image-keyboard-response","179","302558","0.0-154.0","5c2eb9c30091e40001cba678","665500ab8938657b03fbdba8","66579232bd3c48cab369b629","871","stimuli/20101012.jpg"," ","","feedback_trial","2","","","","","","","","","","","","","","","","","","","","",""
"","","","","","image-keyboard-response","180","303847","0.0-155.0","5c2eb9c30091e40001cba678","665500ab8938657b03fbdba8","66579232bd3c48cab369b629","1287","stimuli/1010111.jpg","2","","prediction_trial","1","","false","","1","false","false","false","true","false","false","[1]","010","111","0","","","","","","",""
"","","","","","image-keyboard-response","181","305329","0.0-156.0","5c2eb9c30091e40001cba678","665500ab8938657b03fbdba8","66579232bd3c48cab369b629","1482","stimuli/10101111.jpg"," ","","feedback_trial","1","","","","","","","","","","","","","","","","","","","","",""
"","","","","","image-keyboard-response","182","307012","0.0-157.0","5c2eb9c30091e40001cba678","665500ab8938657b03fbdba8","66579232bd3c48cab369b629","1681","stimuli/2100011.jpg","1","","prediction_trial","2","","false","","2","false","false","true","true","false","false","[2]","100","011","0","","","","","","",""
"","","","","","image-keyboard-response","183","308316","0.0-158.0","5c2eb9c30091e40001cba678","665500ab8938657b03fbdba8","66579232bd3c48cab369b629","1303","stimuli/21000112.jpg"," ","","feedback_trial","2","","","","","","","","","","","","","","","","","","","","",""
"","","","","","image-keyboard-response","184","309177","0.0-159.0","5c2eb9c30091e40001cba678","665500ab8938657b03fbdba8","66579232bd3c48cab369b629","859","stimuli/1001100.jpg","1","","prediction_trial","1","","true","","1","true","true","true","true","true","true","[1]","001","100","1","","","","","","",""
"","","","","","image-keyboard-response","185","309942","0.0-160.0","5c2eb9c30091e40001cba678","665500ab8938657b03fbdba8","66579232bd3c48cab369b629","764","stimuli/10011001.jpg"," ","","feedback_trial","1","","","","","","","","","","","","","","","","","","","","",""
"","","","","","image-keyboard-response","186","310719","0.0-161.0","5c2eb9c30091e40001cba678","665500ab8938657b03fbdba8","66579232bd3c48cab369b629","777","stimuli/0110000.jpg","0","","prediction_trial","0","","true","","0","true","true","false","false","false","false","[0,1]","110","000","1","","","","","","",""
"","","","","","image-keyboard-response","187","311495","0.0-162.0","5c2eb9c30091e40001cba678","665500ab8938657b03fbdba8","66579232bd3c48cab369b629","774","stimuli/01100000.jpg"," ","","feedback_trial","0","","","","","","","","","","","","","","","","","","","","",""
"","","","","","image-keyboard-response","188","312398","0.0-163.0","5c2eb9c30091e40001cba678","665500ab8938657b03fbdba8","66579232bd3c48cab369b629","902","stimuli/1001010.jpg","1","","prediction_trial","1","","true","","1","false","true","true","true","false","true","[1]","001","010","1","","","","","","",""
"","","","","","image-keyboard-response","189","313088","0.0-164.0","5c2eb9c30091e40001cba678","665500ab8938657b03fbdba8","66579232bd3c48cab369b629","689","stimuli/10010101.jpg"," ","","feedback_trial","1","","","","","","","","","","","","","","","","","","","","",""
"","","","","","image-keyboard-response","190","314052","0.0-165.0","5c2eb9c30091e40001cba678","665500ab8938657b03fbdba8","66579232bd3c48cab369b629","962","stimuli/1001011.jpg","1","","prediction_trial","1","","true","","1","false","false","true","true","false","false","[1]","001","011","1","","","","","","",""
"","","","","","image-keyboard-response","191","314828","0.0-166.0","5c2eb9c30091e40001cba678","665500ab8938657b03fbdba8","66579232bd3c48cab369b629","775","stimuli/10010111.jpg"," ","","feedback_trial","1","","","","","","","","","","","","","","","","","","","","",""
"","","","","","image-keyboard-response","192","315767","0.0-167.0","5c2eb9c30091e40001cba678","665500ab8938657b03fbdba8","66579232bd3c48cab369b629","939","stimuli/1111011.jpg","1","","prediction_trial","0","","false","","1","false","false","false","false","false","false","[0,2,1]","111","011","0","","","","","","",""
"","","","","","image-keyboard-response","193","316697","0.0-168.0","5c2eb9c30091e40001cba678","665500ab8938657b03fbdba8","66579232bd3c48cab369b629","929","stimuli/11110110.jpg"," ","","feedback_trial","0","","","","","","","","","","","","","","","","","","","","",""
"","","","","","image-keyboard-response","194","317527","0.0-169.0","5c2eb9c30091e40001cba678","665500ab8938657b03fbdba8","66579232bd3c48cab369b629","829","stimuli/2100101.jpg","2","","prediction_trial","2","","true","","2","false","false","true","true","false","false","[2]","100","101","1","","","","","","",""
"","","","","","image-keyboard-response","195","318322","0.0-170.0","5c2eb9c30091e40001cba678","665500ab8938657b03fbdba8","66579232bd3c48cab369b629","794","stimuli/21001012.jpg"," ","","feedback_trial","2","","","","","","","","","","","","","","","","","","","","",""
"","","","","","image-keyboard-response","196","319136","0.0-171.0","5c2eb9c30091e40001cba678","665500ab8938657b03fbdba8","66579232bd3c48cab369b629","812","stimuli/2010000.jpg","2","","prediction_trial","2","","true","","2","true","true","true","true","true","true","[2]","010","000","1","","","","","","",""
"","","","","","image-keyboard-response","197","319851","0.0-172.0","5c2eb9c30091e40001cba678","665500ab8938657b03fbdba8","66579232bd3c48cab369b629","714","stimuli/20100002.jpg"," ","","feedback_trial","2","","","","","","","","","","","","","","","","","","","","",""
"","","","","","image-keyboard-response","198","320679","0.0-173.0","5c2eb9c30091e40001cba678","665500ab8938657b03fbdba8","66579232bd3c48cab369b629","827","stimuli/0000000.jpg","0","","prediction_trial","0","","true","","0","true","true","true","true","true","true","[0]","000","000","1","","","","","","",""
"","","","","","image-keyboard-response","199","321391","0.0-174.0","5c2eb9c30091e40001cba678","665500ab8938657b03fbdba8","66579232bd3c48cab369b629","711","stimuli/00000000.jpg"," ","","feedback_trial","0","","","","","","","","","","","","","","","","","","","","",""
"","","","","","image-keyboard-response","200","322529","0.0-175.0","5c2eb9c30091e40001cba678","665500ab8938657b03fbdba8","66579232bd3c48cab369b629","1137","stimuli/2011011.jpg","1","","prediction_trial","2","","false","","2","false","false","false","false","false","false","[2,1]","011","011","0","","","","","","",""
"","","","","","image-keyboard-response","201","323186","0.0-176.0","5c2eb9c30091e40001cba678","665500ab8938657b03fbdba8","66579232bd3c48cab369b629","656","stimuli/20110112.jpg"," ","","feedback_trial","2","","","","","","","","","","","","","","","","","","","","",""
"","","","","","image-keyboard-response","202","324049","0.0-177.0","5c2eb9c30091e40001cba678","665500ab8938657b03fbdba8","66579232bd3c48cab369b629","862","stimuli/0101110.jpg","1","","prediction_trial","0","","false","","0","false","false","false","false","false","false","[0,2]","101","110","0","","","","","","",""
"","","","","","image-keyboard-response","203","324846","0.0-178.0","5c2eb9c30091e40001cba678","665500ab8938657b03fbdba8","66579232bd3c48cab369b629","796","stimuli/01011100.jpg"," ","","feedback_trial","0","","","","","","","","","","","","","","","","","","","","",""
"","","","","","image-keyboard-response","204","326176","0.0-179.0","5c2eb9c30091e40001cba678","665500ab8938657b03fbdba8","66579232bd3c48cab369b629","1330","stimuli/1001110.jpg","1","","prediction_trial","1","","true","","1","false","false","true","true","false","false","[1]","001","110","1","","","","","","",""
"","","","","","image-keyboard-response","205","326776","0.0-180.0","5c2eb9c30091e40001cba678","665500ab8938657b03fbdba8","66579232bd3c48cab369b629","599","stimuli/10011101.jpg"," ","","feedback_trial","1","","","","","","","","","","","","","","","","","","","","",""
"","","","","","image-keyboard-response","206","327892","0.0-181.0","5c2eb9c30091e40001cba678","665500ab8938657b03fbdba8","66579232bd3c48cab369b629","1115","stimuli/0110101.jpg","0","","prediction_trial","1","","false","","0","false","false","false","false","false","false","[0,1]","110","101","0","","","","","","",""
"","","","","","image-keyboard-response","207","329576","0.0-182.0","5c2eb9c30091e40001cba678","665500ab8938657b03fbdba8","66579232bd3c48cab369b629","1683","stimuli/01101011.jpg"," ","","feedback_trial","0","","","","","","","","","","","","","","","","","","","","",""
"","","","","","image-keyboard-response","208","330400","0.0-183.0","5c2eb9c30091e40001cba678","665500ab8938657b03fbdba8","66579232bd3c48cab369b629","822","stimuli/0010010.jpg","0","","prediction_trial","0","","true","","0","true","true","true","true","true","true","[0]","010","010","1","","","","","","",""
"","","","","","image-keyboard-response","209","330918","0.0-184.0","5c2eb9c30091e40001cba678","665500ab8938657b03fbdba8","66579232bd3c48cab369b629","517","stimuli/00100100.jpg"," ","","feedback_trial","0","","","","","","","","","","","","","","","","","","","","",""
"","","","","","image-keyboard-response","210","331836","0.0-185.0","5c2eb9c30091e40001cba678","665500ab8938657b03fbdba8","66579232bd3c48cab369b629","916","stimuli/0000101.jpg","2","","prediction_trial","0","","false","","0","false","false","true","true","false","false","[0]","000","101","0","","","","","","",""
"","","","","","image-keyboard-response","211","332751","0.0-186.0","5c2eb9c30091e40001cba678","665500ab8938657b03fbdba8","66579232bd3c48cab369b629","914","stimuli/00001010.jpg"," ","","feedback_trial","0","","","","","","","","","","","","","","","","","","","","",""
"","","","","","image-keyboard-response","212","333458","0.0-187.0","5c2eb9c30091e40001cba678","665500ab8938657b03fbdba8","66579232bd3c48cab369b629","706","stimuli/2001110.jpg","2","","prediction_trial","2","","true","","2","true","true","false","true","false","true","[2]","001","110","1","","","","","","",""
"","","","","","image-keyboard-response","213","334005","0.0-188.0","5c2eb9c30091e40001cba678","665500ab8938657b03fbdba8","66579232bd3c48cab369b629","546","stimuli/20011102.jpg"," ","","feedback_trial","2","","","","","","","","","","","","","","","","","","","","",""
"","","","","","image-keyboard-response","214","334859","0.0-189.0","5c2eb9c30091e40001cba678","665500ab8938657b03fbdba8","66579232bd3c48cab369b629","852","stimuli/2000001.jpg","2","","prediction_trial","2","","true","","2","false","true","true","true","false","true","[2]","000","001","1","","","","","","",""
"","","","","","image-keyboard-response","215","335508","0.0-190.0","5c2eb9c30091e40001cba678","665500ab8938657b03fbdba8","66579232bd3c48cab369b629","648","stimuli/20000012.jpg"," ","","feedback_trial","2","","","","","","","","","","","","","","","","","","","","",""
"","","","","","image-keyboard-response","216","336304","0.0-191.0","5c2eb9c30091e40001cba678","665500ab8938657b03fbdba8","66579232bd3c48cab369b629","795","stimuli/0001010.jpg","0","","prediction_trial","0","","true","","0","true","true","true","true","true","true","[0]","001","010","1","","","","","","",""
"","","","","","image-keyboard-response","217","337198","0.0-192.0","5c2eb9c30091e40001cba678","665500ab8938657b03fbdba8","66579232bd3c48cab369b629","893","stimuli/00010100.jpg"," ","","feedback_trial","0","","","","","","","","","","","","","","","","","","","","",""
"","","","","","image-keyboard-response","218","338040","0.0-193.0","5c2eb9c30091e40001cba678","665500ab8938657b03fbdba8","66579232bd3c48cab369b629","840","stimuli/2111011.jpg","1","","prediction_trial","0","","false","","2","false","false","false","false","false","false","[0,1,2]","111","011","0","","","","","","",""
"","","","","","image-keyboard-response","219","339087","0.0-194.0","5c2eb9c30091e40001cba678","665500ab8938657b03fbdba8","66579232bd3c48cab369b629","1046","stimuli/21110110.jpg"," ","","feedback_trial","0","","","","","","","","","","","","","","","","","","","","",""
"","","","","","image-keyboard-response","220","339748","0.0-195.0","5c2eb9c30091e40001cba678","665500ab8938657b03fbdba8","66579232bd3c48cab369b629","659","stimuli/1110000.jpg","1","","prediction_trial","1","","true","","1","true","true","false","false","false","false","[0,1]","110","000","1","","","","","","",""
"","","","","","image-keyboard-response","221","340326","0.0-196.0","5c2eb9c30091e40001cba678","665500ab8938657b03fbdba8","66579232bd3c48cab369b629","577","stimuli/11100001.jpg"," ","","feedback_trial","0","","","","","","","","","","","","","","","","","","","","",""
"","","","","","image-keyboard-response","222","341010","0.0-197.0","5c2eb9c30091e40001cba678","665500ab8938657b03fbdba8","66579232bd3c48cab369b629","683","stimuli/2111100.jpg","2","","prediction_trial","1","","false","","2","true","true","false","false","false","false","[2,0,1]","111","100","0","","","","","","",""
"","","","","","image-keyboard-response","223","343099","0.0-198.0","5c2eb9c30091e40001cba678","665500ab8938657b03fbdba8","66579232bd3c48cab369b629","2088","stimuli/21111001.jpg"," ","","feedback_trial","2","","","","","","","","","","","","","","","","","","","","",""
"","","","","","image-keyboard-response","224","343813","0.0-199.0","5c2eb9c30091e40001cba678","665500ab8938657b03fbdba8","66579232bd3c48cab369b629","713","stimuli/1111000.jpg","1","","prediction_trial","0","","false","","1","true","true","false","false","false","false","[2,1,0]","111","000","0","","","","","","",""
"","","","","","image-keyboard-response","225","344592","0.0-200.0","5c2eb9c30091e40001cba678","665500ab8938657b03fbdba8","66579232bd3c48cab369b629","778","stimuli/11110000.jpg"," ","","feedback_trial","2","","","","","","","","","","","","","","","","","","","","",""
"","","","","","image-keyboard-response","226","345621","0.0-201.0","5c2eb9c30091e40001cba678","665500ab8938657b03fbdba8","66579232bd3c48cab369b629","1027","stimuli/1011110.jpg","0","","prediction_trial","1","","false","","1","false","false","false","false","false","false","[2,1]","011","110","0","","","","","","",""
"","","","","","image-keyboard-response","227","346398","0.0-202.0","5c2eb9c30091e40001cba678","665500ab8938657b03fbdba8","66579232bd3c48cab369b629","776","stimuli/10111101.jpg"," ","","feedback_trial","2","","","","","","","","","","","","","","","","","","","","",""
"","","","","","image-keyboard-response","228","347053","0.0-203.0","5c2eb9c30091e40001cba678","665500ab8938657b03fbdba8","66579232bd3c48cab369b629","654","stimuli/1000001.jpg","1","","prediction_trial","1","","true","","1","true","true","true","true","true","true","[1]","000","001","1","","","","","","",""
"","","","","","image-keyboard-response","229","347643","0.0-204.0","5c2eb9c30091e40001cba678","665500ab8938657b03fbdba8","66579232bd3c48cab369b629","589","stimuli/10000011.jpg"," ","","feedback_trial","1","","","","","","","","","","","","","","","","","","","","",""
"","","","","","image-keyboard-response","230","348298","0.0-205.0","5c2eb9c30091e40001cba678","665500ab8938657b03fbdba8","66579232bd3c48cab369b629","654","stimuli/2000000.jpg","2","","prediction_trial","2","","true","","2","true","true","true","true","true","true","[2]","000","000","1","","","","","","",""
"","","","","","image-keyboard-response","231","349017","0.0-206.0","5c2eb9c30091e40001cba678","665500ab8938657b03fbdba8","66579232bd3c48cab369b629","718","stimuli/20000002.jpg"," ","","feedback_trial","2","","","","","","","","","","","","","","","","","","","","",""
"","","","","","image-keyboard-response","232","349826","0.0-207.0","5c2eb9c30091e40001cba678","665500ab8938657b03fbdba8","66579232bd3c48cab369b629","808","stimuli/1110101.jpg","1","","prediction_trial","1","","true","","1","true","true","false","false","false","false","[0,1]","110","101","1","","","","","","",""
"","","","","","image-keyboard-response","233","350391","0.0-208.0","5c2eb9c30091e40001cba678","665500ab8938657b03fbdba8","66579232bd3c48cab369b629","562","stimuli/11101011.jpg"," ","","feedback_trial","0","","","","","","","","","","","","","","","","","","","","",""
"","","","","","image-keyboard-response","234","351493","0.0-209.0","5c2eb9c30091e40001cba678","665500ab8938657b03fbdba8","66579232bd3c48cab369b629","1102","stimuli/2000011.jpg","1","","prediction_trial","2","","false","","2","false","false","true","true","false","false","[2]","000","011","0","","","","","","",""
"","","","","","image-keyboard-response","235","352150","0.0-210.0","5c2eb9c30091e40001cba678","665500ab8938657b03fbdba8","66579232bd3c48cab369b629","656","stimuli/20000112.jpg"," ","","feedback_trial","2","","","","","","","","","","","","","","","","","","","","",""
"","","","","","image-keyboard-response","236","353015","0.0-211.0","5c2eb9c30091e40001cba678","665500ab8938657b03fbdba8","66579232bd3c48cab369b629","864","stimuli/1100011.jpg","1","","prediction_trial","1","","true","","1","false","false","true","true","false","false","[1]","100","011","1","","","","","","",""
"","","","","","image-keyboard-response","237","353635","0.0-212.0","5c2eb9c30091e40001cba678","665500ab8938657b03fbdba8","66579232bd3c48cab369b629","619","stimuli/11000111.jpg"," ","","feedback_trial","1","","","","","","","","","","","","","","","","","","","","",""
"","","","","","image-keyboard-response","238","355042","0.0-213.0","5c2eb9c30091e40001cba678","665500ab8938657b03fbdba8","66579232bd3c48cab369b629","1405","stimuli/1110110.jpg","0","","prediction_trial","1","","false","","1","false","false","false","false","false","false","[1,0]","110","110","0","","","","","","",""
"","","","","","image-keyboard-response","239","356026","0.0-214.0","5c2eb9c30091e40001cba678","665500ab8938657b03fbdba8","66579232bd3c48cab369b629","983","stimuli/11101101.jpg"," ","","feedback_trial","1","","","","","","","","","","","","","","","","","","","","",""
"","","","","","image-keyboard-response","240","356637","0.0-215.0","5c2eb9c30091e40001cba678","665500ab8938657b03fbdba8","66579232bd3c48cab369b629","610","stimuli/1101000.jpg","1","","prediction_trial","1","","true","","1","true","true","true","true","true","true","[1]","101","000","1","","","","","","",""
"","","","","","image-keyboard-response","241","357343","0.0-216.0","5c2eb9c30091e40001cba678","665500ab8938657b03fbdba8","66579232bd3c48cab369b629","704","stimuli/11010001.jpg"," ","","feedback_trial","1","","","","","","","","","","","","","","","","","","","","",""
"","","","","","image-keyboard-response","242","358164","0.0-217.0","5c2eb9c30091e40001cba678","665500ab8938657b03fbdba8","66579232bd3c48cab369b629","819","stimuli/2011001.jpg","2","","prediction_trial","1","","false","","2","false","true","false","false","false","false","[1,2]","011","001","0","","","","","","",""
"","","","","","image-keyboard-response","243","358903","0.0-218.0","5c2eb9c30091e40001cba678","665500ab8938657b03fbdba8","66579232bd3c48cab369b629","738","stimuli/20110011.jpg"," ","","feedback_trial","1","","","","","","","","","","","","","","","","","","","","",""
"","","","","","image-keyboard-response","244","359623","0.0-219.0","5c2eb9c30091e40001cba678","665500ab8938657b03fbdba8","66579232bd3c48cab369b629","719","stimuli/2011000.jpg","2","","prediction_trial","2","","true","","2","true","true","false","false","false","false","[2,1]","011","000","1","","","","","","",""
"","","","","","image-keyboard-response","245","360295","0.0-220.0","5c2eb9c30091e40001cba678","665500ab8938657b03fbdba8","66579232bd3c48cab369b629","671","stimuli/20110002.jpg"," ","","feedback_trial","2","","","","","","","","","","","","","","","","","","","","",""
"","","","","","image-keyboard-response","246","361098","0.0-221.0","5c2eb9c30091e40001cba678","665500ab8938657b03fbdba8","66579232bd3c48cab369b629","802","stimuli/1000000.jpg","1","","prediction_trial","1","","true","","1","true","true","true","true","true","true","[1]","000","000","1","","","","","","",""
"","","","","","image-keyboard-response","247","361715","0.0-222.0","5c2eb9c30091e40001cba678","665500ab8938657b03fbdba8","66579232bd3c48cab369b629","615","stimuli/10000001.jpg"," ","","feedback_trial","1","","","","","","","","","","","","","","","","","","","","",""
"","","","","","image-keyboard-response","248","362461","0.0-223.0","5c2eb9c30091e40001cba678","665500ab8938657b03fbdba8","66579232bd3c48cab369b629","745","stimuli/2110100.jpg","2","","prediction_trial","2","","true","","2","true","true","true","true","true","true","[2]","110","100","1","","","","","","",""
"","","","","","image-keyboard-response","249","363109","0.0-224.0","5c2eb9c30091e40001cba678","665500ab8938657b03fbdba8","66579232bd3c48cab369b629","647","stimuli/21101002.jpg"," ","","feedback_trial","2","","","","","","","","","","","","","","","","","","","","",""
"","","","","","image-keyboard-response","250","364248","0.0-225.0","5c2eb9c30091e40001cba678","665500ab8938657b03fbdba8","66579232bd3c48cab369b629","1137","stimuli/2100111.jpg","0","","prediction_trial","2","","false","","2","false","false","true","true","false","false","[2]","100","111","0","","","","","","",""
"","","","","","image-keyboard-response","251","365242","0.0-226.0","5c2eb9c30091e40001cba678","665500ab8938657b03fbdba8","66579232bd3c48cab369b629","993","stimuli/21001112.jpg"," ","","feedback_trial","2","","","","","","","","","","","","","","","","","","","","",""
"","","","","","image-keyboard-response","252","365832","0.0-227.0","5c2eb9c30091e40001cba678","665500ab8938657b03fbdba8","66579232bd3c48cab369b629","589","stimuli/2000111.jpg","1","","prediction_trial","2","","false","","2","false","false","true","true","false","false","[2]","000","111","0","","","","","","",""
"","","","","","image-keyboard-response","253","366790","0.0-228.0","5c2eb9c30091e40001cba678","665500ab8938657b03fbdba8","66579232bd3c48cab369b629","957","stimuli/20001112.jpg"," ","","feedback_trial","2","","","","","","","","","","","","","","","","","","","","",""
"","","","","","image-keyboard-response","254","367514","0.0-229.0","5c2eb9c30091e40001cba678","665500ab8938657b03fbdba8","66579232bd3c48cab369b629","723","stimuli/0100010.jpg","0","","prediction_trial","0","","true","","0","true","true","false","true","false","true","[0]","100","010","1","","","","","","",""
"","","","","","image-keyboard-response","255","368252","0.0-230.0","5c2eb9c30091e40001cba678","665500ab8938657b03fbdba8","66579232bd3c48cab369b629","737","stimuli/01000100.jpg"," ","","feedback_trial","0","","","","","","","","","","","","","","","","","","","","",""
"","","","","","image-keyboard-response","256","369153","0.0-231.0","5c2eb9c30091e40001cba678","665500ab8938657b03fbdba8","66579232bd3c48cab369b629","900","stimuli/2111101.jpg","0","","prediction_trial","0","","true","","2","false","false","false","false","false","false","[2,1,0]","111","101","1","","","","","","",""
"","","","","","image-keyboard-response","257","369704","0.0-232.0","5c2eb9c30091e40001cba678","665500ab8938657b03fbdba8","66579232bd3c48cab369b629","549","stimuli/21111010.jpg"," ","","feedback_trial","2","","","","","","","","","","","","","","","","","","","","",""
"","","","","","image-keyboard-response","258","370691","0.0-233.0","5c2eb9c30091e40001cba678","665500ab8938657b03fbdba8","66579232bd3c48cab369b629","987","stimuli/0011001.jpg","0","","prediction_trial","0","","true","","0","true","true","true","true","true","true","[0]","011","001","1","","","","","","",""
"","","","","","image-keyboard-response","259","371238","0.0-234.0","5c2eb9c30091e40001cba678","665500ab8938657b03fbdba8","66579232bd3c48cab369b629","546","stimuli/00110010.jpg"," ","","feedback_trial","0","","","","","","","","","","","","","","","","","","","","",""
"","","","","","image-keyboard-response","260","372481","0.0-235.0","5c2eb9c30091e40001cba678","665500ab8938657b03fbdba8","66579232bd3c48cab369b629","1242","stimuli/0110100.jpg","0","","prediction_trial","0","","true","","0","false","true","false","false","false","false","[0,1]","110","100","1","","","","","","",""
"","","","","","image-keyboard-response","261","373044","0.0-236.0","5c2eb9c30091e40001cba678","665500ab8938657b03fbdba8","66579232bd3c48cab369b629","561","stimuli/01101000.jpg"," ","","feedback_trial","0","","","","","","","","","","","","","","","","","","","","",""
"","","","","","image-keyboard-response","262","373967","0.0-237.0","5c2eb9c30091e40001cba678","665500ab8938657b03fbdba8","66579232bd3c48cab369b629","922","stimuli/2001111.jpg","1","","prediction_trial","2","","false","","2","false","false","false","true","false","false","[2]","001","111","0","","","","","","",""
"","","","","","image-keyboard-response","263","374638","0.0-238.0","5c2eb9c30091e40001cba678","665500ab8938657b03fbdba8","66579232bd3c48cab369b629","671","stimuli/20011112.jpg"," ","","feedback_trial","2","","","","","","","","","","","","","","","","","","","","",""
"","","","","","image-keyboard-response","264","375372","0.0-239.0","5c2eb9c30091e40001cba678","665500ab8938657b03fbdba8","66579232bd3c48cab369b629","733","stimuli/1100100.jpg","1","","prediction_trial","1","","true","","1","true","true","true","true","true","true","[1]","100","100","1","","","","","","",""
"","","","","","image-keyboard-response","265","376013","0.0-240.0","5c2eb9c30091e40001cba678","665500ab8938657b03fbdba8","66579232bd3c48cab369b629","640","stimuli/11001001.jpg"," ","","feedback_trial","1","","","","","","","","","","","","","","","","","","","","",""
"","","","","","image-keyboard-response","266","376715","0.0-241.0","5c2eb9c30091e40001cba678","665500ab8938657b03fbdba8","66579232bd3c48cab369b629","701","stimuli/1011000.jpg","1","","prediction_trial","1","","true","","1","true","true","false","false","false","false","[1,2]","011","000","1","","","","","","",""
"","","","","","image-keyboard-response","267","377454","0.0-242.0","5c2eb9c30091e40001cba678","665500ab8938657b03fbdba8","66579232bd3c48cab369b629","738","stimuli/10110001.jpg"," ","","feedback_trial","1","","","","","","","","","","","","","","","","","","","","",""
"","","","","","image-keyboard-response","268","378235","0.0-243.0","5c2eb9c30091e40001cba678","665500ab8938657b03fbdba8","66579232bd3c48cab369b629","780","stimuli/2110010.jpg","2","","prediction_trial","2","","true","","2","true","true","true","true","true","true","[2]","110","010","1","","","","","","",""
"","","","","","image-keyboard-response","269","378970","0.0-244.0","5c2eb9c30091e40001cba678","665500ab8938657b03fbdba8","66579232bd3c48cab369b629","733","stimuli/21100102.jpg"," ","","feedback_trial","2","","","","","","","","","","","","","","","","","","","","",""
"","","","","","image-keyboard-response","270","379701","0.0-245.0","5c2eb9c30091e40001cba678","665500ab8938657b03fbdba8","66579232bd3c48cab369b629","730","stimuli/1110100.jpg","1","","prediction_trial","1","","true","","1","true","true","false","false","false","false","[0,1]","110","100","1","","","","","","",""
"","","","","","image-keyboard-response","271","380381","0.0-246.0","5c2eb9c30091e40001cba678","665500ab8938657b03fbdba8","66579232bd3c48cab369b629","679","stimuli/11101001.jpg"," ","","feedback_trial","0","","","","","","","","","","","","","","","","","","","","",""
"","","","","","image-keyboard-response","272","381184","0.0-247.0","5c2eb9c30091e40001cba678","665500ab8938657b03fbdba8","66579232bd3c48cab369b629","801","stimuli/0101010.jpg","0","","prediction_trial","2","","false","","0","true","true","false","false","false","false","[0,2]","101","010","0","","","","","","",""
"","","","","","image-keyboard-response","273","381995","0.0-248.0","5c2eb9c30091e40001cba678","665500ab8938657b03fbdba8","66579232bd3c48cab369b629","811","stimuli/01010102.jpg"," ","","feedback_trial","0","","","","","","","","","","","","","","","","","","","","",""
"","","","","","image-keyboard-response","274","382773","0.0-249.0","5c2eb9c30091e40001cba678","665500ab8938657b03fbdba8","66579232bd3c48cab369b629","776","stimuli/1010101.jpg","1","","prediction_trial","1","","true","","1","true","true","false","true","false","true","[1]","010","101","1","","","","","","",""
"","","","","","image-keyboard-response","275","383428","0.0-250.0","5c2eb9c30091e40001cba678","665500ab8938657b03fbdba8","66579232bd3c48cab369b629","654","stimuli/10101011.jpg"," ","","feedback_trial","1","","","","","","","","","","","","","","","","","","","","",""
"","","","","","image-keyboard-response","276","384208","0.0-251.0","5c2eb9c30091e40001cba678","665500ab8938657b03fbdba8","66579232bd3c48cab369b629","778","stimuli/1010010.jpg","1","","prediction_trial","1","","true","","1","false","true","false","true","false","true","[1]","010","010","1","","","","","","",""
"","","","","","image-keyboard-response","277","384849","0.0-252.0","5c2eb9c30091e40001cba678","665500ab8938657b03fbdba8","66579232bd3c48cab369b629","640","stimuli/10100101.jpg"," ","","feedback_trial","1","","","","","","","","","","","","","","","","","","","","",""
"","","","","","image-keyboard-response","278","385640","0.0-253.0","5c2eb9c30091e40001cba678","665500ab8938657b03fbdba8","66579232bd3c48cab369b629","790","stimuli/0100000.jpg","0","","prediction_trial","0","","true","","0","true","true","false","true","false","true","[0]","100","000","1","","","","","","",""
"","","","","","image-keyboard-response","279","386312","0.0-254.0","5c2eb9c30091e40001cba678","665500ab8938657b03fbdba8","66579232bd3c48cab369b629","671","stimuli/01000000.jpg"," ","","feedback_trial","0","","","","","","","","","","","","","","","","","","","","",""
"","","","","","image-keyboard-response","280","387172","0.0-255.0","5c2eb9c30091e40001cba678","665500ab8938657b03fbdba8","66579232bd3c48cab369b629","858","stimuli/0101101.jpg","0","","prediction_trial","0","","true","","0","false","false","false","false","false","false","[2,0]","101","101","1","","","","","","",""
"","","","","","image-keyboard-response","281","387780","0.0-256.0","5c2eb9c30091e40001cba678","665500ab8938657b03fbdba8","66579232bd3c48cab369b629","607","stimuli/01011010.jpg"," ","","feedback_trial","2","","","","","","","","","","","","","","","","","","","","",""
"","","","","","image-keyboard-response","282","388554","0.0-257.0","5c2eb9c30091e40001cba678","665500ab8938657b03fbdba8","66579232bd3c48cab369b629","772","stimuli/2000100.jpg","2","","prediction_trial","2","","true","","2","true","true","true","true","true","true","[2]","000","100","1","","","","","","",""
"","","","","","image-keyboard-response","283","389344","0.0-258.0","5c2eb9c30091e40001cba678","665500ab8938657b03fbdba8","66579232bd3c48cab369b629","789","stimuli/20001002.jpg"," ","","feedback_trial","2","","","","","","","","","","","","","","","","","","","","",""
"","","","","","image-keyboard-response","284","390192","0.0-259.0","5c2eb9c30091e40001cba678","665500ab8938657b03fbdba8","66579232bd3c48cab369b629","847","stimuli/1101010.jpg","1","","prediction_trial","1","","true","","1","false","true","true","true","false","true","[1]","101","010","1","","","","","","",""
"","","","","","image-keyboard-response","285","390828","0.0-260.0","5c2eb9c30091e40001cba678","665500ab8938657b03fbdba8","66579232bd3c48cab369b629","635","stimuli/11010101.jpg"," ","","feedback_trial","1","","","","","","","","","","","","","","","","","","","","",""
"","","","","","image-keyboard-response","286","391612","0.0-261.0","5c2eb9c30091e40001cba678","665500ab8938657b03fbdba8","66579232bd3c48cab369b629","783","stimuli/2001000.jpg","2","","prediction_trial","2","","true","","2","true","true","false","true","false","true","[2]","001","000","1","","","","","","",""
"","","","","","image-keyboard-response","287","392361","0.0-262.0","5c2eb9c30091e40001cba678","665500ab8938657b03fbdba8","66579232bd3c48cab369b629","748","stimuli/20010002.jpg"," ","","feedback_trial","2","","","","","","","","","","","","","","","","","","","","",""
"","","","","","image-keyboard-response","288","393143","0.0-263.0","5c2eb9c30091e40001cba678","665500ab8938657b03fbdba8","66579232bd3c48cab369b629","781","stimuli/2110110.jpg","2","","prediction_trial","2","","true","","2","true","true","true","true","true","true","[2]","110","110","1","","","","","","",""
"","","","","","image-keyboard-response","289","393889","0.0-264.0","5c2eb9c30091e40001cba678","665500ab8938657b03fbdba8","66579232bd3c48cab369b629","744","stimuli/21101102.jpg"," ","","feedback_trial","2","","","","","","","","","","","","","","","","","","","","",""
"","","","","","image-keyboard-response","290","396106","0.0-265.0","5c2eb9c30091e40001cba678","665500ab8938657b03fbdba8","66579232bd3c48cab369b629","2215","stimuli/2010011.jpg","1","","prediction_trial","2","","false","","2","false","false","true","true","false","false","[2]","010","011","0","","","","","","",""
"","","","","","image-keyboard-response","291","396772","0.0-266.0","5c2eb9c30091e40001cba678","665500ab8938657b03fbdba8","66579232bd3c48cab369b629","664","stimuli/20100112.jpg"," ","","feedback_trial","2","","","","","","","","","","","","","","","","","","","","",""
"","","","","","image-keyboard-response","292","397708","0.0-267.0","5c2eb9c30091e40001cba678","665500ab8938657b03fbdba8","66579232bd3c48cab369b629","935","stimuli/0000110.jpg","1","","prediction_trial","0","","false","","0","false","false","true","true","false","false","[0]","000","110","0","","","","","","",""
"","","","","","image-keyboard-response","293","398385","0.0-268.0","5c2eb9c30091e40001cba678","665500ab8938657b03fbdba8","66579232bd3c48cab369b629","676","stimuli/00001100.jpg"," ","","feedback_trial","0","","","","","","","","","","","","","","","","","","","","",""
"","","","","","image-keyboard-response","294","399404","0.0-269.0","5c2eb9c30091e40001cba678","665500ab8938657b03fbdba8","66579232bd3c48cab369b629","1018","stimuli/1100010.jpg","1","","prediction_trial","1","","true","","1","false","true","true","true","false","true","[1]","100","010","1","","","","","","",""
"","","","","","image-keyboard-response","295","400020","0.0-270.0","5c2eb9c30091e40001cba678","665500ab8938657b03fbdba8","66579232bd3c48cab369b629","615","stimuli/11000101.jpg"," ","","feedback_trial","1","","","","","","","","","","","","","","","","","","","","",""
"","","","","","image-keyboard-response","296","400764","0.0-271.0","5c2eb9c30091e40001cba678","665500ab8938657b03fbdba8","66579232bd3c48cab369b629","743","stimuli/0110001.jpg","0","","prediction_trial","0","","true","","0","true","true","false","false","false","false","[1,0]","110","001","1","","","","","","",""
"","","","","","image-keyboard-response","297","401491","0.0-272.0","5c2eb9c30091e40001cba678","665500ab8938657b03fbdba8","66579232bd3c48cab369b629","727","stimuli/01100010.jpg"," ","","feedback_trial","1","","","","","","","","","","","","","","","","","","","","",""
"","","","","","image-keyboard-response","298","402237","0.0-273.0","5c2eb9c30091e40001cba678","665500ab8938657b03fbdba8","66579232bd3c48cab369b629","744","stimuli/2111010.jpg","2","","prediction_trial","1","","false","","2","true","true","false","false","false","false","[2,0,1]","111","010","0","","","","","","",""
"","","","","","image-keyboard-response","299","403266","0.0-274.0","5c2eb9c30091e40001cba678","665500ab8938657b03fbdba8","66579232bd3c48cab369b629","1028","stimuli/21110101.jpg"," ","","feedback_trial","2","","","","","","","","","","","","","","","","","","","","",""
"","","","","","image-keyboard-response","300","404110","0.0-275.0","5c2eb9c30091e40001cba678","665500ab8938657b03fbdba8","66579232bd3c48cab369b629","843","stimuli/0010100.jpg","0","","prediction_trial","0","","true","","0","false","true","true","true","false","true","[0]","010","100","1","","","","","","",""
"","","","","","image-keyboard-response","301","404718","0.0-276.0","5c2eb9c30091e40001cba678","665500ab8938657b03fbdba8","66579232bd3c48cab369b629","607","stimuli/00101000.jpg"," ","","feedback_trial","0","","","","","","","","","","","","","","","","","","","","",""
"","","","","","image-keyboard-response","302","405430","0.0-277.0","5c2eb9c30091e40001cba678","665500ab8938657b03fbdba8","66579232bd3c48cab369b629","710","stimuli/2000110.jpg","2","","prediction_trial","2","","true","","2","true","true","true","true","true","true","[2]","000","110","1","","","","","","",""
"","","","","","image-keyboard-response","303","406040","0.0-278.0","5c2eb9c30091e40001cba678","665500ab8938657b03fbdba8","66579232bd3c48cab369b629","609","stimuli/20001102.jpg"," ","","feedback_trial","2","","","","","","","","","","","","","","","","","","","","",""
"","","","","","image-keyboard-response","304","407821","0.0-279.0","5c2eb9c30091e40001cba678","665500ab8938657b03fbdba8","66579232bd3c48cab369b629","1780","stimuli/1010011.jpg","1","","prediction_trial","1","","true","","1","false","false","false","true","false","false","[1]","010","011","1","","","","","","",""
"","","","","","image-keyboard-response","305","408559","0.0-280.0","5c2eb9c30091e40001cba678","665500ab8938657b03fbdba8","66579232bd3c48cab369b629","737","stimuli/10100111.jpg"," ","","feedback_trial","1","","","","","","","","","","","","","","","","","","","","",""
"","","","","","image-keyboard-response","306","410059","0.0-281.0","5c2eb9c30091e40001cba678","665500ab8938657b03fbdba8","66579232bd3c48cab369b629","1494","stimuli/1000011.jpg","1","","prediction_trial","1","","true","","1","false","false","true","true","false","false","[1]","000","011","1","","","","","","",""
"","","","","","image-keyboard-response","307","410894","0.0-282.0","5c2eb9c30091e40001cba678","665500ab8938657b03fbdba8","66579232bd3c48cab369b629","834","stimuli/10000111.jpg"," ","","feedback_trial","1","","","","","","","","","","","","","","","","","","","","",""
"","","","","","image-keyboard-response","308","412338","0.0-283.0","5c2eb9c30091e40001cba678","665500ab8938657b03fbdba8","66579232bd3c48cab369b629","1443","stimuli/1010110.jpg","0","","prediction_trial","1","","false","","1","false","false","false","true","false","false","[1]","010","110","0","","","","","","",""
"","","","","","image-keyboard-response","309","413024","0.0-284.0","5c2eb9c30091e40001cba678","665500ab8938657b03fbdba8","66579232bd3c48cab369b629","684","stimuli/10101101.jpg"," ","","feedback_trial","1","","","","","","","","","","","","","","","","","","","","",""
"","","","","","image-keyboard-response","310","413986","0.0-285.0","5c2eb9c30091e40001cba678","665500ab8938657b03fbdba8","66579232bd3c48cab369b629","961","stimuli/0100100.jpg","0","","prediction_trial","0","","true","","0","false","true","false","true","false","true","[0]","100","100","1","","","","","","",""
"","","","","","image-keyboard-response","311","414541","0.0-286.0","5c2eb9c30091e40001cba678","665500ab8938657b03fbdba8","66579232bd3c48cab369b629","554","stimuli/01001000.jpg"," ","","feedback_trial","0","","","","","","","","","","","","","","","","","","","","",""
"","","","","","image-keyboard-response","312","415921","0.0-287.0","5c2eb9c30091e40001cba678","665500ab8938657b03fbdba8","66579232bd3c48cab369b629","1379","stimuli/1111110.jpg","1","","prediction_trial","2","","false","","1","false","false","false","false","false","false","[2,0,1]","111","110","0","","","","","","",""
"","","","","","image-keyboard-response","313","416645","0.0-288.0","5c2eb9c30091e40001cba678","665500ab8938657b03fbdba8","66579232bd3c48cab369b629","722","stimuli/11111102.jpg"," ","","feedback_trial","2","","","","","","","","","","","","","","","","","","","","",""
"","","","","","image-keyboard-response","314","417385","0.0-289.0","5c2eb9c30091e40001cba678","665500ab8938657b03fbdba8","66579232bd3c48cab369b629","738","stimuli/0111000.jpg","0","","prediction_trial","2","","false","","0","true","true","false","false","false","false","[0,1,2]","111","000","0","","","","","","",""
"","","","","","image-keyboard-response","315","418466","0.0-290.0","5c2eb9c30091e40001cba678","665500ab8938657b03fbdba8","66579232bd3c48cab369b629","1080","stimuli/01110002.jpg"," ","","feedback_trial","0","","","","","","","","","","","","","","","","","","","","",""
"","","","","","image-keyboard-response","316","420420","0.0-291.0","5c2eb9c30091e40001cba678","665500ab8938657b03fbdba8","66579232bd3c48cab369b629","1953","stimuli/0101111.jpg","2","","prediction_trial","0","","false","","0","false","false","false","false","false","false","[0,2]","101","111","0","","","","","","",""
"","","","","","image-keyboard-response","317","421299","0.0-292.0","5c2eb9c30091e40001cba678","665500ab8938657b03fbdba8","66579232bd3c48cab369b629","878","stimuli/01011110.jpg"," ","","feedback_trial","0","","","","","","","","","","","","","","","","","","","","",""
"","","","","","survey-html-form","318","473626","0.0-293.0","5c2eb9c30091e40001cba678","665500ab8938657b03fbdba8","66579232bd3c48cab369b629","52324","","{""feedback"":""I noticed there was a pattern mid-way through the experiment and it helped predict where Sam would pick the ball. "",""age"":""43"",""gender"":""Female"",""other_gender"":"""",""race"":""Black/African American"",""other_race"":"""",""ethnicity"":""Non-Hispanic""}","","exit_survey","","","","","","","","","","","","","","","","I noticed there was a pattern mid-way through the experiment and it helped predict where Sam would pick the ball. ","43","Non-Hispanic","Female","Black/African American","0.6597222222222222","0.6597222222222222"
