"success","timeout","failed_images","failed_audio","failed_video","trial_type","trial_index","time_elapsed","internal_node_id","prolific_id","prolific_study_id","prolific_session_id","rt","stimulus","response","view_history","trial","character_choice","stimulus_dict","accuracy","correct_response","ball_pos","ego_ball_visible","ego_can_infer","alter_ball_visible","alter_can_infer","collective_ball_visible","collective_can_infer","search_locations","alter_occluders","ego_occluders","accuracy_bool","feedback","age","ethnicity","gender","race","overall_accuracy","bonus"
"true","false","[]","[]","[]","preload","0","16982","0.0-0.0","5608a73fd7def20012b7389d","665500ab8938657b03fbdba8","665792984271bb527e6e63cf","","","","","","","","","","","","","","","","","","","","","","","","","","",""
"true","","","","","fullscreen","1","22130","0.0-1.0","5608a73fd7def20012b7389d","665500ab8938657b03fbdba8","665792984271bb527e6e63cf","","","","","","","","","","","","","","","","","","","","","","","","","","",""
"","","","","","html-button-response","2","24230","0.0-2.0","5608a73fd7def20012b7389d","665500ab8938657b03fbdba8","665792984271bb527e6e63cf","2098","<p><b>Consent Form</b></p> <div style=""text-align:left;background-color:lightgrey; padding:20px; max-width:900px;""><p>Please consider this information carefully before deciding whether to participate in this research.</p> <p>The purpose of this research is to examine which factors influence social judgment and decision-making. You will be asked to make judgements about individuals and actions in social scenarios. We are simply interested in your judgement. The study will take less than 1 hour to complete, and you will receive less than $20 on Prolific. Your compensation and time commitment are specified in the study description. There are no anticipated risks associated with participating in this study. The effects of participating should be comparable to those you would ordinarily experience from viewing a computer monitor and using a mouse or keyboard for a similar amount of time. At the end of the study, we will provide an explanation of the questions that motivate this line of research and will describe the potential implications. </p><p> Your participation in this study is completely voluntary and you may refuse to participate or you may choose to withdraw at any time without penalty or loss of benefits to you which are otherwise entitled. Your participation in this study will remain confidential. No personally identifiable information will be associated with your data. Also, all analyses of the data will be averaged across all the participants, so your individual responses will never be specifically analyzed. </p><p> If you have questions or concerns about your participation or payment, or want to request a summary of research findings, please contact Dr. Jonathan Phillips at Jonathan.S.Phillips@dartmouth.edu. </p><p> Please save a copy of this form for your records. </p><p><b>Agreement: </b>The nature and purpose of this research have been sufficiently explained and I agree to participate in this study. I understand that I am free to withdraw at any time without incurring any penalty. Please consent by clicking the button below to continue. Otherwise, please exit the study at any time. </p>","0","","","","","","","","","","","","","","","","","","","","","","","",""
"","","","","","instructions","3","98246","0.0-3.0-0.0","5608a73fd7def20012b7389d","665500ab8938657b03fbdba8","665792984271bb527e6e63cf","74019","","","[{""page_index"":0,""viewing_time"":2296},{""page_index"":1,""viewing_time"":1635},{""page_index"":2,""viewing_time"":1582},{""page_index"":3,""viewing_time"":18301},{""page_index"":4,""viewing_time"":3367},{""page_index"":5,""viewing_time"":2067},{""page_index"":6,""viewing_time"":3567},{""page_index"":7,""viewing_time"":5583},{""page_index"":8,""viewing_time"":12584},{""page_index"":9,""viewing_time"":1917},{""page_index"":10,""viewing_time"":9051},{""page_index"":11,""viewing_time"":4566},{""page_index"":12,""viewing_time"":6401},{""page_index"":13,""viewing_time"":1099}]","intro","","","","","","","","","","","","","","","","","","","","","",""
"","","","","","image-keyboard-response","4","101679","0.0-3.0-1.0","5608a73fd7def20012b7389d","665500ab8938657b03fbdba8","665792984271bb527e6e63cf","3429","stimuli/1010011.jpg","1","","prediction_practice","1","{""filepath"":""stimuli/1010011.jpg"",""ball_pos"":1,""ego_ball_visible"":false,""ego_can_infer"":false,""alter_ball_visible"":false,""alter_can_infer"":true,""collective_ball_visible"":false,""collective_can_infer"":false,""search_locations"":[1],""alter_occluders"":""010"",""ego_occluders"":""011""}","true","","","","","","","","","","","","","","","","","","",""
"","","","","","image-keyboard-response","5","103506","0.0-3.0-2.0","5608a73fd7def20012b7389d","665500ab8938657b03fbdba8","665792984271bb527e6e63cf","1824","stimuli/10100111.jpg"," ","","practrice_feedback","1","","","","","","","","","","","","","","","","","","","","",""
"","","","","","image-keyboard-response","6","105489","0.0-3.0-3.0","5608a73fd7def20012b7389d","665500ab8938657b03fbdba8","665792984271bb527e6e63cf","1981","stimuli/0100110.jpg","0","","prediction_practice","0","{""filepath"":""stimuli/0100110.jpg"",""ball_pos"":0,""ego_ball_visible"":false,""ego_can_infer"":false,""alter_ball_visible"":false,""alter_can_infer"":true,""collective_ball_visible"":false,""collective_can_infer"":false,""search_locations"":[0],""alter_occluders"":""100"",""ego_occluders"":""110""}","true","","","","","","","","","","","","","","","","","","",""
"","","","","","image-keyboard-response","7","106408","0.0-3.0-4.0","5608a73fd7def20012b7389d","665500ab8938657b03fbdba8","665792984271bb527e6e63cf","917","stimuli/01001100.jpg"," ","","practrice_feedback","0","","","","","","","","","","","","","","","","","","","","",""
"","","","","","image-keyboard-response","8","107296","0.0-3.0-5.0","5608a73fd7def20012b7389d","665500ab8938657b03fbdba8","665792984271bb527e6e63cf","887","stimuli/2100011.jpg","0","","prediction_practice","2","{""filepath"":""stimuli/2100011.jpg"",""ball_pos"":2,""ego_ball_visible"":false,""ego_can_infer"":false,""alter_ball_visible"":true,""alter_can_infer"":true,""collective_ball_visible"":false,""collective_can_infer"":false,""search_locations"":[2],""alter_occluders"":""100"",""ego_occluders"":""011""}","false","","","","","","","","","","","","","","","","","","",""
"","","","","","image-keyboard-response","9","110687","0.0-3.0-6.0","5608a73fd7def20012b7389d","665500ab8938657b03fbdba8","665792984271bb527e6e63cf","3389","stimuli/21000112.jpg"," ","","practrice_feedback","2","","","","","","","","","","","","","","","","","","","","",""
"","","","","","image-keyboard-response","10","113805","0.0-3.0-7.0","5608a73fd7def20012b7389d","665500ab8938657b03fbdba8","665792984271bb527e6e63cf","3117","stimuli/1111010.jpg","1","","prediction_practice","2","{""filepath"":""stimuli/1111010.jpg"",""ball_pos"":1,""ego_ball_visible"":false,""ego_can_infer"":true,""alter_ball_visible"":false,""alter_can_infer"":false,""collective_ball_visible"":false,""collective_can_infer"":false,""search_locations"":[2,1,0],""alter_occluders"":""111"",""ego_occluders"":""010""}","false","","","","","","","","","","","","","","","","","","",""
"","","","","","image-keyboard-response","11","114596","0.0-3.0-8.0","5608a73fd7def20012b7389d","665500ab8938657b03fbdba8","665792984271bb527e6e63cf","790","stimuli/11110102.jpg"," ","","practrice_feedback","2","","","","","","","","","","","","","","","","","","","","",""
"","","","","","image-keyboard-response","12","117082","0.0-3.0-9.0","5608a73fd7def20012b7389d","665500ab8938657b03fbdba8","665792984271bb527e6e63cf","2483","stimuli/0101001.jpg","0","","prediction_practice","0","{""filepath"":""stimuli/0101001.jpg"",""ball_pos"":0,""ego_ball_visible"":true,""ego_can_infer"":true,""alter_ball_visible"":false,""alter_can_infer"":false,""collective_ball_visible"":false,""collective_can_infer"":false,""search_locations"":[0,2],""alter_occluders"":""101"",""ego_occluders"":""001""}","true","","","","","","","","","","","","","","","","","","",""
"","","","","","image-keyboard-response","13","117758","0.0-3.0-10.0","5608a73fd7def20012b7389d","665500ab8938657b03fbdba8","665792984271bb527e6e63cf","674","stimuli/01010010.jpg"," ","","practrice_feedback","0","","","","","","","","","","","","","","","","","","","","",""
"","","","","","image-keyboard-response","14","119065","0.0-3.0-11.0","5608a73fd7def20012b7389d","665500ab8938657b03fbdba8","665792984271bb527e6e63cf","1305","stimuli/0110011.jpg","0","","prediction_practice","0","{""filepath"":""stimuli/0110011.jpg"",""ball_pos"":0,""ego_ball_visible"":true,""ego_can_infer"":true,""alter_ball_visible"":false,""alter_can_infer"":false,""collective_ball_visible"":false,""collective_can_infer"":false,""search_locations"":[1,0],""alter_occluders"":""110"",""ego_occluders"":""011""}","true","","","","","","","","","","","","","","","","","","",""
"","","","","","image-keyboard-response","15","119590","0.0-3.0-12.0","5608a73fd7def20012b7389d","665500ab8938657b03fbdba8","665792984271bb527e6e63cf","524","stimuli/01100110.jpg"," ","","practrice_feedback","1","","","","","","","","","","","","","","","","","","","","",""
"","","","","","image-keyboard-response","16","120460","0.0-3.0-13.0","5608a73fd7def20012b7389d","665500ab8938657b03fbdba8","665792984271bb527e6e63cf","869","stimuli/1010001.jpg","1","","prediction_practice","1","{""filepath"":""stimuli/1010001.jpg"",""ball_pos"":1,""ego_ball_visible"":true,""ego_can_infer"":true,""alter_ball_visible"":false,""alter_can_infer"":true,""collective_ball_visible"":false,""collective_can_infer"":true,""search_locations"":[1],""alter_occluders"":""010"",""ego_occluders"":""001""}","true","","","","","","","","","","","","","","","","","","",""
"","","","","","image-keyboard-response","17","120975","0.0-3.0-14.0","5608a73fd7def20012b7389d","665500ab8938657b03fbdba8","665792984271bb527e6e63cf","513","stimuli/10100011.jpg"," ","","practrice_feedback","1","","","","","","","","","","","","","","","","","","","","",""
"","","","","","image-keyboard-response","18","121702","0.0-3.0-15.0","5608a73fd7def20012b7389d","665500ab8938657b03fbdba8","665792984271bb527e6e63cf","725","stimuli/0100000.jpg","0","","prediction_practice","0","{""filepath"":""stimuli/0100000.jpg"",""ball_pos"":0,""ego_ball_visible"":true,""ego_can_infer"":true,""alter_ball_visible"":false,""alter_can_infer"":true,""collective_ball_visible"":false,""collective_can_infer"":true,""search_locations"":[0],""alter_occluders"":""100"",""ego_occluders"":""000""}","true","","","","","","","","","","","","","","","","","","",""
"","","","","","image-keyboard-response","19","122131","0.0-3.0-16.0","5608a73fd7def20012b7389d","665500ab8938657b03fbdba8","665792984271bb527e6e63cf","428","stimuli/01000000.jpg"," ","","practrice_feedback","0","","","","","","","","","","","","","","","","","","","","",""
"","","","","","image-keyboard-response","20","123631","0.0-3.0-17.0","5608a73fd7def20012b7389d","665500ab8938657b03fbdba8","665792984271bb527e6e63cf","1498","stimuli/1101000.jpg","1","","prediction_practice","1","{""filepath"":""stimuli/1101000.jpg"",""ball_pos"":1,""ego_ball_visible"":true,""ego_can_infer"":true,""alter_ball_visible"":true,""alter_can_infer"":true,""collective_ball_visible"":true,""collective_can_infer"":true,""search_locations"":[1],""alter_occluders"":""101"",""ego_occluders"":""000""}","true","","","","","","","","","","","","","","","","","","",""
"","","","","","image-keyboard-response","21","124071","0.0-3.0-18.0","5608a73fd7def20012b7389d","665500ab8938657b03fbdba8","665792984271bb527e6e63cf","439","stimuli/11010001.jpg"," ","","practrice_feedback","1","","","","","","","","","","","","","","","","","","","","",""
"","","","","","image-keyboard-response","22","124910","0.0-3.0-19.0","5608a73fd7def20012b7389d","665500ab8938657b03fbdba8","665792984271bb527e6e63cf","837","stimuli/2111100.jpg","2","","prediction_practice","1","{""filepath"":""stimuli/2111100.jpg"",""ball_pos"":2,""ego_ball_visible"":true,""ego_can_infer"":true,""alter_ball_visible"":false,""alter_can_infer"":false,""collective_ball_visible"":false,""collective_can_infer"":false,""search_locations"":[2,0,1],""alter_occluders"":""111"",""ego_occluders"":""100""}","false","","","","","","","","","","","","","","","","","","",""
"","","","","","image-keyboard-response","23","125790","0.0-3.0-20.0","5608a73fd7def20012b7389d","665500ab8938657b03fbdba8","665792984271bb527e6e63cf","878","stimuli/21111001.jpg"," ","","practrice_feedback","2","","","","","","","","","","","","","","","","","","","","",""
"","","","","","html-button-response","24","129511","0.0-3.0-21.0","5608a73fd7def20012b7389d","665500ab8938657b03fbdba8","665792984271bb527e6e63cf","3720","Now that you've had some practice, you'll be tested with a couple of easy trials. If you correctly predict Sam's choice, you'll move on to complete the experiment!","0","","","","","","","","","","","","","","","","","","","","","","","",""
"","","","","","image-keyboard-response","25","131287","0.0-3.0-22.0-0.0","5608a73fd7def20012b7389d","665500ab8938657b03fbdba8","665792984271bb527e6e63cf","1774","stimuli/0000011.jpg","arrowleft","","comprehension_quiz","","","true","arrowleft","","","","","","","","","","","","","","","","","",""
"","","","","","image-keyboard-response","26","131968","0.0-3.0-22.0-1.0","5608a73fd7def20012b7389d","665500ab8938657b03fbdba8","665792984271bb527e6e63cf","678","stimuli/00000110.jpg"," ","","comprehension_quiz","","","true"," ","","","","","","","","","","","","","","","","","",""
"","","","","","image-keyboard-response","27","133806","0.0-3.0-22.0-2.0","5608a73fd7def20012b7389d","665500ab8938657b03fbdba8","665792984271bb527e6e63cf","1837","stimuli/1010010.jpg","arrowdown","","comprehension_quiz","","","true","arrowdown","","","","","","","","","","","","","","","","","",""
"","","","","","image-keyboard-response","28","134308","0.0-3.0-22.0-3.0","5608a73fd7def20012b7389d","665500ab8938657b03fbdba8","665792984271bb527e6e63cf","500","stimuli/10100101.jpg"," ","","comprehension_quiz","","","true"," ","","","","","","","","","","","","","","","","","",""
"","","","","","html-button-response","29","136328","0.0-4.0","5608a73fd7def20012b7389d","665500ab8938657b03fbdba8","665792984271bb527e6e63cf","2017","The experiment will now begin.","0","","","","","","","","","","","","","","","","","","","","","","","",""
"","","","","","image-keyboard-response","30","138463","0.0-5.0","5608a73fd7def20012b7389d","665500ab8938657b03fbdba8","665792984271bb527e6e63cf","2134","stimuli/1010011.jpg","1","","prediction_trial","1","","true","","1","false","false","false","true","false","false","[1]","010","011","1","","","","","","",""
"","","","","","image-keyboard-response","31","139209","0.0-6.0","5608a73fd7def20012b7389d","665500ab8938657b03fbdba8","665792984271bb527e6e63cf","744","stimuli/10100111.jpg"," ","","feedback_trial","1","","","","","","","","","","","","","","","","","","","","",""
"","","","","","image-keyboard-response","32","142764","0.0-7.0","5608a73fd7def20012b7389d","665500ab8938657b03fbdba8","665792984271bb527e6e63cf","3554","stimuli/2111110.jpg","2","","prediction_trial","2","","true","","2","true","true","false","false","false","false","[1,0,2]","111","110","1","","","","","","",""
"","","","","","image-keyboard-response","33","143711","0.0-8.0","5608a73fd7def20012b7389d","665500ab8938657b03fbdba8","665792984271bb527e6e63cf","945","stimuli/21111102.jpg"," ","","feedback_trial","1","","","","","","","","","","","","","","","","","","","","",""
"","","","","","image-keyboard-response","34","146380","0.0-9.0","5608a73fd7def20012b7389d","665500ab8938657b03fbdba8","665792984271bb527e6e63cf","2668","stimuli/2111001.jpg","2","","prediction_trial","1","","false","","2","false","true","false","false","false","false","[1,2,0]","111","001","0","","","","","","",""
"","","","","","image-keyboard-response","35","147137","0.0-10.0","5608a73fd7def20012b7389d","665500ab8938657b03fbdba8","665792984271bb527e6e63cf","756","stimuli/21110011.jpg"," ","","feedback_trial","1","","","","","","","","","","","","","","","","","","","","",""
"","","","","","image-keyboard-response","36","148865","0.0-11.0","5608a73fd7def20012b7389d","665500ab8938657b03fbdba8","665792984271bb527e6e63cf","1726","stimuli/1111100.jpg","1","","prediction_trial","2","","false","","1","true","true","false","false","false","false","[0,1,2]","111","100","0","","","","","","",""
"","","","","","image-keyboard-response","37","149355","0.0-12.0","5608a73fd7def20012b7389d","665500ab8938657b03fbdba8","665792984271bb527e6e63cf","488","stimuli/11111002.jpg"," ","","feedback_trial","0","","","","","","","","","","","","","","","","","","","","",""
"","","","","","image-keyboard-response","38","156177","0.0-13.0","5608a73fd7def20012b7389d","665500ab8938657b03fbdba8","665792984271bb527e6e63cf","6821","stimuli/1101110.jpg","1","","prediction_trial","1","","true","","1","false","false","true","true","false","false","[1]","101","110","1","","","","","","",""
"","","","","","image-keyboard-response","39","156753","0.0-14.0","5608a73fd7def20012b7389d","665500ab8938657b03fbdba8","665792984271bb527e6e63cf","575","stimuli/11011101.jpg"," ","","feedback_trial","1","","","","","","","","","","","","","","","","","","","","",""
"","","","","","image-keyboard-response","40","159406","0.0-15.0","5608a73fd7def20012b7389d","665500ab8938657b03fbdba8","665792984271bb527e6e63cf","2652","stimuli/2010101.jpg","1","","prediction_trial","2","","false","","2","false","false","true","true","false","false","[2]","010","101","0","","","","","","",""
"","","","","","image-keyboard-response","41","161166","0.0-16.0","5608a73fd7def20012b7389d","665500ab8938657b03fbdba8","665792984271bb527e6e63cf","1758","stimuli/20101012.jpg"," ","","feedback_trial","2","","","","","","","","","","","","","","","","","","","","",""
"","","","","","image-keyboard-response","42","162423","0.0-17.0","5608a73fd7def20012b7389d","665500ab8938657b03fbdba8","665792984271bb527e6e63cf","1256","stimuli/1111000.jpg","1","","prediction_trial","1","","true","","1","true","true","false","false","false","false","[2,0,1]","111","000","1","","","","","","",""
"","","","","","image-keyboard-response","43","162738","0.0-18.0","5608a73fd7def20012b7389d","665500ab8938657b03fbdba8","665792984271bb527e6e63cf","315","stimuli/11110001.jpg"," ","","feedback_trial","2","","","","","","","","","","","","","","","","","","","","",""
"","","","","","image-keyboard-response","44","163540","0.0-19.0","5608a73fd7def20012b7389d","665500ab8938657b03fbdba8","665792984271bb527e6e63cf","801","stimuli/2111000.jpg","2","","prediction_trial","2","","true","","2","true","true","false","false","false","false","[0,2,1]","111","000","1","","","","","","",""
"","","","","","image-keyboard-response","45","163953","0.0-20.0","5608a73fd7def20012b7389d","665500ab8938657b03fbdba8","665792984271bb527e6e63cf","411","stimuli/21110002.jpg"," ","","feedback_trial","0","","","","","","","","","","","","","","","","","","","","",""
"","","","","","image-keyboard-response","46","167691","0.0-21.0","5608a73fd7def20012b7389d","665500ab8938657b03fbdba8","665792984271bb527e6e63cf","3736","stimuli/2111101.jpg","0","","prediction_trial","2","","false","","2","false","false","false","false","false","false","[2,1,0]","111","101","0","","","","","","",""
"","","","","","image-keyboard-response","47","168207","0.0-22.0","5608a73fd7def20012b7389d","665500ab8938657b03fbdba8","665792984271bb527e6e63cf","514","stimuli/21111012.jpg"," ","","feedback_trial","2","","","","","","","","","","","","","","","","","","","","",""
"","","","","","image-keyboard-response","48","171158","0.0-23.0","5608a73fd7def20012b7389d","665500ab8938657b03fbdba8","665792984271bb527e6e63cf","2950","stimuli/1110111.jpg","1","","prediction_trial","0","","false","","1","false","false","false","false","false","false","[1,0]","110","111","0","","","","","","",""
"","","","","","image-keyboard-response","49","171742","0.0-24.0","5608a73fd7def20012b7389d","665500ab8938657b03fbdba8","665792984271bb527e6e63cf","582","stimuli/11101110.jpg"," ","","feedback_trial","1","","","","","","","","","","","","","","","","","","","","",""
"","","","","","image-keyboard-response","50","173765","0.0-25.0","5608a73fd7def20012b7389d","665500ab8938657b03fbdba8","665792984271bb527e6e63cf","2022","stimuli/0100001.jpg","0","","prediction_trial","0","","true","","0","true","true","false","true","false","true","[0]","100","001","1","","","","","","",""
"","","","","","image-keyboard-response","51","174243","0.0-26.0","5608a73fd7def20012b7389d","665500ab8938657b03fbdba8","665792984271bb527e6e63cf","477","stimuli/01000010.jpg"," ","","feedback_trial","0","","","","","","","","","","","","","","","","","","","","",""
"","","","","","image-keyboard-response","52","178683","0.0-27.0","5608a73fd7def20012b7389d","665500ab8938657b03fbdba8","665792984271bb527e6e63cf","4439","stimuli/2110101.jpg","0","","prediction_trial","2","","false","","2","false","false","true","true","false","false","[2]","110","101","0","","","","","","",""
"","","","","","image-keyboard-response","53","179133","0.0-28.0","5608a73fd7def20012b7389d","665500ab8938657b03fbdba8","665792984271bb527e6e63cf","449","stimuli/21101012.jpg"," ","","feedback_trial","2","","","","","","","","","","","","","","","","","","","","",""
"","","","","","image-keyboard-response","54","181514","0.0-29.0","5608a73fd7def20012b7389d","665500ab8938657b03fbdba8","665792984271bb527e6e63cf","2379","stimuli/0101000.jpg","0","","prediction_trial","0","","true","","0","true","true","false","false","false","false","[0,2]","101","000","1","","","","","","",""
"","","","","","image-keyboard-response","55","181896","0.0-30.0","5608a73fd7def20012b7389d","665500ab8938657b03fbdba8","665792984271bb527e6e63cf","380","stimuli/01010000.jpg"," ","","feedback_trial","0","","","","","","","","","","","","","","","","","","","","",""
"","","","","","image-keyboard-response","56","183024","0.0-31.0","5608a73fd7def20012b7389d","665500ab8938657b03fbdba8","665792984271bb527e6e63cf","1126","stimuli/1100000.jpg","1","","prediction_trial","1","","true","","1","true","true","true","true","true","true","[1]","100","000","1","","","","","","",""
"","","","","","image-keyboard-response","57","183346","0.0-32.0","5608a73fd7def20012b7389d","665500ab8938657b03fbdba8","665792984271bb527e6e63cf","321","stimuli/11000001.jpg"," ","","feedback_trial","1","","","","","","","","","","","","","","","","","","","","",""
"","","","","","image-keyboard-response","58","185259","0.0-33.0","5608a73fd7def20012b7389d","665500ab8938657b03fbdba8","665792984271bb527e6e63cf","1911","stimuli/0111101.jpg","0","","prediction_trial","2","","false","","0","false","false","false","false","false","false","[0,2,1]","111","101","0","","","","","","",""
"","","","","","image-keyboard-response","59","185671","0.0-34.0","5608a73fd7def20012b7389d","665500ab8938657b03fbdba8","665792984271bb527e6e63cf","411","stimuli/01111012.jpg"," ","","feedback_trial","0","","","","","","","","","","","","","","","","","","","","",""
"","","","","","image-keyboard-response","60","187688","0.0-35.0","5608a73fd7def20012b7389d","665500ab8938657b03fbdba8","665792984271bb527e6e63cf","2015","stimuli/1111010.jpg","0","","prediction_trial","1","","false","","1","false","true","false","false","false","false","[2,1,0]","111","010","0","","","","","","",""
"","","","","","image-keyboard-response","61","188100","0.0-36.0","5608a73fd7def20012b7389d","665500ab8938657b03fbdba8","665792984271bb527e6e63cf","410","stimuli/11110101.jpg"," ","","feedback_trial","2","","","","","","","","","","","","","","","","","","","","",""
"","","","","","image-keyboard-response","62","189790","0.0-37.0","5608a73fd7def20012b7389d","665500ab8938657b03fbdba8","665792984271bb527e6e63cf","1689","stimuli/1110011.jpg","0","","prediction_trial","0","","true","","1","false","false","false","false","false","false","[1,0]","110","011","1","","","","","","",""
"","","","","","image-keyboard-response","63","190222","0.0-38.0","5608a73fd7def20012b7389d","665500ab8938657b03fbdba8","665792984271bb527e6e63cf","431","stimuli/11100110.jpg"," ","","feedback_trial","1","","","","","","","","","","","","","","","","","","","","",""
"","","","","","image-keyboard-response","64","192278","0.0-39.0","5608a73fd7def20012b7389d","665500ab8938657b03fbdba8","665792984271bb527e6e63cf","2054","stimuli/1010001.jpg","1","","prediction_trial","1","","true","","1","true","true","false","true","false","true","[1]","010","001","1","","","","","","",""
"","","","","","image-keyboard-response","65","192680","0.0-40.0","5608a73fd7def20012b7389d","665500ab8938657b03fbdba8","665792984271bb527e6e63cf","400","stimuli/10100011.jpg"," ","","feedback_trial","1","","","","","","","","","","","","","","","","","","","","",""
"","","","","","image-keyboard-response","66","193863","0.0-41.0","5608a73fd7def20012b7389d","665500ab8938657b03fbdba8","665792984271bb527e6e63cf","1182","stimuli/2010100.jpg","2","","prediction_trial","2","","true","","2","true","true","true","true","true","true","[2]","010","100","1","","","","","","",""
"","","","","","image-keyboard-response","67","194186","0.0-42.0","5608a73fd7def20012b7389d","665500ab8938657b03fbdba8","665792984271bb527e6e63cf","322","stimuli/20101002.jpg"," ","","feedback_trial","2","","","","","","","","","","","","","","","","","","","","",""
"","","","","","image-keyboard-response","68","198463","0.0-43.0","5608a73fd7def20012b7389d","665500ab8938657b03fbdba8","665792984271bb527e6e63cf","4275","stimuli/2100011.jpg","1","","prediction_trial","2","","false","","2","false","false","true","true","false","false","[2]","100","011","0","","","","","","",""
"","","","","","image-keyboard-response","69","199105","0.0-44.0","5608a73fd7def20012b7389d","665500ab8938657b03fbdba8","665792984271bb527e6e63cf","640","stimuli/21000112.jpg"," ","","feedback_trial","2","","","","","","","","","","","","","","","","","","","","",""
"","","","","","image-keyboard-response","70","201319","0.0-45.0","5608a73fd7def20012b7389d","665500ab8938657b03fbdba8","665792984271bb527e6e63cf","2213","stimuli/1101011.jpg","1","","prediction_trial","1","","true","","1","false","false","true","true","false","false","[1]","101","011","1","","","","","","",""
"","","","","","image-keyboard-response","71","201763","0.0-46.0","5608a73fd7def20012b7389d","665500ab8938657b03fbdba8","665792984271bb527e6e63cf","443","stimuli/11010111.jpg"," ","","feedback_trial","1","","","","","","","","","","","","","","","","","","","","",""
"","","","","","image-keyboard-response","72","202983","0.0-47.0","5608a73fd7def20012b7389d","665500ab8938657b03fbdba8","665792984271bb527e6e63cf","1218","stimuli/0111111.jpg","1","","prediction_trial","1","","true","","0","false","false","false","false","false","false","[0,1,2]","111","111","1","","","","","","",""
"","","","","","image-keyboard-response","73","203331","0.0-48.0","5608a73fd7def20012b7389d","665500ab8938657b03fbdba8","665792984271bb527e6e63cf","347","stimuli/01111111.jpg"," ","","feedback_trial","0","","","","","","","","","","","","","","","","","","","","",""
"","","","","","image-keyboard-response","74","205371","0.0-49.0","5608a73fd7def20012b7389d","665500ab8938657b03fbdba8","665792984271bb527e6e63cf","2039","stimuli/2011011.jpg","1","","prediction_trial","1","","true","","2","false","false","false","false","false","false","[1,2]","011","011","1","","","","","","",""
"","","","","","image-keyboard-response","75","205744","0.0-50.0","5608a73fd7def20012b7389d","665500ab8938657b03fbdba8","665792984271bb527e6e63cf","371","stimuli/20110111.jpg"," ","","feedback_trial","1","","","","","","","","","","","","","","","","","","","","",""
"","","","","","image-keyboard-response","76","207613","0.0-51.0","5608a73fd7def20012b7389d","665500ab8938657b03fbdba8","665792984271bb527e6e63cf","1867","stimuli/0110000.jpg","0","","prediction_trial","1","","false","","0","true","true","false","false","false","false","[0,1]","110","000","0","","","","","","",""
"","","","","","image-keyboard-response","77","208024","0.0-52.0","5608a73fd7def20012b7389d","665500ab8938657b03fbdba8","665792984271bb527e6e63cf","409","stimuli/01100001.jpg"," ","","feedback_trial","0","","","","","","","","","","","","","","","","","","","","",""
"","","","","","image-keyboard-response","78","211953","0.0-53.0","5608a73fd7def20012b7389d","665500ab8938657b03fbdba8","665792984271bb527e6e63cf","3928","stimuli/2100111.jpg","1","","prediction_trial","2","","false","","2","false","false","true","true","false","false","[2]","100","111","0","","","","","","",""
"","","","","","image-keyboard-response","79","212423","0.0-54.0","5608a73fd7def20012b7389d","665500ab8938657b03fbdba8","665792984271bb527e6e63cf","469","stimuli/21001112.jpg"," ","","feedback_trial","2","","","","","","","","","","","","","","","","","","","","",""
"","","","","","image-keyboard-response","80","215950","0.0-55.0","5608a73fd7def20012b7389d","665500ab8938657b03fbdba8","665792984271bb527e6e63cf","3526","stimuli/0110100.jpg","0","","prediction_trial","1","","false","","0","false","true","false","false","false","false","[0,1]","110","100","0","","","","","","",""
"","","","","","image-keyboard-response","81","216340","0.0-56.0","5608a73fd7def20012b7389d","665500ab8938657b03fbdba8","665792984271bb527e6e63cf","388","stimuli/01101001.jpg"," ","","feedback_trial","0","","","","","","","","","","","","","","","","","","","","",""
"","","","","","image-keyboard-response","82","218807","0.0-57.0","5608a73fd7def20012b7389d","665500ab8938657b03fbdba8","665792984271bb527e6e63cf","2465","stimuli/1011001.jpg","1","","prediction_trial","1","","true","","1","true","true","false","false","false","false","[2,1]","011","001","1","","","","","","",""
"","","","","","image-keyboard-response","83","219132","0.0-58.0","5608a73fd7def20012b7389d","665500ab8938657b03fbdba8","665792984271bb527e6e63cf","324","stimuli/10110011.jpg"," ","","feedback_trial","2","","","","","","","","","","","","","","","","","","","","",""
"","","","","","image-keyboard-response","84","220201","0.0-59.0","5608a73fd7def20012b7389d","665500ab8938657b03fbdba8","665792984271bb527e6e63cf","1067","stimuli/2010000.jpg","2","","prediction_trial","2","","true","","2","true","true","true","true","true","true","[2]","010","000","1","","","","","","",""
"","","","","","image-keyboard-response","85","220451","0.0-60.0","5608a73fd7def20012b7389d","665500ab8938657b03fbdba8","665792984271bb527e6e63cf","248","stimuli/20100002.jpg"," ","","feedback_trial","2","","","","","","","","","","","","","","","","","","","","",""
"","","","","","image-keyboard-response","86","221141","0.0-61.0","5608a73fd7def20012b7389d","665500ab8938657b03fbdba8","665792984271bb527e6e63cf","688","stimuli/0011000.jpg","0","","prediction_trial","0","","true","","0","true","true","true","true","true","true","[0]","011","000","1","","","","","","",""
"","","","","","image-keyboard-response","87","221403","0.0-62.0","5608a73fd7def20012b7389d","665500ab8938657b03fbdba8","665792984271bb527e6e63cf","261","stimuli/00110000.jpg"," ","","feedback_trial","0","","","","","","","","","","","","","","","","","","","","",""
"","","","","","image-keyboard-response","88","223187","0.0-63.0","5608a73fd7def20012b7389d","665500ab8938657b03fbdba8","665792984271bb527e6e63cf","1783","stimuli/1111111.jpg","1","","prediction_trial","2","","false","","1","false","false","false","false","false","false","[2,1,0]","111","111","0","","","","","","",""
"","","","","","image-keyboard-response","89","223557","0.0-64.0","5608a73fd7def20012b7389d","665500ab8938657b03fbdba8","665792984271bb527e6e63cf","369","stimuli/11111112.jpg"," ","","feedback_trial","2","","","","","","","","","","","","","","","","","","","","",""
"","","","","","image-keyboard-response","90","225713","0.0-65.0","5608a73fd7def20012b7389d","665500ab8938657b03fbdba8","665792984271bb527e6e63cf","2155","stimuli/2000011.jpg","1","","prediction_trial","2","","false","","2","false","false","true","true","false","false","[2]","000","011","0","","","","","","",""
"","","","","","image-keyboard-response","91","226151","0.0-66.0","5608a73fd7def20012b7389d","665500ab8938657b03fbdba8","665792984271bb527e6e63cf","437","stimuli/20000112.jpg"," ","","feedback_trial","2","","","","","","","","","","","","","","","","","","","","",""
"","","","","","image-keyboard-response","92","230009","0.0-67.0","5608a73fd7def20012b7389d","665500ab8938657b03fbdba8","665792984271bb527e6e63cf","3857","stimuli/2101111.jpg","1","","prediction_trial","2","","false","","2","false","false","false","false","false","false","[0,2]","101","111","0","","","","","","",""
"","","","","","image-keyboard-response","93","230449","0.0-68.0","5608a73fd7def20012b7389d","665500ab8938657b03fbdba8","665792984271bb527e6e63cf","438","stimuli/21011112.jpg"," ","","feedback_trial","0","","","","","","","","","","","","","","","","","","","","",""
"","","","","","image-keyboard-response","94","231257","0.0-69.0","5608a73fd7def20012b7389d","665500ab8938657b03fbdba8","665792984271bb527e6e63cf","806","stimuli/2000000.jpg","2","","prediction_trial","2","","true","","2","true","true","true","true","true","true","[2]","000","000","1","","","","","","",""
"","","","","","image-keyboard-response","95","231620","0.0-70.0","5608a73fd7def20012b7389d","665500ab8938657b03fbdba8","665792984271bb527e6e63cf","362","stimuli/20000002.jpg"," ","","feedback_trial","2","","","","","","","","","","","","","","","","","","","","",""
"","","","","","image-keyboard-response","96","233160","0.0-71.0","5608a73fd7def20012b7389d","665500ab8938657b03fbdba8","665792984271bb527e6e63cf","1538","stimuli/1100111.jpg","1","","prediction_trial","1","","true","","1","false","false","true","true","false","false","[1]","100","111","1","","","","","","",""
"","","","","","image-keyboard-response","97","233594","0.0-72.0","5608a73fd7def20012b7389d","665500ab8938657b03fbdba8","665792984271bb527e6e63cf","432","stimuli/11001111.jpg"," ","","feedback_trial","1","","","","","","","","","","","","","","","","","","","","",""
"","","","","","image-keyboard-response","98","234470","0.0-73.0","5608a73fd7def20012b7389d","665500ab8938657b03fbdba8","665792984271bb527e6e63cf","875","stimuli/1101000.jpg","1","","prediction_trial","1","","true","","1","true","true","true","true","true","true","[1]","101","000","1","","","","","","",""
"","","","","","image-keyboard-response","99","234739","0.0-74.0","5608a73fd7def20012b7389d","665500ab8938657b03fbdba8","665792984271bb527e6e63cf","268","stimuli/11010001.jpg"," ","","feedback_trial","1","","","","","","","","","","","","","","","","","","","","",""
"","","","","","image-keyboard-response","100","236503","0.0-75.0","5608a73fd7def20012b7389d","665500ab8938657b03fbdba8","665792984271bb527e6e63cf","1762","stimuli/1011110.jpg","0","","prediction_trial","2","","false","","1","false","false","false","false","false","false","[2,1]","011","110","0","","","","","","",""
"","","","","","image-keyboard-response","101","238028","0.0-76.0","5608a73fd7def20012b7389d","665500ab8938657b03fbdba8","665792984271bb527e6e63cf","1524","stimuli/10111102.jpg"," ","","feedback_trial","2","","","","","","","","","","","","","","","","","","","","",""
"","","","","","image-keyboard-response","102","240470","0.0-77.0","5608a73fd7def20012b7389d","665500ab8938657b03fbdba8","665792984271bb527e6e63cf","2440","stimuli/1100110.jpg","1","","prediction_trial","1","","true","","1","false","false","true","true","false","false","[1]","100","110","1","","","","","","",""
"","","","","","image-keyboard-response","103","240760","0.0-78.0","5608a73fd7def20012b7389d","665500ab8938657b03fbdba8","665792984271bb527e6e63cf","288","stimuli/11001101.jpg"," ","","feedback_trial","1","","","","","","","","","","","","","","","","","","","","",""
"","","","","","image-keyboard-response","104","241573","0.0-79.0","5608a73fd7def20012b7389d","665500ab8938657b03fbdba8","665792984271bb527e6e63cf","812","stimuli/0011010.jpg","0","","prediction_trial","0","","true","","0","true","true","true","true","true","true","[0]","011","010","1","","","","","","",""
"","","","","","image-keyboard-response","105","241791","0.0-80.0","5608a73fd7def20012b7389d","665500ab8938657b03fbdba8","665792984271bb527e6e63cf","215","stimuli/00110100.jpg"," ","","feedback_trial","0","","","","","","","","","","","","","","","","","","","","",""
"","","","","","image-keyboard-response","106","242479","0.0-81.0","5608a73fd7def20012b7389d","665500ab8938657b03fbdba8","665792984271bb527e6e63cf","686","stimuli/1001001.jpg","1","","prediction_trial","1","","true","","1","true","true","true","true","true","true","[1]","001","001","1","","","","","","",""
"","","","","","image-keyboard-response","107","242654","0.0-82.0","5608a73fd7def20012b7389d","665500ab8938657b03fbdba8","665792984271bb527e6e63cf","174","stimuli/10010011.jpg"," ","","feedback_trial","1","","","","","","","","","","","","","","","","","","","","",""
"","","","","","image-keyboard-response","108","247470","0.0-83.0","5608a73fd7def20012b7389d","665500ab8938657b03fbdba8","665792984271bb527e6e63cf","4813","stimuli/0010100.jpg","1","","prediction_trial","0","","false","","0","false","true","true","true","false","true","[0]","010","100","0","","","","","","",""
"","","","","","image-keyboard-response","109","247968","0.0-84.0","5608a73fd7def20012b7389d","665500ab8938657b03fbdba8","665792984271bb527e6e63cf","497","stimuli/00101000.jpg"," ","","feedback_trial","0","","","","","","","","","","","","","","","","","","","","",""
"","","","","","image-keyboard-response","110","248875","0.0-85.0","5608a73fd7def20012b7389d","665500ab8938657b03fbdba8","665792984271bb527e6e63cf","906","stimuli/2000100.jpg","2","","prediction_trial","2","","true","","2","true","true","true","true","true","true","[2]","000","100","1","","","","","","",""
"","","","","","image-keyboard-response","111","249166","0.0-86.0","5608a73fd7def20012b7389d","665500ab8938657b03fbdba8","665792984271bb527e6e63cf","289","stimuli/20001002.jpg"," ","","feedback_trial","2","","","","","","","","","","","","","","","","","","","","",""
"","","","","","image-keyboard-response","112","252207","0.0-87.0","5608a73fd7def20012b7389d","665500ab8938657b03fbdba8","665792984271bb527e6e63cf","3040","stimuli/2001101.jpg","0","","prediction_trial","2","","false","","2","false","false","false","true","false","false","[2]","001","101","0","","","","","","",""
"","","","","","image-keyboard-response","113","252644","0.0-88.0","5608a73fd7def20012b7389d","665500ab8938657b03fbdba8","665792984271bb527e6e63cf","435","stimuli/20011012.jpg"," ","","feedback_trial","2","","","","","","","","","","","","","","","","","","","","",""
"","","","","","image-keyboard-response","114","254156","0.0-89.0","5608a73fd7def20012b7389d","665500ab8938657b03fbdba8","665792984271bb527e6e63cf","1511","stimuli/0010101.jpg","0","","prediction_trial","0","","true","","0","false","false","true","true","false","false","[0]","010","101","1","","","","","","",""
"","","","","","image-keyboard-response","115","254488","0.0-90.0","5608a73fd7def20012b7389d","665500ab8938657b03fbdba8","665792984271bb527e6e63cf","331","stimuli/00101010.jpg"," ","","feedback_trial","0","","","","","","","","","","","","","","","","","","","","",""
"","","","","","image-keyboard-response","116","255921","0.0-91.0","5608a73fd7def20012b7389d","665500ab8938657b03fbdba8","665792984271bb527e6e63cf","1431","stimuli/2100101.jpg","2","","prediction_trial","2","","true","","2","false","false","true","true","false","false","[2]","100","101","1","","","","","","",""
"","","","","","image-keyboard-response","117","256336","0.0-92.0","5608a73fd7def20012b7389d","665500ab8938657b03fbdba8","665792984271bb527e6e63cf","414","stimuli/21001012.jpg"," ","","feedback_trial","2","","","","","","","","","","","","","","","","","","","","",""
"","","","","","image-keyboard-response","118","257779","0.0-93.0","5608a73fd7def20012b7389d","665500ab8938657b03fbdba8","665792984271bb527e6e63cf","1442","stimuli/1111101.jpg","1","","prediction_trial","1","","true","","1","true","true","false","false","false","false","[2,0,1]","111","101","1","","","","","","",""
"","","","","","image-keyboard-response","119","258114","0.0-94.0","5608a73fd7def20012b7389d","665500ab8938657b03fbdba8","665792984271bb527e6e63cf","334","stimuli/11111011.jpg"," ","","feedback_trial","2","","","","","","","","","","","","","","","","","","","","",""
"","","","","","image-keyboard-response","120","260309","0.0-95.0","5608a73fd7def20012b7389d","665500ab8938657b03fbdba8","665792984271bb527e6e63cf","2193","stimuli/1010010.jpg","1","","prediction_trial","1","","true","","1","false","true","false","true","false","true","[1]","010","010","1","","","","","","",""
"","","","","","image-keyboard-response","121","260596","0.0-96.0","5608a73fd7def20012b7389d","665500ab8938657b03fbdba8","665792984271bb527e6e63cf","285","stimuli/10100101.jpg"," ","","feedback_trial","1","","","","","","","","","","","","","","","","","","","","",""
"","","","","","image-keyboard-response","122","262273","0.0-97.0","5608a73fd7def20012b7389d","665500ab8938657b03fbdba8","665792984271bb527e6e63cf","1676","stimuli/2010001.jpg","1","","prediction_trial","2","","false","","2","false","true","true","true","false","true","[2]","010","001","0","","","","","","",""
"","","","","","image-keyboard-response","123","263667","0.0-98.0","5608a73fd7def20012b7389d","665500ab8938657b03fbdba8","665792984271bb527e6e63cf","1393","stimuli/20100012.jpg"," ","","feedback_trial","2","","","","","","","","","","","","","","","","","","","","",""
"","","","","","image-keyboard-response","124","266300","0.0-99.0","5608a73fd7def20012b7389d","665500ab8938657b03fbdba8","665792984271bb527e6e63cf","2632","stimuli/2001010.jpg","2","","prediction_trial","2","","true","","2","true","true","false","true","false","true","[2]","001","010","1","","","","","","",""
"","","","","","image-keyboard-response","125","266691","0.0-100.0","5608a73fd7def20012b7389d","665500ab8938657b03fbdba8","665792984271bb527e6e63cf","389","stimuli/20010102.jpg"," ","","feedback_trial","2","","","","","","","","","","","","","","","","","","","","",""
"","","","","","image-keyboard-response","126","269717","0.0-101.0","5608a73fd7def20012b7389d","665500ab8938657b03fbdba8","665792984271bb527e6e63cf","3025","stimuli/0010111.jpg","1","","prediction_trial","0","","false","","0","false","false","true","true","false","false","[0]","010","111","0","","","","","","",""
"","","","","","image-keyboard-response","127","270091","0.0-102.0","5608a73fd7def20012b7389d","665500ab8938657b03fbdba8","665792984271bb527e6e63cf","373","stimuli/00101110.jpg"," ","","feedback_trial","0","","","","","","","","","","","","","","","","","","","","",""
"","","","","","image-keyboard-response","128","271754","0.0-103.0","5608a73fd7def20012b7389d","665500ab8938657b03fbdba8","665792984271bb527e6e63cf","1661","stimuli/1110001.jpg","1","","prediction_trial","0","","false","","1","true","true","false","false","false","false","[0,1]","110","001","0","","","","","","",""
"","","","","","image-keyboard-response","129","272116","0.0-104.0","5608a73fd7def20012b7389d","665500ab8938657b03fbdba8","665792984271bb527e6e63cf","360","stimuli/11100010.jpg"," ","","feedback_trial","0","","","","","","","","","","","","","","","","","","","","",""
"","","","","","image-keyboard-response","130","274495","0.0-105.0","5608a73fd7def20012b7389d","665500ab8938657b03fbdba8","665792984271bb527e6e63cf","2377","stimuli/2001100.jpg","2","","prediction_trial","2","","true","","2","true","true","false","true","false","true","[2]","001","100","1","","","","","","",""
"","","","","","image-keyboard-response","131","274869","0.0-106.0","5608a73fd7def20012b7389d","665500ab8938657b03fbdba8","665792984271bb527e6e63cf","373","stimuli/20011002.jpg"," ","","feedback_trial","2","","","","","","","","","","","","","","","","","","","","",""
"","","","","","image-keyboard-response","132","276082","0.0-107.0","5608a73fd7def20012b7389d","665500ab8938657b03fbdba8","665792984271bb527e6e63cf","1212","stimuli/2011110.jpg","2","","prediction_trial","2","","true","","2","true","true","false","false","false","false","[2,1]","011","110","1","","","","","","",""
"","","","","","image-keyboard-response","133","276451","0.0-108.0","5608a73fd7def20012b7389d","665500ab8938657b03fbdba8","665792984271bb527e6e63cf","367","stimuli/20111102.jpg"," ","","feedback_trial","2","","","","","","","","","","","","","","","","","","","","",""
"","","","","","image-keyboard-response","134","278973","0.0-109.0","5608a73fd7def20012b7389d","665500ab8938657b03fbdba8","665792984271bb527e6e63cf","2521","stimuli/1010110.jpg","1","","prediction_trial","1","","true","","1","false","false","false","true","false","false","[1]","010","110","1","","","","","","",""
"","","","","","image-keyboard-response","135","279270","0.0-110.0","5608a73fd7def20012b7389d","665500ab8938657b03fbdba8","665792984271bb527e6e63cf","294","stimuli/10101101.jpg"," ","","feedback_trial","1","","","","","","","","","","","","","","","","","","","","",""
"","","","","","image-keyboard-response","136","282720","0.0-111.0","5608a73fd7def20012b7389d","665500ab8938657b03fbdba8","665792984271bb527e6e63cf","3449","stimuli/2101001.jpg","2","","prediction_trial","0","","false","","2","false","true","false","false","false","false","[2,0]","101","001","0","","","","","","",""
"","","","","","image-keyboard-response","137","283112","0.0-112.0","5608a73fd7def20012b7389d","665500ab8938657b03fbdba8","665792984271bb527e6e63cf","390","stimuli/21010010.jpg"," ","","feedback_trial","2","","","","","","","","","","","","","","","","","","","","",""
"","","","","","image-keyboard-response","138","285651","0.0-113.0","5608a73fd7def20012b7389d","665500ab8938657b03fbdba8","665792984271bb527e6e63cf","2538","stimuli/1010111.jpg","1","","prediction_trial","1","","true","","1","false","false","false","true","false","false","[1]","010","111","1","","","","","","",""
"","","","","","image-keyboard-response","139","286105","0.0-114.0","5608a73fd7def20012b7389d","665500ab8938657b03fbdba8","665792984271bb527e6e63cf","452","stimuli/10101111.jpg"," ","","feedback_trial","1","","","","","","","","","","","","","","","","","","","","",""
"","","","","","image-keyboard-response","140","290183","0.0-115.0","5608a73fd7def20012b7389d","665500ab8938657b03fbdba8","665792984271bb527e6e63cf","4077","stimuli/2010110.jpg","2","","prediction_trial","2","","true","","2","true","true","true","true","true","true","[2]","010","110","1","","","","","","",""
"","","","","","image-keyboard-response","141","290488","0.0-116.0","5608a73fd7def20012b7389d","665500ab8938657b03fbdba8","665792984271bb527e6e63cf","304","stimuli/20101102.jpg"," ","","feedback_trial","2","","","","","","","","","","","","","","","","","","","","",""
"","","","","","image-keyboard-response","142","291850","0.0-117.0","5608a73fd7def20012b7389d","665500ab8938657b03fbdba8","665792984271bb527e6e63cf","1360","stimuli/1011111.jpg","1","","prediction_trial","2","","false","","1","false","false","false","false","false","false","[2,1]","011","111","0","","","","","","",""
"","","","","","image-keyboard-response","143","292604","0.0-118.0","5608a73fd7def20012b7389d","665500ab8938657b03fbdba8","665792984271bb527e6e63cf","752","stimuli/10111112.jpg"," ","","feedback_trial","2","","","","","","","","","","","","","","","","","","","","",""
"","","","","","image-keyboard-response","144","293413","0.0-119.0","5608a73fd7def20012b7389d","665500ab8938657b03fbdba8","665792984271bb527e6e63cf","808","stimuli/1001000.jpg","1","","prediction_trial","1","","true","","1","true","true","true","true","true","true","[1]","001","000","1","","","","","","",""
"","","","","","image-keyboard-response","145","293624","0.0-120.0","5608a73fd7def20012b7389d","665500ab8938657b03fbdba8","665792984271bb527e6e63cf","210","stimuli/10010001.jpg"," ","","feedback_trial","1","","","","","","","","","","","","","","","","","","","","",""
"","","","","","image-keyboard-response","146","294970","0.0-121.0","5608a73fd7def20012b7389d","665500ab8938657b03fbdba8","665792984271bb527e6e63cf","1344","stimuli/0101111.jpg","1","","prediction_trial","2","","false","","0","false","false","false","false","false","false","[2,0]","101","111","0","","","","","","",""
"","","","","","image-keyboard-response","147","295247","0.0-122.0","5608a73fd7def20012b7389d","665500ab8938657b03fbdba8","665792984271bb527e6e63cf","276","stimuli/01011112.jpg"," ","","feedback_trial","2","","","","","","","","","","","","","","","","","","","","",""
"","","","","","image-keyboard-response","148","299727","0.0-123.0","5608a73fd7def20012b7389d","665500ab8938657b03fbdba8","665792984271bb527e6e63cf","4478","stimuli/2111010.jpg","2","","prediction_trial","2","","true","","2","true","true","false","false","false","false","[2,0,1]","111","010","1","","","","","","",""
"","","","","","image-keyboard-response","149","300060","0.0-124.0","5608a73fd7def20012b7389d","665500ab8938657b03fbdba8","665792984271bb527e6e63cf","331","stimuli/21110102.jpg"," ","","feedback_trial","2","","","","","","","","","","","","","","","","","","","","",""
"","","","","","image-keyboard-response","150","303378","0.0-125.0","5608a73fd7def20012b7389d","665500ab8938657b03fbdba8","665792984271bb527e6e63cf","3317","stimuli/0101110.jpg","1","","prediction_trial","0","","false","","0","false","false","false","false","false","false","[0,2]","101","110","0","","","","","","",""
"","","","","","image-keyboard-response","151","303732","0.0-126.0","5608a73fd7def20012b7389d","665500ab8938657b03fbdba8","665792984271bb527e6e63cf","352","stimuli/01011100.jpg"," ","","feedback_trial","0","","","","","","","","","","","","","","","","","","","","",""
"","","","","","image-keyboard-response","152","304524","0.0-127.0","5608a73fd7def20012b7389d","665500ab8938657b03fbdba8","665792984271bb527e6e63cf","791","stimuli/1101101.jpg","1","","prediction_trial","1","","true","","1","true","true","true","true","true","true","[1]","101","101","1","","","","","","",""
"","","","","","image-keyboard-response","153","304763","0.0-128.0","5608a73fd7def20012b7389d","665500ab8938657b03fbdba8","665792984271bb527e6e63cf","238","stimuli/11011011.jpg"," ","","feedback_trial","1","","","","","","","","","","","","","","","","","","","","",""
"","","","","","image-keyboard-response","154","306591","0.0-129.0","5608a73fd7def20012b7389d","665500ab8938657b03fbdba8","665792984271bb527e6e63cf","1826","stimuli/0000101.jpg","0","","prediction_trial","0","","true","","0","false","false","true","true","false","false","[0]","000","101","1","","","","","","",""
"","","","","","image-keyboard-response","155","306955","0.0-130.0","5608a73fd7def20012b7389d","665500ab8938657b03fbdba8","665792984271bb527e6e63cf","362","stimuli/00001010.jpg"," ","","feedback_trial","0","","","","","","","","","","","","","","","","","","","","",""
"","","","","","image-keyboard-response","156","307814","0.0-131.0","5608a73fd7def20012b7389d","665500ab8938657b03fbdba8","665792984271bb527e6e63cf","858","stimuli/0000010.jpg","0","","prediction_trial","0","","true","","0","true","true","true","true","true","true","[0]","000","010","1","","","","","","",""
"","","","","","image-keyboard-response","157","308051","0.0-132.0","5608a73fd7def20012b7389d","665500ab8938657b03fbdba8","665792984271bb527e6e63cf","236","stimuli/00000100.jpg"," ","","feedback_trial","0","","","","","","","","","","","","","","","","","","","","",""
"","","","","","image-keyboard-response","158","308605","0.0-133.0","5608a73fd7def20012b7389d","665500ab8938657b03fbdba8","665792984271bb527e6e63cf","552","stimuli/0000011.jpg","0","","prediction_trial","0","","true","","0","true","true","true","true","true","true","[0]","000","011","1","","","","","","",""
"","","","","","image-keyboard-response","159","308834","0.0-134.0","5608a73fd7def20012b7389d","665500ab8938657b03fbdba8","665792984271bb527e6e63cf","227","stimuli/00000110.jpg"," ","","feedback_trial","0","","","","","","","","","","","","","","","","","","","","",""
"","","","","","image-keyboard-response","160","309405","0.0-135.0","5608a73fd7def20012b7389d","665500ab8938657b03fbdba8","665792984271bb527e6e63cf","569","stimuli/1001101.jpg","1","","prediction_trial","1","","true","","1","true","true","true","true","true","true","[1]","001","101","1","","","","","","",""
"","","","","","image-keyboard-response","161","309619","0.0-136.0","5608a73fd7def20012b7389d","665500ab8938657b03fbdba8","665792984271bb527e6e63cf","213","stimuli/10011011.jpg"," ","","feedback_trial","1","","","","","","","","","","","","","","","","","","","","",""
"","","","","","image-keyboard-response","162","310200","0.0-137.0","5608a73fd7def20012b7389d","665500ab8938657b03fbdba8","665792984271bb527e6e63cf","579","stimuli/1000000.jpg","1","","prediction_trial","1","","true","","1","true","true","true","true","true","true","[1]","000","000","1","","","","","","",""
"","","","","","image-keyboard-response","163","310411","0.0-138.0","5608a73fd7def20012b7389d","665500ab8938657b03fbdba8","665792984271bb527e6e63cf","209","stimuli/10000001.jpg"," ","","feedback_trial","1","","","","","","","","","","","","","","","","","","","","",""
"","","","","","image-keyboard-response","164","311474","0.0-139.0","5608a73fd7def20012b7389d","665500ab8938657b03fbdba8","665792984271bb527e6e63cf","1061","stimuli/0100111.jpg","1","","prediction_trial","0","","false","","0","false","false","false","true","false","false","[0]","100","111","0","","","","","","",""
"","","","","","image-keyboard-response","165","311824","0.0-140.0","5608a73fd7def20012b7389d","665500ab8938657b03fbdba8","665792984271bb527e6e63cf","349","stimuli/01001110.jpg"," ","","feedback_trial","0","","","","","","","","","","","","","","","","","","","","",""
"","","","","","image-keyboard-response","166","314563","0.0-141.0","5608a73fd7def20012b7389d","665500ab8938657b03fbdba8","665792984271bb527e6e63cf","2737","stimuli/1110010.jpg","1","","prediction_trial","1","","true","","1","false","true","false","false","false","false","[0,1]","110","010","1","","","","","","",""
"","","","","","image-keyboard-response","167","314914","0.0-142.0","5608a73fd7def20012b7389d","665500ab8938657b03fbdba8","665792984271bb527e6e63cf","350","stimuli/11100101.jpg"," ","","feedback_trial","0","","","","","","","","","","","","","","","","","","","","",""
"","","","","","image-keyboard-response","168","316676","0.0-143.0","5608a73fd7def20012b7389d","665500ab8938657b03fbdba8","665792984271bb527e6e63cf","1760","stimuli/0001110.jpg","1","","prediction_trial","0","","false","","0","false","false","true","true","false","false","[0]","001","110","0","","","","","","",""
"","","","","","image-keyboard-response","169","317093","0.0-144.0","5608a73fd7def20012b7389d","665500ab8938657b03fbdba8","665792984271bb527e6e63cf","416","stimuli/00011100.jpg"," ","","feedback_trial","0","","","","","","","","","","","","","","","","","","","","",""
"","","","","","image-keyboard-response","170","318129","0.0-145.0","5608a73fd7def20012b7389d","665500ab8938657b03fbdba8","665792984271bb527e6e63cf","1034","stimuli/1110110.jpg","1","","prediction_trial","0","","false","","1","false","false","false","false","false","false","[1,0]","110","110","0","","","","","","",""
"","","","","","image-keyboard-response","171","318461","0.0-146.0","5608a73fd7def20012b7389d","665500ab8938657b03fbdba8","665792984271bb527e6e63cf","331","stimuli/11101100.jpg"," ","","feedback_trial","1","","","","","","","","","","","","","","","","","","","","",""
"","","","","","image-keyboard-response","172","319853","0.0-147.0","5608a73fd7def20012b7389d","665500ab8938657b03fbdba8","665792984271bb527e6e63cf","1390","stimuli/1010100.jpg","1","","prediction_trial","1","","true","","1","true","true","false","true","false","true","[1]","010","100","1","","","","","","",""
"","","","","","image-keyboard-response","173","320145","0.0-148.0","5608a73fd7def20012b7389d","665500ab8938657b03fbdba8","665792984271bb527e6e63cf","290","stimuli/10101001.jpg"," ","","feedback_trial","1","","","","","","","","","","","","","","","","","","","","",""
"","","","","","image-keyboard-response","174","322266","0.0-149.0","5608a73fd7def20012b7389d","665500ab8938657b03fbdba8","665792984271bb527e6e63cf","2120","stimuli/0101100.jpg","0","","prediction_trial","2","","false","","0","false","true","false","false","false","false","[2,0]","101","100","0","","","","","","",""
"","","","","","image-keyboard-response","175","322648","0.0-150.0","5608a73fd7def20012b7389d","665500ab8938657b03fbdba8","665792984271bb527e6e63cf","381","stimuli/01011002.jpg"," ","","feedback_trial","2","","","","","","","","","","","","","","","","","","","","",""
"","","","","","image-keyboard-response","176","323570","0.0-151.0","5608a73fd7def20012b7389d","665500ab8938657b03fbdba8","665792984271bb527e6e63cf","920","stimuli/2110010.jpg","2","","prediction_trial","2","","true","","2","true","true","true","true","true","true","[2]","110","010","1","","","","","","",""
"","","","","","image-keyboard-response","177","323786","0.0-152.0","5608a73fd7def20012b7389d","665500ab8938657b03fbdba8","665792984271bb527e6e63cf","215","stimuli/21100102.jpg"," ","","feedback_trial","2","","","","","","","","","","","","","","","","","","","","",""
"","","","","","image-keyboard-response","178","325526","0.0-153.0","5608a73fd7def20012b7389d","665500ab8938657b03fbdba8","665792984271bb527e6e63cf","1739","stimuli/0110110.jpg","0","","prediction_trial","1","","false","","0","false","false","false","false","false","false","[0,1]","110","110","0","","","","","","",""
"","","","","","image-keyboard-response","179","326030","0.0-154.0","5608a73fd7def20012b7389d","665500ab8938657b03fbdba8","665792984271bb527e6e63cf","503","stimuli/01101101.jpg"," ","","feedback_trial","0","","","","","","","","","","","","","","","","","","","","",""
"","","","","","image-keyboard-response","180","326778","0.0-155.0","5608a73fd7def20012b7389d","665500ab8938657b03fbdba8","665792984271bb527e6e63cf","747","stimuli/1101100.jpg","1","","prediction_trial","1","","true","","1","true","true","true","true","true","true","[1]","101","100","1","","","","","","",""
"","","","","","image-keyboard-response","181","327015","0.0-156.0","5608a73fd7def20012b7389d","665500ab8938657b03fbdba8","665792984271bb527e6e63cf","235","stimuli/11011001.jpg"," ","","feedback_trial","1","","","","","","","","","","","","","","","","","","","","",""
"","","","","","image-keyboard-response","182","327504","0.0-157.0","5608a73fd7def20012b7389d","665500ab8938657b03fbdba8","665792984271bb527e6e63cf","487","stimuli/1110000.jpg","1","","prediction_trial","1","","true","","1","true","true","false","false","false","false","[0,1]","110","000","1","","","","","","",""
"","","","","","image-keyboard-response","183","327760","0.0-158.0","5608a73fd7def20012b7389d","665500ab8938657b03fbdba8","665792984271bb527e6e63cf","254","stimuli/11100001.jpg"," ","","feedback_trial","0","","","","","","","","","","","","","","","","","","","","",""
"","","","","","image-keyboard-response","184","329332","0.0-159.0","5608a73fd7def20012b7389d","665500ab8938657b03fbdba8","665792984271bb527e6e63cf","1571","stimuli/1111110.jpg","1","","prediction_trial","2","","false","","1","false","false","false","false","false","false","[0,1,2]","111","110","0","","","","","","",""
"","","","","","image-keyboard-response","185","329735","0.0-160.0","5608a73fd7def20012b7389d","665500ab8938657b03fbdba8","665792984271bb527e6e63cf","401","stimuli/11111102.jpg"," ","","feedback_trial","0","","","","","","","","","","","","","","","","","","","","",""
"","","","","","image-keyboard-response","186","330602","0.0-161.0","5608a73fd7def20012b7389d","665500ab8938657b03fbdba8","665792984271bb527e6e63cf","866","stimuli/0110011.jpg","0","","prediction_trial","0","","true","","0","true","true","false","false","false","false","[1,0]","110","011","1","","","","","","",""
"","","","","","image-keyboard-response","187","330921","0.0-162.0","5608a73fd7def20012b7389d","665500ab8938657b03fbdba8","665792984271bb527e6e63cf","317","stimuli/01100110.jpg"," ","","feedback_trial","1","","","","","","","","","","","","","","","","","","","","",""
"","","","","","image-keyboard-response","188","334885","0.0-163.0","5608a73fd7def20012b7389d","665500ab8938657b03fbdba8","665792984271bb527e6e63cf","3962","stimuli/0011110.jpg","1","","prediction_trial","0","","false","","0","false","false","true","true","false","false","[0]","011","110","0","","","","","","",""
"","","","","","image-keyboard-response","189","335247","0.0-164.0","5608a73fd7def20012b7389d","665500ab8938657b03fbdba8","665792984271bb527e6e63cf","361","stimuli/00111100.jpg"," ","","feedback_trial","0","","","","","","","","","","","","","","","","","","","","",""
"","","","","","image-keyboard-response","190","335947","0.0-165.0","5608a73fd7def20012b7389d","665500ab8938657b03fbdba8","665792984271bb527e6e63cf","698","stimuli/2110110.jpg","2","","prediction_trial","2","","true","","2","true","true","true","true","true","true","[2]","110","110","1","","","","","","",""
"","","","","","image-keyboard-response","191","336185","0.0-166.0","5608a73fd7def20012b7389d","665500ab8938657b03fbdba8","665792984271bb527e6e63cf","236","stimuli/21101102.jpg"," ","","feedback_trial","2","","","","","","","","","","","","","","","","","","","","",""
"","","","","","image-keyboard-response","192","337643","0.0-167.0","5608a73fd7def20012b7389d","665500ab8938657b03fbdba8","665792984271bb527e6e63cf","1457","stimuli/1011011.jpg","1","","prediction_trial","2","","false","","1","false","false","false","false","false","false","[1,2]","011","011","0","","","","","","",""
"","","","","","image-keyboard-response","193","337974","0.0-168.0","5608a73fd7def20012b7389d","665500ab8938657b03fbdba8","665792984271bb527e6e63cf","329","stimuli/10110112.jpg"," ","","feedback_trial","1","","","","","","","","","","","","","","","","","","","","",""
"","","","","","image-keyboard-response","194","339653","0.0-169.0","5608a73fd7def20012b7389d","665500ab8938657b03fbdba8","665792984271bb527e6e63cf","1677","stimuli/0110010.jpg","0","","prediction_trial","0","","true","","0","true","true","false","false","false","false","[0,1]","110","010","1","","","","","","",""
"","","","","","image-keyboard-response","195","339984","0.0-170.0","5608a73fd7def20012b7389d","665500ab8938657b03fbdba8","665792984271bb527e6e63cf","330","stimuli/01100100.jpg"," ","","feedback_trial","0","","","","","","","","","","","","","","","","","","","","",""
"","","","","","image-keyboard-response","196","343619","0.0-171.0","5608a73fd7def20012b7389d","665500ab8938657b03fbdba8","665792984271bb527e6e63cf","3634","stimuli/0100101.jpg","0","","prediction_trial","0","","true","","0","false","false","false","true","false","false","[0]","100","101","1","","","","","","",""
"","","","","","image-keyboard-response","197","344039","0.0-172.0","5608a73fd7def20012b7389d","665500ab8938657b03fbdba8","665792984271bb527e6e63cf","419","stimuli/01001010.jpg"," ","","feedback_trial","0","","","","","","","","","","","","","","","","","","","","",""
"","","","","","image-keyboard-response","198","345293","0.0-173.0","5608a73fd7def20012b7389d","665500ab8938657b03fbdba8","665792984271bb527e6e63cf","1252","stimuli/0111100.jpg","1","","prediction_trial","2","","false","","0","false","true","false","false","false","false","[2,0,1]","111","100","0","","","","","","",""
"","","","","","image-keyboard-response","199","345633","0.0-174.0","5608a73fd7def20012b7389d","665500ab8938657b03fbdba8","665792984271bb527e6e63cf","338","stimuli/01111002.jpg"," ","","feedback_trial","2","","","","","","","","","","","","","","","","","","","","",""
"","","","","","image-keyboard-response","200","346347","0.0-175.0","5608a73fd7def20012b7389d","665500ab8938657b03fbdba8","665792984271bb527e6e63cf","713","stimuli/0001011.jpg","0","","prediction_trial","0","","true","","0","true","true","true","true","true","true","[0]","001","011","1","","","","","","",""
"","","","","","image-keyboard-response","201","346614","0.0-176.0","5608a73fd7def20012b7389d","665500ab8938657b03fbdba8","665792984271bb527e6e63cf","266","stimuli/00010110.jpg"," ","","feedback_trial","0","","","","","","","","","","","","","","","","","","","","",""
"","","","","","image-keyboard-response","202","348232","0.0-177.0","5608a73fd7def20012b7389d","665500ab8938657b03fbdba8","665792984271bb527e6e63cf","1616","stimuli/2101011.jpg","1","","prediction_trial","0","","false","","2","false","false","false","false","false","false","[0,2]","101","011","0","","","","","","",""
"","","","","","image-keyboard-response","203","348617","0.0-178.0","5608a73fd7def20012b7389d","665500ab8938657b03fbdba8","665792984271bb527e6e63cf","384","stimuli/21010110.jpg"," ","","feedback_trial","0","","","","","","","","","","","","","","","","","","","","",""
"","","","","","image-keyboard-response","204","351385","0.0-179.0","5608a73fd7def20012b7389d","665500ab8938657b03fbdba8","665792984271bb527e6e63cf","2766","stimuli/1000011.jpg","1","","prediction_trial","1","","true","","1","false","false","true","true","false","false","[1]","000","011","1","","","","","","",""
"","","","","","image-keyboard-response","205","351663","0.0-180.0","5608a73fd7def20012b7389d","665500ab8938657b03fbdba8","665792984271bb527e6e63cf","276","stimuli/10000111.jpg"," ","","feedback_trial","1","","","","","","","","","","","","","","","","","","","","",""
"","","","","","image-keyboard-response","206","352330","0.0-181.0","5608a73fd7def20012b7389d","665500ab8938657b03fbdba8","665792984271bb527e6e63cf","666","stimuli/1101001.jpg","1","","prediction_trial","1","","true","","1","true","true","true","true","true","true","[1]","101","001","1","","","","","","",""
"","","","","","image-keyboard-response","207","352485","0.0-182.0","5608a73fd7def20012b7389d","665500ab8938657b03fbdba8","665792984271bb527e6e63cf","153","stimuli/11010011.jpg"," ","","feedback_trial","1","","","","","","","","","","","","","","","","","","","","",""
"","","","","","image-keyboard-response","208","353080","0.0-183.0","5608a73fd7def20012b7389d","665500ab8938657b03fbdba8","665792984271bb527e6e63cf","593","stimuli/1000001.jpg","1","","prediction_trial","1","","true","","1","true","true","true","true","true","true","[1]","000","001","1","","","","","","",""
"","","","","","image-keyboard-response","209","353209","0.0-184.0","5608a73fd7def20012b7389d","665500ab8938657b03fbdba8","665792984271bb527e6e63cf","127","stimuli/10000011.jpg"," ","","feedback_trial","1","","","","","","","","","","","","","","","","","","","","",""
"","","","","","image-keyboard-response","210","354504","0.0-185.0","5608a73fd7def20012b7389d","665500ab8938657b03fbdba8","665792984271bb527e6e63cf","1293","stimuli/2000111.jpg","1","","prediction_trial","2","","false","","2","false","false","true","true","false","false","[2]","000","111","0","","","","","","",""
"","","","","","image-keyboard-response","211","354904","0.0-186.0","5608a73fd7def20012b7389d","665500ab8938657b03fbdba8","665792984271bb527e6e63cf","399","stimuli/20001112.jpg"," ","","feedback_trial","2","","","","","","","","","","","","","","","","","","","","",""
"","","","","","image-keyboard-response","212","359778","0.0-187.0","5608a73fd7def20012b7389d","665500ab8938657b03fbdba8","665792984271bb527e6e63cf","4873","stimuli/2110001.jpg","2","","prediction_trial","2","","true","","2","false","true","true","true","false","true","[2]","110","001","1","","","","","","",""
"","","","","","image-keyboard-response","213","360113","0.0-188.0","5608a73fd7def20012b7389d","665500ab8938657b03fbdba8","665792984271bb527e6e63cf","334","stimuli/21100012.jpg"," ","","feedback_trial","2","","","","","","","","","","","","","","","","","","","","",""
"","","","","","image-keyboard-response","214","363061","0.0-189.0","5608a73fd7def20012b7389d","665500ab8938657b03fbdba8","665792984271bb527e6e63cf","2947","stimuli/1111011.jpg","1","","prediction_trial","0","","false","","1","false","false","false","false","false","false","[0,1,2]","111","011","0","","","","","","",""
"","","","","","image-keyboard-response","215","363432","0.0-190.0","5608a73fd7def20012b7389d","665500ab8938657b03fbdba8","665792984271bb527e6e63cf","368","stimuli/11110110.jpg"," ","","feedback_trial","0","","","","","","","","","","","","","","","","","","","","",""
"","","","","","image-keyboard-response","216","366126","0.0-191.0","5608a73fd7def20012b7389d","665500ab8938657b03fbdba8","665792984271bb527e6e63cf","2693","stimuli/0100110.jpg","1","","prediction_trial","0","","false","","0","false","false","false","true","false","false","[0]","100","110","0","","","","","","",""
"","","","","","image-keyboard-response","217","366522","0.0-192.0","5608a73fd7def20012b7389d","665500ab8938657b03fbdba8","665792984271bb527e6e63cf","394","stimuli/01001100.jpg"," ","","feedback_trial","0","","","","","","","","","","","","","","","","","","","","",""
"","","","","","image-keyboard-response","218","367208","0.0-193.0","5608a73fd7def20012b7389d","665500ab8938657b03fbdba8","665792984271bb527e6e63cf","685","stimuli/0001000.jpg","0","","prediction_trial","0","","true","","0","true","true","true","true","true","true","[0]","001","000","1","","","","","","",""
"","","","","","image-keyboard-response","219","367435","0.0-194.0","5608a73fd7def20012b7389d","665500ab8938657b03fbdba8","665792984271bb527e6e63cf","226","stimuli/00010000.jpg"," ","","feedback_trial","0","","","","","","","","","","","","","","","","","","","","",""
"","","","","","image-keyboard-response","220","369336","0.0-195.0","5608a73fd7def20012b7389d","665500ab8938657b03fbdba8","665792984271bb527e6e63cf","1899","stimuli/2001111.jpg","1","","prediction_trial","2","","false","","2","false","false","false","true","false","false","[2]","001","111","0","","","","","","",""
"","","","","","image-keyboard-response","221","369745","0.0-196.0","5608a73fd7def20012b7389d","665500ab8938657b03fbdba8","665792984271bb527e6e63cf","407","stimuli/20011112.jpg"," ","","feedback_trial","2","","","","","","","","","","","","","","","","","","","","",""
"","","","","","image-keyboard-response","222","370378","0.0-197.0","5608a73fd7def20012b7389d","665500ab8938657b03fbdba8","665792984271bb527e6e63cf","631","stimuli/1000100.jpg","1","","prediction_trial","1","","true","","1","true","true","true","true","true","true","[1]","000","100","1","","","","","","",""
"","","","","","image-keyboard-response","223","370618","0.0-198.0","5608a73fd7def20012b7389d","665500ab8938657b03fbdba8","665792984271bb527e6e63cf","239","stimuli/10001001.jpg"," ","","feedback_trial","1","","","","","","","","","","","","","","","","","","","","",""
"","","","","","image-keyboard-response","224","371215","0.0-199.0","5608a73fd7def20012b7389d","665500ab8938657b03fbdba8","665792984271bb527e6e63cf","595","stimuli/1001100.jpg","1","","prediction_trial","1","","true","","1","true","true","true","true","true","true","[1]","001","100","1","","","","","","",""
"","","","","","image-keyboard-response","225","371409","0.0-200.0","5608a73fd7def20012b7389d","665500ab8938657b03fbdba8","665792984271bb527e6e63cf","192","stimuli/10011001.jpg"," ","","feedback_trial","1","","","","","","","","","","","","","","","","","","","","",""
"","","","","","image-keyboard-response","226","372542","0.0-201.0","5608a73fd7def20012b7389d","665500ab8938657b03fbdba8","665792984271bb527e6e63cf","1131","stimuli/0101101.jpg","0","","prediction_trial","2","","false","","0","false","false","false","false","false","false","[2,0]","101","101","0","","","","","","",""
"","","","","","image-keyboard-response","227","372864","0.0-202.0","5608a73fd7def20012b7389d","665500ab8938657b03fbdba8","665792984271bb527e6e63cf","320","stimuli/01011012.jpg"," ","","feedback_trial","2","","","","","","","","","","","","","","","","","","","","",""
"","","","","","image-keyboard-response","228","374502","0.0-203.0","5608a73fd7def20012b7389d","665500ab8938657b03fbdba8","665792984271bb527e6e63cf","1637","stimuli/2000001.jpg","2","","prediction_trial","2","","true","","2","false","true","true","true","false","true","[2]","000","001","1","","","","","","",""
"","","","","","image-keyboard-response","229","374829","0.0-204.0","5608a73fd7def20012b7389d","665500ab8938657b03fbdba8","665792984271bb527e6e63cf","326","stimuli/20000012.jpg"," ","","feedback_trial","2","","","","","","","","","","","","","","","","","","","","",""
"","","","","","image-keyboard-response","230","376254","0.0-205.0","5608a73fd7def20012b7389d","665500ab8938657b03fbdba8","665792984271bb527e6e63cf","1424","stimuli/0110001.jpg","0","","prediction_trial","1","","false","","0","true","true","false","false","false","false","[0,1]","110","001","0","","","","","","",""
"","","","","","image-keyboard-response","231","376622","0.0-206.0","5608a73fd7def20012b7389d","665500ab8938657b03fbdba8","665792984271bb527e6e63cf","366","stimuli/01100011.jpg"," ","","feedback_trial","0","","","","","","","","","","","","","","","","","","","","",""
"","","","","","image-keyboard-response","232","378567","0.0-207.0","5608a73fd7def20012b7389d","665500ab8938657b03fbdba8","665792984271bb527e6e63cf","1892","stimuli/0001101.jpg","2","","prediction_trial","0","","false","","0","false","false","true","true","false","false","[0]","001","101","0","","","","","","",""
"","","","","","image-keyboard-response","233","378960","0.0-208.0","5608a73fd7def20012b7389d","665500ab8938657b03fbdba8","665792984271bb527e6e63cf","392","stimuli/00011010.jpg"," ","","feedback_trial","0","","","","","","","","","","","","","","","","","","","","",""
"","","","","","image-keyboard-response","234","379830","0.0-209.0","5608a73fd7def20012b7389d","665500ab8938657b03fbdba8","665792984271bb527e6e63cf","868","stimuli/0000111.jpg","1","","prediction_trial","0","","false","","0","false","false","true","true","false","false","[0]","000","111","0","","","","","","",""
"","","","","","image-keyboard-response","235","380208","0.0-210.0","5608a73fd7def20012b7389d","665500ab8938657b03fbdba8","665792984271bb527e6e63cf","377","stimuli/00001110.jpg"," ","","feedback_trial","0","","","","","","","","","","","","","","","","","","","","",""
"","","","","","image-keyboard-response","236","380979","0.0-211.0","5608a73fd7def20012b7389d","665500ab8938657b03fbdba8","665792984271bb527e6e63cf","769","stimuli/0010010.jpg","0","","prediction_trial","0","","true","","0","true","true","true","true","true","true","[0]","010","010","1","","","","","","",""
"","","","","","image-keyboard-response","237","381307","0.0-212.0","5608a73fd7def20012b7389d","665500ab8938657b03fbdba8","665792984271bb527e6e63cf","327","stimuli/00100100.jpg"," ","","feedback_trial","0","","","","","","","","","","","","","","","","","","","","",""
"","","","","","image-keyboard-response","238","382012","0.0-213.0","5608a73fd7def20012b7389d","665500ab8938657b03fbdba8","665792984271bb527e6e63cf","704","stimuli/0111001.jpg","0","","prediction_trial","1","","false","","0","true","true","false","false","false","false","[1,2,0]","111","001","0","","","","","","",""
"","","","","","image-keyboard-response","239","382251","0.0-214.0","5608a73fd7def20012b7389d","665500ab8938657b03fbdba8","665792984271bb527e6e63cf","238","stimuli/01110011.jpg"," ","","feedback_trial","1","","","","","","","","","","","","","","","","","","","","",""
"","","","","","image-keyboard-response","240","384734","0.0-215.0","5608a73fd7def20012b7389d","665500ab8938657b03fbdba8","665792984271bb527e6e63cf","2482","stimuli/2010111.jpg","0","","prediction_trial","2","","false","","2","false","false","true","true","false","false","[2]","010","111","0","","","","","","",""
"","","","","","image-keyboard-response","241","385413","0.0-216.0","5608a73fd7def20012b7389d","665500ab8938657b03fbdba8","665792984271bb527e6e63cf","677","stimuli/20101112.jpg"," ","","feedback_trial","2","","","","","","","","","","","","","","","","","","","","",""
"","","","","","image-keyboard-response","242","387608","0.0-217.0","5608a73fd7def20012b7389d","665500ab8938657b03fbdba8","665792984271bb527e6e63cf","2193","stimuli/2011111.jpg","1","","prediction_trial","2","","false","","2","false","false","false","false","false","false","[1,2]","011","111","0","","","","","","",""
"","","","","","image-keyboard-response","243","388035","0.0-218.0","5608a73fd7def20012b7389d","665500ab8938657b03fbdba8","665792984271bb527e6e63cf","426","stimuli/20111112.jpg"," ","","feedback_trial","1","","","","","","","","","","","","","","","","","","","","",""
"","","","","","image-keyboard-response","244","389467","0.0-219.0","5608a73fd7def20012b7389d","665500ab8938657b03fbdba8","665792984271bb527e6e63cf","1431","stimuli/2101100.jpg","2","","prediction_trial","0","","false","","2","true","true","false","false","false","false","[0,2]","101","100","0","","","","","","",""
"","","","","","image-keyboard-response","245","389828","0.0-220.0","5608a73fd7def20012b7389d","665500ab8938657b03fbdba8","665792984271bb527e6e63cf","359","stimuli/21011000.jpg"," ","","feedback_trial","0","","","","","","","","","","","","","","","","","","","","",""
"","","","","","image-keyboard-response","246","390906","0.0-221.0","5608a73fd7def20012b7389d","665500ab8938657b03fbdba8","665792984271bb527e6e63cf","1077","stimuli/0000100.jpg","0","","prediction_trial","0","","true","","0","false","true","true","true","false","true","[0]","000","100","1","","","","","","",""
"","","","","","image-keyboard-response","247","391193","0.0-222.0","5608a73fd7def20012b7389d","665500ab8938657b03fbdba8","665792984271bb527e6e63cf","285","stimuli/00001000.jpg"," ","","feedback_trial","0","","","","","","","","","","","","","","","","","","","","",""
"","","","","","image-keyboard-response","248","392377","0.0-223.0","5608a73fd7def20012b7389d","665500ab8938657b03fbdba8","665792984271bb527e6e63cf","1182","stimuli/0101001.jpg","0","","prediction_trial","2","","false","","0","true","true","false","false","false","false","[0,2]","101","001","0","","","","","","",""
"","","","","","image-keyboard-response","249","392701","0.0-224.0","5608a73fd7def20012b7389d","665500ab8938657b03fbdba8","665792984271bb527e6e63cf","322","stimuli/01010012.jpg"," ","","feedback_trial","0","","","","","","","","","","","","","","","","","","","","",""
"","","","","","image-keyboard-response","250","394817","0.0-225.0","5608a73fd7def20012b7389d","665500ab8938657b03fbdba8","665792984271bb527e6e63cf","2115","stimuli/1001011.jpg","1","","prediction_trial","1","","true","","1","false","false","true","true","false","false","[1]","001","011","1","","","","","","",""
"","","","","","image-keyboard-response","251","395246","0.0-226.0","5608a73fd7def20012b7389d","665500ab8938657b03fbdba8","665792984271bb527e6e63cf","427","stimuli/10010111.jpg"," ","","feedback_trial","1","","","","","","","","","","","","","","","","","","","","",""
"","","","","","image-keyboard-response","252","396832","0.0-227.0","5608a73fd7def20012b7389d","665500ab8938657b03fbdba8","665792984271bb527e6e63cf","1585","stimuli/2101010.jpg","2","","prediction_trial","0","","false","","2","true","true","false","false","false","false","[2,0]","101","010","0","","","","","","",""
"","","","","","image-keyboard-response","253","397202","0.0-228.0","5608a73fd7def20012b7389d","665500ab8938657b03fbdba8","665792984271bb527e6e63cf","368","stimuli/21010100.jpg"," ","","feedback_trial","2","","","","","","","","","","","","","","","","","","","","",""
"","","","","","image-keyboard-response","254","398340","0.0-229.0","5608a73fd7def20012b7389d","665500ab8938657b03fbdba8","665792984271bb527e6e63cf","1137","stimuli/0001111.jpg","1","","prediction_trial","0","","false","","0","false","false","true","true","false","false","[0]","001","111","0","","","","","","",""
"","","","","","image-keyboard-response","255","398684","0.0-230.0","5608a73fd7def20012b7389d","665500ab8938657b03fbdba8","665792984271bb527e6e63cf","341","stimuli/00011110.jpg"," ","","feedback_trial","0","","","","","","","","","","","","","","","","","","","","",""
"","","","","","image-keyboard-response","256","399666","0.0-231.0","5608a73fd7def20012b7389d","665500ab8938657b03fbdba8","665792984271bb527e6e63cf","981","stimuli/0100100.jpg","0","","prediction_trial","0","","true","","0","false","true","false","true","false","true","[0]","100","100","1","","","","","","",""
"","","","","","image-keyboard-response","257","399938","0.0-232.0","5608a73fd7def20012b7389d","665500ab8938657b03fbdba8","665792984271bb527e6e63cf","270","stimuli/01001000.jpg"," ","","feedback_trial","0","","","","","","","","","","","","","","","","","","","","",""
"","","","","","image-keyboard-response","258","400638","0.0-233.0","5608a73fd7def20012b7389d","665500ab8938657b03fbdba8","665792984271bb527e6e63cf","698","stimuli/0001010.jpg","0","","prediction_trial","0","","true","","0","true","true","true","true","true","true","[0]","001","010","1","","","","","","",""
"","","","","","image-keyboard-response","259","400869","0.0-234.0","5608a73fd7def20012b7389d","665500ab8938657b03fbdba8","665792984271bb527e6e63cf","230","stimuli/00010100.jpg"," ","","feedback_trial","0","","","","","","","","","","","","","","","","","","","","",""
"","","","","","image-keyboard-response","260","401844","0.0-235.0","5608a73fd7def20012b7389d","665500ab8938657b03fbdba8","665792984271bb527e6e63cf","973","stimuli/1100011.jpg","1","","prediction_trial","1","","true","","1","false","false","true","true","false","false","[1]","100","011","1","","","","","","",""
"","","","","","image-keyboard-response","261","402193","0.0-236.0","5608a73fd7def20012b7389d","665500ab8938657b03fbdba8","665792984271bb527e6e63cf","348","stimuli/11000111.jpg"," ","","feedback_trial","1","","","","","","","","","","","","","","","","","","","","",""
"","","","","","image-keyboard-response","262","404420","0.0-237.0","5608a73fd7def20012b7389d","665500ab8938657b03fbdba8","665792984271bb527e6e63cf","2225","stimuli/2001011.jpg","1","","prediction_trial","2","","false","","2","false","false","false","true","false","false","[2]","001","011","0","","","","","","",""
"","","","","","image-keyboard-response","263","404747","0.0-238.0","5608a73fd7def20012b7389d","665500ab8938657b03fbdba8","665792984271bb527e6e63cf","326","stimuli/20010112.jpg"," ","","feedback_trial","2","","","","","","","","","","","","","","","","","","","","",""
"","","","","","image-keyboard-response","264","405715","0.0-239.0","5608a73fd7def20012b7389d","665500ab8938657b03fbdba8","665792984271bb527e6e63cf","965","stimuli/0010110.jpg","1","","prediction_trial","0","","false","","0","false","false","true","true","false","false","[0]","010","110","0","","","","","","",""
"","","","","","image-keyboard-response","265","406039","0.0-240.0","5608a73fd7def20012b7389d","665500ab8938657b03fbdba8","665792984271bb527e6e63cf","322","stimuli/00101100.jpg"," ","","feedback_trial","0","","","","","","","","","","","","","","","","","","","","",""
"","","","","","image-keyboard-response","266","406588","0.0-241.0","5608a73fd7def20012b7389d","665500ab8938657b03fbdba8","665792984271bb527e6e63cf","547","stimuli/1011000.jpg","1","","prediction_trial","1","","true","","1","true","true","false","false","false","false","[1,2]","011","000","1","","","","","","",""
"","","","","","image-keyboard-response","267","406890","0.0-242.0","5608a73fd7def20012b7389d","665500ab8938657b03fbdba8","665792984271bb527e6e63cf","301","stimuli/10110001.jpg"," ","","feedback_trial","1","","","","","","","","","","","","","","","","","","","","",""
"","","","","","image-keyboard-response","268","407645","0.0-243.0","5608a73fd7def20012b7389d","665500ab8938657b03fbdba8","665792984271bb527e6e63cf","753","stimuli/2010010.jpg","2","","prediction_trial","2","","true","","2","true","true","true","true","true","true","[2]","010","010","1","","","","","","",""
"","","","","","image-keyboard-response","269","407844","0.0-244.0","5608a73fd7def20012b7389d","665500ab8938657b03fbdba8","665792984271bb527e6e63cf","198","stimuli/20100102.jpg"," ","","feedback_trial","2","","","","","","","","","","","","","","","","","","","","",""
"","","","","","image-keyboard-response","270","408509","0.0-245.0","5608a73fd7def20012b7389d","665500ab8938657b03fbdba8","665792984271bb527e6e63cf","663","stimuli/0010011.jpg","0","","prediction_trial","0","","true","","0","true","true","true","true","true","true","[0]","010","011","1","","","","","","",""
"","","","","","image-keyboard-response","271","408746","0.0-246.0","5608a73fd7def20012b7389d","665500ab8938657b03fbdba8","665792984271bb527e6e63cf","236","stimuli/00100110.jpg"," ","","feedback_trial","0","","","","","","","","","","","","","","","","","","","","",""
"","","","","","image-keyboard-response","272","409449","0.0-247.0","5608a73fd7def20012b7389d","665500ab8938657b03fbdba8","665792984271bb527e6e63cf","701","stimuli/2001000.jpg","2","","prediction_trial","2","","true","","2","true","true","false","true","false","true","[2]","001","000","1","","","","","","",""
"","","","","","image-keyboard-response","273","409872","0.0-248.0","5608a73fd7def20012b7389d","665500ab8938657b03fbdba8","665792984271bb527e6e63cf","422","stimuli/20010002.jpg"," ","","feedback_trial","2","","","","","","","","","","","","","","","","","","","","",""
"","","","","","image-keyboard-response","274","410447","0.0-249.0","5608a73fd7def20012b7389d","665500ab8938657b03fbdba8","665792984271bb527e6e63cf","573","stimuli/0011001.jpg","0","","prediction_trial","0","","true","","0","true","true","true","true","true","true","[0]","011","001","1","","","","","","",""
"","","","","","image-keyboard-response","275","410714","0.0-250.0","5608a73fd7def20012b7389d","665500ab8938657b03fbdba8","665792984271bb527e6e63cf","265","stimuli/00110010.jpg"," ","","feedback_trial","0","","","","","","","","","","","","","","","","","","","","",""
"","","","","","image-keyboard-response","276","411291","0.0-251.0","5608a73fd7def20012b7389d","665500ab8938657b03fbdba8","665792984271bb527e6e63cf","575","stimuli/0001001.jpg","0","","prediction_trial","0","","true","","0","true","true","true","true","true","true","[0]","001","001","1","","","","","","",""
"","","","","","image-keyboard-response","277","411594","0.0-252.0","5608a73fd7def20012b7389d","665500ab8938657b03fbdba8","665792984271bb527e6e63cf","302","stimuli/00010010.jpg"," ","","feedback_trial","0","","","","","","","","","","","","","","","","","","","","",""
"","","","","","image-keyboard-response","278","412563","0.0-253.0","5608a73fd7def20012b7389d","665500ab8938657b03fbdba8","665792984271bb527e6e63cf","967","stimuli/2101101.jpg","0","","prediction_trial","2","","false","","2","false","false","false","false","false","false","[0,2]","101","101","0","","","","","","",""
"","","","","","image-keyboard-response","279","412901","0.0-254.0","5608a73fd7def20012b7389d","665500ab8938657b03fbdba8","665792984271bb527e6e63cf","337","stimuli/21011012.jpg"," ","","feedback_trial","0","","","","","","","","","","","","","","","","","","","","",""
"","","","","","image-keyboard-response","280","413754","0.0-255.0","5608a73fd7def20012b7389d","665500ab8938657b03fbdba8","665792984271bb527e6e63cf","852","stimuli/0101011.jpg","0","","prediction_trial","0","","true","","0","true","true","false","false","false","false","[0,2]","101","011","1","","","","","","",""
"","","","","","image-keyboard-response","281","414044","0.0-256.0","5608a73fd7def20012b7389d","665500ab8938657b03fbdba8","665792984271bb527e6e63cf","288","stimuli/01010110.jpg"," ","","feedback_trial","0","","","","","","","","","","","","","","","","","","","","",""
"","","","","","image-keyboard-response","282","414617","0.0-257.0","5608a73fd7def20012b7389d","665500ab8938657b03fbdba8","665792984271bb527e6e63cf","571","stimuli/2110100.jpg","2","","prediction_trial","2","","true","","2","true","true","true","true","true","true","[2]","110","100","1","","","","","","",""
"","","","","","image-keyboard-response","283","414831","0.0-258.0","5608a73fd7def20012b7389d","665500ab8938657b03fbdba8","665792984271bb527e6e63cf","212","stimuli/21101002.jpg"," ","","feedback_trial","2","","","","","","","","","","","","","","","","","","","","",""
"","","","","","image-keyboard-response","284","416642","0.0-259.0","5608a73fd7def20012b7389d","665500ab8938657b03fbdba8","665792984271bb527e6e63cf","1809","stimuli/0110111.jpg","2","","prediction_trial","0","","false","","0","false","false","false","false","false","false","[1,0]","110","111","0","","","","","","",""
"","","","","","image-keyboard-response","285","417014","0.0-260.0","5608a73fd7def20012b7389d","665500ab8938657b03fbdba8","665792984271bb527e6e63cf","371","stimuli/01101110.jpg"," ","","feedback_trial","1","","","","","","","","","","","","","","","","","","","","",""
"","","","","","image-keyboard-response","286","417976","0.0-261.0","5608a73fd7def20012b7389d","665500ab8938657b03fbdba8","665792984271bb527e6e63cf","960","stimuli/2011010.jpg","2","","prediction_trial","1","","false","","2","true","true","false","false","false","false","[1,2]","011","010","0","","","","","","",""
"","","","","","image-keyboard-response","287","418271","0.0-262.0","5608a73fd7def20012b7389d","665500ab8938657b03fbdba8","665792984271bb527e6e63cf","294","stimuli/20110101.jpg"," ","","feedback_trial","1","","","","","","","","","","","","","","","","","","","","",""
"","","","","","image-keyboard-response","288","419073","0.0-263.0","5608a73fd7def20012b7389d","665500ab8938657b03fbdba8","665792984271bb527e6e63cf","800","stimuli/0111011.jpg","0","","prediction_trial","0","","true","","0","true","true","false","false","false","false","[1,2,0]","111","011","1","","","","","","",""
"","","","","","image-keyboard-response","289","419401","0.0-264.0","5608a73fd7def20012b7389d","665500ab8938657b03fbdba8","665792984271bb527e6e63cf","327","stimuli/01110110.jpg"," ","","feedback_trial","1","","","","","","","","","","","","","","","","","","","","",""
"","","","","","image-keyboard-response","290","420116","0.0-265.0","5608a73fd7def20012b7389d","665500ab8938657b03fbdba8","665792984271bb527e6e63cf","713","stimuli/2110000.jpg","2","","prediction_trial","2","","true","","2","true","true","true","true","true","true","[2]","110","000","1","","","","","","",""
"","","","","","image-keyboard-response","291","420413","0.0-266.0","5608a73fd7def20012b7389d","665500ab8938657b03fbdba8","665792984271bb527e6e63cf","296","stimuli/21100002.jpg"," ","","feedback_trial","2","","","","","","","","","","","","","","","","","","","","",""
"","","","","","image-keyboard-response","292","421291","0.0-267.0","5608a73fd7def20012b7389d","665500ab8938657b03fbdba8","665792984271bb527e6e63cf","876","stimuli/2000101.jpg","0","","prediction_trial","2","","false","","2","false","false","true","true","false","false","[2]","000","101","0","","","","","","",""
"","","","","","image-keyboard-response","293","421664","0.0-268.0","5608a73fd7def20012b7389d","665500ab8938657b03fbdba8","665792984271bb527e6e63cf","371","stimuli/20001012.jpg"," ","","feedback_trial","2","","","","","","","","","","","","","","","","","","","","",""
"","","","","","image-keyboard-response","294","422411","0.0-269.0","5608a73fd7def20012b7389d","665500ab8938657b03fbdba8","665792984271bb527e6e63cf","745","stimuli/0011111.jpg","1","","prediction_trial","0","","false","","0","false","false","true","true","false","false","[0]","011","111","0","","","","","","",""
"","","","","","image-keyboard-response","295","422768","0.0-270.0","5608a73fd7def20012b7389d","665500ab8938657b03fbdba8","665792984271bb527e6e63cf","355","stimuli/00111110.jpg"," ","","feedback_trial","0","","","","","","","","","","","","","","","","","","","","",""
"","","","","","image-keyboard-response","296","423441","0.0-271.0","5608a73fd7def20012b7389d","665500ab8938657b03fbdba8","665792984271bb527e6e63cf","671","stimuli/1010000.jpg","1","","prediction_trial","1","","true","","1","true","true","false","true","false","true","[1]","010","000","1","","","","","","",""
"","","","","","image-keyboard-response","297","423765","0.0-272.0","5608a73fd7def20012b7389d","665500ab8938657b03fbdba8","665792984271bb527e6e63cf","322","stimuli/10100001.jpg"," ","","feedback_trial","1","","","","","","","","","","","","","","","","","","","","",""
"","","","","","image-keyboard-response","298","425342","0.0-273.0","5608a73fd7def20012b7389d","665500ab8938657b03fbdba8","665792984271bb527e6e63cf","1575","stimuli/1011010.jpg","1","","prediction_trial","1","","true","","1","false","true","false","false","false","false","[1,2]","011","010","1","","","","","","",""
"","","","","","image-keyboard-response","299","425676","0.0-274.0","5608a73fd7def20012b7389d","665500ab8938657b03fbdba8","665792984271bb527e6e63cf","333","stimuli/10110101.jpg"," ","","feedback_trial","1","","","","","","","","","","","","","","","","","","","","",""
"","","","","","image-keyboard-response","300","426301","0.0-275.0","5608a73fd7def20012b7389d","665500ab8938657b03fbdba8","665792984271bb527e6e63cf","624","stimuli/0011011.jpg","0","","prediction_trial","0","","true","","0","true","true","true","true","true","true","[0]","011","011","1","","","","","","",""
"","","","","","image-keyboard-response","301","426618","0.0-276.0","5608a73fd7def20012b7389d","665500ab8938657b03fbdba8","665792984271bb527e6e63cf","315","stimuli/00110110.jpg"," ","","feedback_trial","0","","","","","","","","","","","","","","","","","","","","",""
"","","","","","image-keyboard-response","302","428395","0.0-277.0","5608a73fd7def20012b7389d","665500ab8938657b03fbdba8","665792984271bb527e6e63cf","1776","stimuli/2111011.jpg","1","","prediction_trial","0","","false","","2","false","false","false","false","false","false","[1,2,0]","111","011","0","","","","","","",""
"","","","","","image-keyboard-response","303","428806","0.0-278.0","5608a73fd7def20012b7389d","665500ab8938657b03fbdba8","665792984271bb527e6e63cf","409","stimuli/21110110.jpg"," ","","feedback_trial","1","","","","","","","","","","","","","","","","","","","","",""
"","","","","","image-keyboard-response","304","429471","0.0-279.0","5608a73fd7def20012b7389d","665500ab8938657b03fbdba8","665792984271bb527e6e63cf","664","stimuli/1100100.jpg","1","","prediction_trial","1","","true","","1","true","true","true","true","true","true","[1]","100","100","1","","","","","","",""
"","","","","","image-keyboard-response","305","429755","0.0-280.0","5608a73fd7def20012b7389d","665500ab8938657b03fbdba8","665792984271bb527e6e63cf","282","stimuli/11001001.jpg"," ","","feedback_trial","1","","","","","","","","","","","","","","","","","","","","",""
"","","","","","image-keyboard-response","306","430449","0.0-281.0","5608a73fd7def20012b7389d","665500ab8938657b03fbdba8","665792984271bb527e6e63cf","693","stimuli/0000000.jpg","0","","prediction_trial","0","","true","","0","true","true","true","true","true","true","[0]","000","000","1","","","","","","",""
"","","","","","image-keyboard-response","307","430716","0.0-282.0","5608a73fd7def20012b7389d","665500ab8938657b03fbdba8","665792984271bb527e6e63cf","265","stimuli/00000000.jpg"," ","","feedback_trial","0","","","","","","","","","","","","","","","","","","","","",""
"","","","","","image-keyboard-response","308","431503","0.0-283.0","5608a73fd7def20012b7389d","665500ab8938657b03fbdba8","665792984271bb527e6e63cf","785","stimuli/1010101.jpg","1","","prediction_trial","1","","true","","1","true","true","false","true","false","true","[1]","010","101","1","","","","","","",""
"","","","","","image-keyboard-response","309","431822","0.0-284.0","5608a73fd7def20012b7389d","665500ab8938657b03fbdba8","665792984271bb527e6e63cf","317","stimuli/10101011.jpg"," ","","feedback_trial","1","","","","","","","","","","","","","","","","","","","","",""
"","","","","","image-keyboard-response","310","432414","0.0-285.0","5608a73fd7def20012b7389d","665500ab8938657b03fbdba8","665792984271bb527e6e63cf","590","stimuli/0101010.jpg","0","","prediction_trial","2","","false","","0","true","true","false","false","false","false","[2,0]","101","010","0","","","","","","",""
"","","","","","image-keyboard-response","311","432813","0.0-286.0","5608a73fd7def20012b7389d","665500ab8938657b03fbdba8","665792984271bb527e6e63cf","397","stimuli/01010102.jpg"," ","","feedback_trial","2","","","","","","","","","","","","","","","","","","","","",""
"","","","","","image-keyboard-response","312","433539","0.0-287.0","5608a73fd7def20012b7389d","665500ab8938657b03fbdba8","665792984271bb527e6e63cf","725","stimuli/2011100.jpg","2","","prediction_trial","2","","true","","2","true","true","false","false","false","false","[2,1]","011","100","1","","","","","","",""
"","","","","","image-keyboard-response","313","433864","0.0-288.0","5608a73fd7def20012b7389d","665500ab8938657b03fbdba8","665792984271bb527e6e63cf","323","stimuli/20111002.jpg"," ","","feedback_trial","2","","","","","","","","","","","","","","","","","","","","",""
"","","","","","image-keyboard-response","314","434445","0.0-289.0","5608a73fd7def20012b7389d","665500ab8938657b03fbdba8","665792984271bb527e6e63cf","579","stimuli/1100101.jpg","1","","prediction_trial","1","","true","","1","true","true","true","true","true","true","[1]","100","101","1","","","","","","",""
"","","","","","image-keyboard-response","315","434797","0.0-290.0","5608a73fd7def20012b7389d","665500ab8938657b03fbdba8","665792984271bb527e6e63cf","350","stimuli/11001011.jpg"," ","","feedback_trial","1","","","","","","","","","","","","","","","","","","","","",""
"","","","","","image-keyboard-response","316","435294","0.0-291.0","5608a73fd7def20012b7389d","665500ab8938657b03fbdba8","665792984271bb527e6e63cf","495","stimuli/1110100.jpg","1","","prediction_trial","1","","true","","1","true","true","false","false","false","false","[1,0]","110","100","1","","","","","","",""
"","","","","","image-keyboard-response","317","435585","0.0-292.0","5608a73fd7def20012b7389d","665500ab8938657b03fbdba8","665792984271bb527e6e63cf","289","stimuli/11101001.jpg"," ","","feedback_trial","1","","","","","","","","","","","","","","","","","","","","",""
"","","","","","survey-html-form","318","454285","0.0-293.0","5608a73fd7def20012b7389d","665500ab8938657b03fbdba8","665792984271bb527e6e63cf","18698","","{""feedback"":""I tried to see the scene from his perspective"",""age"":""36"",""gender"":""Male"",""other_gender"":"""",""race"":""White"",""other_race"":"""",""ethnicity"":""Non-Hispanic""}","","exit_survey","","","","","","","","","","","","","","","","I tried to see the scene from his perspective","36","Non-Hispanic","Male","White","0.5902777777777778","0.5902777777777778"
