"success","timeout","failed_images","failed_audio","failed_video","trial_type","trial_index","time_elapsed","internal_node_id","prolific_id","prolific_study_id","prolific_session_id","rt","stimulus","response","view_history","trial","character_choice","stimulus_dict","accuracy","correct_response","ball_pos","ego_ball_visible","ego_can_infer","alter_ball_visible","alter_can_infer","collective_ball_visible","collective_can_infer","search_locations","alter_occluders","ego_occluders","accuracy_bool","feedback","age","ethnicity","gender","race","overall_accuracy","bonus"
"true","false","[]","[]","[]","preload","0","1831","0.0-0.0","627286792f25495f123cc27b","665500ab8938657b03fbdba8","66579cba74a8e5165543cb6c","","","","","","","","","","","","","","","","","","","","","","","","","","",""
"true","","","","","fullscreen","1","4677","0.0-1.0","627286792f25495f123cc27b","665500ab8938657b03fbdba8","66579cba74a8e5165543cb6c","","","","","","","","","","","","","","","","","","","","","","","","","","",""
"","","","","","html-button-response","2","25367","0.0-2.0","627286792f25495f123cc27b","665500ab8938657b03fbdba8","66579cba74a8e5165543cb6c","20689","<p><b>Consent Form</b></p> <div style=""text-align:left;background-color:lightgrey; padding:20px; max-width:900px;""><p>Please consider this information carefully before deciding whether to participate in this research.</p> <p>The purpose of this research is to examine which factors influence social judgment and decision-making. You will be asked to make judgements about individuals and actions in social scenarios. We are simply interested in your judgement. The study will take less than 1 hour to complete, and you will receive less than $20 on Prolific. Your compensation and time commitment are specified in the study description. There are no anticipated risks associated with participating in this study. The effects of participating should be comparable to those you would ordinarily experience from viewing a computer monitor and using a mouse or keyboard for a similar amount of time. At the end of the study, we will provide an explanation of the questions that motivate this line of research and will describe the potential implications. </p><p> Your participation in this study is completely voluntary and you may refuse to participate or you may choose to withdraw at any time without penalty or loss of benefits to you which are otherwise entitled. Your participation in this study will remain confidential. No personally identifiable information will be associated with your data. Also, all analyses of the data will be averaged across all the participants, so your individual responses will never be specifically analyzed. </p><p> If you have questions or concerns about your participation or payment, or want to request a summary of research findings, please contact Dr. Jonathan Phillips at Jonathan.S.Phillips@dartmouth.edu. </p><p> Please save a copy of this form for your records. </p><p><b>Agreement: </b>The nature and purpose of this research have been sufficiently explained and I agree to participate in this study. I understand that I am free to withdraw at any time without incurring any penalty. Please consent by clicking the button below to continue. Otherwise, please exit the study at any time. </p>","0","","","","","","","","","","","","","","","","","","","","","","","",""
"","","","","","instructions","3","93651","0.0-3.0-0.0","627286792f25495f123cc27b","665500ab8938657b03fbdba8","66579cba74a8e5165543cb6c","68285","","","[{""page_index"":0,""viewing_time"":3118},{""page_index"":1,""viewing_time"":1798},{""page_index"":2,""viewing_time"":3954},{""page_index"":3,""viewing_time"":5808},{""page_index"":4,""viewing_time"":3802},{""page_index"":5,""viewing_time"":3648},{""page_index"":6,""viewing_time"":4775},{""page_index"":7,""viewing_time"":3520},{""page_index"":8,""viewing_time"":7263},{""page_index"":9,""viewing_time"":3167},{""page_index"":10,""viewing_time"":11967},{""page_index"":11,""viewing_time"":7346},{""page_index"":12,""viewing_time"":6315},{""page_index"":13,""viewing_time"":1803}]","intro","","","","","","","","","","","","","","","","","","","","","",""
"","","","","","image-keyboard-response","4","97770","0.0-3.0-1.0","627286792f25495f123cc27b","665500ab8938657b03fbdba8","66579cba74a8e5165543cb6c","4117","stimuli/2110111.jpg","0","","prediction_practice","2","{""filepath"":""stimuli/2110111.jpg"",""ball_pos"":2,""ego_ball_visible"":false,""ego_can_infer"":false,""alter_ball_visible"":true,""alter_can_infer"":true,""collective_ball_visible"":false,""collective_can_infer"":false,""search_locations"":[2],""alter_occluders"":""110"",""ego_occluders"":""111""}","false","","","","","","","","","","","","","","","","","","",""
"","","","","","image-keyboard-response","5","102173","0.0-3.0-2.0","627286792f25495f123cc27b","665500ab8938657b03fbdba8","66579cba74a8e5165543cb6c","4403","stimuli/21101112.jpg"," ","","practrice_feedback","2","","","","","","","","","","","","","","","","","","","","",""
"","","","","","image-keyboard-response","6","104385","0.0-3.0-3.0","627286792f25495f123cc27b","665500ab8938657b03fbdba8","66579cba74a8e5165543cb6c","2211","stimuli/0000000.jpg","0","","prediction_practice","0","{""filepath"":""stimuli/0000000.jpg"",""ball_pos"":0,""ego_ball_visible"":true,""ego_can_infer"":true,""alter_ball_visible"":true,""alter_can_infer"":true,""collective_ball_visible"":true,""collective_can_infer"":true,""search_locations"":[0],""alter_occluders"":""000"",""ego_occluders"":""000""}","true","","","","","","","","","","","","","","","","","","",""
"","","","","","image-keyboard-response","7","105453","0.0-3.0-4.0","627286792f25495f123cc27b","665500ab8938657b03fbdba8","66579cba74a8e5165543cb6c","1068","stimuli/00000000.jpg"," ","","practrice_feedback","0","","","","","","","","","","","","","","","","","","","","",""
"","","","","","image-keyboard-response","8","109210","0.0-3.0-5.0","627286792f25495f123cc27b","665500ab8938657b03fbdba8","66579cba74a8e5165543cb6c","3757","stimuli/0100010.jpg","0","","prediction_practice","0","{""filepath"":""stimuli/0100010.jpg"",""ball_pos"":0,""ego_ball_visible"":true,""ego_can_infer"":true,""alter_ball_visible"":false,""alter_can_infer"":true,""collective_ball_visible"":false,""collective_can_infer"":true,""search_locations"":[0],""alter_occluders"":""100"",""ego_occluders"":""010""}","true","","","","","","","","","","","","","","","","","","",""
"","","","","","image-keyboard-response","9","110464","0.0-3.0-6.0","627286792f25495f123cc27b","665500ab8938657b03fbdba8","66579cba74a8e5165543cb6c","1254","stimuli/01000100.jpg"," ","","practrice_feedback","0","","","","","","","","","","","","","","","","","","","","",""
"","","","","","image-keyboard-response","10","111587","0.0-3.0-7.0","627286792f25495f123cc27b","665500ab8938657b03fbdba8","66579cba74a8e5165543cb6c","1122","stimuli/1000001.jpg","1","","prediction_practice","1","{""filepath"":""stimuli/1000001.jpg"",""ball_pos"":1,""ego_ball_visible"":true,""ego_can_infer"":true,""alter_ball_visible"":true,""alter_can_infer"":true,""collective_ball_visible"":true,""collective_can_infer"":true,""search_locations"":[1],""alter_occluders"":""000"",""ego_occluders"":""001""}","true","","","","","","","","","","","","","","","","","","",""
"","","","","","image-keyboard-response","11","112728","0.0-3.0-8.0","627286792f25495f123cc27b","665500ab8938657b03fbdba8","66579cba74a8e5165543cb6c","1141","stimuli/10000011.jpg"," ","","practrice_feedback","1","","","","","","","","","","","","","","","","","","","","",""
"","","","","","image-keyboard-response","12","113589","0.0-3.0-9.0","627286792f25495f123cc27b","665500ab8938657b03fbdba8","66579cba74a8e5165543cb6c","860","stimuli/1101101.jpg","1","","prediction_practice","1","{""filepath"":""stimuli/1101101.jpg"",""ball_pos"":1,""ego_ball_visible"":true,""ego_can_infer"":true,""alter_ball_visible"":true,""alter_can_infer"":true,""collective_ball_visible"":true,""collective_can_infer"":true,""search_locations"":[1],""alter_occluders"":""101"",""ego_occluders"":""101""}","true","","","","","","","","","","","","","","","","","","",""
"","","","","","image-keyboard-response","13","114389","0.0-3.0-10.0","627286792f25495f123cc27b","665500ab8938657b03fbdba8","66579cba74a8e5165543cb6c","801","stimuli/11011011.jpg"," ","","practrice_feedback","1","","","","","","","","","","","","","","","","","","","","",""
"","","","","","image-keyboard-response","14","115234","0.0-3.0-11.0","627286792f25495f123cc27b","665500ab8938657b03fbdba8","66579cba74a8e5165543cb6c","844","stimuli/1001101.jpg","1","","prediction_practice","1","{""filepath"":""stimuli/1001101.jpg"",""ball_pos"":1,""ego_ball_visible"":true,""ego_can_infer"":true,""alter_ball_visible"":true,""alter_can_infer"":true,""collective_ball_visible"":true,""collective_can_infer"":true,""search_locations"":[1],""alter_occluders"":""001"",""ego_occluders"":""101""}","true","","","","","","","","","","","","","","","","","","",""
"","","","","","image-keyboard-response","15","115796","0.0-3.0-12.0","627286792f25495f123cc27b","665500ab8938657b03fbdba8","66579cba74a8e5165543cb6c","562","stimuli/10011011.jpg"," ","","practrice_feedback","1","","","","","","","","","","","","","","","","","","","","",""
"","","","","","image-keyboard-response","16","117363","0.0-3.0-13.0","627286792f25495f123cc27b","665500ab8938657b03fbdba8","66579cba74a8e5165543cb6c","1567","stimuli/1101010.jpg","1","","prediction_practice","1","{""filepath"":""stimuli/1101010.jpg"",""ball_pos"":1,""ego_ball_visible"":false,""ego_can_infer"":true,""alter_ball_visible"":true,""alter_can_infer"":true,""collective_ball_visible"":false,""collective_can_infer"":true,""search_locations"":[1],""alter_occluders"":""101"",""ego_occluders"":""010""}","true","","","","","","","","","","","","","","","","","","",""
"","","","","","image-keyboard-response","17","118323","0.0-3.0-14.0","627286792f25495f123cc27b","665500ab8938657b03fbdba8","66579cba74a8e5165543cb6c","959","stimuli/11010101.jpg"," ","","practrice_feedback","1","","","","","","","","","","","","","","","","","","","","",""
"","","","","","image-keyboard-response","18","120802","0.0-3.0-15.0","627286792f25495f123cc27b","665500ab8938657b03fbdba8","66579cba74a8e5165543cb6c","2479","stimuli/0101000.jpg","0","","prediction_practice","0","{""filepath"":""stimuli/0101000.jpg"",""ball_pos"":0,""ego_ball_visible"":true,""ego_can_infer"":true,""alter_ball_visible"":false,""alter_can_infer"":false,""collective_ball_visible"":false,""collective_can_infer"":false,""search_locations"":[0,2],""alter_occluders"":""101"",""ego_occluders"":""000""}","true","","","","","","","","","","","","","","","","","","",""
"","","","","","image-keyboard-response","19","121554","0.0-3.0-16.0","627286792f25495f123cc27b","665500ab8938657b03fbdba8","66579cba74a8e5165543cb6c","752","stimuli/01010000.jpg"," ","","practrice_feedback","0","","","","","","","","","","","","","","","","","","","","",""
"","","","","","image-keyboard-response","20","123376","0.0-3.0-17.0","627286792f25495f123cc27b","665500ab8938657b03fbdba8","66579cba74a8e5165543cb6c","1821","stimuli/1100011.jpg","2","","prediction_practice","1","{""filepath"":""stimuli/1100011.jpg"",""ball_pos"":1,""ego_ball_visible"":false,""ego_can_infer"":false,""alter_ball_visible"":true,""alter_can_infer"":true,""collective_ball_visible"":false,""collective_can_infer"":false,""search_locations"":[1],""alter_occluders"":""100"",""ego_occluders"":""011""}","false","","","","","","","","","","","","","","","","","","",""
"","","","","","image-keyboard-response","21","124058","0.0-3.0-18.0","627286792f25495f123cc27b","665500ab8938657b03fbdba8","66579cba74a8e5165543cb6c","681","stimuli/11000111.jpg"," ","","practrice_feedback","1","","","","","","","","","","","","","","","","","","","","",""
"","","","","","image-keyboard-response","22","126029","0.0-3.0-19.0","627286792f25495f123cc27b","665500ab8938657b03fbdba8","66579cba74a8e5165543cb6c","1971","stimuli/2011000.jpg","1","","prediction_practice","2","{""filepath"":""stimuli/2011000.jpg"",""ball_pos"":2,""ego_ball_visible"":true,""ego_can_infer"":true,""alter_ball_visible"":false,""alter_can_infer"":false,""collective_ball_visible"":false,""collective_can_infer"":false,""search_locations"":[2,1],""alter_occluders"":""011"",""ego_occluders"":""000""}","false","","","","","","","","","","","","","","","","","","",""
"","","","","","image-keyboard-response","23","126594","0.0-3.0-20.0","627286792f25495f123cc27b","665500ab8938657b03fbdba8","66579cba74a8e5165543cb6c","565","stimuli/20110002.jpg"," ","","practrice_feedback","2","","","","","","","","","","","","","","","","","","","","",""
"","","","","","html-button-response","24","134319","0.0-3.0-21.0","627286792f25495f123cc27b","665500ab8938657b03fbdba8","66579cba74a8e5165543cb6c","7725","Now that you've had some practice, you'll be tested with a couple of easy trials. If you correctly predict Sam's choice, you'll move on to complete the experiment!","0","","","","","","","","","","","","","","","","","","","","","","","",""
"","","","","","image-keyboard-response","25","135953","0.0-3.0-22.0-0.0","627286792f25495f123cc27b","665500ab8938657b03fbdba8","66579cba74a8e5165543cb6c","1634","stimuli/0000011.jpg","arrowleft","","comprehension_quiz","","","true","arrowleft","","","","","","","","","","","","","","","","","",""
"","","","","","image-keyboard-response","26","136886","0.0-3.0-22.0-1.0","627286792f25495f123cc27b","665500ab8938657b03fbdba8","66579cba74a8e5165543cb6c","933","stimuli/00000110.jpg"," ","","comprehension_quiz","","","true"," ","","","","","","","","","","","","","","","","","",""
"","","","","","image-keyboard-response","27","138319","0.0-3.0-22.0-2.0","627286792f25495f123cc27b","665500ab8938657b03fbdba8","66579cba74a8e5165543cb6c","1433","stimuli/1010010.jpg","arrowdown","","comprehension_quiz","","","true","arrowdown","","","","","","","","","","","","","","","","","",""
"","","","","","image-keyboard-response","28","138966","0.0-3.0-22.0-3.0","627286792f25495f123cc27b","665500ab8938657b03fbdba8","66579cba74a8e5165543cb6c","646","stimuli/10100101.jpg"," ","","comprehension_quiz","","","true"," ","","","","","","","","","","","","","","","","","",""
"","","","","","html-button-response","29","141321","0.0-4.0","627286792f25495f123cc27b","665500ab8938657b03fbdba8","66579cba74a8e5165543cb6c","2354","The experiment will now begin.","0","","","","","","","","","","","","","","","","","","","","","","","",""
"","","","","","image-keyboard-response","30","144049","0.0-5.0","627286792f25495f123cc27b","665500ab8938657b03fbdba8","66579cba74a8e5165543cb6c","2728","stimuli/0010110.jpg","1","","prediction_trial","0","","false","","0","false","false","true","true","false","false","[0]","010","110","0","","","","","","",""
"","","","","","image-keyboard-response","31","144991","0.0-6.0","627286792f25495f123cc27b","665500ab8938657b03fbdba8","66579cba74a8e5165543cb6c","941","stimuli/00101100.jpg"," ","","feedback_trial","0","","","","","","","","","","","","","","","","","","","","",""
"","","","","","image-keyboard-response","32","145891","0.0-7.0","627286792f25495f123cc27b","665500ab8938657b03fbdba8","66579cba74a8e5165543cb6c","900","stimuli/0000001.jpg","0","","prediction_trial","0","","true","","0","true","true","true","true","true","true","[0]","000","001","1","","","","","","",""
"","","","","","image-keyboard-response","33","146447","0.0-8.0","627286792f25495f123cc27b","665500ab8938657b03fbdba8","66579cba74a8e5165543cb6c","555","stimuli/00000010.jpg"," ","","feedback_trial","0","","","","","","","","","","","","","","","","","","","","",""
"","","","","","image-keyboard-response","34","147849","0.0-9.0","627286792f25495f123cc27b","665500ab8938657b03fbdba8","66579cba74a8e5165543cb6c","1401","stimuli/0001110.jpg","1","","prediction_trial","0","","false","","0","false","false","true","true","false","false","[0]","001","110","0","","","","","","",""
"","","","","","image-keyboard-response","35","148454","0.0-10.0","627286792f25495f123cc27b","665500ab8938657b03fbdba8","66579cba74a8e5165543cb6c","606","stimuli/00011100.jpg"," ","","feedback_trial","0","","","","","","","","","","","","","","","","","","","","",""
"","","","","","image-keyboard-response","36","149540","0.0-11.0","627286792f25495f123cc27b","665500ab8938657b03fbdba8","66579cba74a8e5165543cb6c","1086","stimuli/0000101.jpg","2","","prediction_trial","0","","false","","0","false","false","true","true","false","false","[0]","000","101","0","","","","","","",""
"","","","","","image-keyboard-response","37","150093","0.0-12.0","627286792f25495f123cc27b","665500ab8938657b03fbdba8","66579cba74a8e5165543cb6c","553","stimuli/00001010.jpg"," ","","feedback_trial","0","","","","","","","","","","","","","","","","","","","","",""
"","","","","","image-keyboard-response","38","151522","0.0-13.0","627286792f25495f123cc27b","665500ab8938657b03fbdba8","66579cba74a8e5165543cb6c","1428","stimuli/2011100.jpg","1","","prediction_trial","1","","true","","2","true","true","false","false","false","false","[2,1]","011","100","1","","","","","","",""
"","","","","","image-keyboard-response","39","154083","0.0-14.0","627286792f25495f123cc27b","665500ab8938657b03fbdba8","66579cba74a8e5165543cb6c","2561","stimuli/20111001.jpg"," ","","feedback_trial","2","","","","","","","","","","","","","","","","","","","","",""
"","","","","","image-keyboard-response","40","155554","0.0-15.0","627286792f25495f123cc27b","665500ab8938657b03fbdba8","66579cba74a8e5165543cb6c","1471","stimuli/0111010.jpg","2","","prediction_trial","2","","true","","0","true","true","false","false","false","false","[0,2,1]","111","010","1","","","","","","",""
"","","","","","image-keyboard-response","41","156511","0.0-16.0","627286792f25495f123cc27b","665500ab8938657b03fbdba8","66579cba74a8e5165543cb6c","956","stimuli/01110102.jpg"," ","","feedback_trial","0","","","","","","","","","","","","","","","","","","","","",""
"","","","","","image-keyboard-response","42","158581","0.0-17.0","627286792f25495f123cc27b","665500ab8938657b03fbdba8","66579cba74a8e5165543cb6c","2069","stimuli/1110111.jpg","0","","prediction_trial","1","","false","","1","false","false","false","false","false","false","[1,0]","110","111","0","","","","","","",""
"","","","","","image-keyboard-response","43","159196","0.0-18.0","627286792f25495f123cc27b","665500ab8938657b03fbdba8","66579cba74a8e5165543cb6c","615","stimuli/11101111.jpg"," ","","feedback_trial","1","","","","","","","","","","","","","","","","","","","","",""
"","","","","","image-keyboard-response","44","160063","0.0-19.0","627286792f25495f123cc27b","665500ab8938657b03fbdba8","66579cba74a8e5165543cb6c","867","stimuli/0001001.jpg","0","","prediction_trial","0","","true","","0","true","true","true","true","true","true","[0]","001","001","1","","","","","","",""
"","","","","","image-keyboard-response","45","160522","0.0-20.0","627286792f25495f123cc27b","665500ab8938657b03fbdba8","66579cba74a8e5165543cb6c","458","stimuli/00010010.jpg"," ","","feedback_trial","0","","","","","","","","","","","","","","","","","","","","",""
"","","","","","image-keyboard-response","46","161148","0.0-21.0","627286792f25495f123cc27b","665500ab8938657b03fbdba8","66579cba74a8e5165543cb6c","626","stimuli/1001001.jpg","1","","prediction_trial","1","","true","","1","true","true","true","true","true","true","[1]","001","001","1","","","","","","",""
"","","","","","image-keyboard-response","47","161994","0.0-22.0","627286792f25495f123cc27b","665500ab8938657b03fbdba8","66579cba74a8e5165543cb6c","846","stimuli/10010011.jpg"," ","","feedback_trial","1","","","","","","","","","","","","","","","","","","","","",""
"","","","","","image-keyboard-response","48","164100","0.0-23.0","627286792f25495f123cc27b","665500ab8938657b03fbdba8","66579cba74a8e5165543cb6c","2105","stimuli/1011010.jpg","1","","prediction_trial","2","","false","","1","false","true","false","false","false","false","[1,2]","011","010","0","","","","","","",""
"","","","","","image-keyboard-response","49","164703","0.0-24.0","627286792f25495f123cc27b","665500ab8938657b03fbdba8","66579cba74a8e5165543cb6c","603","stimuli/10110102.jpg"," ","","feedback_trial","1","","","","","","","","","","","","","","","","","","","","",""
"","","","","","image-keyboard-response","50","165431","0.0-25.0","627286792f25495f123cc27b","665500ab8938657b03fbdba8","66579cba74a8e5165543cb6c","728","stimuli/1000100.jpg","1","","prediction_trial","1","","true","","1","true","true","true","true","true","true","[1]","000","100","1","","","","","","",""
"","","","","","image-keyboard-response","51","165933","0.0-26.0","627286792f25495f123cc27b","665500ab8938657b03fbdba8","66579cba74a8e5165543cb6c","503","stimuli/10001001.jpg"," ","","feedback_trial","1","","","","","","","","","","","","","","","","","","","","",""
"","","","","","image-keyboard-response","52","166534","0.0-27.0","627286792f25495f123cc27b","665500ab8938657b03fbdba8","66579cba74a8e5165543cb6c","600","stimuli/2000100.jpg","2","","prediction_trial","2","","true","","2","true","true","true","true","true","true","[2]","000","100","1","","","","","","",""
"","","","","","image-keyboard-response","53","167330","0.0-28.0","627286792f25495f123cc27b","665500ab8938657b03fbdba8","66579cba74a8e5165543cb6c","797","stimuli/20001002.jpg"," ","","feedback_trial","2","","","","","","","","","","","","","","","","","","","","",""
"","","","","","image-keyboard-response","54","168008","0.0-29.0","627286792f25495f123cc27b","665500ab8938657b03fbdba8","66579cba74a8e5165543cb6c","678","stimuli/2100010.jpg","2","","prediction_trial","2","","true","","2","true","true","true","true","true","true","[2]","100","010","1","","","","","","",""
"","","","","","image-keyboard-response","55","168657","0.0-30.0","627286792f25495f123cc27b","665500ab8938657b03fbdba8","66579cba74a8e5165543cb6c","648","stimuli/21000102.jpg"," ","","feedback_trial","2","","","","","","","","","","","","","","","","","","","","",""
"","","","","","image-keyboard-response","56","169734","0.0-31.0","627286792f25495f123cc27b","665500ab8938657b03fbdba8","66579cba74a8e5165543cb6c","1077","stimuli/2001011.jpg","2","","prediction_trial","2","","true","","2","false","false","false","true","false","false","[2]","001","011","1","","","","","","",""
"","","","","","image-keyboard-response","57","170616","0.0-32.0","627286792f25495f123cc27b","665500ab8938657b03fbdba8","66579cba74a8e5165543cb6c","882","stimuli/20010112.jpg"," ","","feedback_trial","2","","","","","","","","","","","","","","","","","","","","",""
"","","","","","image-keyboard-response","58","171755","0.0-33.0","627286792f25495f123cc27b","665500ab8938657b03fbdba8","66579cba74a8e5165543cb6c","1139","stimuli/1010010.jpg","1","","prediction_trial","1","","true","","1","false","true","false","true","false","true","[1]","010","010","1","","","","","","",""
"","","","","","image-keyboard-response","59","172358","0.0-34.0","627286792f25495f123cc27b","665500ab8938657b03fbdba8","66579cba74a8e5165543cb6c","602","stimuli/10100101.jpg"," ","","feedback_trial","1","","","","","","","","","","","","","","","","","","","","",""
"","","","","","image-keyboard-response","60","173044","0.0-35.0","627286792f25495f123cc27b","665500ab8938657b03fbdba8","66579cba74a8e5165543cb6c","686","stimuli/0010001.jpg","0","","prediction_trial","0","","true","","0","true","true","true","true","true","true","[0]","010","001","1","","","","","","",""
"","","","","","image-keyboard-response","61","173661","0.0-36.0","627286792f25495f123cc27b","665500ab8938657b03fbdba8","66579cba74a8e5165543cb6c","617","stimuli/00100010.jpg"," ","","feedback_trial","0","","","","","","","","","","","","","","","","","","","","",""
"","","","","","image-keyboard-response","62","174762","0.0-37.0","627286792f25495f123cc27b","665500ab8938657b03fbdba8","66579cba74a8e5165543cb6c","1100","stimuli/1110010.jpg","1","","prediction_trial","1","","true","","1","false","true","false","false","false","false","[0,1]","110","010","1","","","","","","",""
"","","","","","image-keyboard-response","63","175865","0.0-38.0","627286792f25495f123cc27b","665500ab8938657b03fbdba8","66579cba74a8e5165543cb6c","1103","stimuli/11100101.jpg"," ","","feedback_trial","0","","","","","","","","","","","","","","","","","","","","",""
"","","","","","image-keyboard-response","64","176615","0.0-39.0","627286792f25495f123cc27b","665500ab8938657b03fbdba8","66579cba74a8e5165543cb6c","750","stimuli/0110100.jpg","0","","prediction_trial","0","","true","","0","false","true","false","false","false","false","[0,1]","110","100","1","","","","","","",""
"","","","","","image-keyboard-response","65","177339","0.0-40.0","627286792f25495f123cc27b","665500ab8938657b03fbdba8","66579cba74a8e5165543cb6c","724","stimuli/01101000.jpg"," ","","feedback_trial","0","","","","","","","","","","","","","","","","","","","","",""
"","","","","","image-keyboard-response","66","178455","0.0-41.0","627286792f25495f123cc27b","665500ab8938657b03fbdba8","66579cba74a8e5165543cb6c","1116","stimuli/0101010.jpg","0","","prediction_trial","0","","true","","0","true","true","false","false","false","false","[2,0]","101","010","1","","","","","","",""
"","","","","","image-keyboard-response","67","179093","0.0-42.0","627286792f25495f123cc27b","665500ab8938657b03fbdba8","66579cba74a8e5165543cb6c","637","stimuli/01010100.jpg"," ","","feedback_trial","2","","","","","","","","","","","","","","","","","","","","",""
"","","","","","image-keyboard-response","68","180362","0.0-43.0","627286792f25495f123cc27b","665500ab8938657b03fbdba8","66579cba74a8e5165543cb6c","1269","stimuli/0100101.jpg","2","","prediction_trial","0","","false","","0","false","false","false","true","false","false","[0]","100","101","0","","","","","","",""
"","","","","","image-keyboard-response","69","181413","0.0-44.0","627286792f25495f123cc27b","665500ab8938657b03fbdba8","66579cba74a8e5165543cb6c","1051","stimuli/01001010.jpg"," ","","feedback_trial","0","","","","","","","","","","","","","","","","","","","","",""
"","","","","","image-keyboard-response","70","183698","0.0-45.0","627286792f25495f123cc27b","665500ab8938657b03fbdba8","66579cba74a8e5165543cb6c","2285","stimuli/2111101.jpg","2","","prediction_trial","1","","false","","2","false","false","false","false","false","false","[1,2,0]","111","101","0","","","","","","",""
"","","","","","image-keyboard-response","71","185446","0.0-46.0","627286792f25495f123cc27b","665500ab8938657b03fbdba8","66579cba74a8e5165543cb6c","1748","stimuli/21111011.jpg"," ","","feedback_trial","1","","","","","","","","","","","","","","","","","","","","",""
"","","","","","image-keyboard-response","72","186243","0.0-47.0","627286792f25495f123cc27b","665500ab8938657b03fbdba8","66579cba74a8e5165543cb6c","797","stimuli/2010110.jpg","2","","prediction_trial","2","","true","","2","true","true","true","true","true","true","[2]","010","110","1","","","","","","",""
"","","","","","image-keyboard-response","73","186676","0.0-48.0","627286792f25495f123cc27b","665500ab8938657b03fbdba8","66579cba74a8e5165543cb6c","432","stimuli/20101102.jpg"," ","","feedback_trial","2","","","","","","","","","","","","","","","","","","","","",""
"","","","","","image-keyboard-response","74","187665","0.0-49.0","627286792f25495f123cc27b","665500ab8938657b03fbdba8","66579cba74a8e5165543cb6c","989","stimuli/1110001.jpg","1","","prediction_trial","0","","false","","1","true","true","false","false","false","false","[1,0]","110","001","0","","","","","","",""
"","","","","","image-keyboard-response","75","189056","0.0-50.0","627286792f25495f123cc27b","665500ab8938657b03fbdba8","66579cba74a8e5165543cb6c","1391","stimuli/11100010.jpg"," ","","feedback_trial","1","","","","","","","","","","","","","","","","","","","","",""
"","","","","","image-keyboard-response","76","192111","0.0-51.0","627286792f25495f123cc27b","665500ab8938657b03fbdba8","66579cba74a8e5165543cb6c","3055","stimuli/2001101.jpg","2","","prediction_trial","2","","true","","2","false","false","false","true","false","false","[2]","001","101","1","","","","","","",""
"","","","","","image-keyboard-response","77","193137","0.0-52.0","627286792f25495f123cc27b","665500ab8938657b03fbdba8","66579cba74a8e5165543cb6c","1025","stimuli/20011012.jpg"," ","","feedback_trial","2","","","","","","","","","","","","","","","","","","","","",""
"","","","","","image-keyboard-response","78","195537","0.0-53.0","627286792f25495f123cc27b","665500ab8938657b03fbdba8","66579cba74a8e5165543cb6c","2400","stimuli/1011100.jpg","1","","prediction_trial","2","","false","","1","true","true","false","false","false","false","[2,1]","011","100","0","","","","","","",""
"","","","","","image-keyboard-response","79","196175","0.0-54.0","627286792f25495f123cc27b","665500ab8938657b03fbdba8","66579cba74a8e5165543cb6c","638","stimuli/10111002.jpg"," ","","feedback_trial","2","","","","","","","","","","","","","","","","","","","","",""
"","","","","","image-keyboard-response","80","197989","0.0-55.0","627286792f25495f123cc27b","665500ab8938657b03fbdba8","66579cba74a8e5165543cb6c","1814","stimuli/0011111.jpg","2","","prediction_trial","0","","false","","0","false","false","true","true","false","false","[0]","011","111","0","","","","","","",""
"","","","","","image-keyboard-response","81","198694","0.0-56.0","627286792f25495f123cc27b","665500ab8938657b03fbdba8","66579cba74a8e5165543cb6c","705","stimuli/00111110.jpg"," ","","feedback_trial","0","","","","","","","","","","","","","","","","","","","","",""
"","","","","","image-keyboard-response","82","200052","0.0-57.0","627286792f25495f123cc27b","665500ab8938657b03fbdba8","66579cba74a8e5165543cb6c","1358","stimuli/0110111.jpg","2","","prediction_trial","0","","false","","0","false","false","false","false","false","false","[0,1]","110","111","0","","","","","","",""
"","","","","","image-keyboard-response","83","200580","0.0-58.0","627286792f25495f123cc27b","665500ab8938657b03fbdba8","66579cba74a8e5165543cb6c","527","stimuli/01101110.jpg"," ","","feedback_trial","0","","","","","","","","","","","","","","","","","","","","",""
"","","","","","image-keyboard-response","84","203024","0.0-59.0","627286792f25495f123cc27b","665500ab8938657b03fbdba8","66579cba74a8e5165543cb6c","2444","stimuli/2010001.jpg","2","","prediction_trial","2","","true","","2","false","true","true","true","false","true","[2]","010","001","1","","","","","","",""
"","","","","","image-keyboard-response","85","203766","0.0-60.0","627286792f25495f123cc27b","665500ab8938657b03fbdba8","66579cba74a8e5165543cb6c","742","stimuli/20100012.jpg"," ","","feedback_trial","2","","","","","","","","","","","","","","","","","","","","",""
"","","","","","image-keyboard-response","86","204482","0.0-61.0","627286792f25495f123cc27b","665500ab8938657b03fbdba8","66579cba74a8e5165543cb6c","715","stimuli/0010010.jpg","0","","prediction_trial","0","","true","","0","true","true","true","true","true","true","[0]","010","010","1","","","","","","",""
"","","","","","image-keyboard-response","87","205003","0.0-62.0","627286792f25495f123cc27b","665500ab8938657b03fbdba8","66579cba74a8e5165543cb6c","521","stimuli/00100100.jpg"," ","","feedback_trial","0","","","","","","","","","","","","","","","","","","","","",""
"","","","","","image-keyboard-response","88","206393","0.0-63.0","627286792f25495f123cc27b","665500ab8938657b03fbdba8","66579cba74a8e5165543cb6c","1390","stimuli/1011000.jpg","1","","prediction_trial","2","","false","","1","true","true","false","false","false","false","[2,1]","011","000","0","","","","","","",""
"","","","","","image-keyboard-response","89","207223","0.0-64.0","627286792f25495f123cc27b","665500ab8938657b03fbdba8","66579cba74a8e5165543cb6c","830","stimuli/10110002.jpg"," ","","feedback_trial","2","","","","","","","","","","","","","","","","","","","","",""
"","","","","","image-keyboard-response","90","209956","0.0-65.0","627286792f25495f123cc27b","665500ab8938657b03fbdba8","66579cba74a8e5165543cb6c","2733","stimuli/2010011.jpg","2","","prediction_trial","2","","true","","2","false","false","true","true","false","false","[2]","010","011","1","","","","","","",""
"","","","","","image-keyboard-response","91","210627","0.0-66.0","627286792f25495f123cc27b","665500ab8938657b03fbdba8","66579cba74a8e5165543cb6c","670","stimuli/20100112.jpg"," ","","feedback_trial","2","","","","","","","","","","","","","","","","","","","","",""
"","","","","","image-keyboard-response","92","211850","0.0-67.0","627286792f25495f123cc27b","665500ab8938657b03fbdba8","66579cba74a8e5165543cb6c","1223","stimuli/1010100.jpg","1","","prediction_trial","1","","true","","1","true","true","false","true","false","true","[1]","010","100","1","","","","","","",""
"","","","","","image-keyboard-response","93","212632","0.0-68.0","627286792f25495f123cc27b","665500ab8938657b03fbdba8","66579cba74a8e5165543cb6c","782","stimuli/10101001.jpg"," ","","feedback_trial","1","","","","","","","","","","","","","","","","","","","","",""
"","","","","","image-keyboard-response","94","213765","0.0-69.0","627286792f25495f123cc27b","665500ab8938657b03fbdba8","66579cba74a8e5165543cb6c","1133","stimuli/2000111.jpg","2","","prediction_trial","2","","true","","2","false","false","true","true","false","false","[2]","000","111","1","","","","","","",""
"","","","","","image-keyboard-response","95","214364","0.0-70.0","627286792f25495f123cc27b","665500ab8938657b03fbdba8","66579cba74a8e5165543cb6c","599","stimuli/20001112.jpg"," ","","feedback_trial","2","","","","","","","","","","","","","","","","","","","","",""
"","","","","","image-keyboard-response","96","215813","0.0-71.0","627286792f25495f123cc27b","665500ab8938657b03fbdba8","66579cba74a8e5165543cb6c","1449","stimuli/2110111.jpg","0","","prediction_trial","2","","false","","2","false","false","true","true","false","false","[2]","110","111","0","","","","","","",""
"","","","","","image-keyboard-response","97","216539","0.0-72.0","627286792f25495f123cc27b","665500ab8938657b03fbdba8","66579cba74a8e5165543cb6c","725","stimuli/21101112.jpg"," ","","feedback_trial","2","","","","","","","","","","","","","","","","","","","","",""
"","","","","","image-keyboard-response","98","218333","0.0-73.0","627286792f25495f123cc27b","665500ab8938657b03fbdba8","66579cba74a8e5165543cb6c","1794","stimuli/2001110.jpg","2","","prediction_trial","2","","true","","2","true","true","false","true","false","true","[2]","001","110","1","","","","","","",""
"","","","","","image-keyboard-response","99","218893","0.0-74.0","627286792f25495f123cc27b","665500ab8938657b03fbdba8","66579cba74a8e5165543cb6c","560","stimuli/20011102.jpg"," ","","feedback_trial","2","","","","","","","","","","","","","","","","","","","","",""
"","","","","","image-keyboard-response","100","220081","0.0-75.0","627286792f25495f123cc27b","665500ab8938657b03fbdba8","66579cba74a8e5165543cb6c","1188","stimuli/2001010.jpg","2","","prediction_trial","2","","true","","2","true","true","false","true","false","true","[2]","001","010","1","","","","","","",""
"","","","","","image-keyboard-response","101","220582","0.0-76.0","627286792f25495f123cc27b","665500ab8938657b03fbdba8","66579cba74a8e5165543cb6c","501","stimuli/20010102.jpg"," ","","feedback_trial","2","","","","","","","","","","","","","","","","","","","","",""
"","","","","","image-keyboard-response","102","222145","0.0-77.0","627286792f25495f123cc27b","665500ab8938657b03fbdba8","66579cba74a8e5165543cb6c","1563","stimuli/2101111.jpg","2","","prediction_trial","0","","false","","2","false","false","false","false","false","false","[0,2]","101","111","0","","","","","","",""
"","","","","","image-keyboard-response","103","222724","0.0-78.0","627286792f25495f123cc27b","665500ab8938657b03fbdba8","66579cba74a8e5165543cb6c","578","stimuli/21011110.jpg"," ","","feedback_trial","0","","","","","","","","","","","","","","","","","","","","",""
"","","","","","image-keyboard-response","104","223604","0.0-79.0","627286792f25495f123cc27b","665500ab8938657b03fbdba8","66579cba74a8e5165543cb6c","880","stimuli/0111011.jpg","0","","prediction_trial","2","","false","","0","true","true","false","false","false","false","[0,1,2]","111","011","0","","","","","","",""
"","","","","","image-keyboard-response","105","224195","0.0-80.0","627286792f25495f123cc27b","665500ab8938657b03fbdba8","66579cba74a8e5165543cb6c","591","stimuli/01110112.jpg"," ","","feedback_trial","0","","","","","","","","","","","","","","","","","","","","",""
"","","","","","image-keyboard-response","106","225020","0.0-81.0","627286792f25495f123cc27b","665500ab8938657b03fbdba8","66579cba74a8e5165543cb6c","825","stimuli/1111100.jpg","1","","prediction_trial","0","","false","","1","true","true","false","false","false","false","[1,0,2]","111","100","0","","","","","","",""
"","","","","","image-keyboard-response","107","225653","0.0-82.0","627286792f25495f123cc27b","665500ab8938657b03fbdba8","66579cba74a8e5165543cb6c","633","stimuli/11111000.jpg"," ","","feedback_trial","1","","","","","","","","","","","","","","","","","","","","",""
"","","","","","image-keyboard-response","108","226635","0.0-83.0","627286792f25495f123cc27b","665500ab8938657b03fbdba8","66579cba74a8e5165543cb6c","982","stimuli/0111111.jpg","2","","prediction_trial","1","","false","","0","false","false","false","false","false","false","[0,1,2]","111","111","0","","","","","","",""
"","","","","","image-keyboard-response","109","227239","0.0-84.0","627286792f25495f123cc27b","665500ab8938657b03fbdba8","66579cba74a8e5165543cb6c","604","stimuli/01111111.jpg"," ","","feedback_trial","0","","","","","","","","","","","","","","","","","","","","",""
"","","","","","image-keyboard-response","110","228792","0.0-85.0","627286792f25495f123cc27b","665500ab8938657b03fbdba8","66579cba74a8e5165543cb6c","1553","stimuli/2011101.jpg","2","","prediction_trial","1","","false","","2","false","false","false","false","false","false","[1,2]","011","101","0","","","","","","",""
"","","","","","image-keyboard-response","111","229712","0.0-86.0","627286792f25495f123cc27b","665500ab8938657b03fbdba8","66579cba74a8e5165543cb6c","919","stimuli/20111011.jpg"," ","","feedback_trial","1","","","","","","","","","","","","","","","","","","","","",""
"","","","","","image-keyboard-response","112","230661","0.0-87.0","627286792f25495f123cc27b","665500ab8938657b03fbdba8","66579cba74a8e5165543cb6c","949","stimuli/1011001.jpg","1","","prediction_trial","2","","false","","1","true","true","false","false","false","false","[1,2]","011","001","0","","","","","","",""
"","","","","","image-keyboard-response","113","231246","0.0-88.0","627286792f25495f123cc27b","665500ab8938657b03fbdba8","66579cba74a8e5165543cb6c","585","stimuli/10110012.jpg"," ","","feedback_trial","1","","","","","","","","","","","","","","","","","","","","",""
"","","","","","image-keyboard-response","114","232397","0.0-89.0","627286792f25495f123cc27b","665500ab8938657b03fbdba8","66579cba74a8e5165543cb6c","1151","stimuli/2111011.jpg","2","","prediction_trial","0","","false","","2","false","false","false","false","false","false","[1,0,2]","111","011","0","","","","","","",""
"","","","","","image-keyboard-response","115","233106","0.0-90.0","627286792f25495f123cc27b","665500ab8938657b03fbdba8","66579cba74a8e5165543cb6c","709","stimuli/21110110.jpg"," ","","feedback_trial","1","","","","","","","","","","","","","","","","","","","","",""
"","","","","","image-keyboard-response","116","235008","0.0-91.0","627286792f25495f123cc27b","665500ab8938657b03fbdba8","66579cba74a8e5165543cb6c","1902","stimuli/0010100.jpg","0","","prediction_trial","0","","true","","0","false","true","true","true","false","true","[0]","010","100","1","","","","","","",""
"","","","","","image-keyboard-response","117","235539","0.0-92.0","627286792f25495f123cc27b","665500ab8938657b03fbdba8","66579cba74a8e5165543cb6c","531","stimuli/00101000.jpg"," ","","feedback_trial","0","","","","","","","","","","","","","","","","","","","","",""
"","","","","","image-keyboard-response","118","237583","0.0-93.0","627286792f25495f123cc27b","665500ab8938657b03fbdba8","66579cba74a8e5165543cb6c","2044","stimuli/1000111.jpg","1","","prediction_trial","1","","true","","1","false","false","true","true","false","false","[1]","000","111","1","","","","","","",""
"","","","","","image-keyboard-response","119","238104","0.0-94.0","627286792f25495f123cc27b","665500ab8938657b03fbdba8","66579cba74a8e5165543cb6c","521","stimuli/10001111.jpg"," ","","feedback_trial","1","","","","","","","","","","","","","","","","","","","","",""
"","","","","","image-keyboard-response","120","239099","0.0-95.0","627286792f25495f123cc27b","665500ab8938657b03fbdba8","66579cba74a8e5165543cb6c","995","stimuli/1111101.jpg","1","","prediction_trial","0","","false","","1","true","true","false","false","false","false","[0,1,2]","111","101","0","","","","","","",""
"","","","","","image-keyboard-response","121","239616","0.0-96.0","627286792f25495f123cc27b","665500ab8938657b03fbdba8","66579cba74a8e5165543cb6c","516","stimuli/11111010.jpg"," ","","feedback_trial","0","","","","","","","","","","","","","","","","","","","","",""
"","","","","","image-keyboard-response","122","241449","0.0-97.0","627286792f25495f123cc27b","665500ab8938657b03fbdba8","66579cba74a8e5165543cb6c","1833","stimuli/1101111.jpg","2","","prediction_trial","1","","false","","1","false","false","true","true","false","false","[1]","101","111","0","","","","","","",""
"","","","","","image-keyboard-response","123","241888","0.0-98.0","627286792f25495f123cc27b","665500ab8938657b03fbdba8","66579cba74a8e5165543cb6c","439","stimuli/11011111.jpg"," ","","feedback_trial","1","","","","","","","","","","","","","","","","","","","","",""
"","","","","","image-keyboard-response","124","242896","0.0-99.0","627286792f25495f123cc27b","665500ab8938657b03fbdba8","66579cba74a8e5165543cb6c","1008","stimuli/1110000.jpg","1","","prediction_trial","1","","true","","1","true","true","false","false","false","false","[0,1]","110","000","1","","","","","","",""
"","","","","","image-keyboard-response","125","243355","0.0-100.0","627286792f25495f123cc27b","665500ab8938657b03fbdba8","66579cba74a8e5165543cb6c","459","stimuli/11100001.jpg"," ","","feedback_trial","0","","","","","","","","","","","","","","","","","","","","",""
"","","","","","image-keyboard-response","126","244316","0.0-101.0","627286792f25495f123cc27b","665500ab8938657b03fbdba8","66579cba74a8e5165543cb6c","961","stimuli/0100001.jpg","0","","prediction_trial","0","","true","","0","true","true","false","true","false","true","[0]","100","001","1","","","","","","",""
"","","","","","image-keyboard-response","127","244751","0.0-102.0","627286792f25495f123cc27b","665500ab8938657b03fbdba8","66579cba74a8e5165543cb6c","435","stimuli/01000010.jpg"," ","","feedback_trial","0","","","","","","","","","","","","","","","","","","","","",""
"","","","","","image-keyboard-response","128","245573","0.0-103.0","627286792f25495f123cc27b","665500ab8938657b03fbdba8","66579cba74a8e5165543cb6c","822","stimuli/2100110.jpg","2","","prediction_trial","2","","true","","2","true","true","true","true","true","true","[2]","100","110","1","","","","","","",""
"","","","","","image-keyboard-response","129","245988","0.0-104.0","627286792f25495f123cc27b","665500ab8938657b03fbdba8","66579cba74a8e5165543cb6c","414","stimuli/21001102.jpg"," ","","feedback_trial","2","","","","","","","","","","","","","","","","","","","","",""
"","","","","","image-keyboard-response","130","247606","0.0-105.0","627286792f25495f123cc27b","665500ab8938657b03fbdba8","66579cba74a8e5165543cb6c","1618","stimuli/1001110.jpg","0","","prediction_trial","1","","false","","1","false","false","true","true","false","false","[1]","001","110","0","","","","","","",""
"","","","","","image-keyboard-response","131","248080","0.0-106.0","627286792f25495f123cc27b","665500ab8938657b03fbdba8","66579cba74a8e5165543cb6c","474","stimuli/10011101.jpg"," ","","feedback_trial","1","","","","","","","","","","","","","","","","","","","","",""
"","","","","","image-keyboard-response","132","249175","0.0-107.0","627286792f25495f123cc27b","665500ab8938657b03fbdba8","66579cba74a8e5165543cb6c","1095","stimuli/2010101.jpg","2","","prediction_trial","2","","true","","2","false","false","true","true","false","false","[2]","010","101","1","","","","","","",""
"","","","","","image-keyboard-response","133","249870","0.0-108.0","627286792f25495f123cc27b","665500ab8938657b03fbdba8","66579cba74a8e5165543cb6c","694","stimuli/20101012.jpg"," ","","feedback_trial","2","","","","","","","","","","","","","","","","","","","","",""
"","","","","","image-keyboard-response","134","250880","0.0-109.0","627286792f25495f123cc27b","665500ab8938657b03fbdba8","66579cba74a8e5165543cb6c","1011","stimuli/1101100.jpg","1","","prediction_trial","1","","true","","1","true","true","true","true","true","true","[1]","101","100","1","","","","","","",""
"","","","","","image-keyboard-response","135","251448","0.0-110.0","627286792f25495f123cc27b","665500ab8938657b03fbdba8","66579cba74a8e5165543cb6c","567","stimuli/11011001.jpg"," ","","feedback_trial","1","","","","","","","","","","","","","","","","","","","","",""
"","","","","","image-keyboard-response","136","252171","0.0-111.0","627286792f25495f123cc27b","665500ab8938657b03fbdba8","66579cba74a8e5165543cb6c","723","stimuli/1001101.jpg","1","","prediction_trial","1","","true","","1","true","true","true","true","true","true","[1]","001","101","1","","","","","","",""
"","","","","","image-keyboard-response","137","252611","0.0-112.0","627286792f25495f123cc27b","665500ab8938657b03fbdba8","66579cba74a8e5165543cb6c","440","stimuli/10011011.jpg"," ","","feedback_trial","1","","","","","","","","","","","","","","","","","","","","",""
"","","","","","image-keyboard-response","138","254950","0.0-113.0","627286792f25495f123cc27b","665500ab8938657b03fbdba8","66579cba74a8e5165543cb6c","2339","stimuli/1010110.jpg","0","","prediction_trial","1","","false","","1","false","false","false","true","false","false","[1]","010","110","0","","","","","","",""
"","","","","","image-keyboard-response","139","255523","0.0-114.0","627286792f25495f123cc27b","665500ab8938657b03fbdba8","66579cba74a8e5165543cb6c","573","stimuli/10101101.jpg"," ","","feedback_trial","1","","","","","","","","","","","","","","","","","","","","",""
"","","","","","image-keyboard-response","140","257733","0.0-115.0","627286792f25495f123cc27b","665500ab8938657b03fbdba8","66579cba74a8e5165543cb6c","2209","stimuli/1011110.jpg","1","","prediction_trial","1","","true","","1","false","false","false","false","false","false","[2,1]","011","110","1","","","","","","",""
"","","","","","image-keyboard-response","141","258256","0.0-116.0","627286792f25495f123cc27b","665500ab8938657b03fbdba8","66579cba74a8e5165543cb6c","523","stimuli/10111101.jpg"," ","","feedback_trial","2","","","","","","","","","","","","","","","","","","","","",""
"","","","","","image-keyboard-response","142","259927","0.0-117.0","627286792f25495f123cc27b","665500ab8938657b03fbdba8","66579cba74a8e5165543cb6c","1671","stimuli/2010111.jpg","1","","prediction_trial","2","","false","","2","false","false","true","true","false","false","[2]","010","111","0","","","","","","",""
"","","","","","image-keyboard-response","143","260961","0.0-118.0","627286792f25495f123cc27b","665500ab8938657b03fbdba8","66579cba74a8e5165543cb6c","1034","stimuli/20101112.jpg"," ","","feedback_trial","2","","","","","","","","","","","","","","","","","","","","",""
"","","","","","image-keyboard-response","144","261953","0.0-119.0","627286792f25495f123cc27b","665500ab8938657b03fbdba8","66579cba74a8e5165543cb6c","992","stimuli/0110011.jpg","0","","prediction_trial","0","","true","","0","true","true","false","false","false","false","[0,1]","110","011","1","","","","","","",""
"","","","","","image-keyboard-response","145","262658","0.0-120.0","627286792f25495f123cc27b","665500ab8938657b03fbdba8","66579cba74a8e5165543cb6c","704","stimuli/01100110.jpg"," ","","feedback_trial","0","","","","","","","","","","","","","","","","","","","","",""
"","","","","","image-keyboard-response","146","263316","0.0-121.0","627286792f25495f123cc27b","665500ab8938657b03fbdba8","66579cba74a8e5165543cb6c","658","stimuli/2110010.jpg","2","","prediction_trial","2","","true","","2","true","true","true","true","true","true","[2]","110","010","1","","","","","","",""
"","","","","","image-keyboard-response","147","263766","0.0-122.0","627286792f25495f123cc27b","665500ab8938657b03fbdba8","66579cba74a8e5165543cb6c","449","stimuli/21100102.jpg"," ","","feedback_trial","2","","","","","","","","","","","","","","","","","","","","",""
"","","","","","image-keyboard-response","148","264616","0.0-123.0","627286792f25495f123cc27b","665500ab8938657b03fbdba8","66579cba74a8e5165543cb6c","850","stimuli/0000111.jpg","2","","prediction_trial","0","","false","","0","false","false","true","true","false","false","[0]","000","111","0","","","","","","",""
"","","","","","image-keyboard-response","149","265126","0.0-124.0","627286792f25495f123cc27b","665500ab8938657b03fbdba8","66579cba74a8e5165543cb6c","509","stimuli/00001110.jpg"," ","","feedback_trial","0","","","","","","","","","","","","","","","","","","","","",""
"","","","","","image-keyboard-response","150","266074","0.0-125.0","627286792f25495f123cc27b","665500ab8938657b03fbdba8","66579cba74a8e5165543cb6c","948","stimuli/2001100.jpg","2","","prediction_trial","2","","true","","2","true","true","false","true","false","true","[2]","001","100","1","","","","","","",""
"","","","","","image-keyboard-response","151","267204","0.0-126.0","627286792f25495f123cc27b","665500ab8938657b03fbdba8","66579cba74a8e5165543cb6c","1130","stimuli/20011002.jpg"," ","","feedback_trial","2","","","","","","","","","","","","","","","","","","","","",""
"","","","","","image-keyboard-response","152","267796","0.0-127.0","627286792f25495f123cc27b","665500ab8938657b03fbdba8","66579cba74a8e5165543cb6c","591","stimuli/2111010.jpg","2","","prediction_trial","0","","false","","2","true","true","false","false","false","false","[1,2,0]","111","010","0","","","","","","",""
"","","","","","image-keyboard-response","153","268431","0.0-128.0","627286792f25495f123cc27b","665500ab8938657b03fbdba8","66579cba74a8e5165543cb6c","635","stimuli/21110100.jpg"," ","","feedback_trial","1","","","","","","","","","","","","","","","","","","","","",""
"","","","","","image-keyboard-response","154","269018","0.0-129.0","627286792f25495f123cc27b","665500ab8938657b03fbdba8","66579cba74a8e5165543cb6c","587","stimuli/2111110.jpg","2","","prediction_trial","2","","true","","2","true","true","false","false","false","false","[2,0,1]","111","110","1","","","","","","",""
"","","","","","image-keyboard-response","155","269612","0.0-130.0","627286792f25495f123cc27b","665500ab8938657b03fbdba8","66579cba74a8e5165543cb6c","593","stimuli/21111102.jpg"," ","","feedback_trial","2","","","","","","","","","","","","","","","","","","","","",""
"","","","","","image-keyboard-response","156","270270","0.0-131.0","627286792f25495f123cc27b","665500ab8938657b03fbdba8","66579cba74a8e5165543cb6c","658","stimuli/2010000.jpg","2","","prediction_trial","2","","true","","2","true","true","true","true","true","true","[2]","010","000","1","","","","","","",""
"","","","","","image-keyboard-response","157","270727","0.0-132.0","627286792f25495f123cc27b","665500ab8938657b03fbdba8","66579cba74a8e5165543cb6c","457","stimuli/20100002.jpg"," ","","feedback_trial","2","","","","","","","","","","","","","","","","","","","","",""
"","","","","","image-keyboard-response","158","271361","0.0-133.0","627286792f25495f123cc27b","665500ab8938657b03fbdba8","66579cba74a8e5165543cb6c","633","stimuli/0100010.jpg","0","","prediction_trial","0","","true","","0","true","true","false","true","false","true","[0]","100","010","1","","","","","","",""
"","","","","","image-keyboard-response","159","272006","0.0-134.0","627286792f25495f123cc27b","665500ab8938657b03fbdba8","66579cba74a8e5165543cb6c","646","stimuli/01000100.jpg"," ","","feedback_trial","0","","","","","","","","","","","","","","","","","","","","",""
"","","","","","image-keyboard-response","160","272592","0.0-135.0","627286792f25495f123cc27b","665500ab8938657b03fbdba8","66579cba74a8e5165543cb6c","585","stimuli/2101000.jpg","2","","prediction_trial","0","","false","","2","true","true","false","false","false","false","[0,2]","101","000","0","","","","","","",""
"","","","","","image-keyboard-response","161","273200","0.0-136.0","627286792f25495f123cc27b","665500ab8938657b03fbdba8","66579cba74a8e5165543cb6c","607","stimuli/21010000.jpg"," ","","feedback_trial","0","","","","","","","","","","","","","","","","","","","","",""
"","","","","","image-keyboard-response","162","273965","0.0-137.0","627286792f25495f123cc27b","665500ab8938657b03fbdba8","66579cba74a8e5165543cb6c","765","stimuli/1101101.jpg","1","","prediction_trial","1","","true","","1","true","true","true","true","true","true","[1]","101","101","1","","","","","","",""
"","","","","","image-keyboard-response","163","274588","0.0-138.0","627286792f25495f123cc27b","665500ab8938657b03fbdba8","66579cba74a8e5165543cb6c","623","stimuli/11011011.jpg"," ","","feedback_trial","1","","","","","","","","","","","","","","","","","","","","",""
"","","","","","image-keyboard-response","164","275136","0.0-139.0","627286792f25495f123cc27b","665500ab8938657b03fbdba8","66579cba74a8e5165543cb6c","548","stimuli/1100001.jpg","1","","prediction_trial","1","","true","","1","true","true","true","true","true","true","[1]","100","001","1","","","","","","",""
"","","","","","image-keyboard-response","165","275614","0.0-140.0","627286792f25495f123cc27b","665500ab8938657b03fbdba8","66579cba74a8e5165543cb6c","477","stimuli/11000011.jpg"," ","","feedback_trial","1","","","","","","","","","","","","","","","","","","","","",""
"","","","","","image-keyboard-response","166","277175","0.0-141.0","627286792f25495f123cc27b","665500ab8938657b03fbdba8","66579cba74a8e5165543cb6c","1561","stimuli/1001010.jpg","1","","prediction_trial","1","","true","","1","false","true","true","true","false","true","[1]","001","010","1","","","","","","",""
"","","","","","image-keyboard-response","167","277627","0.0-142.0","627286792f25495f123cc27b","665500ab8938657b03fbdba8","66579cba74a8e5165543cb6c","452","stimuli/10010101.jpg"," ","","feedback_trial","1","","","","","","","","","","","","","","","","","","","","",""
"","","","","","image-keyboard-response","168","278327","0.0-143.0","627286792f25495f123cc27b","665500ab8938657b03fbdba8","66579cba74a8e5165543cb6c","700","stimuli/0011011.jpg","0","","prediction_trial","0","","true","","0","true","true","true","true","true","true","[0]","011","011","1","","","","","","",""
"","","","","","image-keyboard-response","169","279205","0.0-144.0","627286792f25495f123cc27b","665500ab8938657b03fbdba8","66579cba74a8e5165543cb6c","878","stimuli/00110110.jpg"," ","","feedback_trial","0","","","","","","","","","","","","","","","","","","","","",""
"","","","","","image-keyboard-response","170","280264","0.0-145.0","627286792f25495f123cc27b","665500ab8938657b03fbdba8","66579cba74a8e5165543cb6c","1059","stimuli/1100010.jpg","1","","prediction_trial","1","","true","","1","false","true","true","true","false","true","[1]","100","010","1","","","","","","",""
"","","","","","image-keyboard-response","171","281014","0.0-146.0","627286792f25495f123cc27b","665500ab8938657b03fbdba8","66579cba74a8e5165543cb6c","749","stimuli/11000101.jpg"," ","","feedback_trial","1","","","","","","","","","","","","","","","","","","","","",""
"","","","","","image-keyboard-response","172","281586","0.0-147.0","627286792f25495f123cc27b","665500ab8938657b03fbdba8","66579cba74a8e5165543cb6c","572","stimuli/2000000.jpg","2","","prediction_trial","2","","true","","2","true","true","true","true","true","true","[2]","000","000","1","","","","","","",""
"","","","","","image-keyboard-response","173","282157","0.0-148.0","627286792f25495f123cc27b","665500ab8938657b03fbdba8","66579cba74a8e5165543cb6c","570","stimuli/20000002.jpg"," ","","feedback_trial","2","","","","","","","","","","","","","","","","","","","","",""
"","","","","","image-keyboard-response","174","283685","0.0-149.0","627286792f25495f123cc27b","665500ab8938657b03fbdba8","66579cba74a8e5165543cb6c","1528","stimuli/1100011.jpg","1","","prediction_trial","1","","true","","1","false","false","true","true","false","false","[1]","100","011","1","","","","","","",""
"","","","","","image-keyboard-response","175","284299","0.0-150.0","627286792f25495f123cc27b","665500ab8938657b03fbdba8","66579cba74a8e5165543cb6c","613","stimuli/11000111.jpg"," ","","feedback_trial","1","","","","","","","","","","","","","","","","","","","","",""
"","","","","","image-keyboard-response","176","285105","0.0-151.0","627286792f25495f123cc27b","665500ab8938657b03fbdba8","66579cba74a8e5165543cb6c","806","stimuli/0101110.jpg","1","","prediction_trial","2","","false","","0","false","false","false","false","false","false","[0,2]","101","110","0","","","","","","",""
"","","","","","image-keyboard-response","177","285996","0.0-152.0","627286792f25495f123cc27b","665500ab8938657b03fbdba8","66579cba74a8e5165543cb6c","891","stimuli/01011102.jpg"," ","","feedback_trial","0","","","","","","","","","","","","","","","","","","","","",""
"","","","","","image-keyboard-response","178","286701","0.0-153.0","627286792f25495f123cc27b","665500ab8938657b03fbdba8","66579cba74a8e5165543cb6c","704","stimuli/1100101.jpg","1","","prediction_trial","1","","true","","1","true","true","true","true","true","true","[1]","100","101","1","","","","","","",""
"","","","","","image-keyboard-response","179","287220","0.0-154.0","627286792f25495f123cc27b","665500ab8938657b03fbdba8","66579cba74a8e5165543cb6c","519","stimuli/11001011.jpg"," ","","feedback_trial","1","","","","","","","","","","","","","","","","","","","","",""
"","","","","","image-keyboard-response","180","288081","0.0-155.0","627286792f25495f123cc27b","665500ab8938657b03fbdba8","66579cba74a8e5165543cb6c","861","stimuli/2100011.jpg","1","","prediction_trial","2","","false","","2","false","false","true","true","false","false","[2]","100","011","0","","","","","","",""
"","","","","","image-keyboard-response","181","288612","0.0-156.0","627286792f25495f123cc27b","665500ab8938657b03fbdba8","66579cba74a8e5165543cb6c","530","stimuli/21000112.jpg"," ","","feedback_trial","2","","","","","","","","","","","","","","","","","","","","",""
"","","","","","image-keyboard-response","182","289177","0.0-157.0","627286792f25495f123cc27b","665500ab8938657b03fbdba8","66579cba74a8e5165543cb6c","565","stimuli/1000001.jpg","1","","prediction_trial","1","","true","","1","true","true","true","true","true","true","[1]","000","001","1","","","","","","",""
"","","","","","image-keyboard-response","183","289595","0.0-158.0","627286792f25495f123cc27b","665500ab8938657b03fbdba8","66579cba74a8e5165543cb6c","417","stimuli/10000011.jpg"," ","","feedback_trial","1","","","","","","","","","","","","","","","","","","","","",""
"","","","","","image-keyboard-response","184","290394","0.0-159.0","627286792f25495f123cc27b","665500ab8938657b03fbdba8","66579cba74a8e5165543cb6c","799","stimuli/0010101.jpg","2","","prediction_trial","0","","false","","0","false","false","true","true","false","false","[0]","010","101","0","","","","","","",""
"","","","","","image-keyboard-response","185","291137","0.0-160.0","627286792f25495f123cc27b","665500ab8938657b03fbdba8","66579cba74a8e5165543cb6c","743","stimuli/00101010.jpg"," ","","feedback_trial","0","","","","","","","","","","","","","","","","","","","","",""
"","","","","","image-keyboard-response","186","292147","0.0-161.0","627286792f25495f123cc27b","665500ab8938657b03fbdba8","66579cba74a8e5165543cb6c","1010","stimuli/0010111.jpg","1","","prediction_trial","0","","false","","0","false","false","true","true","false","false","[0]","010","111","0","","","","","","",""
"","","","","","image-keyboard-response","187","293528","0.0-162.0","627286792f25495f123cc27b","665500ab8938657b03fbdba8","66579cba74a8e5165543cb6c","1381","stimuli/00101110.jpg"," ","","feedback_trial","0","","","","","","","","","","","","","","","","","","","","",""
"","","","","","image-keyboard-response","188","294065","0.0-163.0","627286792f25495f123cc27b","665500ab8938657b03fbdba8","66579cba74a8e5165543cb6c","537","stimuli/1101000.jpg","1","","prediction_trial","1","","true","","1","true","true","true","true","true","true","[1]","101","000","1","","","","","","",""
"","","","","","image-keyboard-response","189","294475","0.0-164.0","627286792f25495f123cc27b","665500ab8938657b03fbdba8","66579cba74a8e5165543cb6c","410","stimuli/11010001.jpg"," ","","feedback_trial","1","","","","","","","","","","","","","","","","","","","","",""
"","","","","","image-keyboard-response","190","295471","0.0-165.0","627286792f25495f123cc27b","665500ab8938657b03fbdba8","66579cba74a8e5165543cb6c","996","stimuli/1001111.jpg","0","","prediction_trial","1","","false","","1","false","false","true","true","false","false","[1]","001","111","0","","","","","","",""
"","","","","","image-keyboard-response","191","296112","0.0-166.0","627286792f25495f123cc27b","665500ab8938657b03fbdba8","66579cba74a8e5165543cb6c","641","stimuli/10011111.jpg"," ","","feedback_trial","1","","","","","","","","","","","","","","","","","","","","",""
"","","","","","image-keyboard-response","192","297162","0.0-167.0","627286792f25495f123cc27b","665500ab8938657b03fbdba8","66579cba74a8e5165543cb6c","1050","stimuli/2100001.jpg","2","","prediction_trial","2","","true","","2","false","true","true","true","false","true","[2]","100","001","1","","","","","","",""
"","","","","","image-keyboard-response","193","297661","0.0-168.0","627286792f25495f123cc27b","665500ab8938657b03fbdba8","66579cba74a8e5165543cb6c","499","stimuli/21000012.jpg"," ","","feedback_trial","2","","","","","","","","","","","","","","","","","","","","",""
"","","","","","image-keyboard-response","194","298387","0.0-169.0","627286792f25495f123cc27b","665500ab8938657b03fbdba8","66579cba74a8e5165543cb6c","725","stimuli/0000010.jpg","0","","prediction_trial","0","","true","","0","true","true","true","true","true","true","[0]","000","010","1","","","","","","",""
"","","","","","image-keyboard-response","195","299034","0.0-170.0","627286792f25495f123cc27b","665500ab8938657b03fbdba8","66579cba74a8e5165543cb6c","647","stimuli/00000100.jpg"," ","","feedback_trial","0","","","","","","","","","","","","","","","","","","","","",""
"","","","","","image-keyboard-response","196","299748","0.0-171.0","627286792f25495f123cc27b","665500ab8938657b03fbdba8","66579cba74a8e5165543cb6c","714","stimuli/2101001.jpg","2","","prediction_trial","2","","true","","2","false","true","false","false","false","false","[2,0]","101","001","1","","","","","","",""
"","","","","","image-keyboard-response","197","300419","0.0-172.0","627286792f25495f123cc27b","665500ab8938657b03fbdba8","66579cba74a8e5165543cb6c","671","stimuli/21010012.jpg"," ","","feedback_trial","2","","","","","","","","","","","","","","","","","","","","",""
"","","","","","image-keyboard-response","198","301332","0.0-173.0","627286792f25495f123cc27b","665500ab8938657b03fbdba8","66579cba74a8e5165543cb6c","913","stimuli/2001001.jpg","2","","prediction_trial","2","","true","","2","false","true","false","true","false","true","[2]","001","001","1","","","","","","",""
"","","","","","image-keyboard-response","199","301931","0.0-174.0","627286792f25495f123cc27b","665500ab8938657b03fbdba8","66579cba74a8e5165543cb6c","598","stimuli/20010012.jpg"," ","","feedback_trial","2","","","","","","","","","","","","","","","","","","","","",""
"","","","","","image-keyboard-response","200","302567","0.0-175.0","627286792f25495f123cc27b","665500ab8938657b03fbdba8","66579cba74a8e5165543cb6c","636","stimuli/2110000.jpg","2","","prediction_trial","2","","true","","2","true","true","true","true","true","true","[2]","110","000","1","","","","","","",""
"","","","","","image-keyboard-response","201","303032","0.0-176.0","627286792f25495f123cc27b","665500ab8938657b03fbdba8","66579cba74a8e5165543cb6c","465","stimuli/21100002.jpg"," ","","feedback_trial","2","","","","","","","","","","","","","","","","","","","","",""
"","","","","","image-keyboard-response","202","303585","0.0-177.0","627286792f25495f123cc27b","665500ab8938657b03fbdba8","66579cba74a8e5165543cb6c","552","stimuli/1010101.jpg","1","","prediction_trial","1","","true","","1","true","true","false","true","false","true","[1]","010","101","1","","","","","","",""
"","","","","","image-keyboard-response","203","304060","0.0-178.0","627286792f25495f123cc27b","665500ab8938657b03fbdba8","66579cba74a8e5165543cb6c","475","stimuli/10101011.jpg"," ","","feedback_trial","1","","","","","","","","","","","","","","","","","","","","",""
"","","","","","image-keyboard-response","204","306531","0.0-179.0","627286792f25495f123cc27b","665500ab8938657b03fbdba8","66579cba74a8e5165543cb6c","2471","stimuli/0001101.jpg","0","","prediction_trial","0","","true","","0","false","false","true","true","false","false","[0]","001","101","1","","","","","","",""
"","","","","","image-keyboard-response","205","307029","0.0-180.0","627286792f25495f123cc27b","665500ab8938657b03fbdba8","66579cba74a8e5165543cb6c","498","stimuli/00011010.jpg"," ","","feedback_trial","0","","","","","","","","","","","","","","","","","","","","",""
"","","","","","image-keyboard-response","206","307680","0.0-181.0","627286792f25495f123cc27b","665500ab8938657b03fbdba8","66579cba74a8e5165543cb6c","651","stimuli/2100100.jpg","2","","prediction_trial","2","","true","","2","true","true","true","true","true","true","[2]","100","100","1","","","","","","",""
"","","","","","image-keyboard-response","207","308091","0.0-182.0","627286792f25495f123cc27b","665500ab8938657b03fbdba8","66579cba74a8e5165543cb6c","410","stimuli/21001002.jpg"," ","","feedback_trial","2","","","","","","","","","","","","","","","","","","","","",""
"","","","","","image-keyboard-response","208","308703","0.0-183.0","627286792f25495f123cc27b","665500ab8938657b03fbdba8","66579cba74a8e5165543cb6c","612","stimuli/1001100.jpg","1","","prediction_trial","1","","true","","1","true","true","true","true","true","true","[1]","001","100","1","","","","","","",""
"","","","","","image-keyboard-response","209","309083","0.0-184.0","627286792f25495f123cc27b","665500ab8938657b03fbdba8","66579cba74a8e5165543cb6c","379","stimuli/10011001.jpg"," ","","feedback_trial","1","","","","","","","","","","","","","","","","","","","","",""
"","","","","","image-keyboard-response","210","310704","0.0-185.0","627286792f25495f123cc27b","665500ab8938657b03fbdba8","66579cba74a8e5165543cb6c","1621","stimuli/1100110.jpg","1","","prediction_trial","1","","true","","1","false","false","true","true","false","false","[1]","100","110","1","","","","","","",""
"","","","","","image-keyboard-response","211","311331","0.0-186.0","627286792f25495f123cc27b","665500ab8938657b03fbdba8","66579cba74a8e5165543cb6c","626","stimuli/11001101.jpg"," ","","feedback_trial","1","","","","","","","","","","","","","","","","","","","","",""
"","","","","","image-keyboard-response","212","312021","0.0-187.0","627286792f25495f123cc27b","665500ab8938657b03fbdba8","66579cba74a8e5165543cb6c","690","stimuli/2011010.jpg","2","","prediction_trial","2","","true","","2","true","true","false","false","false","false","[1,2]","011","010","1","","","","","","",""
"","","","","","image-keyboard-response","213","312546","0.0-188.0","627286792f25495f123cc27b","665500ab8938657b03fbdba8","66579cba74a8e5165543cb6c","525","stimuli/20110102.jpg"," ","","feedback_trial","1","","","","","","","","","","","","","","","","","","","","",""
"","","","","","image-keyboard-response","214","313965","0.0-189.0","627286792f25495f123cc27b","665500ab8938657b03fbdba8","66579cba74a8e5165543cb6c","1419","stimuli/1101011.jpg","1","","prediction_trial","1","","true","","1","false","false","true","true","false","false","[1]","101","011","1","","","","","","",""
"","","","","","image-keyboard-response","215","314512","0.0-190.0","627286792f25495f123cc27b","665500ab8938657b03fbdba8","66579cba74a8e5165543cb6c","547","stimuli/11010111.jpg"," ","","feedback_trial","1","","","","","","","","","","","","","","","","","","","","",""
"","","","","","image-keyboard-response","216","315267","0.0-191.0","627286792f25495f123cc27b","665500ab8938657b03fbdba8","66579cba74a8e5165543cb6c","755","stimuli/0110010.jpg","0","","prediction_trial","1","","false","","0","true","true","false","false","false","false","[0,1]","110","010","0","","","","","","",""
"","","","","","image-keyboard-response","217","315832","0.0-192.0","627286792f25495f123cc27b","665500ab8938657b03fbdba8","66579cba74a8e5165543cb6c","565","stimuli/01100101.jpg"," ","","feedback_trial","0","","","","","","","","","","","","","","","","","","","","",""
"","","","","","image-keyboard-response","218","316468","0.0-193.0","627286792f25495f123cc27b","665500ab8938657b03fbdba8","66579cba74a8e5165543cb6c","636","stimuli/1111000.jpg","1","","prediction_trial","2","","false","","1","true","true","false","false","false","false","[1,0,2]","111","000","0","","","","","","",""
"","","","","","image-keyboard-response","219","317198","0.0-194.0","627286792f25495f123cc27b","665500ab8938657b03fbdba8","66579cba74a8e5165543cb6c","730","stimuli/11110002.jpg"," ","","feedback_trial","1","","","","","","","","","","","","","","","","","","","","",""
"","","","","","image-keyboard-response","220","317833","0.0-195.0","627286792f25495f123cc27b","665500ab8938657b03fbdba8","66579cba74a8e5165543cb6c","634","stimuli/1000101.jpg","1","","prediction_trial","1","","true","","1","true","true","true","true","true","true","[1]","000","101","1","","","","","","",""
"","","","","","image-keyboard-response","221","318291","0.0-196.0","627286792f25495f123cc27b","665500ab8938657b03fbdba8","66579cba74a8e5165543cb6c","458","stimuli/10001011.jpg"," ","","feedback_trial","1","","","","","","","","","","","","","","","","","","","","",""
"","","","","","image-keyboard-response","222","318816","0.0-197.0","627286792f25495f123cc27b","665500ab8938657b03fbdba8","66579cba74a8e5165543cb6c","525","stimuli/2101110.jpg","2","","prediction_trial","0","","false","","2","true","true","false","false","false","false","[0,2]","101","110","0","","","","","","",""
"","","","","","image-keyboard-response","223","319392","0.0-198.0","627286792f25495f123cc27b","665500ab8938657b03fbdba8","66579cba74a8e5165543cb6c","577","stimuli/21011100.jpg"," ","","feedback_trial","0","","","","","","","","","","","","","","","","","","","","",""
"","","","","","image-keyboard-response","224","320090","0.0-199.0","627286792f25495f123cc27b","665500ab8938657b03fbdba8","66579cba74a8e5165543cb6c","698","stimuli/0000011.jpg","0","","prediction_trial","0","","true","","0","true","true","true","true","true","true","[0]","000","011","1","","","","","","",""
"","","","","","image-keyboard-response","225","320505","0.0-200.0","627286792f25495f123cc27b","665500ab8938657b03fbdba8","66579cba74a8e5165543cb6c","415","stimuli/00000110.jpg"," ","","feedback_trial","0","","","","","","","","","","","","","","","","","","","","",""
"","","","","","image-keyboard-response","226","321373","0.0-201.0","627286792f25495f123cc27b","665500ab8938657b03fbdba8","66579cba74a8e5165543cb6c","868","stimuli/0100100.jpg","0","","prediction_trial","0","","true","","0","false","true","false","true","false","true","[0]","100","100","1","","","","","","",""
"","","","","","image-keyboard-response","227","321892","0.0-202.0","627286792f25495f123cc27b","665500ab8938657b03fbdba8","66579cba74a8e5165543cb6c","518","stimuli/01001000.jpg"," ","","feedback_trial","0","","","","","","","","","","","","","","","","","","","","",""
"","","","","","image-keyboard-response","228","322496","0.0-203.0","627286792f25495f123cc27b","665500ab8938657b03fbdba8","66579cba74a8e5165543cb6c","605","stimuli/2001000.jpg","2","","prediction_trial","2","","true","","2","true","true","false","true","false","true","[2]","001","000","1","","","","","","",""
"","","","","","image-keyboard-response","229","323009","0.0-204.0","627286792f25495f123cc27b","665500ab8938657b03fbdba8","66579cba74a8e5165543cb6c","513","stimuli/20010002.jpg"," ","","feedback_trial","2","","","","","","","","","","","","","","","","","","","","",""
"","","","","","image-keyboard-response","230","323597","0.0-205.0","627286792f25495f123cc27b","665500ab8938657b03fbdba8","66579cba74a8e5165543cb6c","587","stimuli/0100000.jpg","0","","prediction_trial","0","","true","","0","true","true","false","true","false","true","[0]","100","000","1","","","","","","",""
"","","","","","image-keyboard-response","231","324112","0.0-206.0","627286792f25495f123cc27b","665500ab8938657b03fbdba8","66579cba74a8e5165543cb6c","515","stimuli/01000000.jpg"," ","","feedback_trial","0","","","","","","","","","","","","","","","","","","","","",""
"","","","","","image-keyboard-response","232","325332","0.0-207.0","627286792f25495f123cc27b","665500ab8938657b03fbdba8","66579cba74a8e5165543cb6c","1219","stimuli/2100111.jpg","1","","prediction_trial","2","","false","","2","false","false","true","true","false","false","[2]","100","111","0","","","","","","",""
"","","","","","image-keyboard-response","233","325870","0.0-208.0","627286792f25495f123cc27b","665500ab8938657b03fbdba8","66579cba74a8e5165543cb6c","538","stimuli/21001112.jpg"," ","","feedback_trial","2","","","","","","","","","","","","","","","","","","","","",""
"","","","","","image-keyboard-response","234","327563","0.0-209.0","627286792f25495f123cc27b","665500ab8938657b03fbdba8","66579cba74a8e5165543cb6c","1693","stimuli/0110101.jpg","0","","prediction_trial","1","","false","","0","false","false","false","false","false","false","[1,0]","110","101","0","","","","","","",""
"","","","","","image-keyboard-response","235","328153","0.0-210.0","627286792f25495f123cc27b","665500ab8938657b03fbdba8","66579cba74a8e5165543cb6c","590","stimuli/01101011.jpg"," ","","feedback_trial","1","","","","","","","","","","","","","","","","","","","","",""
"","","","","","image-keyboard-response","236","328922","0.0-211.0","627286792f25495f123cc27b","665500ab8938657b03fbdba8","66579cba74a8e5165543cb6c","769","stimuli/1011011.jpg","1","","prediction_trial","2","","false","","1","false","false","false","false","false","false","[2,1]","011","011","0","","","","","","",""
"","","","","","image-keyboard-response","237","329468","0.0-212.0","627286792f25495f123cc27b","665500ab8938657b03fbdba8","66579cba74a8e5165543cb6c","546","stimuli/10110112.jpg"," ","","feedback_trial","2","","","","","","","","","","","","","","","","","","","","",""
"","","","","","image-keyboard-response","238","330094","0.0-213.0","627286792f25495f123cc27b","665500ab8938657b03fbdba8","66579cba74a8e5165543cb6c","626","stimuli/0010011.jpg","0","","prediction_trial","0","","true","","0","true","true","true","true","true","true","[0]","010","011","1","","","","","","",""
"","","","","","image-keyboard-response","239","330510","0.0-214.0","627286792f25495f123cc27b","665500ab8938657b03fbdba8","66579cba74a8e5165543cb6c","416","stimuli/00100110.jpg"," ","","feedback_trial","0","","","","","","","","","","","","","","","","","","","","",""
"","","","","","image-keyboard-response","240","331162","0.0-215.0","627286792f25495f123cc27b","665500ab8938657b03fbdba8","66579cba74a8e5165543cb6c","652","stimuli/1011111.jpg","1","","prediction_trial","1","","true","","1","false","false","false","false","false","false","[2,1]","011","111","1","","","","","","",""
"","","","","","image-keyboard-response","241","331683","0.0-216.0","627286792f25495f123cc27b","665500ab8938657b03fbdba8","66579cba74a8e5165543cb6c","521","stimuli/10111111.jpg"," ","","feedback_trial","2","","","","","","","","","","","","","","","","","","","","",""
"","","","","","image-keyboard-response","242","332383","0.0-217.0","627286792f25495f123cc27b","665500ab8938657b03fbdba8","66579cba74a8e5165543cb6c","699","stimuli/0101111.jpg","1","","prediction_trial","2","","false","","0","false","false","false","false","false","false","[2,0]","101","111","0","","","","","","",""
"","","","","","image-keyboard-response","243","333611","0.0-218.0","627286792f25495f123cc27b","665500ab8938657b03fbdba8","66579cba74a8e5165543cb6c","1228","stimuli/01011112.jpg"," ","","feedback_trial","2","","","","","","","","","","","","","","","","","","","","",""
"","","","","","image-keyboard-response","244","334647","0.0-219.0","627286792f25495f123cc27b","665500ab8938657b03fbdba8","66579cba74a8e5165543cb6c","1036","stimuli/1000011.jpg","2","","prediction_trial","1","","false","","1","false","false","true","true","false","false","[1]","000","011","0","","","","","","",""
"","","","","","image-keyboard-response","245","335121","0.0-220.0","627286792f25495f123cc27b","665500ab8938657b03fbdba8","66579cba74a8e5165543cb6c","474","stimuli/10000111.jpg"," ","","feedback_trial","1","","","","","","","","","","","","","","","","","","","","",""
"","","","","","image-keyboard-response","246","335726","0.0-221.0","627286792f25495f123cc27b","665500ab8938657b03fbdba8","66579cba74a8e5165543cb6c","605","stimuli/2101010.jpg","2","","prediction_trial","2","","true","","2","true","true","false","false","false","false","[2,0]","101","010","1","","","","","","",""
"","","","","","image-keyboard-response","247","336216","0.0-222.0","627286792f25495f123cc27b","665500ab8938657b03fbdba8","66579cba74a8e5165543cb6c","490","stimuli/21010102.jpg"," ","","feedback_trial","2","","","","","","","","","","","","","","","","","","","","",""
"","","","","","image-keyboard-response","248","337108","0.0-223.0","627286792f25495f123cc27b","665500ab8938657b03fbdba8","66579cba74a8e5165543cb6c","892","stimuli/1111011.jpg","2","","prediction_trial","1","","false","","1","false","false","false","false","false","false","[2,0,1]","111","011","0","","","","","","",""
"","","","","","image-keyboard-response","249","337715","0.0-224.0","627286792f25495f123cc27b","665500ab8938657b03fbdba8","66579cba74a8e5165543cb6c","607","stimuli/11110111.jpg"," ","","feedback_trial","2","","","","","","","","","","","","","","","","","","","","",""
"","","","","","image-keyboard-response","250","338634","0.0-225.0","627286792f25495f123cc27b","665500ab8938657b03fbdba8","66579cba74a8e5165543cb6c","919","stimuli/0000110.jpg","0","","prediction_trial","0","","true","","0","false","false","true","true","false","false","[0]","000","110","1","","","","","","",""
"","","","","","image-keyboard-response","251","339410","0.0-226.0","627286792f25495f123cc27b","665500ab8938657b03fbdba8","66579cba74a8e5165543cb6c","776","stimuli/00001100.jpg"," ","","feedback_trial","0","","","","","","","","","","","","","","","","","","","","",""
"","","","","","image-keyboard-response","252","340099","0.0-227.0","627286792f25495f123cc27b","665500ab8938657b03fbdba8","66579cba74a8e5165543cb6c","689","stimuli/0011010.jpg","0","","prediction_trial","0","","true","","0","true","true","true","true","true","true","[0]","011","010","1","","","","","","",""
"","","","","","image-keyboard-response","253","340570","0.0-228.0","627286792f25495f123cc27b","665500ab8938657b03fbdba8","66579cba74a8e5165543cb6c","470","stimuli/00110100.jpg"," ","","feedback_trial","0","","","","","","","","","","","","","","","","","","","","",""
"","","","","","image-keyboard-response","254","341150","0.0-229.0","627286792f25495f123cc27b","665500ab8938657b03fbdba8","66579cba74a8e5165543cb6c","580","stimuli/1100111.jpg","1","","prediction_trial","1","","true","","1","false","false","true","true","false","false","[1]","100","111","1","","","","","","",""
"","","","","","image-keyboard-response","255","342796","0.0-230.0","627286792f25495f123cc27b","665500ab8938657b03fbdba8","66579cba74a8e5165543cb6c","1646","stimuli/11001111.jpg"," ","","feedback_trial","1","","","","","","","","","","","","","","","","","","","","",""
"","","","","","image-keyboard-response","256","344249","0.0-231.0","627286792f25495f123cc27b","665500ab8938657b03fbdba8","66579cba74a8e5165543cb6c","1453","stimuli/2100101.jpg","0","","prediction_trial","2","","false","","2","false","false","true","true","false","false","[2]","100","101","0","","","","","","",""
"","","","","","image-keyboard-response","257","344815","0.0-232.0","627286792f25495f123cc27b","665500ab8938657b03fbdba8","66579cba74a8e5165543cb6c","566","stimuli/21001012.jpg"," ","","feedback_trial","2","","","","","","","","","","","","","","","","","","","","",""
"","","","","","image-keyboard-response","258","345416","0.0-233.0","627286792f25495f123cc27b","665500ab8938657b03fbdba8","66579cba74a8e5165543cb6c","600","stimuli/0000000.jpg","0","","prediction_trial","0","","true","","0","true","true","true","true","true","true","[0]","000","000","1","","","","","","",""
"","","","","","image-keyboard-response","259","345979","0.0-234.0","627286792f25495f123cc27b","665500ab8938657b03fbdba8","66579cba74a8e5165543cb6c","563","stimuli/00000000.jpg"," ","","feedback_trial","0","","","","","","","","","","","","","","","","","","","","",""
"","","","","","image-keyboard-response","260","346487","0.0-235.0","627286792f25495f123cc27b","665500ab8938657b03fbdba8","66579cba74a8e5165543cb6c","508","stimuli/2101100.jpg","2","","prediction_trial","0","","false","","2","true","true","false","false","false","false","[2,0]","101","100","0","","","","","","",""
"","","","","","image-keyboard-response","261","347034","0.0-236.0","627286792f25495f123cc27b","665500ab8938657b03fbdba8","66579cba74a8e5165543cb6c","546","stimuli/21011000.jpg"," ","","feedback_trial","2","","","","","","","","","","","","","","","","","","","","",""
"","","","","","image-keyboard-response","262","347761","0.0-237.0","627286792f25495f123cc27b","665500ab8938657b03fbdba8","66579cba74a8e5165543cb6c","727","stimuli/0001100.jpg","0","","prediction_trial","0","","true","","0","false","true","true","true","false","true","[0]","001","100","1","","","","","","",""
"","","","","","image-keyboard-response","263","348274","0.0-238.0","627286792f25495f123cc27b","665500ab8938657b03fbdba8","66579cba74a8e5165543cb6c","513","stimuli/00011000.jpg"," ","","feedback_trial","0","","","","","","","","","","","","","","","","","","","","",""
"","","","","","image-keyboard-response","264","349567","0.0-239.0","627286792f25495f123cc27b","665500ab8938657b03fbdba8","66579cba74a8e5165543cb6c","1293","stimuli/0011101.jpg","0","","prediction_trial","0","","true","","0","false","false","true","true","false","false","[0]","011","101","1","","","","","","",""
"","","","","","image-keyboard-response","265","350251","0.0-240.0","627286792f25495f123cc27b","665500ab8938657b03fbdba8","66579cba74a8e5165543cb6c","683","stimuli/00111010.jpg"," ","","feedback_trial","0","","","","","","","","","","","","","","","","","","","","",""
"","","","","","image-keyboard-response","266","351314","0.0-241.0","627286792f25495f123cc27b","665500ab8938657b03fbdba8","66579cba74a8e5165543cb6c","1063","stimuli/1101010.jpg","1","","prediction_trial","1","","true","","1","false","true","true","true","false","true","[1]","101","010","1","","","","","","",""
"","","","","","image-keyboard-response","267","351819","0.0-242.0","627286792f25495f123cc27b","665500ab8938657b03fbdba8","66579cba74a8e5165543cb6c","505","stimuli/11010101.jpg"," ","","feedback_trial","1","","","","","","","","","","","","","","","","","","","","",""
"","","","","","image-keyboard-response","268","352475","0.0-243.0","627286792f25495f123cc27b","665500ab8938657b03fbdba8","66579cba74a8e5165543cb6c","656","stimuli/0101000.jpg","0","","prediction_trial","2","","false","","0","true","true","false","false","false","false","[0,2]","101","000","0","","","","","","",""
"","","","","","image-keyboard-response","269","353160","0.0-244.0","627286792f25495f123cc27b","665500ab8938657b03fbdba8","66579cba74a8e5165543cb6c","685","stimuli/01010002.jpg"," ","","feedback_trial","0","","","","","","","","","","","","","","","","","","","","",""
"","","","","","image-keyboard-response","270","353990","0.0-245.0","627286792f25495f123cc27b","665500ab8938657b03fbdba8","66579cba74a8e5165543cb6c","829","stimuli/0101001.jpg","0","","prediction_trial","2","","false","","0","true","true","false","false","false","false","[2,0]","101","001","0","","","","","","",""
"","","","","","image-keyboard-response","271","354508","0.0-246.0","627286792f25495f123cc27b","665500ab8938657b03fbdba8","66579cba74a8e5165543cb6c","518","stimuli/01010012.jpg"," ","","feedback_trial","2","","","","","","","","","","","","","","","","","","","","",""
"","","","","","image-keyboard-response","272","355281","0.0-247.0","627286792f25495f123cc27b","665500ab8938657b03fbdba8","66579cba74a8e5165543cb6c","772","stimuli/0111110.jpg","0","","prediction_trial","2","","false","","0","false","false","false","false","false","false","[0,1,2]","111","110","0","","","","","","",""
"","","","","","image-keyboard-response","273","355873","0.0-248.0","627286792f25495f123cc27b","665500ab8938657b03fbdba8","66579cba74a8e5165543cb6c","592","stimuli/01111102.jpg"," ","","feedback_trial","0","","","","","","","","","","","","","","","","","","","","",""
"","","","","","image-keyboard-response","274","357227","0.0-249.0","627286792f25495f123cc27b","665500ab8938657b03fbdba8","66579cba74a8e5165543cb6c","1354","stimuli/0100110.jpg","1","","prediction_trial","0","","false","","0","false","false","false","true","false","false","[0]","100","110","0","","","","","","",""
"","","","","","image-keyboard-response","275","357857","0.0-250.0","627286792f25495f123cc27b","665500ab8938657b03fbdba8","66579cba74a8e5165543cb6c","630","stimuli/01001100.jpg"," ","","feedback_trial","0","","","","","","","","","","","","","","","","","","","","",""
"","","","","","image-keyboard-response","276","358717","0.0-251.0","627286792f25495f123cc27b","665500ab8938657b03fbdba8","66579cba74a8e5165543cb6c","860","stimuli/1000110.jpg","0","","prediction_trial","1","","false","","1","false","false","true","true","false","false","[1]","000","110","0","","","","","","",""
"","","","","","image-keyboard-response","277","359234","0.0-252.0","627286792f25495f123cc27b","665500ab8938657b03fbdba8","66579cba74a8e5165543cb6c","516","stimuli/10001101.jpg"," ","","feedback_trial","1","","","","","","","","","","","","","","","","","","","","",""
"","","","","","image-keyboard-response","278","360067","0.0-253.0","627286792f25495f123cc27b","665500ab8938657b03fbdba8","66579cba74a8e5165543cb6c","833","stimuli/2101101.jpg","2","","prediction_trial","2","","true","","2","false","false","false","false","false","false","[2,0]","101","101","1","","","","","","",""
"","","","","","image-keyboard-response","279","360577","0.0-254.0","627286792f25495f123cc27b","665500ab8938657b03fbdba8","66579cba74a8e5165543cb6c","510","stimuli/21011012.jpg"," ","","feedback_trial","2","","","","","","","","","","","","","","","","","","","","",""
"","","","","","image-keyboard-response","280","361586","0.0-255.0","627286792f25495f123cc27b","665500ab8938657b03fbdba8","66579cba74a8e5165543cb6c","1008","stimuli/2110001.jpg","2","","prediction_trial","2","","true","","2","false","true","true","true","false","true","[2]","110","001","1","","","","","","",""
"","","","","","image-keyboard-response","281","362011","0.0-256.0","627286792f25495f123cc27b","665500ab8938657b03fbdba8","66579cba74a8e5165543cb6c","425","stimuli/21100012.jpg"," ","","feedback_trial","2","","","","","","","","","","","","","","","","","","","","",""
"","","","","","image-keyboard-response","282","362674","0.0-257.0","627286792f25495f123cc27b","665500ab8938657b03fbdba8","66579cba74a8e5165543cb6c","663","stimuli/1010001.jpg","1","","prediction_trial","1","","true","","1","true","true","false","true","false","true","[1]","010","001","1","","","","","","",""
"","","","","","image-keyboard-response","283","363847","0.0-258.0","627286792f25495f123cc27b","665500ab8938657b03fbdba8","66579cba74a8e5165543cb6c","1172","stimuli/10100011.jpg"," ","","feedback_trial","1","","","","","","","","","","","","","","","","","","","","",""
"","","","","","image-keyboard-response","284","364377","0.0-259.0","627286792f25495f123cc27b","665500ab8938657b03fbdba8","66579cba74a8e5165543cb6c","530","stimuli/0001011.jpg","0","","prediction_trial","0","","true","","0","true","true","true","true","true","true","[0]","001","011","1","","","","","","",""
"","","","","","image-keyboard-response","285","364808","0.0-260.0","627286792f25495f123cc27b","665500ab8938657b03fbdba8","66579cba74a8e5165543cb6c","431","stimuli/00010110.jpg"," ","","feedback_trial","0","","","","","","","","","","","","","","","","","","","","",""
"","","","","","image-keyboard-response","286","365384","0.0-261.0","627286792f25495f123cc27b","665500ab8938657b03fbdba8","66579cba74a8e5165543cb6c","575","stimuli/2011001.jpg","2","","prediction_trial","2","","true","","2","false","true","false","false","false","false","[2,1]","011","001","1","","","","","","",""
"","","","","","image-keyboard-response","287","365842","0.0-262.0","627286792f25495f123cc27b","665500ab8938657b03fbdba8","66579cba74a8e5165543cb6c","458","stimuli/20110012.jpg"," ","","feedback_trial","2","","","","","","","","","","","","","","","","","","","","",""
"","","","","","image-keyboard-response","288","366749","0.0-263.0","627286792f25495f123cc27b","665500ab8938657b03fbdba8","66579cba74a8e5165543cb6c","907","stimuli/0100111.jpg","1","","prediction_trial","0","","false","","0","false","false","false","true","false","false","[0]","100","111","0","","","","","","",""
"","","","","","image-keyboard-response","289","367289","0.0-264.0","627286792f25495f123cc27b","665500ab8938657b03fbdba8","66579cba74a8e5165543cb6c","539","stimuli/01001110.jpg"," ","","feedback_trial","0","","","","","","","","","","","","","","","","","","","","",""
"","","","","","image-keyboard-response","290","368373","0.0-265.0","627286792f25495f123cc27b","665500ab8938657b03fbdba8","66579cba74a8e5165543cb6c","1084","stimuli/0110110.jpg","1","","prediction_trial","0","","false","","0","false","false","false","false","false","false","[1,0]","110","110","0","","","","","","",""
"","","","","","image-keyboard-response","291","368864","0.0-266.0","627286792f25495f123cc27b","665500ab8938657b03fbdba8","66579cba74a8e5165543cb6c","490","stimuli/01101100.jpg"," ","","feedback_trial","1","","","","","","","","","","","","","","","","","","","","",""
"","","","","","image-keyboard-response","292","369559","0.0-267.0","627286792f25495f123cc27b","665500ab8938657b03fbdba8","66579cba74a8e5165543cb6c","695","stimuli/0110000.jpg","0","","prediction_trial","0","","true","","0","true","true","false","false","false","false","[1,0]","110","000","1","","","","","","",""
"","","","","","image-keyboard-response","293","370168","0.0-268.0","627286792f25495f123cc27b","665500ab8938657b03fbdba8","66579cba74a8e5165543cb6c","609","stimuli/01100000.jpg"," ","","feedback_trial","1","","","","","","","","","","","","","","","","","","","","",""
"","","","","","image-keyboard-response","294","370806","0.0-269.0","627286792f25495f123cc27b","665500ab8938657b03fbdba8","66579cba74a8e5165543cb6c","638","stimuli/1111010.jpg","1","","prediction_trial","1","","true","","1","false","true","false","false","false","false","[2,0,1]","111","010","1","","","","","","",""
"","","","","","image-keyboard-response","295","371381","0.0-270.0","627286792f25495f123cc27b","665500ab8938657b03fbdba8","66579cba74a8e5165543cb6c","575","stimuli/11110101.jpg"," ","","feedback_trial","2","","","","","","","","","","","","","","","","","","","","",""
"","","","","","image-keyboard-response","296","372060","0.0-271.0","627286792f25495f123cc27b","665500ab8938657b03fbdba8","66579cba74a8e5165543cb6c","678","stimuli/2111100.jpg","2","","prediction_trial","1","","false","","2","true","true","false","false","false","false","[0,2,1]","111","100","0","","","","","","",""
"","","","","","image-keyboard-response","297","372683","0.0-272.0","627286792f25495f123cc27b","665500ab8938657b03fbdba8","66579cba74a8e5165543cb6c","623","stimuli/21111001.jpg"," ","","feedback_trial","0","","","","","","","","","","","","","","","","","","","","",""
"","","","","","image-keyboard-response","298","373600","0.0-273.0","627286792f25495f123cc27b","665500ab8938657b03fbdba8","66579cba74a8e5165543cb6c","917","stimuli/0101101.jpg","2","","prediction_trial","0","","false","","0","false","false","false","false","false","false","[2,0]","101","101","0","","","","","","",""
"","","","","","image-keyboard-response","299","374078","0.0-274.0","627286792f25495f123cc27b","665500ab8938657b03fbdba8","66579cba74a8e5165543cb6c","478","stimuli/01011010.jpg"," ","","feedback_trial","2","","","","","","","","","","","","","","","","","","","","",""
"","","","","","image-keyboard-response","300","374722","0.0-275.0","627286792f25495f123cc27b","665500ab8938657b03fbdba8","66579cba74a8e5165543cb6c","644","stimuli/2110100.jpg","2","","prediction_trial","2","","true","","2","true","true","true","true","true","true","[2]","110","100","1","","","","","","",""
"","","","","","image-keyboard-response","301","375141","0.0-276.0","627286792f25495f123cc27b","665500ab8938657b03fbdba8","66579cba74a8e5165543cb6c","419","stimuli/21101002.jpg"," ","","feedback_trial","2","","","","","","","","","","","","","","","","","","","","",""
"","","","","","image-keyboard-response","302","375785","0.0-277.0","627286792f25495f123cc27b","665500ab8938657b03fbdba8","66579cba74a8e5165543cb6c","643","stimuli/1111111.jpg","2","","prediction_trial","0","","false","","1","false","false","false","false","false","false","[0,1,2]","111","111","0","","","","","","",""
"","","","","","image-keyboard-response","303","376372","0.0-278.0","627286792f25495f123cc27b","665500ab8938657b03fbdba8","66579cba74a8e5165543cb6c","587","stimuli/11111110.jpg"," ","","feedback_trial","0","","","","","","","","","","","","","","","","","","","","",""
"","","","","","image-keyboard-response","304","377533","0.0-279.0","627286792f25495f123cc27b","665500ab8938657b03fbdba8","66579cba74a8e5165543cb6c","1161","stimuli/0100011.jpg","0","","prediction_trial","0","","true","","0","true","true","false","true","false","true","[0]","100","011","1","","","","","","",""
"","","","","","image-keyboard-response","305","378014","0.0-280.0","627286792f25495f123cc27b","665500ab8938657b03fbdba8","66579cba74a8e5165543cb6c","481","stimuli/01000110.jpg"," ","","feedback_trial","0","","","","","","","","","","","","","","","","","","","","",""
"","","","","","image-keyboard-response","306","378896","0.0-281.0","627286792f25495f123cc27b","665500ab8938657b03fbdba8","66579cba74a8e5165543cb6c","882","stimuli/0101100.jpg","0","","prediction_trial","0","","true","","0","false","true","false","false","false","false","[2,0]","101","100","1","","","","","","",""
"","","","","","image-keyboard-response","307","380051","0.0-282.0","627286792f25495f123cc27b","665500ab8938657b03fbdba8","66579cba74a8e5165543cb6c","1155","stimuli/01011000.jpg"," ","","feedback_trial","2","","","","","","","","","","","","","","","","","","","","",""
"","","","","","image-keyboard-response","308","380866","0.0-283.0","627286792f25495f123cc27b","665500ab8938657b03fbdba8","66579cba74a8e5165543cb6c","815","stimuli/0000100.jpg","0","","prediction_trial","0","","true","","0","false","true","true","true","false","true","[0]","000","100","1","","","","","","",""
"","","","","","image-keyboard-response","309","381349","0.0-284.0","627286792f25495f123cc27b","665500ab8938657b03fbdba8","66579cba74a8e5165543cb6c","482","stimuli/00001000.jpg"," ","","feedback_trial","0","","","","","","","","","","","","","","","","","","","","",""
"","","","","","image-keyboard-response","310","382040","0.0-285.0","627286792f25495f123cc27b","665500ab8938657b03fbdba8","66579cba74a8e5165543cb6c","691","stimuli/1000010.jpg","1","","prediction_trial","1","","true","","1","false","true","true","true","false","true","[1]","000","010","1","","","","","","",""
"","","","","","image-keyboard-response","311","382487","0.0-286.0","627286792f25495f123cc27b","665500ab8938657b03fbdba8","66579cba74a8e5165543cb6c","447","stimuli/10000101.jpg"," ","","feedback_trial","1","","","","","","","","","","","","","","","","","","","","",""
"","","","","","image-keyboard-response","312","383173","0.0-287.0","627286792f25495f123cc27b","665500ab8938657b03fbdba8","66579cba74a8e5165543cb6c","685","stimuli/0111100.jpg","0","","prediction_trial","1","","false","","0","false","true","false","false","false","false","[1,0,2]","111","100","0","","","","","","",""
"","","","","","image-keyboard-response","313","383702","0.0-288.0","627286792f25495f123cc27b","665500ab8938657b03fbdba8","66579cba74a8e5165543cb6c","529","stimuli/01111001.jpg"," ","","feedback_trial","1","","","","","","","","","","","","","","","","","","","","",""
"","","","","","image-keyboard-response","314","384331","0.0-289.0","627286792f25495f123cc27b","665500ab8938657b03fbdba8","66579cba74a8e5165543cb6c","629","stimuli/2000001.jpg","2","","prediction_trial","2","","true","","2","false","true","true","true","false","true","[2]","000","001","1","","","","","","",""
"","","","","","image-keyboard-response","315","384800","0.0-290.0","627286792f25495f123cc27b","665500ab8938657b03fbdba8","66579cba74a8e5165543cb6c","469","stimuli/20000012.jpg"," ","","feedback_trial","2","","","","","","","","","","","","","","","","","","","","",""
"","","","","","image-keyboard-response","316","385388","0.0-291.0","627286792f25495f123cc27b","665500ab8938657b03fbdba8","66579cba74a8e5165543cb6c","587","stimuli/1001011.jpg","1","","prediction_trial","1","","true","","1","false","false","true","true","false","false","[1]","001","011","1","","","","","","",""
"","","","","","image-keyboard-response","317","385938","0.0-292.0","627286792f25495f123cc27b","665500ab8938657b03fbdba8","66579cba74a8e5165543cb6c","550","stimuli/10010111.jpg"," ","","feedback_trial","1","","","","","","","","","","","","","","","","","","","","",""
"","","","","","survey-html-form","318","439430","0.0-293.0","627286792f25495f123cc27b","665500ab8938657b03fbdba8","66579cba74a8e5165543cb6c","53491","","{""feedback"":""If sam could see the red ball and I could not"",""age"":""45"",""gender"":""Male"",""other_gender"":"""",""race"":""White"",""other_race"":"""",""ethnicity"":""Hispanic""}","","exit_survey","","","","","","","","","","","","","","","","If sam could see the red ball and I could not","45","Hispanic","Male","White","0.6180555555555556","0.6180555555555556"
