"success","timeout","failed_images","failed_audio","failed_video","trial_type","trial_index","time_elapsed","internal_node_id","prolific_id","prolific_study_id","prolific_session_id","rt","stimulus","response","view_history","trial","character_choice","stimulus_dict","accuracy","correct_response","ball_pos","ego_ball_visible","ego_can_infer","alter_ball_visible","alter_can_infer","collective_ball_visible","collective_can_infer","search_locations","alter_occluders","ego_occluders","accuracy_bool","feedback","age","ethnicity","gender","race","overall_accuracy","bonus"
"true","false","[]","[]","[]","preload","0","2457","0.0-0.0","609122350e5b8e743ab41f79","665500ab8938657b03fbdba8","665792a2bdb62dda81c08d8b","","","","","","","","","","","","","","","","","","","","","","","","","","",""
"true","","","","","fullscreen","1","5646","0.0-1.0","609122350e5b8e743ab41f79","665500ab8938657b03fbdba8","665792a2bdb62dda81c08d8b","","","","","","","","","","","","","","","","","","","","","","","","","","",""
"","","","","","html-button-response","2","47240","0.0-2.0","609122350e5b8e743ab41f79","665500ab8938657b03fbdba8","665792a2bdb62dda81c08d8b","41593","<p><b>Consent Form</b></p> <div style=""text-align:left;background-color:lightgrey; padding:20px; max-width:900px;""><p>Please consider this information carefully before deciding whether to participate in this research.</p> <p>The purpose of this research is to examine which factors influence social judgment and decision-making. You will be asked to make judgements about individuals and actions in social scenarios. We are simply interested in your judgement. The study will take less than 1 hour to complete, and you will receive less than $20 on Prolific. Your compensation and time commitment are specified in the study description. There are no anticipated risks associated with participating in this study. The effects of participating should be comparable to those you would ordinarily experience from viewing a computer monitor and using a mouse or keyboard for a similar amount of time. At the end of the study, we will provide an explanation of the questions that motivate this line of research and will describe the potential implications. </p><p> Your participation in this study is completely voluntary and you may refuse to participate or you may choose to withdraw at any time without penalty or loss of benefits to you which are otherwise entitled. Your participation in this study will remain confidential. No personally identifiable information will be associated with your data. Also, all analyses of the data will be averaged across all the participants, so your individual responses will never be specifically analyzed. </p><p> If you have questions or concerns about your participation or payment, or want to request a summary of research findings, please contact Dr. Jonathan Phillips at Jonathan.S.Phillips@dartmouth.edu. </p><p> Please save a copy of this form for your records. </p><p><b>Agreement: </b>The nature and purpose of this research have been sufficiently explained and I agree to participate in this study. I understand that I am free to withdraw at any time without incurring any penalty. Please consent by clicking the button below to continue. Otherwise, please exit the study at any time. </p>","0","","","","","","","","","","","","","","","","","","","","","","","",""
"","","","","","instructions","3","98104","0.0-3.0-0.0","609122350e5b8e743ab41f79","665500ab8938657b03fbdba8","665792a2bdb62dda81c08d8b","50862","","","[{""page_index"":0,""viewing_time"":1533},{""page_index"":1,""viewing_time"":2778},{""page_index"":2,""viewing_time"":1738},{""page_index"":3,""viewing_time"":4282},{""page_index"":4,""viewing_time"":2898},{""page_index"":5,""viewing_time"":3998},{""page_index"":6,""viewing_time"":3178},{""page_index"":7,""viewing_time"":2442},{""page_index"":8,""viewing_time"":3306},{""page_index"":9,""viewing_time"":2338},{""page_index"":10,""viewing_time"":10457},{""page_index"":11,""viewing_time"":6622},{""page_index"":12,""viewing_time"":3972},{""page_index"":13,""viewing_time"":1320}]","intro","","","","","","","","","","","","","","","","","","","","","",""
"","","","","","image-keyboard-response","4","99682","0.0-3.0-1.0","609122350e5b8e743ab41f79","665500ab8938657b03fbdba8","665792a2bdb62dda81c08d8b","1575","stimuli/0011110.jpg","1","","prediction_practice","0","{""filepath"":""stimuli/0011110.jpg"",""ball_pos"":0,""ego_ball_visible"":false,""ego_can_infer"":false,""alter_ball_visible"":true,""alter_can_infer"":true,""collective_ball_visible"":false,""collective_can_infer"":false,""search_locations"":[0],""alter_occluders"":""011"",""ego_occluders"":""110""}","false","","","","","","","","","","","","","","","","","","",""
"","","","","","image-keyboard-response","5","102421","0.0-3.0-2.0","609122350e5b8e743ab41f79","665500ab8938657b03fbdba8","665792a2bdb62dda81c08d8b","2735","stimuli/00111100.jpg"," ","","practrice_feedback","0","","","","","","","","","","","","","","","","","","","","",""
"","","","","","image-keyboard-response","6","104700","0.0-3.0-3.0","609122350e5b8e743ab41f79","665500ab8938657b03fbdba8","665792a2bdb62dda81c08d8b","2276","stimuli/1010010.jpg","1","","prediction_practice","1","{""filepath"":""stimuli/1010010.jpg"",""ball_pos"":1,""ego_ball_visible"":false,""ego_can_infer"":true,""alter_ball_visible"":false,""alter_can_infer"":true,""collective_ball_visible"":false,""collective_can_infer"":true,""search_locations"":[1],""alter_occluders"":""010"",""ego_occluders"":""010""}","true","","","","","","","","","","","","","","","","","","",""
"","","","","","image-keyboard-response","7","105802","0.0-3.0-4.0","609122350e5b8e743ab41f79","665500ab8938657b03fbdba8","665792a2bdb62dda81c08d8b","1099","stimuli/10100101.jpg"," ","","practrice_feedback","1","","","","","","","","","","","","","","","","","","","","",""
"","","","","","image-keyboard-response","8","108254","0.0-3.0-5.0","609122350e5b8e743ab41f79","665500ab8938657b03fbdba8","665792a2bdb62dda81c08d8b","2449","stimuli/0101110.jpg","0","","prediction_practice","0","{""filepath"":""stimuli/0101110.jpg"",""ball_pos"":0,""ego_ball_visible"":false,""ego_can_infer"":false,""alter_ball_visible"":false,""alter_can_infer"":false,""collective_ball_visible"":false,""collective_can_infer"":false,""search_locations"":[0,2],""alter_occluders"":""101"",""ego_occluders"":""110""}","true","","","","","","","","","","","","","","","","","","",""
"","","","","","image-keyboard-response","9","109682","0.0-3.0-6.0","609122350e5b8e743ab41f79","665500ab8938657b03fbdba8","665792a2bdb62dda81c08d8b","1426","stimuli/01011100.jpg"," ","","practrice_feedback","0","","","","","","","","","","","","","","","","","","","","",""
"","","","","","image-keyboard-response","10","110878","0.0-3.0-7.0","609122350e5b8e743ab41f79","665500ab8938657b03fbdba8","665792a2bdb62dda81c08d8b","1193","stimuli/1010110.jpg","1","","prediction_practice","1","{""filepath"":""stimuli/1010110.jpg"",""ball_pos"":1,""ego_ball_visible"":false,""ego_can_infer"":false,""alter_ball_visible"":false,""alter_can_infer"":true,""collective_ball_visible"":false,""collective_can_infer"":false,""search_locations"":[1],""alter_occluders"":""010"",""ego_occluders"":""110""}","true","","","","","","","","","","","","","","","","","","",""
"","","","","","image-keyboard-response","11","112591","0.0-3.0-8.0","609122350e5b8e743ab41f79","665500ab8938657b03fbdba8","665792a2bdb62dda81c08d8b","1710","stimuli/10101101.jpg"," ","","practrice_feedback","1","","","","","","","","","","","","","","","","","","","","",""
"","","","","","image-keyboard-response","12","113904","0.0-3.0-9.0","609122350e5b8e743ab41f79","665500ab8938657b03fbdba8","665792a2bdb62dda81c08d8b","1310","stimuli/1011011.jpg","2","","prediction_practice","1","{""filepath"":""stimuli/1011011.jpg"",""ball_pos"":1,""ego_ball_visible"":false,""ego_can_infer"":false,""alter_ball_visible"":false,""alter_can_infer"":false,""collective_ball_visible"":false,""collective_can_infer"":false,""search_locations"":[1,2],""alter_occluders"":""011"",""ego_occluders"":""011""}","false","","","","","","","","","","","","","","","","","","",""
"","","","","","image-keyboard-response","13","115042","0.0-3.0-10.0","609122350e5b8e743ab41f79","665500ab8938657b03fbdba8","665792a2bdb62dda81c08d8b","1136","stimuli/10110111.jpg"," ","","practrice_feedback","1","","","","","","","","","","","","","","","","","","","","",""
"","","","","","image-keyboard-response","14","117011","0.0-3.0-11.0","609122350e5b8e743ab41f79","665500ab8938657b03fbdba8","665792a2bdb62dda81c08d8b","1967","stimuli/0010001.jpg","0","","prediction_practice","0","{""filepath"":""stimuli/0010001.jpg"",""ball_pos"":0,""ego_ball_visible"":true,""ego_can_infer"":true,""alter_ball_visible"":true,""alter_can_infer"":true,""collective_ball_visible"":true,""collective_can_infer"":true,""search_locations"":[0],""alter_occluders"":""010"",""ego_occluders"":""001""}","true","","","","","","","","","","","","","","","","","","",""
"","","","","","image-keyboard-response","15","118082","0.0-3.0-12.0","609122350e5b8e743ab41f79","665500ab8938657b03fbdba8","665792a2bdb62dda81c08d8b","1068","stimuli/00100010.jpg"," ","","practrice_feedback","0","","","","","","","","","","","","","","","","","","","","",""
"","","","","","image-keyboard-response","16","120160","0.0-3.0-13.0","609122350e5b8e743ab41f79","665500ab8938657b03fbdba8","665792a2bdb62dda81c08d8b","2075","stimuli/1101110.jpg","1","","prediction_practice","1","{""filepath"":""stimuli/1101110.jpg"",""ball_pos"":1,""ego_ball_visible"":false,""ego_can_infer"":false,""alter_ball_visible"":true,""alter_can_infer"":true,""collective_ball_visible"":false,""collective_can_infer"":false,""search_locations"":[1],""alter_occluders"":""101"",""ego_occluders"":""110""}","true","","","","","","","","","","","","","","","","","","",""
"","","","","","image-keyboard-response","17","122093","0.0-3.0-14.0","609122350e5b8e743ab41f79","665500ab8938657b03fbdba8","665792a2bdb62dda81c08d8b","1931","stimuli/11011101.jpg"," ","","practrice_feedback","1","","","","","","","","","","","","","","","","","","","","",""
"","","","","","image-keyboard-response","18","124247","0.0-3.0-15.0","609122350e5b8e743ab41f79","665500ab8938657b03fbdba8","665792a2bdb62dda81c08d8b","2151","stimuli/0000110.jpg","0","","prediction_practice","0","{""filepath"":""stimuli/0000110.jpg"",""ball_pos"":0,""ego_ball_visible"":false,""ego_can_infer"":false,""alter_ball_visible"":true,""alter_can_infer"":true,""collective_ball_visible"":false,""collective_can_infer"":false,""search_locations"":[0],""alter_occluders"":""000"",""ego_occluders"":""110""}","true","","","","","","","","","","","","","","","","","","",""
"","","","","","image-keyboard-response","19","125248","0.0-3.0-16.0","609122350e5b8e743ab41f79","665500ab8938657b03fbdba8","665792a2bdb62dda81c08d8b","998","stimuli/00001100.jpg"," ","","practrice_feedback","0","","","","","","","","","","","","","","","","","","","","",""
"","","","","","image-keyboard-response","20","128055","0.0-3.0-17.0","609122350e5b8e743ab41f79","665500ab8938657b03fbdba8","665792a2bdb62dda81c08d8b","2804","stimuli/1110000.jpg","1","","prediction_practice","1","{""filepath"":""stimuli/1110000.jpg"",""ball_pos"":1,""ego_ball_visible"":true,""ego_can_infer"":true,""alter_ball_visible"":false,""alter_can_infer"":false,""collective_ball_visible"":false,""collective_can_infer"":false,""search_locations"":[1,0],""alter_occluders"":""110"",""ego_occluders"":""000""}","true","","","","","","","","","","","","","","","","","","",""
"","","","","","image-keyboard-response","21","129027","0.0-3.0-18.0","609122350e5b8e743ab41f79","665500ab8938657b03fbdba8","665792a2bdb62dda81c08d8b","969","stimuli/11100001.jpg"," ","","practrice_feedback","1","","","","","","","","","","","","","","","","","","","","",""
"","","","","","image-keyboard-response","22","131663","0.0-3.0-19.0","609122350e5b8e743ab41f79","665500ab8938657b03fbdba8","665792a2bdb62dda81c08d8b","2633","stimuli/2010011.jpg","1","","prediction_practice","2","{""filepath"":""stimuli/2010011.jpg"",""ball_pos"":2,""ego_ball_visible"":false,""ego_can_infer"":false,""alter_ball_visible"":true,""alter_can_infer"":true,""collective_ball_visible"":false,""collective_can_infer"":false,""search_locations"":[2],""alter_occluders"":""010"",""ego_occluders"":""011""}","false","","","","","","","","","","","","","","","","","","",""
"","","","","","image-keyboard-response","23","132834","0.0-3.0-20.0","609122350e5b8e743ab41f79","665500ab8938657b03fbdba8","665792a2bdb62dda81c08d8b","1168","stimuli/20100112.jpg"," ","","practrice_feedback","2","","","","","","","","","","","","","","","","","","","","",""
"","","","","","html-button-response","24","136126","0.0-3.0-21.0","609122350e5b8e743ab41f79","665500ab8938657b03fbdba8","665792a2bdb62dda81c08d8b","3292","Now that you've had some practice, you'll be tested with a couple of easy trials. If you correctly predict Sam's choice, you'll move on to complete the experiment!","0","","","","","","","","","","","","","","","","","","","","","","","",""
"","","","","","image-keyboard-response","25","138063","0.0-3.0-22.0-0.0","609122350e5b8e743ab41f79","665500ab8938657b03fbdba8","665792a2bdb62dda81c08d8b","1934","stimuli/0000011.jpg","arrowleft","","comprehension_quiz","","","true","arrowleft","","","","","","","","","","","","","","","","","",""
"","","","","","image-keyboard-response","26","139133","0.0-3.0-22.0-1.0","609122350e5b8e743ab41f79","665500ab8938657b03fbdba8","665792a2bdb62dda81c08d8b","1068","stimuli/00000110.jpg"," ","","comprehension_quiz","","","true"," ","","","","","","","","","","","","","","","","","",""
"","","","","","image-keyboard-response","27","140497","0.0-3.0-22.0-2.0","609122350e5b8e743ab41f79","665500ab8938657b03fbdba8","665792a2bdb62dda81c08d8b","1363","stimuli/1010010.jpg","arrowdown","","comprehension_quiz","","","true","arrowdown","","","","","","","","","","","","","","","","","",""
"","","","","","image-keyboard-response","28","141384","0.0-3.0-22.0-3.0","609122350e5b8e743ab41f79","665500ab8938657b03fbdba8","665792a2bdb62dda81c08d8b","887","stimuli/10100101.jpg"," ","","comprehension_quiz","","","true"," ","","","","","","","","","","","","","","","","","",""
"","","","","","html-button-response","29","143251","0.0-4.0","609122350e5b8e743ab41f79","665500ab8938657b03fbdba8","665792a2bdb62dda81c08d8b","1866","The experiment will now begin.","0","","","","","","","","","","","","","","","","","","","","","","","",""
"","","","","","image-keyboard-response","30","145380","0.0-5.0","609122350e5b8e743ab41f79","665500ab8938657b03fbdba8","665792a2bdb62dda81c08d8b","2129","stimuli/1111111.jpg","2","","prediction_trial","1","","false","","1","false","false","false","false","false","false","[0,2,1]","111","111","0","","","","","","",""
"","","","","","image-keyboard-response","31","147105","0.0-6.0","609122350e5b8e743ab41f79","665500ab8938657b03fbdba8","665792a2bdb62dda81c08d8b","1722","stimuli/11111111.jpg"," ","","feedback_trial","0","","","","","","","","","","","","","","","","","","","","",""
"","","","","","image-keyboard-response","32","148504","0.0-7.0","609122350e5b8e743ab41f79","665500ab8938657b03fbdba8","665792a2bdb62dda81c08d8b","1396","stimuli/2111011.jpg","2","","prediction_trial","0","","false","","2","false","false","false","false","false","false","[0,1,2]","111","011","0","","","","","","",""
"","","","","","image-keyboard-response","33","152624","0.0-8.0","609122350e5b8e743ab41f79","665500ab8938657b03fbdba8","665792a2bdb62dda81c08d8b","4118","stimuli/21110110.jpg"," ","","feedback_trial","0","","","","","","","","","","","","","","","","","","","","",""
"","","","","","image-keyboard-response","34","154025","0.0-9.0","609122350e5b8e743ab41f79","665500ab8938657b03fbdba8","665792a2bdb62dda81c08d8b","1397","stimuli/2010000.jpg","2","","prediction_trial","2","","true","","2","true","true","true","true","true","true","[2]","010","000","1","","","","","","",""
"","","","","","image-keyboard-response","35","154566","0.0-10.0","609122350e5b8e743ab41f79","665500ab8938657b03fbdba8","665792a2bdb62dda81c08d8b","539","stimuli/20100002.jpg"," ","","feedback_trial","2","","","","","","","","","","","","","","","","","","","","",""
"","","","","","image-keyboard-response","36","157290","0.0-11.0","609122350e5b8e743ab41f79","665500ab8938657b03fbdba8","665792a2bdb62dda81c08d8b","2721","stimuli/0101001.jpg","0","","prediction_trial","0","","true","","0","true","true","false","false","false","false","[0,2]","101","001","1","","","","","","",""
"","","","","","image-keyboard-response","37","158129","0.0-12.0","609122350e5b8e743ab41f79","665500ab8938657b03fbdba8","665792a2bdb62dda81c08d8b","835","stimuli/01010010.jpg"," ","","feedback_trial","0","","","","","","","","","","","","","","","","","","","","",""
"","","","","","image-keyboard-response","38","160098","0.0-13.0","609122350e5b8e743ab41f79","665500ab8938657b03fbdba8","665792a2bdb62dda81c08d8b","1967","stimuli/0100011.jpg","0","","prediction_trial","0","","true","","0","true","true","false","true","false","true","[0]","100","011","1","","","","","","",""
"","","","","","image-keyboard-response","39","160663","0.0-14.0","609122350e5b8e743ab41f79","665500ab8938657b03fbdba8","665792a2bdb62dda81c08d8b","562","stimuli/01000110.jpg"," ","","feedback_trial","0","","","","","","","","","","","","","","","","","","","","",""
"","","","","","image-keyboard-response","40","162423","0.0-15.0","609122350e5b8e743ab41f79","665500ab8938657b03fbdba8","665792a2bdb62dda81c08d8b","1758","stimuli/0001101.jpg","2","","prediction_trial","0","","false","","0","false","false","true","true","false","false","[0]","001","101","0","","","","","","",""
"","","","","","image-keyboard-response","41","163175","0.0-16.0","609122350e5b8e743ab41f79","665500ab8938657b03fbdba8","665792a2bdb62dda81c08d8b","750","stimuli/00011010.jpg"," ","","feedback_trial","0","","","","","","","","","","","","","","","","","","","","",""
"","","","","","image-keyboard-response","42","164135","0.0-17.0","609122350e5b8e743ab41f79","665500ab8938657b03fbdba8","665792a2bdb62dda81c08d8b","958","stimuli/0000011.jpg","0","","prediction_trial","0","","true","","0","true","true","true","true","true","true","[0]","000","011","1","","","","","","",""
"","","","","","image-keyboard-response","43","164582","0.0-18.0","609122350e5b8e743ab41f79","665500ab8938657b03fbdba8","665792a2bdb62dda81c08d8b","447","stimuli/00000110.jpg"," ","","feedback_trial","0","","","","","","","","","","","","","","","","","","","","",""
"","","","","","image-keyboard-response","44","165421","0.0-19.0","609122350e5b8e743ab41f79","665500ab8938657b03fbdba8","665792a2bdb62dda81c08d8b","836","stimuli/1110111.jpg","1","","prediction_trial","0","","false","","1","false","false","false","false","false","false","[1,0]","110","111","0","","","","","","",""
"","","","","","image-keyboard-response","45","166075","0.0-20.0","609122350e5b8e743ab41f79","665500ab8938657b03fbdba8","665792a2bdb62dda81c08d8b","651","stimuli/11101110.jpg"," ","","feedback_trial","1","","","","","","","","","","","","","","","","","","","","",""
"","","","","","image-keyboard-response","46","167340","0.0-21.0","609122350e5b8e743ab41f79","665500ab8938657b03fbdba8","665792a2bdb62dda81c08d8b","1263","stimuli/0101011.jpg","0","","prediction_trial","0","","true","","0","true","true","false","false","false","false","[0,2]","101","011","1","","","","","","",""
"","","","","","image-keyboard-response","47","168037","0.0-22.0","609122350e5b8e743ab41f79","665500ab8938657b03fbdba8","665792a2bdb62dda81c08d8b","695","stimuli/01010110.jpg"," ","","feedback_trial","0","","","","","","","","","","","","","","","","","","","","",""
"","","","","","image-keyboard-response","48","169740","0.0-23.0","609122350e5b8e743ab41f79","665500ab8938657b03fbdba8","665792a2bdb62dda81c08d8b","1701","stimuli/0010111.jpg","1","","prediction_trial","0","","false","","0","false","false","true","true","false","false","[0]","010","111","0","","","","","","",""
"","","","","","image-keyboard-response","49","170365","0.0-24.0","609122350e5b8e743ab41f79","665500ab8938657b03fbdba8","665792a2bdb62dda81c08d8b","623","stimuli/00101110.jpg"," ","","feedback_trial","0","","","","","","","","","","","","","","","","","","","","",""
"","","","","","image-keyboard-response","50","171717","0.0-25.0","609122350e5b8e743ab41f79","665500ab8938657b03fbdba8","665792a2bdb62dda81c08d8b","1350","stimuli/0111010.jpg","0","","prediction_trial","1","","false","","0","true","true","false","false","false","false","[1,2,0]","111","010","0","","","","","","",""
"","","","","","image-keyboard-response","51","172286","0.0-26.0","609122350e5b8e743ab41f79","665500ab8938657b03fbdba8","665792a2bdb62dda81c08d8b","565","stimuli/01110101.jpg"," ","","feedback_trial","1","","","","","","","","","","","","","","","","","","","","",""
"","","","","","image-keyboard-response","52","173863","0.0-27.0","609122350e5b8e743ab41f79","665500ab8938657b03fbdba8","665792a2bdb62dda81c08d8b","1574","stimuli/2100111.jpg","1","","prediction_trial","2","","false","","2","false","false","true","true","false","false","[2]","100","111","0","","","","","","",""
"","","","","","image-keyboard-response","53","174525","0.0-28.0","609122350e5b8e743ab41f79","665500ab8938657b03fbdba8","665792a2bdb62dda81c08d8b","660","stimuli/21001112.jpg"," ","","feedback_trial","2","","","","","","","","","","","","","","","","","","","","",""
"","","","","","image-keyboard-response","54","175591","0.0-29.0","609122350e5b8e743ab41f79","665500ab8938657b03fbdba8","665792a2bdb62dda81c08d8b","1064","stimuli/2100000.jpg","2","","prediction_trial","2","","true","","2","true","true","true","true","true","true","[2]","100","000","1","","","","","","",""
"","","","","","image-keyboard-response","55","176062","0.0-30.0","609122350e5b8e743ab41f79","665500ab8938657b03fbdba8","665792a2bdb62dda81c08d8b","467","stimuli/21000002.jpg"," ","","feedback_trial","2","","","","","","","","","","","","","","","","","","","","",""
"","","","","","image-keyboard-response","56","177086","0.0-31.0","609122350e5b8e743ab41f79","665500ab8938657b03fbdba8","665792a2bdb62dda81c08d8b","1022","stimuli/1111001.jpg","1","","prediction_trial","1","","true","","1","true","true","false","false","false","false","[1,0,2]","111","001","1","","","","","","",""
"","","","","","image-keyboard-response","57","177616","0.0-32.0","609122350e5b8e743ab41f79","665500ab8938657b03fbdba8","665792a2bdb62dda81c08d8b","527","stimuli/11110011.jpg"," ","","feedback_trial","1","","","","","","","","","","","","","","","","","","","","",""
"","","","","","image-keyboard-response","58","179247","0.0-33.0","609122350e5b8e743ab41f79","665500ab8938657b03fbdba8","665792a2bdb62dda81c08d8b","1630","stimuli/1110000.jpg","1","","prediction_trial","1","","true","","1","true","true","false","false","false","false","[1,0]","110","000","1","","","","","","",""
"","","","","","image-keyboard-response","59","179826","0.0-34.0","609122350e5b8e743ab41f79","665500ab8938657b03fbdba8","665792a2bdb62dda81c08d8b","579","stimuli/11100001.jpg"," ","","feedback_trial","1","","","","","","","","","","","","","","","","","","","","",""
"","","","","","image-keyboard-response","60","181699","0.0-35.0","609122350e5b8e743ab41f79","665500ab8938657b03fbdba8","665792a2bdb62dda81c08d8b","1874","stimuli/0000110.jpg","1","","prediction_trial","0","","false","","0","false","false","true","true","false","false","[0]","000","110","0","","","","","","",""
"","","","","","image-keyboard-response","61","182214","0.0-36.0","609122350e5b8e743ab41f79","665500ab8938657b03fbdba8","665792a2bdb62dda81c08d8b","513","stimuli/00001100.jpg"," ","","feedback_trial","0","","","","","","","","","","","","","","","","","","","","",""
"","","","","","image-keyboard-response","62","183708","0.0-37.0","609122350e5b8e743ab41f79","665500ab8938657b03fbdba8","665792a2bdb62dda81c08d8b","1492","stimuli/2111110.jpg","1","","prediction_trial","1","","true","","2","true","true","false","false","false","false","[0,2,1]","111","110","1","","","","","","",""
"","","","","","image-keyboard-response","63","184352","0.0-38.0","609122350e5b8e743ab41f79","665500ab8938657b03fbdba8","665792a2bdb62dda81c08d8b","640","stimuli/21111101.jpg"," ","","feedback_trial","0","","","","","","","","","","","","","","","","","","","","",""
"","","","","","image-keyboard-response","64","185226","0.0-39.0","609122350e5b8e743ab41f79","665500ab8938657b03fbdba8","665792a2bdb62dda81c08d8b","872","stimuli/0001000.jpg","0","","prediction_trial","0","","true","","0","true","true","true","true","true","true","[0]","001","000","1","","","","","","",""
"","","","","","image-keyboard-response","65","185564","0.0-40.0","609122350e5b8e743ab41f79","665500ab8938657b03fbdba8","665792a2bdb62dda81c08d8b","335","stimuli/00010000.jpg"," ","","feedback_trial","0","","","","","","","","","","","","","","","","","","","","",""
"","","","","","image-keyboard-response","66","186988","0.0-41.0","609122350e5b8e743ab41f79","665500ab8938657b03fbdba8","665792a2bdb62dda81c08d8b","1420","stimuli/2010001.jpg","2","","prediction_trial","2","","true","","2","false","true","true","true","false","true","[2]","010","001","1","","","","","","",""
"","","","","","image-keyboard-response","67","187385","0.0-42.0","609122350e5b8e743ab41f79","665500ab8938657b03fbdba8","665792a2bdb62dda81c08d8b","394","stimuli/20100012.jpg"," ","","feedback_trial","2","","","","","","","","","","","","","","","","","","","","",""
"","","","","","image-keyboard-response","68","189517","0.0-43.0","609122350e5b8e743ab41f79","665500ab8938657b03fbdba8","665792a2bdb62dda81c08d8b","2129","stimuli/0101110.jpg","0","","prediction_trial","2","","false","","0","false","false","false","false","false","false","[0,2]","101","110","0","","","","","","",""
"","","","","","image-keyboard-response","69","190746","0.0-44.0","609122350e5b8e743ab41f79","665500ab8938657b03fbdba8","665792a2bdb62dda81c08d8b","1227","stimuli/01011102.jpg"," ","","feedback_trial","0","","","","","","","","","","","","","","","","","","","","",""
"","","","","","image-keyboard-response","70","192711","0.0-45.0","609122350e5b8e743ab41f79","665500ab8938657b03fbdba8","665792a2bdb62dda81c08d8b","1963","stimuli/0100001.jpg","0","","prediction_trial","0","","true","","0","true","true","false","true","false","true","[0]","100","001","1","","","","","","",""
"","","","","","image-keyboard-response","71","193255","0.0-46.0","609122350e5b8e743ab41f79","665500ab8938657b03fbdba8","665792a2bdb62dda81c08d8b","541","stimuli/01000010.jpg"," ","","feedback_trial","0","","","","","","","","","","","","","","","","","","","","",""
"","","","","","image-keyboard-response","72","194812","0.0-47.0","609122350e5b8e743ab41f79","665500ab8938657b03fbdba8","665792a2bdb62dda81c08d8b","1554","stimuli/0100010.jpg","0","","prediction_trial","0","","true","","0","true","true","false","true","false","true","[0]","100","010","1","","","","","","",""
"","","","","","image-keyboard-response","73","195231","0.0-48.0","609122350e5b8e743ab41f79","665500ab8938657b03fbdba8","665792a2bdb62dda81c08d8b","417","stimuli/01000100.jpg"," ","","feedback_trial","0","","","","","","","","","","","","","","","","","","","","",""
"","","","","","image-keyboard-response","74","196019","0.0-49.0","609122350e5b8e743ab41f79","665500ab8938657b03fbdba8","665792a2bdb62dda81c08d8b","785","stimuli/0110110.jpg","1","","prediction_trial","1","","true","","0","false","false","false","false","false","false","[0,1]","110","110","1","","","","","","",""
"","","","","","image-keyboard-response","75","196485","0.0-50.0","609122350e5b8e743ab41f79","665500ab8938657b03fbdba8","665792a2bdb62dda81c08d8b","463","stimuli/01101101.jpg"," ","","feedback_trial","0","","","","","","","","","","","","","","","","","","","","",""
"","","","","","image-keyboard-response","76","197471","0.0-51.0","609122350e5b8e743ab41f79","665500ab8938657b03fbdba8","665792a2bdb62dda81c08d8b","982","stimuli/0011110.jpg","1","","prediction_trial","0","","false","","0","false","false","true","true","false","false","[0]","011","110","0","","","","","","",""
"","","","","","image-keyboard-response","77","198160","0.0-52.0","609122350e5b8e743ab41f79","665500ab8938657b03fbdba8","665792a2bdb62dda81c08d8b","686","stimuli/00111100.jpg"," ","","feedback_trial","0","","","","","","","","","","","","","","","","","","","","",""
"","","","","","image-keyboard-response","78","199036","0.0-53.0","609122350e5b8e743ab41f79","665500ab8938657b03fbdba8","665792a2bdb62dda81c08d8b","873","stimuli/1001111.jpg","2","","prediction_trial","1","","false","","1","false","false","true","true","false","false","[1]","001","111","0","","","","","","",""
"","","","","","image-keyboard-response","79","199701","0.0-54.0","609122350e5b8e743ab41f79","665500ab8938657b03fbdba8","665792a2bdb62dda81c08d8b","663","stimuli/10011111.jpg"," ","","feedback_trial","1","","","","","","","","","","","","","","","","","","","","",""
"","","","","","image-keyboard-response","80","200607","0.0-55.0","609122350e5b8e743ab41f79","665500ab8938657b03fbdba8","665792a2bdb62dda81c08d8b","903","stimuli/1001011.jpg","1","","prediction_trial","1","","true","","1","false","false","true","true","false","false","[1]","001","011","1","","","","","","",""
"","","","","","image-keyboard-response","81","201064","0.0-56.0","609122350e5b8e743ab41f79","665500ab8938657b03fbdba8","665792a2bdb62dda81c08d8b","453","stimuli/10010111.jpg"," ","","feedback_trial","1","","","","","","","","","","","","","","","","","","","","",""
"","","","","","image-keyboard-response","82","201927","0.0-57.0","609122350e5b8e743ab41f79","665500ab8938657b03fbdba8","665792a2bdb62dda81c08d8b","861","stimuli/0000010.jpg","0","","prediction_trial","0","","true","","0","true","true","true","true","true","true","[0]","000","010","1","","","","","","",""
"","","","","","image-keyboard-response","83","202263","0.0-58.0","609122350e5b8e743ab41f79","665500ab8938657b03fbdba8","665792a2bdb62dda81c08d8b","333","stimuli/00000100.jpg"," ","","feedback_trial","0","","","","","","","","","","","","","","","","","","","","",""
"","","","","","image-keyboard-response","84","203186","0.0-59.0","609122350e5b8e743ab41f79","665500ab8938657b03fbdba8","665792a2bdb62dda81c08d8b","920","stimuli/2110110.jpg","2","","prediction_trial","2","","true","","2","true","true","true","true","true","true","[2]","110","110","1","","","","","","",""
"","","","","","image-keyboard-response","85","203532","0.0-60.0","609122350e5b8e743ab41f79","665500ab8938657b03fbdba8","665792a2bdb62dda81c08d8b","343","stimuli/21101102.jpg"," ","","feedback_trial","2","","","","","","","","","","","","","","","","","","","","",""
"","","","","","image-keyboard-response","86","204303","0.0-61.0","609122350e5b8e743ab41f79","665500ab8938657b03fbdba8","665792a2bdb62dda81c08d8b","767","stimuli/1000000.jpg","1","","prediction_trial","1","","true","","1","true","true","true","true","true","true","[1]","000","000","1","","","","","","",""
"","","","","","image-keyboard-response","87","204621","0.0-62.0","609122350e5b8e743ab41f79","665500ab8938657b03fbdba8","665792a2bdb62dda81c08d8b","317","stimuli/10000001.jpg"," ","","feedback_trial","1","","","","","","","","","","","","","","","","","","","","",""
"","","","","","image-keyboard-response","88","205356","0.0-63.0","609122350e5b8e743ab41f79","665500ab8938657b03fbdba8","665792a2bdb62dda81c08d8b","732","stimuli/1111110.jpg","1","","prediction_trial","1","","true","","1","false","false","false","false","false","false","[1,2,0]","111","110","1","","","","","","",""
"","","","","","image-keyboard-response","89","205712","0.0-64.0","609122350e5b8e743ab41f79","665500ab8938657b03fbdba8","665792a2bdb62dda81c08d8b","353","stimuli/11111101.jpg"," ","","feedback_trial","1","","","","","","","","","","","","","","","","","","","","",""
"","","","","","image-keyboard-response","90","206509","0.0-65.0","609122350e5b8e743ab41f79","665500ab8938657b03fbdba8","665792a2bdb62dda81c08d8b","794","stimuli/1000100.jpg","1","","prediction_trial","1","","true","","1","true","true","true","true","true","true","[1]","000","100","1","","","","","","",""
"","","","","","image-keyboard-response","91","206811","0.0-66.0","609122350e5b8e743ab41f79","665500ab8938657b03fbdba8","665792a2bdb62dda81c08d8b","299","stimuli/10001001.jpg"," ","","feedback_trial","1","","","","","","","","","","","","","","","","","","","","",""
"","","","","","image-keyboard-response","92","207701","0.0-67.0","609122350e5b8e743ab41f79","665500ab8938657b03fbdba8","665792a2bdb62dda81c08d8b","887","stimuli/1111000.jpg","1","","prediction_trial","1","","true","","1","true","true","false","false","false","false","[2,0,1]","111","000","1","","","","","","",""
"","","","","","image-keyboard-response","93","208037","0.0-68.0","609122350e5b8e743ab41f79","665500ab8938657b03fbdba8","665792a2bdb62dda81c08d8b","333","stimuli/11110001.jpg"," ","","feedback_trial","2","","","","","","","","","","","","","","","","","","","","",""
"","","","","","image-keyboard-response","94","208969","0.0-69.0","609122350e5b8e743ab41f79","665500ab8938657b03fbdba8","665792a2bdb62dda81c08d8b","931","stimuli/0010011.jpg","0","","prediction_trial","0","","true","","0","true","true","true","true","true","true","[0]","010","011","1","","","","","","",""
"","","","","","image-keyboard-response","95","209277","0.0-70.0","609122350e5b8e743ab41f79","665500ab8938657b03fbdba8","665792a2bdb62dda81c08d8b","305","stimuli/00100110.jpg"," ","","feedback_trial","0","","","","","","","","","","","","","","","","","","","","",""
"","","","","","image-keyboard-response","96","210890","0.0-71.0","609122350e5b8e743ab41f79","665500ab8938657b03fbdba8","665792a2bdb62dda81c08d8b","1609","stimuli/1101011.jpg","1","","prediction_trial","1","","true","","1","false","false","true","true","false","false","[1]","101","011","1","","","","","","",""
"","","","","","image-keyboard-response","97","211242","0.0-72.0","609122350e5b8e743ab41f79","665500ab8938657b03fbdba8","665792a2bdb62dda81c08d8b","350","stimuli/11010111.jpg"," ","","feedback_trial","1","","","","","","","","","","","","","","","","","","","","",""
"","","","","","image-keyboard-response","98","212509","0.0-73.0","609122350e5b8e743ab41f79","665500ab8938657b03fbdba8","665792a2bdb62dda81c08d8b","1264","stimuli/2011100.jpg","1","","prediction_trial","2","","false","","2","true","true","false","false","false","false","[2,1]","011","100","0","","","","","","",""
"","","","","","image-keyboard-response","99","213292","0.0-74.0","609122350e5b8e743ab41f79","665500ab8938657b03fbdba8","665792a2bdb62dda81c08d8b","781","stimuli/20111002.jpg"," ","","feedback_trial","2","","","","","","","","","","","","","","","","","","","","",""
"","","","","","image-keyboard-response","100","214114","0.0-75.0","609122350e5b8e743ab41f79","665500ab8938657b03fbdba8","665792a2bdb62dda81c08d8b","821","stimuli/1101110.jpg","1","","prediction_trial","1","","true","","1","false","false","true","true","false","false","[1]","101","110","1","","","","","","",""
"","","","","","image-keyboard-response","101","214977","0.0-76.0","609122350e5b8e743ab41f79","665500ab8938657b03fbdba8","665792a2bdb62dda81c08d8b","864","stimuli/11011101.jpg"," ","","feedback_trial","1","","","","","","","","","","","","","","","","","","","","",""
"","","","","","image-keyboard-response","102","215705","0.0-77.0","609122350e5b8e743ab41f79","665500ab8938657b03fbdba8","665792a2bdb62dda81c08d8b","725","stimuli/0010000.jpg","0","","prediction_trial","0","","true","","0","true","true","true","true","true","true","[0]","010","000","1","","","","","","",""
"","","","","","image-keyboard-response","103","216029","0.0-78.0","609122350e5b8e743ab41f79","665500ab8938657b03fbdba8","665792a2bdb62dda81c08d8b","321","stimuli/00100000.jpg"," ","","feedback_trial","0","","","","","","","","","","","","","","","","","","","","",""
"","","","","","image-keyboard-response","104","216776","0.0-79.0","609122350e5b8e743ab41f79","665500ab8938657b03fbdba8","665792a2bdb62dda81c08d8b","745","stimuli/1011101.jpg","1","","prediction_trial","1","","true","","1","true","true","false","false","false","false","[1,2]","011","101","1","","","","","","",""
"","","","","","image-keyboard-response","105","217093","0.0-80.0","609122350e5b8e743ab41f79","665500ab8938657b03fbdba8","665792a2bdb62dda81c08d8b","315","stimuli/10111011.jpg"," ","","feedback_trial","1","","","","","","","","","","","","","","","","","","","","",""
"","","","","","image-keyboard-response","106","217828","0.0-81.0","609122350e5b8e743ab41f79","665500ab8938657b03fbdba8","665792a2bdb62dda81c08d8b","733","stimuli/2110101.jpg","0","","prediction_trial","2","","false","","2","false","false","true","true","false","false","[2]","110","101","0","","","","","","",""
"","","","","","image-keyboard-response","107","218604","0.0-82.0","609122350e5b8e743ab41f79","665500ab8938657b03fbdba8","665792a2bdb62dda81c08d8b","773","stimuli/21101012.jpg"," ","","feedback_trial","2","","","","","","","","","","","","","","","","","","","","",""
"","","","","","image-keyboard-response","108","219252","0.0-83.0","609122350e5b8e743ab41f79","665500ab8938657b03fbdba8","665792a2bdb62dda81c08d8b","645","stimuli/2110011.jpg","1","","prediction_trial","2","","false","","2","false","false","true","true","false","false","[2]","110","011","0","","","","","","",""
"","","","","","image-keyboard-response","109","219783","0.0-84.0","609122350e5b8e743ab41f79","665500ab8938657b03fbdba8","665792a2bdb62dda81c08d8b","529","stimuli/21100112.jpg"," ","","feedback_trial","2","","","","","","","","","","","","","","","","","","","","",""
"","","","","","image-keyboard-response","110","222143","0.0-85.0","609122350e5b8e743ab41f79","665500ab8938657b03fbdba8","665792a2bdb62dda81c08d8b","2358","stimuli/1110011.jpg","1","","prediction_trial","0","","false","","1","false","false","false","false","false","false","[1,0]","110","011","0","","","","","","",""
"","","","","","image-keyboard-response","111","222735","0.0-86.0","609122350e5b8e743ab41f79","665500ab8938657b03fbdba8","665792a2bdb62dda81c08d8b","589","stimuli/11100110.jpg"," ","","feedback_trial","1","","","","","","","","","","","","","","","","","","","","",""
"","","","","","image-keyboard-response","112","223705","0.0-87.0","609122350e5b8e743ab41f79","665500ab8938657b03fbdba8","665792a2bdb62dda81c08d8b","968","stimuli/2010111.jpg","1","","prediction_trial","2","","false","","2","false","false","true","true","false","false","[2]","010","111","0","","","","","","",""
"","","","","","image-keyboard-response","113","224432","0.0-88.0","609122350e5b8e743ab41f79","665500ab8938657b03fbdba8","665792a2bdb62dda81c08d8b","724","stimuli/20101112.jpg"," ","","feedback_trial","2","","","","","","","","","","","","","","","","","","","","",""
"","","","","","image-keyboard-response","114","225207","0.0-89.0","609122350e5b8e743ab41f79","665500ab8938657b03fbdba8","665792a2bdb62dda81c08d8b","773","stimuli/2111101.jpg","2","","prediction_trial","2","","true","","2","false","false","false","false","false","false","[1,0,2]","111","101","1","","","","","","",""
"","","","","","image-keyboard-response","115","225634","0.0-90.0","609122350e5b8e743ab41f79","665500ab8938657b03fbdba8","665792a2bdb62dda81c08d8b","424","stimuli/21111012.jpg"," ","","feedback_trial","1","","","","","","","","","","","","","","","","","","","","",""
"","","","","","image-keyboard-response","116","226469","0.0-91.0","609122350e5b8e743ab41f79","665500ab8938657b03fbdba8","665792a2bdb62dda81c08d8b","832","stimuli/2110010.jpg","2","","prediction_trial","2","","true","","2","true","true","true","true","true","true","[2]","110","010","1","","","","","","",""
"","","","","","image-keyboard-response","117","226776","0.0-92.0","609122350e5b8e743ab41f79","665500ab8938657b03fbdba8","665792a2bdb62dda81c08d8b","305","stimuli/21100102.jpg"," ","","feedback_trial","2","","","","","","","","","","","","","","","","","","","","",""
"","","","","","image-keyboard-response","118","227470","0.0-93.0","609122350e5b8e743ab41f79","665500ab8938657b03fbdba8","665792a2bdb62dda81c08d8b","691","stimuli/1110010.jpg","1","","prediction_trial","1","","true","","1","false","true","false","false","false","false","[0,1]","110","010","1","","","","","","",""
"","","","","","image-keyboard-response","119","227842","0.0-94.0","609122350e5b8e743ab41f79","665500ab8938657b03fbdba8","665792a2bdb62dda81c08d8b","369","stimuli/11100101.jpg"," ","","feedback_trial","0","","","","","","","","","","","","","","","","","","","","",""
"","","","","","image-keyboard-response","120","228979","0.0-95.0","609122350e5b8e743ab41f79","665500ab8938657b03fbdba8","665792a2bdb62dda81c08d8b","1135","stimuli/0100110.jpg","0","","prediction_trial","0","","true","","0","false","false","false","true","false","false","[0]","100","110","1","","","","","","",""
"","","","","","image-keyboard-response","121","229356","0.0-96.0","609122350e5b8e743ab41f79","665500ab8938657b03fbdba8","665792a2bdb62dda81c08d8b","374","stimuli/01001100.jpg"," ","","feedback_trial","0","","","","","","","","","","","","","","","","","","","","",""
"","","","","","image-keyboard-response","122","230488","0.0-97.0","609122350e5b8e743ab41f79","665500ab8938657b03fbdba8","665792a2bdb62dda81c08d8b","1129","stimuli/2001101.jpg","2","","prediction_trial","2","","true","","2","false","false","false","true","false","false","[2]","001","101","1","","","","","","",""
"","","","","","image-keyboard-response","123","230929","0.0-98.0","609122350e5b8e743ab41f79","665500ab8938657b03fbdba8","665792a2bdb62dda81c08d8b","437","stimuli/20011012.jpg"," ","","feedback_trial","2","","","","","","","","","","","","","","","","","","","","",""
"","","","","","image-keyboard-response","124","231750","0.0-99.0","609122350e5b8e743ab41f79","665500ab8938657b03fbdba8","665792a2bdb62dda81c08d8b","819","stimuli/0111001.jpg","0","","prediction_trial","2","","false","","0","true","true","false","false","false","false","[2,0,1]","111","001","0","","","","","","",""
"","","","","","image-keyboard-response","125","232324","0.0-100.0","609122350e5b8e743ab41f79","665500ab8938657b03fbdba8","665792a2bdb62dda81c08d8b","571","stimuli/01110012.jpg"," ","","feedback_trial","2","","","","","","","","","","","","","","","","","","","","",""
"","","","","","image-keyboard-response","126","233174","0.0-101.0","609122350e5b8e743ab41f79","665500ab8938657b03fbdba8","665792a2bdb62dda81c08d8b","847","stimuli/1000001.jpg","1","","prediction_trial","1","","true","","1","true","true","true","true","true","true","[1]","000","001","1","","","","","","",""
"","","","","","image-keyboard-response","127","233502","0.0-102.0","609122350e5b8e743ab41f79","665500ab8938657b03fbdba8","665792a2bdb62dda81c08d8b","326","stimuli/10000011.jpg"," ","","feedback_trial","1","","","","","","","","","","","","","","","","","","","","",""
"","","","","","image-keyboard-response","128","234019","0.0-103.0","609122350e5b8e743ab41f79","665500ab8938657b03fbdba8","665792a2bdb62dda81c08d8b","515","stimuli/1000101.jpg","1","","prediction_trial","1","","true","","1","true","true","true","true","true","true","[1]","000","101","1","","","","","","",""
"","","","","","image-keyboard-response","129","234335","0.0-104.0","609122350e5b8e743ab41f79","665500ab8938657b03fbdba8","665792a2bdb62dda81c08d8b","314","stimuli/10001011.jpg"," ","","feedback_trial","1","","","","","","","","","","","","","","","","","","","","",""
"","","","","","image-keyboard-response","130","234973","0.0-105.0","609122350e5b8e743ab41f79","665500ab8938657b03fbdba8","665792a2bdb62dda81c08d8b","635","stimuli/1011011.jpg","1","","prediction_trial","2","","false","","1","false","false","false","false","false","false","[1,2]","011","011","0","","","","","","",""
"","","","","","image-keyboard-response","131","235372","0.0-106.0","609122350e5b8e743ab41f79","665500ab8938657b03fbdba8","665792a2bdb62dda81c08d8b","397","stimuli/10110112.jpg"," ","","feedback_trial","1","","","","","","","","","","","","","","","","","","","","",""
"","","","","","image-keyboard-response","132","236689","0.0-107.0","609122350e5b8e743ab41f79","665500ab8938657b03fbdba8","665792a2bdb62dda81c08d8b","1313","stimuli/2001111.jpg","2","","prediction_trial","2","","true","","2","false","false","false","true","false","false","[2]","001","111","1","","","","","","",""
"","","","","","image-keyboard-response","133","237217","0.0-108.0","609122350e5b8e743ab41f79","665500ab8938657b03fbdba8","665792a2bdb62dda81c08d8b","527","stimuli/20011112.jpg"," ","","feedback_trial","2","","","","","","","","","","","","","","","","","","","","",""
"","","","","","image-keyboard-response","134","237924","0.0-109.0","609122350e5b8e743ab41f79","665500ab8938657b03fbdba8","665792a2bdb62dda81c08d8b","703","stimuli/2011111.jpg","1","","prediction_trial","1","","true","","2","false","false","false","false","false","false","[2,1]","011","111","1","","","","","","",""
"","","","","","image-keyboard-response","135","238328","0.0-110.0","609122350e5b8e743ab41f79","665500ab8938657b03fbdba8","665792a2bdb62dda81c08d8b","403","stimuli/20111111.jpg"," ","","feedback_trial","2","","","","","","","","","","","","","","","","","","","","",""
"","","","","","image-keyboard-response","136","239342","0.0-111.0","609122350e5b8e743ab41f79","665500ab8938657b03fbdba8","665792a2bdb62dda81c08d8b","1011","stimuli/2101111.jpg","0","","prediction_trial","2","","false","","2","false","false","false","false","false","false","[2,0]","101","111","0","","","","","","",""
"","","","","","image-keyboard-response","137","239865","0.0-112.0","609122350e5b8e743ab41f79","665500ab8938657b03fbdba8","665792a2bdb62dda81c08d8b","520","stimuli/21011112.jpg"," ","","feedback_trial","2","","","","","","","","","","","","","","","","","","","","",""
"","","","","","image-keyboard-response","138","240565","0.0-113.0","609122350e5b8e743ab41f79","665500ab8938657b03fbdba8","665792a2bdb62dda81c08d8b","698","stimuli/1011110.jpg","1","","prediction_trial","1","","true","","1","false","false","false","false","false","false","[2,1]","011","110","1","","","","","","",""
"","","","","","image-keyboard-response","139","240959","0.0-114.0","609122350e5b8e743ab41f79","665500ab8938657b03fbdba8","665792a2bdb62dda81c08d8b","390","stimuli/10111101.jpg"," ","","feedback_trial","2","","","","","","","","","","","","","","","","","","","","",""
"","","","","","image-keyboard-response","140","241556","0.0-115.0","609122350e5b8e743ab41f79","665500ab8938657b03fbdba8","665792a2bdb62dda81c08d8b","595","stimuli/1111010.jpg","1","","prediction_trial","0","","false","","1","false","true","false","false","false","false","[2,1,0]","111","010","0","","","","","","",""
"","","","","","image-keyboard-response","141","242197","0.0-116.0","609122350e5b8e743ab41f79","665500ab8938657b03fbdba8","665792a2bdb62dda81c08d8b","639","stimuli/11110100.jpg"," ","","feedback_trial","2","","","","","","","","","","","","","","","","","","","","",""
"","","","","","image-keyboard-response","142","243305","0.0-117.0","609122350e5b8e743ab41f79","665500ab8938657b03fbdba8","665792a2bdb62dda81c08d8b","1106","stimuli/2000111.jpg","1","","prediction_trial","2","","false","","2","false","false","true","true","false","false","[2]","000","111","0","","","","","","",""
"","","","","","image-keyboard-response","143","243821","0.0-118.0","609122350e5b8e743ab41f79","665500ab8938657b03fbdba8","665792a2bdb62dda81c08d8b","513","stimuli/20001112.jpg"," ","","feedback_trial","2","","","","","","","","","","","","","","","","","","","","",""
"","","","","","image-keyboard-response","144","244747","0.0-119.0","609122350e5b8e743ab41f79","665500ab8938657b03fbdba8","665792a2bdb62dda81c08d8b","923","stimuli/2010011.jpg","1","","prediction_trial","2","","false","","2","false","false","true","true","false","false","[2]","010","011","0","","","","","","",""
"","","","","","image-keyboard-response","145","245273","0.0-120.0","609122350e5b8e743ab41f79","665500ab8938657b03fbdba8","665792a2bdb62dda81c08d8b","523","stimuli/20100112.jpg"," ","","feedback_trial","2","","","","","","","","","","","","","","","","","","","","",""
"","","","","","image-keyboard-response","146","246077","0.0-121.0","609122350e5b8e743ab41f79","665500ab8938657b03fbdba8","665792a2bdb62dda81c08d8b","801","stimuli/0101100.jpg","0","","prediction_trial","0","","true","","0","false","true","false","false","false","false","[2,0]","101","100","1","","","","","","",""
"","","","","","image-keyboard-response","147","246414","0.0-122.0","609122350e5b8e743ab41f79","665500ab8938657b03fbdba8","665792a2bdb62dda81c08d8b","333","stimuli/01011000.jpg"," ","","feedback_trial","2","","","","","","","","","","","","","","","","","","","","",""
"","","","","","image-keyboard-response","148","247745","0.0-123.0","609122350e5b8e743ab41f79","665500ab8938657b03fbdba8","665792a2bdb62dda81c08d8b","1331","stimuli/2011010.jpg","1","","prediction_trial","1","","true","","2","true","true","false","false","false","false","[1,2]","011","010","1","","","","","","",""
"","","","","","image-keyboard-response","149","248101","0.0-124.0","609122350e5b8e743ab41f79","665500ab8938657b03fbdba8","665792a2bdb62dda81c08d8b","353","stimuli/20110101.jpg"," ","","feedback_trial","1","","","","","","","","","","","","","","","","","","","","",""
"","","","","","image-keyboard-response","150","248845","0.0-125.0","609122350e5b8e743ab41f79","665500ab8938657b03fbdba8","665792a2bdb62dda81c08d8b","742","stimuli/1101001.jpg","1","","prediction_trial","1","","true","","1","true","true","true","true","true","true","[1]","101","001","1","","","","","","",""
"","","","","","image-keyboard-response","151","249099","0.0-126.0","609122350e5b8e743ab41f79","665500ab8938657b03fbdba8","665792a2bdb62dda81c08d8b","252","stimuli/11010011.jpg"," ","","feedback_trial","1","","","","","","","","","","","","","","","","","","","","",""
"","","","","","image-keyboard-response","152","249836","0.0-127.0","609122350e5b8e743ab41f79","665500ab8938657b03fbdba8","665792a2bdb62dda81c08d8b","733","stimuli/0001010.jpg","0","","prediction_trial","0","","true","","0","true","true","true","true","true","true","[0]","001","010","1","","","","","","",""
"","","","","","image-keyboard-response","153","250129","0.0-128.0","609122350e5b8e743ab41f79","665500ab8938657b03fbdba8","665792a2bdb62dda81c08d8b","292","stimuli/00010100.jpg"," ","","feedback_trial","0","","","","","","","","","","","","","","","","","","","","",""
"","","","","","image-keyboard-response","154","251336","0.0-129.0","609122350e5b8e743ab41f79","665500ab8938657b03fbdba8","665792a2bdb62dda81c08d8b","1204","stimuli/0101010.jpg","1","","prediction_trial","0","","false","","0","true","true","false","false","false","false","[0,2]","101","010","0","","","","","","",""
"","","","","","image-keyboard-response","155","252752","0.0-130.0","609122350e5b8e743ab41f79","665500ab8938657b03fbdba8","665792a2bdb62dda81c08d8b","1414","stimuli/01010100.jpg"," ","","feedback_trial","0","","","","","","","","","","","","","","","","","","","","",""
"","","","","","image-keyboard-response","156","255067","0.0-131.0","609122350e5b8e743ab41f79","665500ab8938657b03fbdba8","665792a2bdb62dda81c08d8b","2312","stimuli/2111010.jpg","1","","prediction_trial","1","","true","","2","true","true","false","false","false","false","[0,2,1]","111","010","1","","","","","","",""
"","","","","","image-keyboard-response","157","255423","0.0-132.0","609122350e5b8e743ab41f79","665500ab8938657b03fbdba8","665792a2bdb62dda81c08d8b","354","stimuli/21110101.jpg"," ","","feedback_trial","0","","","","","","","","","","","","","","","","","","","","",""
"","","","","","image-keyboard-response","158","256474","0.0-133.0","609122350e5b8e743ab41f79","665500ab8938657b03fbdba8","665792a2bdb62dda81c08d8b","1048","stimuli/0111110.jpg","1","","prediction_trial","1","","true","","0","false","false","false","false","false","false","[1,0,2]","111","110","1","","","","","","",""
"","","","","","image-keyboard-response","159","256852","0.0-134.0","609122350e5b8e743ab41f79","665500ab8938657b03fbdba8","665792a2bdb62dda81c08d8b","375","stimuli/01111101.jpg"," ","","feedback_trial","1","","","","","","","","","","","","","","","","","","","","",""
"","","","","","image-keyboard-response","160","257601","0.0-135.0","609122350e5b8e743ab41f79","665500ab8938657b03fbdba8","665792a2bdb62dda81c08d8b","746","stimuli/1101100.jpg","1","","prediction_trial","1","","true","","1","true","true","true","true","true","true","[1]","101","100","1","","","","","","",""
"","","","","","image-keyboard-response","161","257897","0.0-136.0","609122350e5b8e743ab41f79","665500ab8938657b03fbdba8","665792a2bdb62dda81c08d8b","294","stimuli/11011001.jpg"," ","","feedback_trial","1","","","","","","","","","","","","","","","","","","","","",""
"","","","","","image-keyboard-response","162","258788","0.0-137.0","609122350e5b8e743ab41f79","665500ab8938657b03fbdba8","665792a2bdb62dda81c08d8b","888","stimuli/0001011.jpg","0","","prediction_trial","0","","true","","0","true","true","true","true","true","true","[0]","001","011","1","","","","","","",""
"","","","","","image-keyboard-response","163","259095","0.0-138.0","609122350e5b8e743ab41f79","665500ab8938657b03fbdba8","665792a2bdb62dda81c08d8b","305","stimuli/00010110.jpg"," ","","feedback_trial","0","","","","","","","","","","","","","","","","","","","","",""
"","","","","","image-keyboard-response","164","259794","0.0-139.0","609122350e5b8e743ab41f79","665500ab8938657b03fbdba8","665792a2bdb62dda81c08d8b","696","stimuli/1010111.jpg","1","","prediction_trial","1","","true","","1","false","false","false","true","false","false","[1]","010","111","1","","","","","","",""
"","","","","","image-keyboard-response","165","260165","0.0-140.0","609122350e5b8e743ab41f79","665500ab8938657b03fbdba8","665792a2bdb62dda81c08d8b","368","stimuli/10101111.jpg"," ","","feedback_trial","1","","","","","","","","","","","","","","","","","","","","",""
"","","","","","image-keyboard-response","166","261733","0.0-141.0","609122350e5b8e743ab41f79","665500ab8938657b03fbdba8","665792a2bdb62dda81c08d8b","1565","stimuli/2000110.jpg","2","","prediction_trial","2","","true","","2","true","true","true","true","true","true","[2]","000","110","1","","","","","","",""
"","","","","","image-keyboard-response","167","262063","0.0-142.0","609122350e5b8e743ab41f79","665500ab8938657b03fbdba8","665792a2bdb62dda81c08d8b","326","stimuli/20001102.jpg"," ","","feedback_trial","2","","","","","","","","","","","","","","","","","","","","",""
"","","","","","image-keyboard-response","168","263134","0.0-143.0","609122350e5b8e743ab41f79","665500ab8938657b03fbdba8","665792a2bdb62dda81c08d8b","1068","stimuli/2101010.jpg","1","","prediction_trial","2","","false","","2","true","true","false","false","false","false","[0,2]","101","010","0","","","","","","",""
"","","","","","image-keyboard-response","169","264087","0.0-144.0","609122350e5b8e743ab41f79","665500ab8938657b03fbdba8","665792a2bdb62dda81c08d8b","951","stimuli/21010102.jpg"," ","","feedback_trial","0","","","","","","","","","","","","","","","","","","","","",""
"","","","","","image-keyboard-response","170","265855","0.0-145.0","609122350e5b8e743ab41f79","665500ab8938657b03fbdba8","665792a2bdb62dda81c08d8b","1764","stimuli/1000110.jpg","1","","prediction_trial","1","","true","","1","false","false","true","true","false","false","[1]","000","110","1","","","","","","",""
"","","","","","image-keyboard-response","171","266249","0.0-146.0","609122350e5b8e743ab41f79","665500ab8938657b03fbdba8","665792a2bdb62dda81c08d8b","392","stimuli/10001101.jpg"," ","","feedback_trial","1","","","","","","","","","","","","","","","","","","","","",""
"","","","","","image-keyboard-response","172","267199","0.0-147.0","609122350e5b8e743ab41f79","665500ab8938657b03fbdba8","665792a2bdb62dda81c08d8b","946","stimuli/1111101.jpg","1","","prediction_trial","1","","true","","1","true","true","false","false","false","false","[1,2,0]","111","101","1","","","","","","",""
"","","","","","image-keyboard-response","173","267567","0.0-148.0","609122350e5b8e743ab41f79","665500ab8938657b03fbdba8","665792a2bdb62dda81c08d8b","366","stimuli/11111011.jpg"," ","","feedback_trial","1","","","","","","","","","","","","","","","","","","","","",""
"","","","","","image-keyboard-response","174","268953","0.0-149.0","609122350e5b8e743ab41f79","665500ab8938657b03fbdba8","665792a2bdb62dda81c08d8b","1383","stimuli/0010100.jpg","0","","prediction_trial","0","","true","","0","false","true","true","true","false","true","[0]","010","100","1","","","","","","",""
"","","","","","image-keyboard-response","175","269410","0.0-150.0","609122350e5b8e743ab41f79","665500ab8938657b03fbdba8","665792a2bdb62dda81c08d8b","455","stimuli/00101000.jpg"," ","","feedback_trial","0","","","","","","","","","","","","","","","","","","","","",""
"","","","","","image-keyboard-response","176","270637","0.0-151.0","609122350e5b8e743ab41f79","665500ab8938657b03fbdba8","665792a2bdb62dda81c08d8b","1225","stimuli/2000010.jpg","2","","prediction_trial","2","","true","","2","true","true","true","true","true","true","[2]","000","010","1","","","","","","",""
"","","","","","image-keyboard-response","177","271030","0.0-152.0","609122350e5b8e743ab41f79","665500ab8938657b03fbdba8","665792a2bdb62dda81c08d8b","391","stimuli/20000102.jpg"," ","","feedback_trial","2","","","","","","","","","","","","","","","","","","","","",""
"","","","","","image-keyboard-response","178","272651","0.0-153.0","609122350e5b8e743ab41f79","665500ab8938657b03fbdba8","665792a2bdb62dda81c08d8b","1617","stimuli/0111000.jpg","1","","prediction_trial","2","","false","","0","true","true","false","false","false","false","[0,1,2]","111","000","0","","","","","","",""
"","","","","","image-keyboard-response","179","273160","0.0-154.0","609122350e5b8e743ab41f79","665500ab8938657b03fbdba8","665792a2bdb62dda81c08d8b","507","stimuli/01110002.jpg"," ","","feedback_trial","0","","","","","","","","","","","","","","","","","","","","",""
"","","","","","image-keyboard-response","180","274702","0.0-155.0","609122350e5b8e743ab41f79","665500ab8938657b03fbdba8","665792a2bdb62dda81c08d8b","1541","stimuli/1000111.jpg","2","","prediction_trial","1","","false","","1","false","false","true","true","false","false","[1]","000","111","0","","","","","","",""
"","","","","","image-keyboard-response","181","275153","0.0-156.0","609122350e5b8e743ab41f79","665500ab8938657b03fbdba8","665792a2bdb62dda81c08d8b","447","stimuli/10001111.jpg"," ","","feedback_trial","1","","","","","","","","","","","","","","","","","","","","",""
"","","","","","image-keyboard-response","182","276311","0.0-157.0","609122350e5b8e743ab41f79","665500ab8938657b03fbdba8","665792a2bdb62dda81c08d8b","1156","stimuli/1011010.jpg","1","","prediction_trial","2","","false","","1","false","true","false","false","false","false","[1,2]","011","010","0","","","","","","",""
"","","","","","image-keyboard-response","183","276871","0.0-158.0","609122350e5b8e743ab41f79","665500ab8938657b03fbdba8","665792a2bdb62dda81c08d8b","558","stimuli/10110102.jpg"," ","","feedback_trial","1","","","","","","","","","","","","","","","","","","","","",""
"","","","","","image-keyboard-response","184","278549","0.0-159.0","609122350e5b8e743ab41f79","665500ab8938657b03fbdba8","665792a2bdb62dda81c08d8b","1674","stimuli/0101000.jpg","0","","prediction_trial","0","","true","","0","true","true","false","false","false","false","[0,2]","101","000","1","","","","","","",""
"","","","","","image-keyboard-response","185","279028","0.0-160.0","609122350e5b8e743ab41f79","665500ab8938657b03fbdba8","665792a2bdb62dda81c08d8b","476","stimuli/01010000.jpg"," ","","feedback_trial","0","","","","","","","","","","","","","","","","","","","","",""
"","","","","","image-keyboard-response","186","280316","0.0-161.0","609122350e5b8e743ab41f79","665500ab8938657b03fbdba8","665792a2bdb62dda81c08d8b","1286","stimuli/2000000.jpg","2","","prediction_trial","2","","true","","2","true","true","true","true","true","true","[2]","000","000","1","","","","","","",""
"","","","","","image-keyboard-response","187","280637","0.0-162.0","609122350e5b8e743ab41f79","665500ab8938657b03fbdba8","665792a2bdb62dda81c08d8b","319","stimuli/20000002.jpg"," ","","feedback_trial","2","","","","","","","","","","","","","","","","","","","","",""
"","","","","","image-keyboard-response","188","281490","0.0-163.0","609122350e5b8e743ab41f79","665500ab8938657b03fbdba8","665792a2bdb62dda81c08d8b","850","stimuli/1100101.jpg","1","","prediction_trial","1","","true","","1","true","true","true","true","true","true","[1]","100","101","1","","","","","","",""
"","","","","","image-keyboard-response","189","281784","0.0-164.0","609122350e5b8e743ab41f79","665500ab8938657b03fbdba8","665792a2bdb62dda81c08d8b","291","stimuli/11001011.jpg"," ","","feedback_trial","1","","","","","","","","","","","","","","","","","","","","",""
"","","","","","image-keyboard-response","190","283221","0.0-165.0","609122350e5b8e743ab41f79","665500ab8938657b03fbdba8","665792a2bdb62dda81c08d8b","1435","stimuli/2000101.jpg","2","","prediction_trial","2","","true","","2","false","false","true","true","false","false","[2]","000","101","1","","","","","","",""
"","","","","","image-keyboard-response","191","283659","0.0-166.0","609122350e5b8e743ab41f79","665500ab8938657b03fbdba8","665792a2bdb62dda81c08d8b","437","stimuli/20001012.jpg"," ","","feedback_trial","2","","","","","","","","","","","","","","","","","","","","",""
"","","","","","image-keyboard-response","192","285457","0.0-167.0","609122350e5b8e743ab41f79","665500ab8938657b03fbdba8","665792a2bdb62dda81c08d8b","1795","stimuli/2100001.jpg","2","","prediction_trial","2","","true","","2","false","true","true","true","false","true","[2]","100","001","1","","","","","","",""
"","","","","","image-keyboard-response","193","285856","0.0-168.0","609122350e5b8e743ab41f79","665500ab8938657b03fbdba8","665792a2bdb62dda81c08d8b","398","stimuli/21000012.jpg"," ","","feedback_trial","2","","","","","","","","","","","","","","","","","","","","",""
"","","","","","image-keyboard-response","194","287570","0.0-169.0","609122350e5b8e743ab41f79","665500ab8938657b03fbdba8","665792a2bdb62dda81c08d8b","1710","stimuli/1010011.jpg","1","","prediction_trial","1","","true","","1","false","false","false","true","false","false","[1]","010","011","1","","","","","","",""
"","","","","","image-keyboard-response","195","287939","0.0-170.0","609122350e5b8e743ab41f79","665500ab8938657b03fbdba8","665792a2bdb62dda81c08d8b","366","stimuli/10100111.jpg"," ","","feedback_trial","1","","","","","","","","","","","","","","","","","","","","",""
"","","","","","image-keyboard-response","196","289277","0.0-171.0","609122350e5b8e743ab41f79","665500ab8938657b03fbdba8","665792a2bdb62dda81c08d8b","1336","stimuli/0111011.jpg","1","","prediction_trial","2","","false","","0","true","true","false","false","false","false","[2,1,0]","111","011","0","","","","","","",""
"","","","","","image-keyboard-response","197","289665","0.0-172.0","609122350e5b8e743ab41f79","665500ab8938657b03fbdba8","665792a2bdb62dda81c08d8b","385","stimuli/01110112.jpg"," ","","feedback_trial","2","","","","","","","","","","","","","","","","","","","","",""
"","","","","","image-keyboard-response","198","291845","0.0-173.0","609122350e5b8e743ab41f79","665500ab8938657b03fbdba8","665792a2bdb62dda81c08d8b","2176","stimuli/0001001.jpg","0","","prediction_trial","0","","true","","0","true","true","true","true","true","true","[0]","001","001","1","","","","","","",""
"","","","","","image-keyboard-response","199","292185","0.0-174.0","609122350e5b8e743ab41f79","665500ab8938657b03fbdba8","665792a2bdb62dda81c08d8b","338","stimuli/00010010.jpg"," ","","feedback_trial","0","","","","","","","","","","","","","","","","","","","","",""
"","","","","","image-keyboard-response","200","294256","0.0-175.0","609122350e5b8e743ab41f79","665500ab8938657b03fbdba8","665792a2bdb62dda81c08d8b","2068","stimuli/2110111.jpg","2","","prediction_trial","2","","true","","2","false","false","true","true","false","false","[2]","110","111","1","","","","","","",""
"","","","","","image-keyboard-response","201","294759","0.0-176.0","609122350e5b8e743ab41f79","665500ab8938657b03fbdba8","665792a2bdb62dda81c08d8b","500","stimuli/21101112.jpg"," ","","feedback_trial","2","","","","","","","","","","","","","","","","","","","","",""
"","","","","","image-keyboard-response","202","295669","0.0-177.0","609122350e5b8e743ab41f79","665500ab8938657b03fbdba8","665792a2bdb62dda81c08d8b","906","stimuli/0011100.jpg","0","","prediction_trial","0","","true","","0","false","true","true","true","false","true","[0]","011","100","1","","","","","","",""
"","","","","","image-keyboard-response","203","296011","0.0-178.0","609122350e5b8e743ab41f79","665500ab8938657b03fbdba8","665792a2bdb62dda81c08d8b","339","stimuli/00111000.jpg"," ","","feedback_trial","0","","","","","","","","","","","","","","","","","","","","",""
"","","","","","image-keyboard-response","204","297515","0.0-179.0","609122350e5b8e743ab41f79","665500ab8938657b03fbdba8","665792a2bdb62dda81c08d8b","1501","stimuli/0110010.jpg","1","","prediction_trial","1","","true","","0","true","true","false","false","false","false","[0,1]","110","010","1","","","","","","",""
"","","","","","image-keyboard-response","205","297946","0.0-180.0","609122350e5b8e743ab41f79","665500ab8938657b03fbdba8","665792a2bdb62dda81c08d8b","428","stimuli/01100101.jpg"," ","","feedback_trial","0","","","","","","","","","","","","","","","","","","","","",""
"","","","","","image-keyboard-response","206","299086","0.0-181.0","609122350e5b8e743ab41f79","665500ab8938657b03fbdba8","665792a2bdb62dda81c08d8b","1137","stimuli/1010000.jpg","1","","prediction_trial","1","","true","","1","true","true","false","true","false","true","[1]","010","000","1","","","","","","",""
"","","","","","image-keyboard-response","207","299365","0.0-182.0","609122350e5b8e743ab41f79","665500ab8938657b03fbdba8","665792a2bdb62dda81c08d8b","276","stimuli/10100001.jpg"," ","","feedback_trial","1","","","","","","","","","","","","","","","","","","","","",""
"","","","","","image-keyboard-response","208","300075","0.0-183.0","609122350e5b8e743ab41f79","665500ab8938657b03fbdba8","665792a2bdb62dda81c08d8b","708","stimuli/0100100.jpg","0","","prediction_trial","0","","true","","0","false","true","false","true","false","true","[0]","100","100","1","","","","","","",""
"","","","","","image-keyboard-response","209","300376","0.0-184.0","609122350e5b8e743ab41f79","665500ab8938657b03fbdba8","665792a2bdb62dda81c08d8b","298","stimuli/01001000.jpg"," ","","feedback_trial","0","","","","","","","","","","","","","","","","","","","","",""
"","","","","","image-keyboard-response","210","301333","0.0-185.0","609122350e5b8e743ab41f79","665500ab8938657b03fbdba8","665792a2bdb62dda81c08d8b","954","stimuli/0010001.jpg","0","","prediction_trial","0","","true","","0","true","true","true","true","true","true","[0]","010","001","1","","","","","","",""
"","","","","","image-keyboard-response","211","301702","0.0-186.0","609122350e5b8e743ab41f79","665500ab8938657b03fbdba8","665792a2bdb62dda81c08d8b","367","stimuli/00100010.jpg"," ","","feedback_trial","0","","","","","","","","","","","","","","","","","","","","",""
"","","","","","image-keyboard-response","212","302597","0.0-187.0","609122350e5b8e743ab41f79","665500ab8938657b03fbdba8","665792a2bdb62dda81c08d8b","892","stimuli/2101001.jpg","2","","prediction_trial","2","","true","","2","false","true","false","false","false","false","[0,2]","101","001","1","","","","","","",""
"","","","","","image-keyboard-response","213","302976","0.0-188.0","609122350e5b8e743ab41f79","665500ab8938657b03fbdba8","665792a2bdb62dda81c08d8b","376","stimuli/21010012.jpg"," ","","feedback_trial","0","","","","","","","","","","","","","","","","","","","","",""
"","","","","","image-keyboard-response","214","304478","0.0-189.0","609122350e5b8e743ab41f79","665500ab8938657b03fbdba8","665792a2bdb62dda81c08d8b","1500","stimuli/0000101.jpg","2","","prediction_trial","0","","false","","0","false","false","true","true","false","false","[0]","000","101","0","","","","","","",""
"","","","","","image-keyboard-response","215","304917","0.0-190.0","609122350e5b8e743ab41f79","665500ab8938657b03fbdba8","665792a2bdb62dda81c08d8b","435","stimuli/00001010.jpg"," ","","feedback_trial","0","","","","","","","","","","","","","","","","","","","","",""
"","","","","","image-keyboard-response","216","305765","0.0-191.0","609122350e5b8e743ab41f79","665500ab8938657b03fbdba8","665792a2bdb62dda81c08d8b","846","stimuli/1001010.jpg","1","","prediction_trial","1","","true","","1","false","true","true","true","false","true","[1]","001","010","1","","","","","","",""
"","","","","","image-keyboard-response","217","306077","0.0-192.0","609122350e5b8e743ab41f79","665500ab8938657b03fbdba8","665792a2bdb62dda81c08d8b","310","stimuli/10010101.jpg"," ","","feedback_trial","1","","","","","","","","","","","","","","","","","","","","",""
"","","","","","image-keyboard-response","218","306999","0.0-193.0","609122350e5b8e743ab41f79","665500ab8938657b03fbdba8","665792a2bdb62dda81c08d8b","919","stimuli/1110101.jpg","1","","prediction_trial","0","","false","","1","true","true","false","false","false","false","[1,0]","110","101","0","","","","","","",""
"","","","","","image-keyboard-response","219","307414","0.0-194.0","609122350e5b8e743ab41f79","665500ab8938657b03fbdba8","665792a2bdb62dda81c08d8b","412","stimuli/11101010.jpg"," ","","feedback_trial","1","","","","","","","","","","","","","","","","","","","","",""
"","","","","","image-keyboard-response","220","308211","0.0-195.0","609122350e5b8e743ab41f79","665500ab8938657b03fbdba8","665792a2bdb62dda81c08d8b","795","stimuli/1000010.jpg","1","","prediction_trial","1","","true","","1","false","true","true","true","false","true","[1]","000","010","1","","","","","","",""
"","","","","","image-keyboard-response","221","308488","0.0-196.0","609122350e5b8e743ab41f79","665500ab8938657b03fbdba8","665792a2bdb62dda81c08d8b","274","stimuli/10000101.jpg"," ","","feedback_trial","1","","","","","","","","","","","","","","","","","","","","",""
"","","","","","image-keyboard-response","222","309274","0.0-197.0","609122350e5b8e743ab41f79","665500ab8938657b03fbdba8","665792a2bdb62dda81c08d8b","782","stimuli/0011001.jpg","0","","prediction_trial","0","","true","","0","true","true","true","true","true","true","[0]","011","001","1","","","","","","",""
"","","","","","image-keyboard-response","223","309616","0.0-198.0","609122350e5b8e743ab41f79","665500ab8938657b03fbdba8","665792a2bdb62dda81c08d8b","340","stimuli/00110010.jpg"," ","","feedback_trial","0","","","","","","","","","","","","","","","","","","","","",""
"","","","","","image-keyboard-response","224","310382","0.0-199.0","609122350e5b8e743ab41f79","665500ab8938657b03fbdba8","665792a2bdb62dda81c08d8b","763","stimuli/2000001.jpg","2","","prediction_trial","2","","true","","2","false","true","true","true","false","true","[2]","000","001","1","","","","","","",""
"","","","","","image-keyboard-response","225","310737","0.0-200.0","609122350e5b8e743ab41f79","665500ab8938657b03fbdba8","665792a2bdb62dda81c08d8b","354","stimuli/20000012.jpg"," ","","feedback_trial","2","","","","","","","","","","","","","","","","","","","","",""
"","","","","","image-keyboard-response","226","311663","0.0-201.0","609122350e5b8e743ab41f79","665500ab8938657b03fbdba8","665792a2bdb62dda81c08d8b","924","stimuli/0100000.jpg","0","","prediction_trial","0","","true","","0","true","true","false","true","false","true","[0]","100","000","1","","","","","","",""
"","","","","","image-keyboard-response","227","312176","0.0-202.0","609122350e5b8e743ab41f79","665500ab8938657b03fbdba8","665792a2bdb62dda81c08d8b","510","stimuli/01000000.jpg"," ","","feedback_trial","0","","","","","","","","","","","","","","","","","","","","",""
"","","","","","image-keyboard-response","228","313025","0.0-203.0","609122350e5b8e743ab41f79","665500ab8938657b03fbdba8","665792a2bdb62dda81c08d8b","845","stimuli/0011010.jpg","0","","prediction_trial","0","","true","","0","true","true","true","true","true","true","[0]","011","010","1","","","","","","",""
"","","","","","image-keyboard-response","229","313381","0.0-204.0","609122350e5b8e743ab41f79","665500ab8938657b03fbdba8","665792a2bdb62dda81c08d8b","353","stimuli/00110100.jpg"," ","","feedback_trial","0","","","","","","","","","","","","","","","","","","","","",""
"","","","","","image-keyboard-response","230","314056","0.0-205.0","609122350e5b8e743ab41f79","665500ab8938657b03fbdba8","665792a2bdb62dda81c08d8b","672","stimuli/2111111.jpg","1","","prediction_trial","2","","false","","2","false","false","false","false","false","false","[1,2,0]","111","111","0","","","","","","",""
"","","","","","image-keyboard-response","231","314543","0.0-206.0","609122350e5b8e743ab41f79","665500ab8938657b03fbdba8","665792a2bdb62dda81c08d8b","484","stimuli/21111112.jpg"," ","","feedback_trial","1","","","","","","","","","","","","","","","","","","","","",""
"","","","","","image-keyboard-response","232","315505","0.0-207.0","609122350e5b8e743ab41f79","665500ab8938657b03fbdba8","665792a2bdb62dda81c08d8b","961","stimuli/2010110.jpg","2","","prediction_trial","2","","true","","2","true","true","true","true","true","true","[2]","010","110","1","","","","","","",""
"","","","","","image-keyboard-response","233","315832","0.0-208.0","609122350e5b8e743ab41f79","665500ab8938657b03fbdba8","665792a2bdb62dda81c08d8b","324","stimuli/20101102.jpg"," ","","feedback_trial","2","","","","","","","","","","","","","","","","","","","","",""
"","","","","","image-keyboard-response","234","316517","0.0-209.0","609122350e5b8e743ab41f79","665500ab8938657b03fbdba8","665792a2bdb62dda81c08d8b","682","stimuli/0011011.jpg","0","","prediction_trial","0","","true","","0","true","true","true","true","true","true","[0]","011","011","1","","","","","","",""
"","","","","","image-keyboard-response","235","316882","0.0-210.0","609122350e5b8e743ab41f79","665500ab8938657b03fbdba8","665792a2bdb62dda81c08d8b","362","stimuli/00110110.jpg"," ","","feedback_trial","0","","","","","","","","","","","","","","","","","","","","",""
"","","","","","image-keyboard-response","236","317572","0.0-211.0","609122350e5b8e743ab41f79","665500ab8938657b03fbdba8","665792a2bdb62dda81c08d8b","688","stimuli/2011011.jpg","1","","prediction_trial","2","","false","","2","false","false","false","false","false","false","[2,1]","011","011","0","","","","","","",""
"","","","","","image-keyboard-response","237","317992","0.0-212.0","609122350e5b8e743ab41f79","665500ab8938657b03fbdba8","665792a2bdb62dda81c08d8b","416","stimuli/20110112.jpg"," ","","feedback_trial","2","","","","","","","","","","","","","","","","","","","","",""
"","","","","","image-keyboard-response","238","318866","0.0-213.0","609122350e5b8e743ab41f79","665500ab8938657b03fbdba8","665792a2bdb62dda81c08d8b","871","stimuli/0100111.jpg","0","","prediction_trial","0","","true","","0","false","false","false","true","false","false","[0]","100","111","1","","","","","","",""
"","","","","","image-keyboard-response","239","319247","0.0-214.0","609122350e5b8e743ab41f79","665500ab8938657b03fbdba8","665792a2bdb62dda81c08d8b","379","stimuli/01001110.jpg"," ","","feedback_trial","0","","","","","","","","","","","","","","","","","","","","",""
"","","","","","image-keyboard-response","240","320210","0.0-215.0","609122350e5b8e743ab41f79","665500ab8938657b03fbdba8","665792a2bdb62dda81c08d8b","960","stimuli/1010110.jpg","1","","prediction_trial","1","","true","","1","false","false","false","true","false","false","[1]","010","110","1","","","","","","",""
"","","","","","image-keyboard-response","241","320596","0.0-216.0","609122350e5b8e743ab41f79","665500ab8938657b03fbdba8","665792a2bdb62dda81c08d8b","383","stimuli/10101101.jpg"," ","","feedback_trial","1","","","","","","","","","","","","","","","","","","","","",""
"","","","","","image-keyboard-response","242","321504","0.0-217.0","609122350e5b8e743ab41f79","665500ab8938657b03fbdba8","665792a2bdb62dda81c08d8b","905","stimuli/2101011.jpg","2","","prediction_trial","2","","true","","2","false","false","false","false","false","false","[2,0]","101","011","1","","","","","","",""
"","","","","","image-keyboard-response","243","321885","0.0-218.0","609122350e5b8e743ab41f79","665500ab8938657b03fbdba8","665792a2bdb62dda81c08d8b","378","stimuli/21010112.jpg"," ","","feedback_trial","2","","","","","","","","","","","","","","","","","","","","",""
"","","","","","image-keyboard-response","244","322761","0.0-219.0","609122350e5b8e743ab41f79","665500ab8938657b03fbdba8","665792a2bdb62dda81c08d8b","873","stimuli/2100100.jpg","2","","prediction_trial","2","","true","","2","true","true","true","true","true","true","[2]","100","100","1","","","","","","",""
"","","","","","image-keyboard-response","245","323086","0.0-220.0","609122350e5b8e743ab41f79","665500ab8938657b03fbdba8","665792a2bdb62dda81c08d8b","322","stimuli/21001002.jpg"," ","","feedback_trial","2","","","","","","","","","","","","","","","","","","","","",""
"","","","","","image-keyboard-response","246","323780","0.0-221.0","609122350e5b8e743ab41f79","665500ab8938657b03fbdba8","665792a2bdb62dda81c08d8b","693","stimuli/1001001.jpg","1","","prediction_trial","1","","true","","1","true","true","true","true","true","true","[1]","001","001","1","","","","","","",""
"","","","","","image-keyboard-response","247","324110","0.0-222.0","609122350e5b8e743ab41f79","665500ab8938657b03fbdba8","665792a2bdb62dda81c08d8b","326","stimuli/10010011.jpg"," ","","feedback_trial","1","","","","","","","","","","","","","","","","","","","","",""
"","","","","","image-keyboard-response","248","324922","0.0-223.0","609122350e5b8e743ab41f79","665500ab8938657b03fbdba8","665792a2bdb62dda81c08d8b","809","stimuli/1111100.jpg","1","","prediction_trial","1","","true","","1","true","true","false","false","false","false","[1,2,0]","111","100","1","","","","","","",""
"","","","","","image-keyboard-response","249","325225","0.0-224.0","609122350e5b8e743ab41f79","665500ab8938657b03fbdba8","665792a2bdb62dda81c08d8b","299","stimuli/11111001.jpg"," ","","feedback_trial","1","","","","","","","","","","","","","","","","","","","","",""
"","","","","","image-keyboard-response","250","326008","0.0-225.0","609122350e5b8e743ab41f79","665500ab8938657b03fbdba8","665792a2bdb62dda81c08d8b","781","stimuli/1100001.jpg","1","","prediction_trial","1","","true","","1","true","true","true","true","true","true","[1]","100","001","1","","","","","","",""
"","","","","","image-keyboard-response","251","326327","0.0-226.0","609122350e5b8e743ab41f79","665500ab8938657b03fbdba8","665792a2bdb62dda81c08d8b","316","stimuli/11000011.jpg"," ","","feedback_trial","1","","","","","","","","","","","","","","","","","","","","",""
"","","","","","image-keyboard-response","252","327021","0.0-227.0","609122350e5b8e743ab41f79","665500ab8938657b03fbdba8","665792a2bdb62dda81c08d8b","690","stimuli/0010010.jpg","0","","prediction_trial","0","","true","","0","true","true","true","true","true","true","[0]","010","010","1","","","","","","",""
"","","","","","image-keyboard-response","253","327348","0.0-228.0","609122350e5b8e743ab41f79","665500ab8938657b03fbdba8","665792a2bdb62dda81c08d8b","325","stimuli/00100100.jpg"," ","","feedback_trial","0","","","","","","","","","","","","","","","","","","","","",""
"","","","","","image-keyboard-response","254","328118","0.0-229.0","609122350e5b8e743ab41f79","665500ab8938657b03fbdba8","665792a2bdb62dda81c08d8b","765","stimuli/2000011.jpg","1","","prediction_trial","2","","false","","2","false","false","true","true","false","false","[2]","000","011","0","","","","","","",""
"","","","","","image-keyboard-response","255","328594","0.0-230.0","609122350e5b8e743ab41f79","665500ab8938657b03fbdba8","665792a2bdb62dda81c08d8b","473","stimuli/20000112.jpg"," ","","feedback_trial","2","","","","","","","","","","","","","","","","","","","","",""
"","","","","","image-keyboard-response","256","329258","0.0-231.0","609122350e5b8e743ab41f79","665500ab8938657b03fbdba8","665792a2bdb62dda81c08d8b","662","stimuli/0011000.jpg","0","","prediction_trial","0","","true","","0","true","true","true","true","true","true","[0]","011","000","1","","","","","","",""
"","","","","","image-keyboard-response","257","329593","0.0-232.0","609122350e5b8e743ab41f79","665500ab8938657b03fbdba8","665792a2bdb62dda81c08d8b","332","stimuli/00110000.jpg"," ","","feedback_trial","0","","","","","","","","","","","","","","","","","","","","",""
"","","","","","image-keyboard-response","258","330472","0.0-233.0","609122350e5b8e743ab41f79","665500ab8938657b03fbdba8","665792a2bdb62dda81c08d8b","877","stimuli/0000100.jpg","0","","prediction_trial","0","","true","","0","false","true","true","true","false","true","[0]","000","100","1","","","","","","",""
"","","","","","image-keyboard-response","259","330807","0.0-234.0","609122350e5b8e743ab41f79","665500ab8938657b03fbdba8","665792a2bdb62dda81c08d8b","331","stimuli/00001000.jpg"," ","","feedback_trial","0","","","","","","","","","","","","","","","","","","","","",""
"","","","","","image-keyboard-response","260","331724","0.0-235.0","609122350e5b8e743ab41f79","665500ab8938657b03fbdba8","665792a2bdb62dda81c08d8b","914","stimuli/0011111.jpg","1","","prediction_trial","0","","false","","0","false","false","true","true","false","false","[0]","011","111","0","","","","","","",""
"","","","","","image-keyboard-response","261","332166","0.0-236.0","609122350e5b8e743ab41f79","665500ab8938657b03fbdba8","665792a2bdb62dda81c08d8b","441","stimuli/00111110.jpg"," ","","feedback_trial","0","","","","","","","","","","","","","","","","","","","","",""
"","","","","","image-keyboard-response","262","333252","0.0-237.0","609122350e5b8e743ab41f79","665500ab8938657b03fbdba8","665792a2bdb62dda81c08d8b","1083","stimuli/1011001.jpg","1","","prediction_trial","1","","true","","1","true","true","false","false","false","false","[1,2]","011","001","1","","","","","","",""
"","","","","","image-keyboard-response","263","333598","0.0-238.0","609122350e5b8e743ab41f79","665500ab8938657b03fbdba8","665792a2bdb62dda81c08d8b","343","stimuli/10110011.jpg"," ","","feedback_trial","1","","","","","","","","","","","","","","","","","","","","",""
"","","","","","image-keyboard-response","264","334833","0.0-239.0","609122350e5b8e743ab41f79","665500ab8938657b03fbdba8","665792a2bdb62dda81c08d8b","1233","stimuli/2001011.jpg","2","","prediction_trial","2","","true","","2","false","false","false","true","false","false","[2]","001","011","1","","","","","","",""
"","","","","","image-keyboard-response","265","335206","0.0-240.0","609122350e5b8e743ab41f79","665500ab8938657b03fbdba8","665792a2bdb62dda81c08d8b","370","stimuli/20010112.jpg"," ","","feedback_trial","2","","","","","","","","","","","","","","","","","","","","",""
"","","","","","image-keyboard-response","266","335984","0.0-241.0","609122350e5b8e743ab41f79","665500ab8938657b03fbdba8","665792a2bdb62dda81c08d8b","775","stimuli/1001100.jpg","1","","prediction_trial","1","","true","","1","true","true","true","true","true","true","[1]","001","100","1","","","","","","",""
"","","","","","image-keyboard-response","267","336335","0.0-242.0","609122350e5b8e743ab41f79","665500ab8938657b03fbdba8","665792a2bdb62dda81c08d8b","347","stimuli/10011001.jpg"," ","","feedback_trial","1","","","","","","","","","","","","","","","","","","","","",""
"","","","","","image-keyboard-response","268","336995","0.0-243.0","609122350e5b8e743ab41f79","665500ab8938657b03fbdba8","665792a2bdb62dda81c08d8b","657","stimuli/2110000.jpg","2","","prediction_trial","2","","true","","2","true","true","true","true","true","true","[2]","110","000","1","","","","","","",""
"","","","","","image-keyboard-response","269","337307","0.0-244.0","609122350e5b8e743ab41f79","665500ab8938657b03fbdba8","665792a2bdb62dda81c08d8b","311","stimuli/21100002.jpg"," ","","feedback_trial","2","","","","","","","","","","","","","","","","","","","","",""
"","","","","","image-keyboard-response","270","338022","0.0-245.0","609122350e5b8e743ab41f79","665500ab8938657b03fbdba8","665792a2bdb62dda81c08d8b","712","stimuli/0001110.jpg","1","","prediction_trial","0","","false","","0","false","false","true","true","false","false","[0]","001","110","0","","","","","","",""
"","","","","","image-keyboard-response","271","338461","0.0-246.0","609122350e5b8e743ab41f79","665500ab8938657b03fbdba8","665792a2bdb62dda81c08d8b","437","stimuli/00011100.jpg"," ","","feedback_trial","0","","","","","","","","","","","","","","","","","","","","",""
"","","","","","image-keyboard-response","272","339391","0.0-247.0","609122350e5b8e743ab41f79","665500ab8938657b03fbdba8","665792a2bdb62dda81c08d8b","927","stimuli/1110100.jpg","1","","prediction_trial","0","","false","","1","true","true","false","false","false","false","[1,0]","110","100","0","","","","","","",""
"","","","","","image-keyboard-response","273","339699","0.0-248.0","609122350e5b8e743ab41f79","665500ab8938657b03fbdba8","665792a2bdb62dda81c08d8b","306","stimuli/11101000.jpg"," ","","feedback_trial","1","","","","","","","","","","","","","","","","","","","","",""
"","","","","","image-keyboard-response","274","341691","0.0-249.0","609122350e5b8e743ab41f79","665500ab8938657b03fbdba8","665792a2bdb62dda81c08d8b","1989","stimuli/2101101.jpg","2","","prediction_trial","2","","true","","2","false","false","false","false","false","false","[0,2]","101","101","1","","","","","","",""
"","","","","","image-keyboard-response","275","342090","0.0-250.0","609122350e5b8e743ab41f79","665500ab8938657b03fbdba8","665792a2bdb62dda81c08d8b","396","stimuli/21011012.jpg"," ","","feedback_trial","0","","","","","","","","","","","","","","","","","","","","",""
"","","","","","image-keyboard-response","276","342863","0.0-251.0","609122350e5b8e743ab41f79","665500ab8938657b03fbdba8","665792a2bdb62dda81c08d8b","770","stimuli/1101101.jpg","1","","prediction_trial","1","","true","","1","true","true","true","true","true","true","[1]","101","101","1","","","","","","",""
"","","","","","image-keyboard-response","277","343188","0.0-252.0","609122350e5b8e743ab41f79","665500ab8938657b03fbdba8","665792a2bdb62dda81c08d8b","321","stimuli/11011011.jpg"," ","","feedback_trial","1","","","","","","","","","","","","","","","","","","","","",""
"","","","","","image-keyboard-response","278","343896","0.0-253.0","609122350e5b8e743ab41f79","665500ab8938657b03fbdba8","665792a2bdb62dda81c08d8b","706","stimuli/1110110.jpg","1","","prediction_trial","0","","false","","1","false","false","false","false","false","false","[1,0]","110","110","0","","","","","","",""
"","","","","","image-keyboard-response","279","344296","0.0-254.0","609122350e5b8e743ab41f79","665500ab8938657b03fbdba8","665792a2bdb62dda81c08d8b","398","stimuli/11101100.jpg"," ","","feedback_trial","1","","","","","","","","","","","","","","","","","","","","",""
"","","","","","image-keyboard-response","280","345113","0.0-255.0","609122350e5b8e743ab41f79","665500ab8938657b03fbdba8","665792a2bdb62dda81c08d8b","813","stimuli/0001111.jpg","2","","prediction_trial","0","","false","","0","false","false","true","true","false","false","[0]","001","111","0","","","","","","",""
"","","","","","image-keyboard-response","281","345858","0.0-256.0","609122350e5b8e743ab41f79","665500ab8938657b03fbdba8","665792a2bdb62dda81c08d8b","743","stimuli/00011110.jpg"," ","","feedback_trial","0","","","","","","","","","","","","","","","","","","","","",""
"","","","","","image-keyboard-response","282","347764","0.0-257.0","609122350e5b8e743ab41f79","665500ab8938657b03fbdba8","665792a2bdb62dda81c08d8b","1903","stimuli/1101111.jpg","0","","prediction_trial","1","","false","","1","false","false","true","true","false","false","[1]","101","111","0","","","","","","",""
"","","","","","image-keyboard-response","283","349100","0.0-258.0","609122350e5b8e743ab41f79","665500ab8938657b03fbdba8","665792a2bdb62dda81c08d8b","1333","stimuli/11011111.jpg"," ","","feedback_trial","1","","","","","","","","","","","","","","","","","","","","",""
"","","","","","image-keyboard-response","284","350166","0.0-259.0","609122350e5b8e743ab41f79","665500ab8938657b03fbdba8","665792a2bdb62dda81c08d8b","1063","stimuli/1010010.jpg","1","","prediction_trial","1","","true","","1","false","true","false","true","false","true","[1]","010","010","1","","","","","","",""
"","","","","","image-keyboard-response","285","350536","0.0-260.0","609122350e5b8e743ab41f79","665500ab8938657b03fbdba8","665792a2bdb62dda81c08d8b","369","stimuli/10100101.jpg"," ","","feedback_trial","1","","","","","","","","","","","","","","","","","","","","",""
"","","","","","image-keyboard-response","286","351128","0.0-261.0","609122350e5b8e743ab41f79","665500ab8938657b03fbdba8","665792a2bdb62dda81c08d8b","590","stimuli/2000100.jpg","2","","prediction_trial","2","","true","","2","true","true","true","true","true","true","[2]","000","100","1","","","","","","",""
"","","","","","image-keyboard-response","287","351412","0.0-262.0","609122350e5b8e743ab41f79","665500ab8938657b03fbdba8","665792a2bdb62dda81c08d8b","281","stimuli/20001002.jpg"," ","","feedback_trial","2","","","","","","","","","","","","","","","","","","","","",""
"","","","","","image-keyboard-response","288","352134","0.0-263.0","609122350e5b8e743ab41f79","665500ab8938657b03fbdba8","665792a2bdb62dda81c08d8b","718","stimuli/1100000.jpg","1","","prediction_trial","1","","true","","1","true","true","true","true","true","true","[1]","100","000","1","","","","","","",""
"","","","","","image-keyboard-response","289","352503","0.0-264.0","609122350e5b8e743ab41f79","665500ab8938657b03fbdba8","665792a2bdb62dda81c08d8b","366","stimuli/11000001.jpg"," ","","feedback_trial","1","","","","","","","","","","","","","","","","","","","","",""
"","","","","","image-keyboard-response","290","353179","0.0-265.0","609122350e5b8e743ab41f79","665500ab8938657b03fbdba8","665792a2bdb62dda81c08d8b","674","stimuli/2001001.jpg","2","","prediction_trial","2","","true","","2","false","true","false","true","false","true","[2]","001","001","1","","","","","","",""
"","","","","","image-keyboard-response","291","353499","0.0-266.0","609122350e5b8e743ab41f79","665500ab8938657b03fbdba8","665792a2bdb62dda81c08d8b","316","stimuli/20010012.jpg"," ","","feedback_trial","2","","","","","","","","","","","","","","","","","","","","",""
"","","","","","image-keyboard-response","292","354171","0.0-267.0","609122350e5b8e743ab41f79","665500ab8938657b03fbdba8","665792a2bdb62dda81c08d8b","670","stimuli/1010001.jpg","1","","prediction_trial","1","","true","","1","true","true","false","true","false","true","[1]","010","001","1","","","","","","",""
"","","","","","image-keyboard-response","293","354451","0.0-268.0","609122350e5b8e743ab41f79","665500ab8938657b03fbdba8","665792a2bdb62dda81c08d8b","278","stimuli/10100011.jpg"," ","","feedback_trial","1","","","","","","","","","","","","","","","","","","","","",""
"","","","","","image-keyboard-response","294","355159","0.0-269.0","609122350e5b8e743ab41f79","665500ab8938657b03fbdba8","665792a2bdb62dda81c08d8b","705","stimuli/0110101.jpg","0","","prediction_trial","1","","false","","0","false","false","false","false","false","false","[0,1]","110","101","0","","","","","","",""
"","","","","","image-keyboard-response","295","355504","0.0-270.0","609122350e5b8e743ab41f79","665500ab8938657b03fbdba8","665792a2bdb62dda81c08d8b","341","stimuli/01101011.jpg"," ","","feedback_trial","0","","","","","","","","","","","","","","","","","","","","",""
"","","","","","image-keyboard-response","296","356913","0.0-271.0","609122350e5b8e743ab41f79","665500ab8938657b03fbdba8","665792a2bdb62dda81c08d8b","1407","stimuli/0100101.jpg","2","","prediction_trial","0","","false","","0","false","false","false","true","false","false","[0]","100","101","0","","","","","","",""
"","","","","","image-keyboard-response","297","357739","0.0-272.0","609122350e5b8e743ab41f79","665500ab8938657b03fbdba8","665792a2bdb62dda81c08d8b","823","stimuli/01001010.jpg"," ","","feedback_trial","0","","","","","","","","","","","","","","","","","","","","",""
"","","","","","image-keyboard-response","298","358511","0.0-273.0","609122350e5b8e743ab41f79","665500ab8938657b03fbdba8","665792a2bdb62dda81c08d8b","770","stimuli/1010100.jpg","1","","prediction_trial","1","","true","","1","true","true","false","true","false","true","[1]","010","100","1","","","","","","",""
"","","","","","image-keyboard-response","299","358856","0.0-274.0","609122350e5b8e743ab41f79","665500ab8938657b03fbdba8","665792a2bdb62dda81c08d8b","343","stimuli/10101001.jpg"," ","","feedback_trial","1","","","","","","","","","","","","","","","","","","","","",""
"","","","","","image-keyboard-response","300","359725","0.0-275.0","609122350e5b8e743ab41f79","665500ab8938657b03fbdba8","665792a2bdb62dda81c08d8b","865","stimuli/2111100.jpg","2","","prediction_trial","2","","true","","2","true","true","false","false","false","false","[2,0,1]","111","100","1","","","","","","",""
"","","","","","image-keyboard-response","301","360129","0.0-276.0","609122350e5b8e743ab41f79","665500ab8938657b03fbdba8","665792a2bdb62dda81c08d8b","401","stimuli/21111002.jpg"," ","","feedback_trial","2","","","","","","","","","","","","","","","","","","","","",""
"","","","","","image-keyboard-response","302","361708","0.0-277.0","609122350e5b8e743ab41f79","665500ab8938657b03fbdba8","665792a2bdb62dda81c08d8b","1576","stimuli/0001100.jpg","0","","prediction_trial","0","","true","","0","false","true","true","true","false","true","[0]","001","100","1","","","","","","",""
"","","","","","image-keyboard-response","303","362276","0.0-278.0","609122350e5b8e743ab41f79","665500ab8938657b03fbdba8","665792a2bdb62dda81c08d8b","565","stimuli/00011000.jpg"," ","","feedback_trial","0","","","","","","","","","","","","","","","","","","","","",""
"","","","","","image-keyboard-response","304","364386","0.0-279.0","609122350e5b8e743ab41f79","665500ab8938657b03fbdba8","665792a2bdb62dda81c08d8b","2108","stimuli/2010101.jpg","2","","prediction_trial","2","","true","","2","false","false","true","true","false","false","[2]","010","101","1","","","","","","",""
"","","","","","image-keyboard-response","305","364821","0.0-280.0","609122350e5b8e743ab41f79","665500ab8938657b03fbdba8","665792a2bdb62dda81c08d8b","433","stimuli/20101012.jpg"," ","","feedback_trial","2","","","","","","","","","","","","","","","","","","","","",""
"","","","","","image-keyboard-response","306","365644","0.0-281.0","609122350e5b8e743ab41f79","665500ab8938657b03fbdba8","665792a2bdb62dda81c08d8b","821","stimuli/1010101.jpg","1","","prediction_trial","1","","true","","1","true","true","false","true","false","true","[1]","010","101","1","","","","","","",""
"","","","","","image-keyboard-response","307","365984","0.0-282.0","609122350e5b8e743ab41f79","665500ab8938657b03fbdba8","665792a2bdb62dda81c08d8b","339","stimuli/10101011.jpg"," ","","feedback_trial","1","","","","","","","","","","","","","","","","","","","","",""
"","","","","","image-keyboard-response","308","366924","0.0-283.0","609122350e5b8e743ab41f79","665500ab8938657b03fbdba8","665792a2bdb62dda81c08d8b","937","stimuli/2101100.jpg","2","","prediction_trial","2","","true","","2","true","true","false","false","false","false","[2,0]","101","100","1","","","","","","",""
"","","","","","image-keyboard-response","309","367290","0.0-284.0","609122350e5b8e743ab41f79","665500ab8938657b03fbdba8","665792a2bdb62dda81c08d8b","362","stimuli/21011002.jpg"," ","","feedback_trial","2","","","","","","","","","","","","","","","","","","","","",""
"","","","","","image-keyboard-response","310","369624","0.0-285.0","609122350e5b8e743ab41f79","665500ab8938657b03fbdba8","665792a2bdb62dda81c08d8b","2332","stimuli/0010101.jpg","2","","prediction_trial","0","","false","","0","false","false","true","true","false","false","[0]","010","101","0","","","","","","",""
"","","","","","image-keyboard-response","311","370183","0.0-286.0","609122350e5b8e743ab41f79","665500ab8938657b03fbdba8","665792a2bdb62dda81c08d8b","556","stimuli/00101010.jpg"," ","","feedback_trial","0","","","","","","","","","","","","","","","","","","","","",""
"","","","","","image-keyboard-response","312","370912","0.0-287.0","609122350e5b8e743ab41f79","665500ab8938657b03fbdba8","665792a2bdb62dda81c08d8b","726","stimuli/2010010.jpg","2","","prediction_trial","2","","true","","2","true","true","true","true","true","true","[2]","010","010","1","","","","","","",""
"","","","","","image-keyboard-response","313","371221","0.0-288.0","609122350e5b8e743ab41f79","665500ab8938657b03fbdba8","665792a2bdb62dda81c08d8b","306","stimuli/20100102.jpg"," ","","feedback_trial","2","","","","","","","","","","","","","","","","","","","","",""
"","","","","","image-keyboard-response","314","372130","0.0-289.0","609122350e5b8e743ab41f79","665500ab8938657b03fbdba8","665792a2bdb62dda81c08d8b","907","stimuli/0110011.jpg","0","","prediction_trial","1","","false","","0","true","true","false","false","false","false","[0,1]","110","011","0","","","","","","",""
"","","","","","image-keyboard-response","315","372648","0.0-290.0","609122350e5b8e743ab41f79","665500ab8938657b03fbdba8","665792a2bdb62dda81c08d8b","516","stimuli/01100111.jpg"," ","","feedback_trial","0","","","","","","","","","","","","","","","","","","","","",""
"","","","","","image-keyboard-response","316","373699","0.0-291.0","609122350e5b8e743ab41f79","665500ab8938657b03fbdba8","665792a2bdb62dda81c08d8b","1048","stimuli/0110001.jpg","1","","prediction_trial","1","","true","","0","true","true","false","false","false","false","[0,1]","110","001","1","","","","","","",""
"","","","","","image-keyboard-response","317","374091","0.0-292.0","609122350e5b8e743ab41f79","665500ab8938657b03fbdba8","665792a2bdb62dda81c08d8b","388","stimuli/01100011.jpg"," ","","feedback_trial","0","","","","","","","","","","","","","","","","","","","","",""
"","","","","","survey-html-form","318","443694","0.0-293.0","609122350e5b8e743ab41f79","665500ab8938657b03fbdba8","665792a2bdb62dda81c08d8b","69601","","{""feedback"":""I looked at whether the ball was visible to Sam first. Then I looked at what baskets were visible to Sam. Then I looked at how many times he selected a specific basket when no baskets were visible."",""age"":""41"",""gender"":""Female"",""other_gender"":"""",""race"":""White"",""other_race"":"""",""ethnicity"":""Non-Hispanic""}","","exit_survey","","","","","","","","","","","","","","","","I looked at whether the ball was visible to Sam first. Then I looked at what baskets were visible to Sam. Then I looked at how many times he selected a specific basket when no baskets were visible.","41","Non-Hispanic","Female","White","0.7013888888888888","0.7013888888888888"
