"success","timeout","failed_images","failed_audio","failed_video","trial_type","trial_index","time_elapsed","internal_node_id","prolific_id","prolific_study_id","prolific_session_id","rt","stimulus","response","view_history","trial","character_choice","stimulus_dict","accuracy","correct_response","ball_pos","ego_ball_visible","ego_can_infer","alter_ball_visible","alter_can_infer","collective_ball_visible","collective_can_infer","search_locations","alter_occluders","ego_occluders","accuracy_bool","feedback","age","ethnicity","gender","race","overall_accuracy","bonus"
"true","false","[]","[]","[]","preload","0","4343","0.0-0.0","5cb183d0bde8cf00179e42d5","665500ab8938657b03fbdba8","665776ab3237019115442965","","","","","","","","","","","","","","","","","","","","","","","","","","",""
"true","","","","","fullscreen","1","13483","0.0-1.0","5cb183d0bde8cf00179e42d5","665500ab8938657b03fbdba8","665776ab3237019115442965","","","","","","","","","","","","","","","","","","","","","","","","","","",""
"","","","","","html-button-response","2","16555","0.0-2.0","5cb183d0bde8cf00179e42d5","665500ab8938657b03fbdba8","665776ab3237019115442965","3066","<p><b>Consent Form</b></p> <div style=""text-align:left;background-color:lightgrey; padding:20px; max-width:900px;""><p>Please consider this information carefully before deciding whether to participate in this research.</p> <p>The purpose of this research is to examine which factors influence social judgment and decision-making. You will be asked to make judgements about individuals and actions in social scenarios. We are simply interested in your judgement. The study will take less than 1 hour to complete, and you will receive less than $20 on Prolific. Your compensation and time commitment are specified in the study description. There are no anticipated risks associated with participating in this study. The effects of participating should be comparable to those you would ordinarily experience from viewing a computer monitor and using a mouse or keyboard for a similar amount of time. At the end of the study, we will provide an explanation of the questions that motivate this line of research and will describe the potential implications. </p><p> Your participation in this study is completely voluntary and you may refuse to participate or you may choose to withdraw at any time without penalty or loss of benefits to you which are otherwise entitled. Your participation in this study will remain confidential. No personally identifiable information will be associated with your data. Also, all analyses of the data will be averaged across all the participants, so your individual responses will never be specifically analyzed. </p><p> If you have questions or concerns about your participation or payment, or want to request a summary of research findings, please contact Dr. Jonathan Phillips at Jonathan.S.Phillips@dartmouth.edu. </p><p> Please save a copy of this form for your records. </p><p><b>Agreement: </b>The nature and purpose of this research have been sufficiently explained and I agree to participate in this study. I understand that I am free to withdraw at any time without incurring any penalty. Please consent by clicking the button below to continue. Otherwise, please exit the study at any time. </p>","0","","","","","","","","","","","","","","","","","","","","","","","",""
"","","","","","instructions","3","71246","0.0-3.0-0.0","5cb183d0bde8cf00179e42d5","665500ab8938657b03fbdba8","665776ab3237019115442965","54689","","","[{""page_index"":0,""viewing_time"":1560},{""page_index"":1,""viewing_time"":2084},{""page_index"":2,""viewing_time"":3713},{""page_index"":3,""viewing_time"":5545},{""page_index"":2,""viewing_time"":1447},{""page_index"":3,""viewing_time"":2906},{""page_index"":4,""viewing_time"":5385},{""page_index"":5,""viewing_time"":2498},{""page_index"":6,""viewing_time"":7156},{""page_index"":7,""viewing_time"":5465},{""page_index"":8,""viewing_time"":3547},{""page_index"":9,""viewing_time"":1389},{""page_index"":10,""viewing_time"":6252},{""page_index"":11,""viewing_time"":3557},{""page_index"":12,""viewing_time"":1332},{""page_index"":13,""viewing_time"":853}]","intro","","","","","","","","","","","","","","","","","","","","","",""
"","","","","","image-keyboard-response","4","74876","0.0-3.0-1.0","5cb183d0bde8cf00179e42d5","665500ab8938657b03fbdba8","665776ab3237019115442965","3601","stimuli/0010110.jpg","1","","prediction_practice","0","{""filepath"":""stimuli/0010110.jpg"",""ball_pos"":0,""ego_ball_visible"":false,""ego_can_infer"":false,""alter_ball_visible"":true,""alter_can_infer"":true,""collective_ball_visible"":false,""collective_can_infer"":false,""search_locations"":[0],""alter_occluders"":""010"",""ego_occluders"":""110""}","false","","","","","","","","","","","","","","","","","","",""
"","","","","","image-keyboard-response","5","77932","0.0-3.0-2.0","5cb183d0bde8cf00179e42d5","665500ab8938657b03fbdba8","665776ab3237019115442965","3047","stimuli/00101100.jpg"," ","","practrice_feedback","0","","","","","","","","","","","","","","","","","","","","",""
"","","","","","image-keyboard-response","6","79770","0.0-3.0-3.0","5cb183d0bde8cf00179e42d5","665500ab8938657b03fbdba8","665776ab3237019115442965","1834","stimuli/0100011.jpg","0","","prediction_practice","0","{""filepath"":""stimuli/0100011.jpg"",""ball_pos"":0,""ego_ball_visible"":true,""ego_can_infer"":true,""alter_ball_visible"":false,""alter_can_infer"":true,""collective_ball_visible"":false,""collective_can_infer"":true,""search_locations"":[0],""alter_occluders"":""100"",""ego_occluders"":""011""}","true","","","","","","","","","","","","","","","","","","",""
"","","","","","image-keyboard-response","7","82337","0.0-3.0-4.0","5cb183d0bde8cf00179e42d5","665500ab8938657b03fbdba8","665776ab3237019115442965","2561","stimuli/01000110.jpg"," ","","practrice_feedback","0","","","","","","","","","","","","","","","","","","","","",""
"","","","","","image-keyboard-response","8","83874","0.0-3.0-5.0","5cb183d0bde8cf00179e42d5","665500ab8938657b03fbdba8","665776ab3237019115442965","1533","stimuli/0000110.jpg","1","","prediction_practice","0","{""filepath"":""stimuli/0000110.jpg"",""ball_pos"":0,""ego_ball_visible"":false,""ego_can_infer"":false,""alter_ball_visible"":true,""alter_can_infer"":true,""collective_ball_visible"":false,""collective_can_infer"":false,""search_locations"":[0],""alter_occluders"":""000"",""ego_occluders"":""110""}","false","","","","","","","","","","","","","","","","","","",""
"","","","","","image-keyboard-response","9","84812","0.0-3.0-6.0","5cb183d0bde8cf00179e42d5","665500ab8938657b03fbdba8","665776ab3237019115442965","934","stimuli/00001100.jpg"," ","","practrice_feedback","0","","","","","","","","","","","","","","","","","","","","",""
"","","","","","image-keyboard-response","10","85709","0.0-3.0-7.0","5cb183d0bde8cf00179e42d5","665500ab8938657b03fbdba8","665776ab3237019115442965","893","stimuli/2000111.jpg","1","","prediction_practice","2","{""filepath"":""stimuli/2000111.jpg"",""ball_pos"":2,""ego_ball_visible"":false,""ego_can_infer"":false,""alter_ball_visible"":true,""alter_can_infer"":true,""collective_ball_visible"":false,""collective_can_infer"":false,""search_locations"":[2],""alter_occluders"":""000"",""ego_occluders"":""111""}","false","","","","","","","","","","","","","","","","","","",""
"","","","","","image-keyboard-response","11","86344","0.0-3.0-8.0","5cb183d0bde8cf00179e42d5","665500ab8938657b03fbdba8","665776ab3237019115442965","631","stimuli/20001112.jpg"," ","","practrice_feedback","2","","","","","","","","","","","","","","","","","","","","",""
"","","","","","image-keyboard-response","12","87081","0.0-3.0-9.0","5cb183d0bde8cf00179e42d5","665500ab8938657b03fbdba8","665776ab3237019115442965","734","stimuli/1001000.jpg","1","","prediction_practice","1","{""filepath"":""stimuli/1001000.jpg"",""ball_pos"":1,""ego_ball_visible"":true,""ego_can_infer"":true,""alter_ball_visible"":true,""alter_can_infer"":true,""collective_ball_visible"":true,""collective_can_infer"":true,""search_locations"":[1],""alter_occluders"":""001"",""ego_occluders"":""000""}","true","","","","","","","","","","","","","","","","","","",""
"","","","","","image-keyboard-response","13","87587","0.0-3.0-10.0","5cb183d0bde8cf00179e42d5","665500ab8938657b03fbdba8","665776ab3237019115442965","502","stimuli/10010001.jpg"," ","","practrice_feedback","1","","","","","","","","","","","","","","","","","","","","",""
"","","","","","image-keyboard-response","14","88302","0.0-3.0-11.0","5cb183d0bde8cf00179e42d5","665500ab8938657b03fbdba8","665776ab3237019115442965","712","stimuli/1100100.jpg","1","","prediction_practice","1","{""filepath"":""stimuli/1100100.jpg"",""ball_pos"":1,""ego_ball_visible"":true,""ego_can_infer"":true,""alter_ball_visible"":true,""alter_can_infer"":true,""collective_ball_visible"":true,""collective_can_infer"":true,""search_locations"":[1],""alter_occluders"":""100"",""ego_occluders"":""100""}","true","","","","","","","","","","","","","","","","","","",""
"","","","","","image-keyboard-response","15","88786","0.0-3.0-12.0","5cb183d0bde8cf00179e42d5","665500ab8938657b03fbdba8","665776ab3237019115442965","472","stimuli/11001001.jpg"," ","","practrice_feedback","1","","","","","","","","","","","","","","","","","","","","",""
"","","","","","image-keyboard-response","16","89657","0.0-3.0-13.0","5cb183d0bde8cf00179e42d5","665500ab8938657b03fbdba8","665776ab3237019115442965","867","stimuli/2010111.jpg","2","","prediction_practice","2","{""filepath"":""stimuli/2010111.jpg"",""ball_pos"":2,""ego_ball_visible"":false,""ego_can_infer"":false,""alter_ball_visible"":true,""alter_can_infer"":true,""collective_ball_visible"":false,""collective_can_infer"":false,""search_locations"":[2],""alter_occluders"":""010"",""ego_occluders"":""111""}","true","","","","","","","","","","","","","","","","","","",""
"","","","","","image-keyboard-response","17","90596","0.0-3.0-14.0","5cb183d0bde8cf00179e42d5","665500ab8938657b03fbdba8","665776ab3237019115442965","936","stimuli/20101112.jpg"," ","","practrice_feedback","2","","","","","","","","","","","","","","","","","","","","",""
"","","","","","image-keyboard-response","18","91586","0.0-3.0-15.0","5cb183d0bde8cf00179e42d5","665500ab8938657b03fbdba8","665776ab3237019115442965","986","stimuli/0100000.jpg","0","","prediction_practice","0","{""filepath"":""stimuli/0100000.jpg"",""ball_pos"":0,""ego_ball_visible"":true,""ego_can_infer"":true,""alter_ball_visible"":false,""alter_can_infer"":true,""collective_ball_visible"":false,""collective_can_infer"":true,""search_locations"":[0],""alter_occluders"":""100"",""ego_occluders"":""000""}","true","","","","","","","","","","","","","","","","","","",""
"","","","","","image-keyboard-response","19","91965","0.0-3.0-16.0","5cb183d0bde8cf00179e42d5","665500ab8938657b03fbdba8","665776ab3237019115442965","377","stimuli/01000000.jpg"," ","","practrice_feedback","0","","","","","","","","","","","","","","","","","","","","",""
"","","","","","image-keyboard-response","20","92675","0.0-3.0-17.0","5cb183d0bde8cf00179e42d5","665500ab8938657b03fbdba8","665776ab3237019115442965","707","stimuli/1011100.jpg","1","","prediction_practice","2","{""filepath"":""stimuli/1011100.jpg"",""ball_pos"":1,""ego_ball_visible"":true,""ego_can_infer"":true,""alter_ball_visible"":false,""alter_can_infer"":false,""collective_ball_visible"":false,""collective_can_infer"":false,""search_locations"":[2,1],""alter_occluders"":""011"",""ego_occluders"":""100""}","false","","","","","","","","","","","","","","","","","","",""
"","","","","","image-keyboard-response","21","93032","0.0-3.0-18.0","5cb183d0bde8cf00179e42d5","665500ab8938657b03fbdba8","665776ab3237019115442965","353","stimuli/10111002.jpg"," ","","practrice_feedback","2","","","","","","","","","","","","","","","","","","","","",""
"","","","","","image-keyboard-response","22","96024","0.0-3.0-19.0","5cb183d0bde8cf00179e42d5","665500ab8938657b03fbdba8","665776ab3237019115442965","2988","stimuli/0101101.jpg","2","","prediction_practice","0","{""filepath"":""stimuli/0101101.jpg"",""ball_pos"":0,""ego_ball_visible"":false,""ego_can_infer"":false,""alter_ball_visible"":false,""alter_can_infer"":false,""collective_ball_visible"":false,""collective_can_infer"":false,""search_locations"":[2,0],""alter_occluders"":""101"",""ego_occluders"":""101""}","false","","","","","","","","","","","","","","","","","","",""
"","","","","","image-keyboard-response","23","96675","0.0-3.0-20.0","5cb183d0bde8cf00179e42d5","665500ab8938657b03fbdba8","665776ab3237019115442965","647","stimuli/01011010.jpg"," ","","practrice_feedback","2","","","","","","","","","","","","","","","","","","","","",""
"","","","","","html-button-response","24","99804","0.0-3.0-21.0","5cb183d0bde8cf00179e42d5","665500ab8938657b03fbdba8","665776ab3237019115442965","3126","Now that you've had some practice, you'll be tested with a couple of easy trials. If you correctly predict Sam's choice, you'll move on to complete the experiment!","0","","","","","","","","","","","","","","","","","","","","","","","",""
"","","","","","image-keyboard-response","25","101058","0.0-3.0-22.0-0.0","5cb183d0bde8cf00179e42d5","665500ab8938657b03fbdba8","665776ab3237019115442965","1252","stimuli/0000011.jpg","arrowleft","","comprehension_quiz","","","true","arrowleft","","","","","","","","","","","","","","","","","",""
"","","","","","image-keyboard-response","26","101709","0.0-3.0-22.0-1.0","5cb183d0bde8cf00179e42d5","665500ab8938657b03fbdba8","665776ab3237019115442965","648","stimuli/00000110.jpg"," ","","comprehension_quiz","","","true"," ","","","","","","","","","","","","","","","","","",""
"","","","","","image-keyboard-response","27","102671","0.0-3.0-22.0-2.0","5cb183d0bde8cf00179e42d5","665500ab8938657b03fbdba8","665776ab3237019115442965","959","stimuli/1010010.jpg","arrowdown","","comprehension_quiz","","","true","arrowdown","","","","","","","","","","","","","","","","","",""
"","","","","","image-keyboard-response","28","103121","0.0-3.0-22.0-3.0","5cb183d0bde8cf00179e42d5","665500ab8938657b03fbdba8","665776ab3237019115442965","438","stimuli/10100101.jpg"," ","","comprehension_quiz","","","true"," ","","","","","","","","","","","","","","","","","",""
"","","","","","html-button-response","29","106629","0.0-4.0","5cb183d0bde8cf00179e42d5","665500ab8938657b03fbdba8","665776ab3237019115442965","3502","The experiment will now begin.","0","","","","","","","","","","","","","","","","","","","","","","","",""
"","","","","","image-keyboard-response","30","107382","0.0-5.0","5cb183d0bde8cf00179e42d5","665500ab8938657b03fbdba8","665776ab3237019115442965","751","stimuli/0101001.jpg","0","","prediction_trial","2","","false","","0","true","true","false","false","false","false","[2,0]","101","001","0","","","","","","",""
"","","","","","image-keyboard-response","31","111730","0.0-6.0","5cb183d0bde8cf00179e42d5","665500ab8938657b03fbdba8","665776ab3237019115442965","4342","stimuli/01010012.jpg"," ","","feedback_trial","2","","","","","","","","","","","","","","","","","","","","",""
"","","","","","image-keyboard-response","32","112742","0.0-7.0","5cb183d0bde8cf00179e42d5","665500ab8938657b03fbdba8","665776ab3237019115442965","1008","stimuli/2001000.jpg","2","","prediction_trial","2","","true","","2","true","true","false","true","false","true","[2]","001","000","1","","","","","","",""
"","","","","","image-keyboard-response","33","113289","0.0-8.0","5cb183d0bde8cf00179e42d5","665500ab8938657b03fbdba8","665776ab3237019115442965","543","stimuli/20010002.jpg"," ","","feedback_trial","2","","","","","","","","","","","","","","","","","","","","",""
"","","","","","image-keyboard-response","34","113976","0.0-9.0","5cb183d0bde8cf00179e42d5","665500ab8938657b03fbdba8","665776ab3237019115442965","684","stimuli/0111100.jpg","0","","prediction_trial","1","","false","","0","false","true","false","false","false","false","[1,2,0]","111","100","0","","","","","","",""
"","","","","","image-keyboard-response","35","115376","0.0-10.0","5cb183d0bde8cf00179e42d5","665500ab8938657b03fbdba8","665776ab3237019115442965","1397","stimuli/01111001.jpg"," ","","feedback_trial","1","","","","","","","","","","","","","","","","","","","","",""
"","","","","","image-keyboard-response","36","116593","0.0-11.0","5cb183d0bde8cf00179e42d5","665500ab8938657b03fbdba8","665776ab3237019115442965","1214","stimuli/1011100.jpg","1","","prediction_trial","2","","false","","1","true","true","false","false","false","false","[2,1]","011","100","0","","","","","","",""
"","","","","","image-keyboard-response","37","117036","0.0-12.0","5cb183d0bde8cf00179e42d5","665500ab8938657b03fbdba8","665776ab3237019115442965","440","stimuli/10111002.jpg"," ","","feedback_trial","2","","","","","","","","","","","","","","","","","","","","",""
"","","","","","image-keyboard-response","38","118405","0.0-13.0","5cb183d0bde8cf00179e42d5","665500ab8938657b03fbdba8","665776ab3237019115442965","1365","stimuli/0010110.jpg","1","","prediction_trial","0","","false","","0","false","false","true","true","false","false","[0]","010","110","0","","","","","","",""
"","","","","","image-keyboard-response","39","118743","0.0-14.0","5cb183d0bde8cf00179e42d5","665500ab8938657b03fbdba8","665776ab3237019115442965","336","stimuli/00101100.jpg"," ","","feedback_trial","0","","","","","","","","","","","","","","","","","","","","",""
"","","","","","image-keyboard-response","40","119290","0.0-15.0","5cb183d0bde8cf00179e42d5","665500ab8938657b03fbdba8","665776ab3237019115442965","544","stimuli/2011011.jpg","0","","prediction_trial","2","","false","","2","false","false","false","false","false","false","[2,1]","011","011","0","","","","","","",""
"","","","","","image-keyboard-response","41","119935","0.0-16.0","5cb183d0bde8cf00179e42d5","665500ab8938657b03fbdba8","665776ab3237019115442965","639","stimuli/20110112.jpg"," ","","feedback_trial","2","","","","","","","","","","","","","","","","","","","","",""
"","","","","","image-keyboard-response","42","120503","0.0-17.0","5cb183d0bde8cf00179e42d5","665500ab8938657b03fbdba8","665776ab3237019115442965","564","stimuli/2111111.jpg","1","","prediction_trial","2","","false","","2","false","false","false","false","false","false","[2,1,0]","111","111","0","","","","","","",""
"","","","","","image-keyboard-response","43","120868","0.0-18.0","5cb183d0bde8cf00179e42d5","665500ab8938657b03fbdba8","665776ab3237019115442965","362","stimuli/21111112.jpg"," ","","feedback_trial","2","","","","","","","","","","","","","","","","","","","","",""
"","","","","","image-keyboard-response","44","121606","0.0-19.0","5cb183d0bde8cf00179e42d5","665500ab8938657b03fbdba8","665776ab3237019115442965","734","stimuli/2011001.jpg","2","","prediction_trial","1","","false","","2","false","true","false","false","false","false","[2,1]","011","001","0","","","","","","",""
"","","","","","image-keyboard-response","45","122499","0.0-20.0","5cb183d0bde8cf00179e42d5","665500ab8938657b03fbdba8","665776ab3237019115442965","889","stimuli/20110011.jpg"," ","","feedback_trial","2","","","","","","","","","","","","","","","","","","","","",""
"","","","","","image-keyboard-response","46","124783","0.0-21.0","5cb183d0bde8cf00179e42d5","665500ab8938657b03fbdba8","665776ab3237019115442965","2281","stimuli/1000110.jpg","1","","prediction_trial","1","","true","","1","false","false","true","true","false","false","[1]","000","110","1","","","","","","",""
"","","","","","image-keyboard-response","47","125344","0.0-22.0","5cb183d0bde8cf00179e42d5","665500ab8938657b03fbdba8","665776ab3237019115442965","558","stimuli/10001101.jpg"," ","","feedback_trial","1","","","","","","","","","","","","","","","","","","","","",""
"","","","","","image-keyboard-response","48","126766","0.0-23.0","5cb183d0bde8cf00179e42d5","665500ab8938657b03fbdba8","665776ab3237019115442965","1418","stimuli/0011000.jpg","0","","prediction_trial","0","","true","","0","true","true","true","true","true","true","[0]","011","000","1","","","","","","",""
"","","","","","image-keyboard-response","49","127275","0.0-24.0","5cb183d0bde8cf00179e42d5","665500ab8938657b03fbdba8","665776ab3237019115442965","506","stimuli/00110000.jpg"," ","","feedback_trial","0","","","","","","","","","","","","","","","","","","","","",""
"","","","","","image-keyboard-response","50","128979","0.0-25.0","5cb183d0bde8cf00179e42d5","665500ab8938657b03fbdba8","665776ab3237019115442965","1700","stimuli/1010011.jpg","1","","prediction_trial","1","","true","","1","false","false","false","true","false","false","[1]","010","011","1","","","","","","",""
"","","","","","image-keyboard-response","51","129612","0.0-26.0","5cb183d0bde8cf00179e42d5","665500ab8938657b03fbdba8","665776ab3237019115442965","630","stimuli/10100111.jpg"," ","","feedback_trial","1","","","","","","","","","","","","","","","","","","","","",""
"","","","","","image-keyboard-response","52","131156","0.0-27.0","5cb183d0bde8cf00179e42d5","665500ab8938657b03fbdba8","665776ab3237019115442965","1541","stimuli/1010001.jpg","1","","prediction_trial","1","","true","","1","true","true","false","true","false","true","[1]","010","001","1","","","","","","",""
"","","","","","image-keyboard-response","53","131496","0.0-28.0","5cb183d0bde8cf00179e42d5","665500ab8938657b03fbdba8","665776ab3237019115442965","326","stimuli/10100011.jpg"," ","","feedback_trial","1","","","","","","","","","","","","","","","","","","","","",""
"","","","","","image-keyboard-response","54","132812","0.0-29.0","5cb183d0bde8cf00179e42d5","665500ab8938657b03fbdba8","665776ab3237019115442965","1312","stimuli/0110010.jpg","0","","prediction_trial","0","","true","","0","true","true","false","false","false","false","[1,0]","110","010","1","","","","","","",""
"","","","","","image-keyboard-response","55","133248","0.0-30.0","5cb183d0bde8cf00179e42d5","665500ab8938657b03fbdba8","665776ab3237019115442965","432","stimuli/01100100.jpg"," ","","feedback_trial","1","","","","","","","","","","","","","","","","","","","","",""
"","","","","","image-keyboard-response","56","135166","0.0-31.0","5cb183d0bde8cf00179e42d5","665500ab8938657b03fbdba8","665776ab3237019115442965","1914","stimuli/2011111.jpg","2","","prediction_trial","2","","true","","2","false","false","false","false","false","false","[1,2]","011","111","1","","","","","","",""
"","","","","","image-keyboard-response","57","135531","0.0-32.0","5cb183d0bde8cf00179e42d5","665500ab8938657b03fbdba8","665776ab3237019115442965","362","stimuli/20111112.jpg"," ","","feedback_trial","1","","","","","","","","","","","","","","","","","","","","",""
"","","","","","image-keyboard-response","58","137279","0.0-33.0","5cb183d0bde8cf00179e42d5","665500ab8938657b03fbdba8","665776ab3237019115442965","1745","stimuli/0011101.jpg","0","","prediction_trial","0","","true","","0","false","false","true","true","false","false","[0]","011","101","1","","","","","","",""
"","","","","","image-keyboard-response","59","137549","0.0-34.0","5cb183d0bde8cf00179e42d5","665500ab8938657b03fbdba8","665776ab3237019115442965","268","stimuli/00111010.jpg"," ","","feedback_trial","0","","","","","","","","","","","","","","","","","","","","",""
"","","","","","image-keyboard-response","60","139287","0.0-35.0","5cb183d0bde8cf00179e42d5","665500ab8938657b03fbdba8","665776ab3237019115442965","1733","stimuli/1000011.jpg","1","","prediction_trial","1","","true","","1","false","false","true","true","false","false","[1]","000","011","1","","","","","","",""
"","","","","","image-keyboard-response","61","139654","0.0-36.0","5cb183d0bde8cf00179e42d5","665500ab8938657b03fbdba8","665776ab3237019115442965","364","stimuli/10000111.jpg"," ","","feedback_trial","1","","","","","","","","","","","","","","","","","","","","",""
"","","","","","image-keyboard-response","62","140466","0.0-37.0","5cb183d0bde8cf00179e42d5","665500ab8938657b03fbdba8","665776ab3237019115442965","808","stimuli/0101101.jpg","2","","prediction_trial","0","","false","","0","false","false","false","false","false","false","[2,0]","101","101","0","","","","","","",""
"","","","","","image-keyboard-response","63","140967","0.0-38.0","5cb183d0bde8cf00179e42d5","665500ab8938657b03fbdba8","665776ab3237019115442965","498","stimuli/01011010.jpg"," ","","feedback_trial","2","","","","","","","","","","","","","","","","","","","","",""
"","","","","","image-keyboard-response","64","142443","0.0-39.0","5cb183d0bde8cf00179e42d5","665500ab8938657b03fbdba8","665776ab3237019115442965","1473","stimuli/0001001.jpg","0","","prediction_trial","0","","true","","0","true","true","true","true","true","true","[0]","001","001","1","","","","","","",""
"","","","","","image-keyboard-response","65","142895","0.0-40.0","5cb183d0bde8cf00179e42d5","665500ab8938657b03fbdba8","665776ab3237019115442965","448","stimuli/00010010.jpg"," ","","feedback_trial","0","","","","","","","","","","","","","","","","","","","","",""
"","","","","","image-keyboard-response","66","143774","0.0-41.0","5cb183d0bde8cf00179e42d5","665500ab8938657b03fbdba8","665776ab3237019115442965","876","stimuli/0010111.jpg","1","","prediction_trial","0","","false","","0","false","false","true","true","false","false","[0]","010","111","0","","","","","","",""
"","","","","","image-keyboard-response","67","144355","0.0-42.0","5cb183d0bde8cf00179e42d5","665500ab8938657b03fbdba8","665776ab3237019115442965","577","stimuli/00101110.jpg"," ","","feedback_trial","0","","","","","","","","","","","","","","","","","","","","",""
"","","","","","image-keyboard-response","68","145097","0.0-43.0","5cb183d0bde8cf00179e42d5","665500ab8938657b03fbdba8","665776ab3237019115442965","738","stimuli/0010000.jpg","0","","prediction_trial","0","","true","","0","true","true","true","true","true","true","[0]","010","000","1","","","","","","",""
"","","","","","image-keyboard-response","69","145479","0.0-44.0","5cb183d0bde8cf00179e42d5","665500ab8938657b03fbdba8","665776ab3237019115442965","378","stimuli/00100000.jpg"," ","","feedback_trial","0","","","","","","","","","","","","","","","","","","","","",""
"","","","","","image-keyboard-response","70","146363","0.0-45.0","5cb183d0bde8cf00179e42d5","665500ab8938657b03fbdba8","665776ab3237019115442965","881","stimuli/0111001.jpg","0","","prediction_trial","0","","true","","0","true","true","false","false","false","false","[2,0,1]","111","001","1","","","","","","",""
"","","","","","image-keyboard-response","71","146638","0.0-46.0","5cb183d0bde8cf00179e42d5","665500ab8938657b03fbdba8","665776ab3237019115442965","272","stimuli/01110010.jpg"," ","","feedback_trial","2","","","","","","","","","","","","","","","","","","","","",""
"","","","","","image-keyboard-response","72","147554","0.0-47.0","5cb183d0bde8cf00179e42d5","665500ab8938657b03fbdba8","665776ab3237019115442965","914","stimuli/0011001.jpg","0","","prediction_trial","0","","true","","0","true","true","true","true","true","true","[0]","011","001","1","","","","","","",""
"","","","","","image-keyboard-response","73","147796","0.0-48.0","5cb183d0bde8cf00179e42d5","665500ab8938657b03fbdba8","665776ab3237019115442965","238","stimuli/00110010.jpg"," ","","feedback_trial","0","","","","","","","","","","","","","","","","","","","","",""
"","","","","","image-keyboard-response","74","148995","0.0-49.0","5cb183d0bde8cf00179e42d5","665500ab8938657b03fbdba8","665776ab3237019115442965","1196","stimuli/2001101.jpg","2","","prediction_trial","2","","true","","2","false","false","false","true","false","false","[2]","001","101","1","","","","","","",""
"","","","","","image-keyboard-response","75","149342","0.0-50.0","5cb183d0bde8cf00179e42d5","665500ab8938657b03fbdba8","665776ab3237019115442965","344","stimuli/20011012.jpg"," ","","feedback_trial","2","","","","","","","","","","","","","","","","","","","","",""
"","","","","","image-keyboard-response","76","150099","0.0-51.0","5cb183d0bde8cf00179e42d5","665500ab8938657b03fbdba8","665776ab3237019115442965","753","stimuli/1010101.jpg","1","","prediction_trial","1","","true","","1","true","true","false","true","false","true","[1]","010","101","1","","","","","","",""
"","","","","","image-keyboard-response","77","150392","0.0-52.0","5cb183d0bde8cf00179e42d5","665500ab8938657b03fbdba8","665776ab3237019115442965","283","stimuli/10101011.jpg"," ","","feedback_trial","1","","","","","","","","","","","","","","","","","","","","",""
"","","","","","image-keyboard-response","78","151029","0.0-53.0","5cb183d0bde8cf00179e42d5","665500ab8938657b03fbdba8","665776ab3237019115442965","633","stimuli/2011010.jpg","2","","prediction_trial","1","","false","","2","true","true","false","false","false","false","[2,1]","011","010","0","","","","","","",""
"","","","","","image-keyboard-response","79","151324","0.0-54.0","5cb183d0bde8cf00179e42d5","665500ab8938657b03fbdba8","665776ab3237019115442965","291","stimuli/20110101.jpg"," ","","feedback_trial","2","","","","","","","","","","","","","","","","","","","","",""
"","","","","","image-keyboard-response","80","152950","0.0-55.0","5cb183d0bde8cf00179e42d5","665500ab8938657b03fbdba8","665776ab3237019115442965","1622","stimuli/0110110.jpg","0","","prediction_trial","1","","false","","0","false","false","false","false","false","false","[0,1]","110","110","0","","","","","","",""
"","","","","","image-keyboard-response","81","153444","0.0-56.0","5cb183d0bde8cf00179e42d5","665500ab8938657b03fbdba8","665776ab3237019115442965","491","stimuli/01101101.jpg"," ","","feedback_trial","0","","","","","","","","","","","","","","","","","","","","",""
"","","","","","image-keyboard-response","82","154913","0.0-57.0","5cb183d0bde8cf00179e42d5","665500ab8938657b03fbdba8","665776ab3237019115442965","1466","stimuli/1000001.jpg","1","","prediction_trial","1","","true","","1","true","true","true","true","true","true","[1]","000","001","1","","","","","","",""
"","","","","","image-keyboard-response","83","155464","0.0-58.0","5cb183d0bde8cf00179e42d5","665500ab8938657b03fbdba8","665776ab3237019115442965","547","stimuli/10000011.jpg"," ","","feedback_trial","1","","","","","","","","","","","","","","","","","","","","",""
"","","","","","image-keyboard-response","84","156493","0.0-59.0","5cb183d0bde8cf00179e42d5","665500ab8938657b03fbdba8","665776ab3237019115442965","1026","stimuli/2110011.jpg","1","","prediction_trial","2","","false","","2","false","false","true","true","false","false","[2]","110","011","0","","","","","","",""
"","","","","","image-keyboard-response","85","157022","0.0-60.0","5cb183d0bde8cf00179e42d5","665500ab8938657b03fbdba8","665776ab3237019115442965","526","stimuli/21100112.jpg"," ","","feedback_trial","2","","","","","","","","","","","","","","","","","","","","",""
"","","","","","image-keyboard-response","86","158203","0.0-61.0","5cb183d0bde8cf00179e42d5","665500ab8938657b03fbdba8","665776ab3237019115442965","1177","stimuli/1011010.jpg","1","","prediction_trial","2","","false","","1","false","true","false","false","false","false","[2,1]","011","010","0","","","","","","",""
"","","","","","image-keyboard-response","87","158443","0.0-62.0","5cb183d0bde8cf00179e42d5","665500ab8938657b03fbdba8","665776ab3237019115442965","236","stimuli/10110102.jpg"," ","","feedback_trial","2","","","","","","","","","","","","","","","","","","","","",""
"","","","","","image-keyboard-response","88","159484","0.0-63.0","5cb183d0bde8cf00179e42d5","665500ab8938657b03fbdba8","665776ab3237019115442965","1038","stimuli/1010000.jpg","1","","prediction_trial","1","","true","","1","true","true","false","true","false","true","[1]","010","000","1","","","","","","",""
"","","","","","image-keyboard-response","89","159749","0.0-64.0","5cb183d0bde8cf00179e42d5","665500ab8938657b03fbdba8","665776ab3237019115442965","253","stimuli/10100001.jpg"," ","","feedback_trial","1","","","","","","","","","","","","","","","","","","","","",""
"","","","","","image-keyboard-response","90","160783","0.0-65.0","5cb183d0bde8cf00179e42d5","665500ab8938657b03fbdba8","665776ab3237019115442965","1030","stimuli/2010000.jpg","2","","prediction_trial","2","","true","","2","true","true","true","true","true","true","[2]","010","000","1","","","","","","",""
"","","","","","image-keyboard-response","91","161011","0.0-66.0","5cb183d0bde8cf00179e42d5","665500ab8938657b03fbdba8","665776ab3237019115442965","225","stimuli/20100002.jpg"," ","","feedback_trial","2","","","","","","","","","","","","","","","","","","","","",""
"","","","","","image-keyboard-response","92","161977","0.0-67.0","5cb183d0bde8cf00179e42d5","665500ab8938657b03fbdba8","665776ab3237019115442965","962","stimuli/2001001.jpg","2","","prediction_trial","2","","true","","2","false","true","false","true","false","true","[2]","001","001","1","","","","","","",""
"","","","","","image-keyboard-response","93","162182","0.0-68.0","5cb183d0bde8cf00179e42d5","665500ab8938657b03fbdba8","665776ab3237019115442965","201","stimuli/20010012.jpg"," ","","feedback_trial","2","","","","","","","","","","","","","","","","","","","","",""
"","","","","","image-keyboard-response","94","163406","0.0-69.0","5cb183d0bde8cf00179e42d5","665500ab8938657b03fbdba8","665776ab3237019115442965","1220","stimuli/1111010.jpg","1","","prediction_trial","1","","true","","1","false","true","false","false","false","false","[2,1,0]","111","010","1","","","","","","",""
"","","","","","image-keyboard-response","95","163560","0.0-70.0","5cb183d0bde8cf00179e42d5","665500ab8938657b03fbdba8","665776ab3237019115442965","151","stimuli/11110101.jpg"," ","","feedback_trial","2","","","","","","","","","","","","","","","","","","","","",""
"","","","","","image-keyboard-response","96","164780","0.0-71.0","5cb183d0bde8cf00179e42d5","665500ab8938657b03fbdba8","665776ab3237019115442965","1216","stimuli/0100101.jpg","0","","prediction_trial","0","","true","","0","false","false","false","true","false","false","[0]","100","101","1","","","","","","",""
"","","","","","image-keyboard-response","97","164973","0.0-72.0","5cb183d0bde8cf00179e42d5","665500ab8938657b03fbdba8","665776ab3237019115442965","190","stimuli/01001010.jpg"," ","","feedback_trial","0","","","","","","","","","","","","","","","","","","","","",""
"","","","","","image-keyboard-response","98","166738","0.0-73.0","5cb183d0bde8cf00179e42d5","665500ab8938657b03fbdba8","665776ab3237019115442965","1763","stimuli/0000010.jpg","0","","prediction_trial","0","","true","","0","true","true","true","true","true","true","[0]","000","010","1","","","","","","",""
"","","","","","image-keyboard-response","99","166979","0.0-74.0","5cb183d0bde8cf00179e42d5","665500ab8938657b03fbdba8","665776ab3237019115442965","238","stimuli/00000100.jpg"," ","","feedback_trial","0","","","","","","","","","","","","","","","","","","","","",""
"","","","","","image-keyboard-response","100","167999","0.0-75.0","5cb183d0bde8cf00179e42d5","665500ab8938657b03fbdba8","665776ab3237019115442965","1017","stimuli/1001000.jpg","1","","prediction_trial","1","","true","","1","true","true","true","true","true","true","[1]","001","000","1","","","","","","",""
"","","","","","image-keyboard-response","101","168162","0.0-76.0","5cb183d0bde8cf00179e42d5","665500ab8938657b03fbdba8","665776ab3237019115442965","152","stimuli/10010001.jpg"," ","","feedback_trial","1","","","","","","","","","","","","","","","","","","","","",""
"","","","","","image-keyboard-response","102","169677","0.0-77.0","5cb183d0bde8cf00179e42d5","665500ab8938657b03fbdba8","665776ab3237019115442965","1512","stimuli/0101111.jpg","2","","prediction_trial","2","","true","","0","false","false","false","false","false","false","[0,2]","101","111","1","","","","","","",""
"","","","","","image-keyboard-response","103","170169","0.0-78.0","5cb183d0bde8cf00179e42d5","665500ab8938657b03fbdba8","665776ab3237019115442965","489","stimuli/01011112.jpg"," ","","feedback_trial","0","","","","","","","","","","","","","","","","","","","","",""
"","","","","","image-keyboard-response","104","170910","0.0-79.0","5cb183d0bde8cf00179e42d5","665500ab8938657b03fbdba8","665776ab3237019115442965","738","stimuli/1100111.jpg","0","","prediction_trial","1","","false","","1","false","false","true","true","false","false","[1]","100","111","0","","","","","","",""
"","","","","","image-keyboard-response","105","171124","0.0-80.0","5cb183d0bde8cf00179e42d5","665500ab8938657b03fbdba8","665776ab3237019115442965","211","stimuli/11001111.jpg"," ","","feedback_trial","1","","","","","","","","","","","","","","","","","","","","",""
"","","","","","image-keyboard-response","106","172005","0.0-81.0","5cb183d0bde8cf00179e42d5","665500ab8938657b03fbdba8","665776ab3237019115442965","877","stimuli/1110000.jpg","1","","prediction_trial","1","","true","","1","true","true","false","false","false","false","[1,0]","110","000","1","","","","","","",""
"","","","","","image-keyboard-response","107","172216","0.0-82.0","5cb183d0bde8cf00179e42d5","665500ab8938657b03fbdba8","665776ab3237019115442965","207","stimuli/11100001.jpg"," ","","feedback_trial","1","","","","","","","","","","","","","","","","","","","","",""
"","","","","","image-keyboard-response","108","173429","0.0-83.0","5cb183d0bde8cf00179e42d5","665500ab8938657b03fbdba8","665776ab3237019115442965","1211","stimuli/1100100.jpg","1","","prediction_trial","1","","true","","1","true","true","true","true","true","true","[1]","100","100","1","","","","","","",""
"","","","","","image-keyboard-response","109","173645","0.0-84.0","5cb183d0bde8cf00179e42d5","665500ab8938657b03fbdba8","665776ab3237019115442965","212","stimuli/11001001.jpg"," ","","feedback_trial","1","","","","","","","","","","","","","","","","","","","","",""
"","","","","","image-keyboard-response","110","174593","0.0-85.0","5cb183d0bde8cf00179e42d5","665500ab8938657b03fbdba8","665776ab3237019115442965","946","stimuli/0100000.jpg","0","","prediction_trial","0","","true","","0","true","true","false","true","false","true","[0]","100","000","1","","","","","","",""
"","","","","","image-keyboard-response","111","174794","0.0-86.0","5cb183d0bde8cf00179e42d5","665500ab8938657b03fbdba8","665776ab3237019115442965","198","stimuli/01000000.jpg"," ","","feedback_trial","0","","","","","","","","","","","","","","","","","","","","",""
"","","","","","image-keyboard-response","112","175717","0.0-87.0","5cb183d0bde8cf00179e42d5","665500ab8938657b03fbdba8","665776ab3237019115442965","919","stimuli/1100101.jpg","2","","prediction_trial","1","","false","","1","true","true","true","true","true","true","[1]","100","101","0","","","","","","",""
"","","","","","image-keyboard-response","113","176025","0.0-88.0","5cb183d0bde8cf00179e42d5","665500ab8938657b03fbdba8","665776ab3237019115442965","295","stimuli/11001011.jpg"," ","","feedback_trial","1","","","","","","","","","","","","","","","","","","","","",""
"","","","","","image-keyboard-response","114","176792","0.0-89.0","5cb183d0bde8cf00179e42d5","665500ab8938657b03fbdba8","665776ab3237019115442965","764","stimuli/2100100.jpg","2","","prediction_trial","2","","true","","2","true","true","true","true","true","true","[2]","100","100","1","","","","","","",""
"","","","","","image-keyboard-response","115","177038","0.0-90.0","5cb183d0bde8cf00179e42d5","665500ab8938657b03fbdba8","665776ab3237019115442965","243","stimuli/21001002.jpg"," ","","feedback_trial","2","","","","","","","","","","","","","","","","","","","","",""
"","","","","","image-keyboard-response","116","178093","0.0-91.0","5cb183d0bde8cf00179e42d5","665500ab8938657b03fbdba8","665776ab3237019115442965","1053","stimuli/2100101.jpg","0","","prediction_trial","2","","false","","2","false","false","true","true","false","false","[2]","100","101","0","","","","","","",""
"","","","","","image-keyboard-response","117","178280","0.0-92.0","5cb183d0bde8cf00179e42d5","665500ab8938657b03fbdba8","665776ab3237019115442965","185","stimuli/21001012.jpg"," ","","feedback_trial","2","","","","","","","","","","","","","","","","","","","","",""
"","","","","","image-keyboard-response","118","178922","0.0-93.0","5cb183d0bde8cf00179e42d5","665500ab8938657b03fbdba8","665776ab3237019115442965","638","stimuli/2111100.jpg","2","","prediction_trial","0","","false","","2","true","true","false","false","false","false","[2,1,0]","111","100","0","","","","","","",""
"","","","","","image-keyboard-response","119","179144","0.0-94.0","5cb183d0bde8cf00179e42d5","665500ab8938657b03fbdba8","665776ab3237019115442965","219","stimuli/21111000.jpg"," ","","feedback_trial","2","","","","","","","","","","","","","","","","","","","","",""
"","","","","","image-keyboard-response","120","180538","0.0-95.0","5cb183d0bde8cf00179e42d5","665500ab8938657b03fbdba8","665776ab3237019115442965","1391","stimuli/2111000.jpg","2","","prediction_trial","0","","false","","2","true","true","false","false","false","false","[0,2,1]","111","000","0","","","","","","",""
"","","","","","image-keyboard-response","121","183655","0.0-96.0","5cb183d0bde8cf00179e42d5","665500ab8938657b03fbdba8","665776ab3237019115442965","3112","stimuli/21110000.jpg"," ","","feedback_trial","0","","","","","","","","","","","","","","","","","","","","",""
"","","","","","image-keyboard-response","122","186228","0.0-97.0","5cb183d0bde8cf00179e42d5","665500ab8938657b03fbdba8","665776ab3237019115442965","2570","stimuli/1000111.jpg","1","","prediction_trial","1","","true","","1","false","false","true","true","false","false","[1]","000","111","1","","","","","","",""
"","","","","","image-keyboard-response","123","187178","0.0-98.0","5cb183d0bde8cf00179e42d5","665500ab8938657b03fbdba8","665776ab3237019115442965","946","stimuli/10001111.jpg"," ","","feedback_trial","1","","","","","","","","","","","","","","","","","","","","",""
"","","","","","image-keyboard-response","124","187610","0.0-99.0","5cb183d0bde8cf00179e42d5","665500ab8938657b03fbdba8","665776ab3237019115442965","429","stimuli/0000101.jpg","2","","prediction_trial","0","","false","","0","false","false","true","true","false","false","[0]","000","101","0","","","","","","",""
"","","","","","image-keyboard-response","125","187876","0.0-100.0","5cb183d0bde8cf00179e42d5","665500ab8938657b03fbdba8","665776ab3237019115442965","262","stimuli/00001010.jpg"," ","","feedback_trial","0","","","","","","","","","","","","","","","","","","","","",""
"","","","","","image-keyboard-response","126","188482","0.0-101.0","5cb183d0bde8cf00179e42d5","665500ab8938657b03fbdba8","665776ab3237019115442965","603","stimuli/0010101.jpg","0","","prediction_trial","0","","true","","0","false","false","true","true","false","false","[0]","010","101","1","","","","","","",""
"","","","","","image-keyboard-response","127","188734","0.0-102.0","5cb183d0bde8cf00179e42d5","665500ab8938657b03fbdba8","665776ab3237019115442965","249","stimuli/00101010.jpg"," ","","feedback_trial","0","","","","","","","","","","","","","","","","","","","","",""
"","","","","","image-keyboard-response","128","189471","0.0-103.0","5cb183d0bde8cf00179e42d5","665500ab8938657b03fbdba8","665776ab3237019115442965","733","stimuli/2101100.jpg","2","","prediction_trial","2","","true","","2","true","true","false","false","false","false","[0,2]","101","100","1","","","","","","",""
"","","","","","image-keyboard-response","129","189655","0.0-104.0","5cb183d0bde8cf00179e42d5","665500ab8938657b03fbdba8","665776ab3237019115442965","181","stimuli/21011002.jpg"," ","","feedback_trial","0","","","","","","","","","","","","","","","","","","","","",""
"","","","","","image-keyboard-response","130","190493","0.0-105.0","5cb183d0bde8cf00179e42d5","665500ab8938657b03fbdba8","665776ab3237019115442965","835","stimuli/1000101.jpg","1","","prediction_trial","1","","true","","1","true","true","true","true","true","true","[1]","000","101","1","","","","","","",""
"","","","","","image-keyboard-response","131","190658","0.0-106.0","5cb183d0bde8cf00179e42d5","665500ab8938657b03fbdba8","665776ab3237019115442965","162","stimuli/10001011.jpg"," ","","feedback_trial","1","","","","","","","","","","","","","","","","","","","","",""
"","","","","","image-keyboard-response","132","191882","0.0-107.0","5cb183d0bde8cf00179e42d5","665500ab8938657b03fbdba8","665776ab3237019115442965","1221","stimuli/2101011.jpg","1","","prediction_trial","2","","false","","2","false","false","false","false","false","false","[2,0]","101","011","0","","","","","","",""
"","","","","","image-keyboard-response","133","192061","0.0-108.0","5cb183d0bde8cf00179e42d5","665500ab8938657b03fbdba8","665776ab3237019115442965","175","stimuli/21010112.jpg"," ","","feedback_trial","2","","","","","","","","","","","","","","","","","","","","",""
"","","","","","image-keyboard-response","134","192870","0.0-109.0","5cb183d0bde8cf00179e42d5","665500ab8938657b03fbdba8","665776ab3237019115442965","806","stimuli/0011110.jpg","1","","prediction_trial","0","","false","","0","false","false","true","true","false","false","[0]","011","110","0","","","","","","",""
"","","","","","image-keyboard-response","135","193026","0.0-110.0","5cb183d0bde8cf00179e42d5","665500ab8938657b03fbdba8","665776ab3237019115442965","152","stimuli/00111100.jpg"," ","","feedback_trial","0","","","","","","","","","","","","","","","","","","","","",""
"","","","","","image-keyboard-response","136","193970","0.0-111.0","5cb183d0bde8cf00179e42d5","665500ab8938657b03fbdba8","665776ab3237019115442965","940","stimuli/2010101.jpg","2","","prediction_trial","2","","true","","2","false","false","true","true","false","false","[2]","010","101","1","","","","","","",""
"","","","","","image-keyboard-response","137","194144","0.0-112.0","5cb183d0bde8cf00179e42d5","665500ab8938657b03fbdba8","665776ab3237019115442965","161","stimuli/20101012.jpg"," ","","feedback_trial","2","","","","","","","","","","","","","","","","","","","","",""
"","","","","","image-keyboard-response","138","194926","0.0-113.0","5cb183d0bde8cf00179e42d5","665500ab8938657b03fbdba8","665776ab3237019115442965","778","stimuli/2000111.jpg","1","","prediction_trial","2","","false","","2","false","false","true","true","false","false","[2]","000","111","0","","","","","","",""
"","","","","","image-keyboard-response","139","195132","0.0-114.0","5cb183d0bde8cf00179e42d5","665500ab8938657b03fbdba8","665776ab3237019115442965","202","stimuli/20001112.jpg"," ","","feedback_trial","2","","","","","","","","","","","","","","","","","","","","",""
"","","","","","image-keyboard-response","140","195816","0.0-115.0","5cb183d0bde8cf00179e42d5","665500ab8938657b03fbdba8","665776ab3237019115442965","682","stimuli/2110010.jpg","2","","prediction_trial","2","","true","","2","true","true","true","true","true","true","[2]","110","010","1","","","","","","",""
"","","","","","image-keyboard-response","141","195979","0.0-116.0","5cb183d0bde8cf00179e42d5","665500ab8938657b03fbdba8","665776ab3237019115442965","161","stimuli/21100102.jpg"," ","","feedback_trial","2","","","","","","","","","","","","","","","","","","","","",""
"","","","","","image-keyboard-response","142","197215","0.0-117.0","5cb183d0bde8cf00179e42d5","665500ab8938657b03fbdba8","665776ab3237019115442965","1232","stimuli/0000001.jpg","0","","prediction_trial","0","","true","","0","true","true","true","true","true","true","[0]","000","001","1","","","","","","",""
"","","","","","image-keyboard-response","143","197436","0.0-118.0","5cb183d0bde8cf00179e42d5","665500ab8938657b03fbdba8","665776ab3237019115442965","218","stimuli/00000010.jpg"," ","","feedback_trial","0","","","","","","","","","","","","","","","","","","","","",""
"","","","","","image-keyboard-response","144","198550","0.0-119.0","5cb183d0bde8cf00179e42d5","665500ab8938657b03fbdba8","665776ab3237019115442965","1110","stimuli/0111101.jpg","2","","prediction_trial","0","","false","","0","false","false","false","false","false","false","[0,2,1]","111","101","0","","","","","","",""
"","","","","","image-keyboard-response","145","198818","0.0-120.0","5cb183d0bde8cf00179e42d5","665500ab8938657b03fbdba8","665776ab3237019115442965","264","stimuli/01111010.jpg"," ","","feedback_trial","0","","","","","","","","","","","","","","","","","","","","",""
"","","","","","image-keyboard-response","146","199547","0.0-121.0","5cb183d0bde8cf00179e42d5","665500ab8938657b03fbdba8","665776ab3237019115442965","726","stimuli/1111000.jpg","1","","prediction_trial","1","","true","","1","true","true","false","false","false","false","[1,2,0]","111","000","1","","","","","","",""
"","","","","","image-keyboard-response","147","199712","0.0-122.0","5cb183d0bde8cf00179e42d5","665500ab8938657b03fbdba8","665776ab3237019115442965","162","stimuli/11110001.jpg"," ","","feedback_trial","1","","","","","","","","","","","","","","","","","","","","",""
"","","","","","image-keyboard-response","148","200452","0.0-123.0","5cb183d0bde8cf00179e42d5","665500ab8938657b03fbdba8","665776ab3237019115442965","736","stimuli/2000101.jpg","2","","prediction_trial","2","","true","","2","false","false","true","true","false","false","[2]","000","101","1","","","","","","",""
"","","","","","image-keyboard-response","149","200644","0.0-124.0","5cb183d0bde8cf00179e42d5","665500ab8938657b03fbdba8","665776ab3237019115442965","186","stimuli/20001012.jpg"," ","","feedback_trial","2","","","","","","","","","","","","","","","","","","","","",""
"","","","","","image-keyboard-response","150","201284","0.0-125.0","5cb183d0bde8cf00179e42d5","665500ab8938657b03fbdba8","665776ab3237019115442965","637","stimuli/2010010.jpg","2","","prediction_trial","2","","true","","2","true","true","true","true","true","true","[2]","010","010","1","","","","","","",""
"","","","","","image-keyboard-response","151","201469","0.0-126.0","5cb183d0bde8cf00179e42d5","665500ab8938657b03fbdba8","665776ab3237019115442965","181","stimuli/20100102.jpg"," ","","feedback_trial","2","","","","","","","","","","","","","","","","","","","","",""
"","","","","","image-keyboard-response","152","202448","0.0-127.0","5cb183d0bde8cf00179e42d5","665500ab8938657b03fbdba8","665776ab3237019115442965","976","stimuli/0001011.jpg","0","","prediction_trial","0","","true","","0","true","true","true","true","true","true","[0]","001","011","1","","","","","","",""
"","","","","","image-keyboard-response","153","202620","0.0-128.0","5cb183d0bde8cf00179e42d5","665500ab8938657b03fbdba8","665776ab3237019115442965","169","stimuli/00010110.jpg"," ","","feedback_trial","0","","","","","","","","","","","","","","","","","","","","",""
"","","","","","image-keyboard-response","154","203438","0.0-129.0","5cb183d0bde8cf00179e42d5","665500ab8938657b03fbdba8","665776ab3237019115442965","814","stimuli/0110011.jpg","0","","prediction_trial","1","","false","","0","true","true","false","false","false","false","[0,1]","110","011","0","","","","","","",""
"","","","","","image-keyboard-response","155","203594","0.0-130.0","5cb183d0bde8cf00179e42d5","665500ab8938657b03fbdba8","665776ab3237019115442965","152","stimuli/01100111.jpg"," ","","feedback_trial","0","","","","","","","","","","","","","","","","","","","","",""
"","","","","","image-keyboard-response","156","204786","0.0-131.0","5cb183d0bde8cf00179e42d5","665500ab8938657b03fbdba8","665776ab3237019115442965","1189","stimuli/1101011.jpg","1","","prediction_trial","1","","true","","1","false","false","true","true","false","false","[1]","101","011","1","","","","","","",""
"","","","","","image-keyboard-response","157","205016","0.0-132.0","5cb183d0bde8cf00179e42d5","665500ab8938657b03fbdba8","665776ab3237019115442965","227","stimuli/11010111.jpg"," ","","feedback_trial","1","","","","","","","","","","","","","","","","","","","","",""
"","","","","","image-keyboard-response","158","205674","0.0-133.0","5cb183d0bde8cf00179e42d5","665500ab8938657b03fbdba8","665776ab3237019115442965","656","stimuli/0011010.jpg","0","","prediction_trial","0","","true","","0","true","true","true","true","true","true","[0]","011","010","1","","","","","","",""
"","","","","","image-keyboard-response","159","205881","0.0-134.0","5cb183d0bde8cf00179e42d5","665500ab8938657b03fbdba8","665776ab3237019115442965","203","stimuli/00110100.jpg"," ","","feedback_trial","0","","","","","","","","","","","","","","","","","","","","",""
"","","","","","image-keyboard-response","160","206717","0.0-135.0","5cb183d0bde8cf00179e42d5","665500ab8938657b03fbdba8","665776ab3237019115442965","833","stimuli/0000110.jpg","2","","prediction_trial","0","","false","","0","false","false","true","true","false","false","[0]","000","110","0","","","","","","",""
"","","","","","image-keyboard-response","161","206956","0.0-136.0","5cb183d0bde8cf00179e42d5","665500ab8938657b03fbdba8","665776ab3237019115442965","227","stimuli/00001100.jpg"," ","","feedback_trial","0","","","","","","","","","","","","","","","","","","","","",""
"","","","","","image-keyboard-response","162","207801","0.0-137.0","5cb183d0bde8cf00179e42d5","665500ab8938657b03fbdba8","665776ab3237019115442965","842","stimuli/1101010.jpg","1","","prediction_trial","1","","true","","1","false","true","true","true","false","true","[1]","101","010","1","","","","","","",""
"","","","","","image-keyboard-response","163","207963","0.0-138.0","5cb183d0bde8cf00179e42d5","665500ab8938657b03fbdba8","665776ab3237019115442965","158","stimuli/11010101.jpg"," ","","feedback_trial","1","","","","","","","","","","","","","","","","","","","","",""
"","","","","","image-keyboard-response","164","208781","0.0-139.0","5cb183d0bde8cf00179e42d5","665500ab8938657b03fbdba8","665776ab3237019115442965","813","stimuli/0001110.jpg","1","","prediction_trial","0","","false","","0","false","false","true","true","false","false","[0]","001","110","0","","","","","","",""
"","","","","","image-keyboard-response","165","208913","0.0-140.0","5cb183d0bde8cf00179e42d5","665500ab8938657b03fbdba8","665776ab3237019115442965","129","stimuli/00011100.jpg"," ","","feedback_trial","0","","","","","","","","","","","","","","","","","","","","",""
"","","","","","image-keyboard-response","166","209726","0.0-141.0","5cb183d0bde8cf00179e42d5","665500ab8938657b03fbdba8","665776ab3237019115442965","810","stimuli/1011011.jpg","1","","prediction_trial","2","","false","","1","false","false","false","false","false","false","[1,2]","011","011","0","","","","","","",""
"","","","","","image-keyboard-response","167","209886","0.0-142.0","5cb183d0bde8cf00179e42d5","665500ab8938657b03fbdba8","665776ab3237019115442965","156","stimuli/10110112.jpg"," ","","feedback_trial","1","","","","","","","","","","","","","","","","","","","","",""
"","","","","","image-keyboard-response","168","210628","0.0-143.0","5cb183d0bde8cf00179e42d5","665500ab8938657b03fbdba8","665776ab3237019115442965","739","stimuli/1110010.jpg","1","","prediction_trial","1","","true","","1","false","true","false","false","false","false","[1,0]","110","010","1","","","","","","",""
"","","","","","image-keyboard-response","169","210775","0.0-144.0","5cb183d0bde8cf00179e42d5","665500ab8938657b03fbdba8","665776ab3237019115442965","143","stimuli/11100101.jpg"," ","","feedback_trial","1","","","","","","","","","","","","","","","","","","","","",""
"","","","","","image-keyboard-response","170","211564","0.0-145.0","5cb183d0bde8cf00179e42d5","665500ab8938657b03fbdba8","665776ab3237019115442965","786","stimuli/2101010.jpg","2","","prediction_trial","2","","true","","2","true","true","false","false","false","false","[2,0]","101","010","1","","","","","","",""
"","","","","","image-keyboard-response","171","211700","0.0-146.0","5cb183d0bde8cf00179e42d5","665500ab8938657b03fbdba8","665776ab3237019115442965","133","stimuli/21010102.jpg"," ","","feedback_trial","2","","","","","","","","","","","","","","","","","","","","",""
"","","","","","image-keyboard-response","172","212568","0.0-147.0","5cb183d0bde8cf00179e42d5","665500ab8938657b03fbdba8","665776ab3237019115442965","864","stimuli/1011111.jpg","1","","prediction_trial","2","","false","","1","false","false","false","false","false","false","[2,1]","011","111","0","","","","","","",""
"","","","","","image-keyboard-response","173","212701","0.0-148.0","5cb183d0bde8cf00179e42d5","665500ab8938657b03fbdba8","665776ab3237019115442965","130","stimuli/10111112.jpg"," ","","feedback_trial","2","","","","","","","","","","","","","","","","","","","","",""
"","","","","","image-keyboard-response","174","213353","0.0-149.0","5cb183d0bde8cf00179e42d5","665500ab8938657b03fbdba8","665776ab3237019115442965","648","stimuli/1000100.jpg","1","","prediction_trial","1","","true","","1","true","true","true","true","true","true","[1]","000","100","1","","","","","","",""
"","","","","","image-keyboard-response","175","213489","0.0-150.0","5cb183d0bde8cf00179e42d5","665500ab8938657b03fbdba8","665776ab3237019115442965","133","stimuli/10001001.jpg"," ","","feedback_trial","1","","","","","","","","","","","","","","","","","","","","",""
"","","","","","image-keyboard-response","176","214301","0.0-151.0","5cb183d0bde8cf00179e42d5","665500ab8938657b03fbdba8","665776ab3237019115442965","808","stimuli/1001100.jpg","1","","prediction_trial","1","","true","","1","true","true","true","true","true","true","[1]","001","100","1","","","","","","",""
"","","","","","image-keyboard-response","177","214352","0.0-152.0","5cb183d0bde8cf00179e42d5","665500ab8938657b03fbdba8","665776ab3237019115442965","48","stimuli/10011001.jpg"," ","","feedback_trial","1","","","","","","","","","","","","","","","","","","","","",""
"","","","","","image-keyboard-response","178","216048","0.0-153.0","5cb183d0bde8cf00179e42d5","665500ab8938657b03fbdba8","665776ab3237019115442965","1693","stimuli/2101111.jpg","0","","prediction_trial","0","","true","","2","false","false","false","false","false","false","[0,2]","101","111","1","","","","","","",""
"","","","","","image-keyboard-response","179","216207","0.0-154.0","5cb183d0bde8cf00179e42d5","665500ab8938657b03fbdba8","665776ab3237019115442965","155","stimuli/21011110.jpg"," ","","feedback_trial","0","","","","","","","","","","","","","","","","","","","","",""
"","","","","","image-keyboard-response","180","217305","0.0-155.0","5cb183d0bde8cf00179e42d5","665500ab8938657b03fbdba8","665776ab3237019115442965","1095","stimuli/2111011.jpg","1","","prediction_trial","2","","false","","2","false","false","false","false","false","false","[0,2,1]","111","011","0","","","","","","",""
"","","","","","image-keyboard-response","181","217536","0.0-156.0","5cb183d0bde8cf00179e42d5","665500ab8938657b03fbdba8","665776ab3237019115442965","228","stimuli/21110112.jpg"," ","","feedback_trial","0","","","","","","","","","","","","","","","","","","","","",""
"","","","","","image-keyboard-response","182","218262","0.0-157.0","5cb183d0bde8cf00179e42d5","665500ab8938657b03fbdba8","665776ab3237019115442965","723","stimuli/1010100.jpg","1","","prediction_trial","1","","true","","1","true","true","false","true","false","true","[1]","010","100","1","","","","","","",""
"","","","","","image-keyboard-response","183","218405","0.0-158.0","5cb183d0bde8cf00179e42d5","665500ab8938657b03fbdba8","665776ab3237019115442965","140","stimuli/10101001.jpg"," ","","feedback_trial","1","","","","","","","","","","","","","","","","","","","","",""
"","","","","","image-keyboard-response","184","219740","0.0-159.0","5cb183d0bde8cf00179e42d5","665500ab8938657b03fbdba8","665776ab3237019115442965","1332","stimuli/1111110.jpg","1","","prediction_trial","0","","false","","1","false","false","false","false","false","false","[0,2,1]","111","110","0","","","","","","",""
"","","","","","image-keyboard-response","185","219906","0.0-160.0","5cb183d0bde8cf00179e42d5","665500ab8938657b03fbdba8","665776ab3237019115442965","154","stimuli/11111100.jpg"," ","","feedback_trial","0","","","","","","","","","","","","","","","","","","","","",""
"","","","","","image-keyboard-response","186","220675","0.0-161.0","5cb183d0bde8cf00179e42d5","665500ab8938657b03fbdba8","665776ab3237019115442965","766","stimuli/2111001.jpg","2","","prediction_trial","1","","false","","2","false","true","false","false","false","false","[0,1,2]","111","001","0","","","","","","",""
"","","","","","image-keyboard-response","187","220840","0.0-162.0","5cb183d0bde8cf00179e42d5","665500ab8938657b03fbdba8","665776ab3237019115442965","162","stimuli/21110011.jpg"," ","","feedback_trial","0","","","","","","","","","","","","","","","","","","","","",""
"","","","","","image-keyboard-response","188","221891","0.0-163.0","5cb183d0bde8cf00179e42d5","665500ab8938657b03fbdba8","665776ab3237019115442965","1047","stimuli/0111111.jpg","2","","prediction_trial","2","","true","","0","false","false","false","false","false","false","[1,0,2]","111","111","1","","","","","","",""
"","","","","","image-keyboard-response","189","222085","0.0-164.0","5cb183d0bde8cf00179e42d5","665500ab8938657b03fbdba8","665776ab3237019115442965","190","stimuli/01111112.jpg"," ","","feedback_trial","1","","","","","","","","","","","","","","","","","","","","",""
"","","","","","image-keyboard-response","190","222807","0.0-165.0","5cb183d0bde8cf00179e42d5","665500ab8938657b03fbdba8","665776ab3237019115442965","718","stimuli/2000011.jpg","1","","prediction_trial","2","","false","","2","false","false","true","true","false","false","[2]","000","011","0","","","","","","",""
"","","","","","image-keyboard-response","191","222962","0.0-166.0","5cb183d0bde8cf00179e42d5","665500ab8938657b03fbdba8","665776ab3237019115442965","152","stimuli/20000112.jpg"," ","","feedback_trial","2","","","","","","","","","","","","","","","","","","","","",""
"","","","","","image-keyboard-response","192","224140","0.0-167.0","5cb183d0bde8cf00179e42d5","665500ab8938657b03fbdba8","665776ab3237019115442965","1174","stimuli/0010001.jpg","0","","prediction_trial","0","","true","","0","true","true","true","true","true","true","[0]","010","001","1","","","","","","",""
"","","","","","image-keyboard-response","193","224289","0.0-168.0","5cb183d0bde8cf00179e42d5","665500ab8938657b03fbdba8","665776ab3237019115442965","146","stimuli/00100010.jpg"," ","","feedback_trial","0","","","","","","","","","","","","","","","","","","","","",""
"","","","","","image-keyboard-response","194","224951","0.0-169.0","5cb183d0bde8cf00179e42d5","665500ab8938657b03fbdba8","665776ab3237019115442965","658","stimuli/2100010.jpg","2","","prediction_trial","2","","true","","2","true","true","true","true","true","true","[2]","100","010","1","","","","","","",""
"","","","","","image-keyboard-response","195","225105","0.0-170.0","5cb183d0bde8cf00179e42d5","665500ab8938657b03fbdba8","665776ab3237019115442965","151","stimuli/21000102.jpg"," ","","feedback_trial","2","","","","","","","","","","","","","","","","","","","","",""
"","","","","","image-keyboard-response","196","225782","0.0-171.0","5cb183d0bde8cf00179e42d5","665500ab8938657b03fbdba8","665776ab3237019115442965","675","stimuli/0011011.jpg","0","","prediction_trial","0","","true","","0","true","true","true","true","true","true","[0]","011","011","1","","","","","","",""
"","","","","","image-keyboard-response","197","225970","0.0-172.0","5cb183d0bde8cf00179e42d5","665500ab8938657b03fbdba8","665776ab3237019115442965","176","stimuli/00110110.jpg"," ","","feedback_trial","0","","","","","","","","","","","","","","","","","","","","",""
"","","","","","image-keyboard-response","198","227219","0.0-173.0","5cb183d0bde8cf00179e42d5","665500ab8938657b03fbdba8","665776ab3237019115442965","1247","stimuli/2001011.jpg","1","","prediction_trial","2","","false","","2","false","false","false","true","false","false","[2]","001","011","0","","","","","","",""
"","","","","","image-keyboard-response","199","227387","0.0-174.0","5cb183d0bde8cf00179e42d5","665500ab8938657b03fbdba8","665776ab3237019115442965","165","stimuli/20010112.jpg"," ","","feedback_trial","2","","","","","","","","","","","","","","","","","","","","",""
"","","","","","image-keyboard-response","200","228311","0.0-175.0","5cb183d0bde8cf00179e42d5","665500ab8938657b03fbdba8","665776ab3237019115442965","921","stimuli/1010010.jpg","1","","prediction_trial","1","","true","","1","false","true","false","true","false","true","[1]","010","010","1","","","","","","",""
"","","","","","image-keyboard-response","201","228406","0.0-176.0","5cb183d0bde8cf00179e42d5","665500ab8938657b03fbdba8","665776ab3237019115442965","92","stimuli/10100101.jpg"," ","","feedback_trial","1","","","","","","","","","","","","","","","","","","","","",""
"","","","","","image-keyboard-response","202","229156","0.0-177.0","5cb183d0bde8cf00179e42d5","665500ab8938657b03fbdba8","665776ab3237019115442965","746","stimuli/0010010.jpg","0","","prediction_trial","0","","true","","0","true","true","true","true","true","true","[0]","010","010","1","","","","","","",""
"","","","","","image-keyboard-response","203","229353","0.0-178.0","5cb183d0bde8cf00179e42d5","665500ab8938657b03fbdba8","665776ab3237019115442965","195","stimuli/00100100.jpg"," ","","feedback_trial","0","","","","","","","","","","","","","","","","","","","","",""
"","","","","","image-keyboard-response","204","229963","0.0-179.0","5cb183d0bde8cf00179e42d5","665500ab8938657b03fbdba8","665776ab3237019115442965","607","stimuli/2100000.jpg","2","","prediction_trial","2","","true","","2","true","true","true","true","true","true","[2]","100","000","1","","","","","","",""
"","","","","","image-keyboard-response","205","230081","0.0-180.0","5cb183d0bde8cf00179e42d5","665500ab8938657b03fbdba8","665776ab3237019115442965","114","stimuli/21000002.jpg"," ","","feedback_trial","2","","","","","","","","","","","","","","","","","","","","",""
"","","","","","image-keyboard-response","206","231166","0.0-181.0","5cb183d0bde8cf00179e42d5","665500ab8938657b03fbdba8","665776ab3237019115442965","1082","stimuli/1101000.jpg","1","","prediction_trial","1","","true","","1","true","true","true","true","true","true","[1]","101","000","1","","","","","","",""
"","","","","","image-keyboard-response","207","231329","0.0-182.0","5cb183d0bde8cf00179e42d5","665500ab8938657b03fbdba8","665776ab3237019115442965","159","stimuli/11010001.jpg"," ","","feedback_trial","1","","","","","","","","","","","","","","","","","","","","",""
"","","","","","image-keyboard-response","208","231979","0.0-183.0","5cb183d0bde8cf00179e42d5","665500ab8938657b03fbdba8","665776ab3237019115442965","647","stimuli/0110001.jpg","0","","prediction_trial","1","","false","","0","true","true","false","false","false","false","[1,0]","110","001","0","","","","","","",""
"","","","","","image-keyboard-response","209","232100","0.0-184.0","5cb183d0bde8cf00179e42d5","665500ab8938657b03fbdba8","665776ab3237019115442965","109","stimuli/01100011.jpg"," ","","feedback_trial","1","","","","","","","","","","","","","","","","","","","","",""
"","","","","","image-keyboard-response","210","232773","0.0-185.0","5cb183d0bde8cf00179e42d5","665500ab8938657b03fbdba8","665776ab3237019115442965","669","stimuli/0001111.jpg","2","","prediction_trial","0","","false","","0","false","false","true","true","false","false","[0]","001","111","0","","","","","","",""
"","","","","","image-keyboard-response","211","232897","0.0-186.0","5cb183d0bde8cf00179e42d5","665500ab8938657b03fbdba8","665776ab3237019115442965","121","stimuli/00011110.jpg"," ","","feedback_trial","0","","","","","","","","","","","","","","","","","","","","",""
"","","","","","image-keyboard-response","212","233722","0.0-187.0","5cb183d0bde8cf00179e42d5","665500ab8938657b03fbdba8","665776ab3237019115442965","823","stimuli/0111000.jpg","0","","prediction_trial","0","","true","","0","true","true","false","false","false","false","[1,2,0]","111","000","1","","","","","","",""
"","","","","","image-keyboard-response","213","233863","0.0-188.0","5cb183d0bde8cf00179e42d5","665500ab8938657b03fbdba8","665776ab3237019115442965","138","stimuli/01110000.jpg"," ","","feedback_trial","1","","","","","","","","","","","","","","","","","","","","",""
"","","","","","image-keyboard-response","214","234472","0.0-189.0","5cb183d0bde8cf00179e42d5","665500ab8938657b03fbdba8","665776ab3237019115442965","607","stimuli/0001000.jpg","0","","prediction_trial","0","","true","","0","true","true","true","true","true","true","[0]","001","000","1","","","","","","",""
"","","","","","image-keyboard-response","215","234615","0.0-190.0","5cb183d0bde8cf00179e42d5","665500ab8938657b03fbdba8","665776ab3237019115442965","140","stimuli/00010000.jpg"," ","","feedback_trial","0","","","","","","","","","","","","","","","","","","","","",""
"","","","","","image-keyboard-response","216","235353","0.0-191.0","5cb183d0bde8cf00179e42d5","665500ab8938657b03fbdba8","665776ab3237019115442965","735","stimuli/2110001.jpg","2","","prediction_trial","2","","true","","2","false","true","true","true","false","true","[2]","110","001","1","","","","","","",""
"","","","","","image-keyboard-response","217","235547","0.0-192.0","5cb183d0bde8cf00179e42d5","665500ab8938657b03fbdba8","665776ab3237019115442965","190","stimuli/21100012.jpg"," ","","feedback_trial","2","","","","","","","","","","","","","","","","","","","","",""
"","","","","","image-keyboard-response","218","236218","0.0-193.0","5cb183d0bde8cf00179e42d5","665500ab8938657b03fbdba8","665776ab3237019115442965","668","stimuli/2000001.jpg","2","","prediction_trial","2","","true","","2","false","true","true","true","false","true","[2]","000","001","1","","","","","","",""
"","","","","","image-keyboard-response","219","236364","0.0-194.0","5cb183d0bde8cf00179e42d5","665500ab8938657b03fbdba8","665776ab3237019115442965","144","stimuli/20000012.jpg"," ","","feedback_trial","2","","","","","","","","","","","","","","","","","","","","",""
"","","","","","image-keyboard-response","220","236966","0.0-195.0","5cb183d0bde8cf00179e42d5","665500ab8938657b03fbdba8","665776ab3237019115442965","599","stimuli/2001010.jpg","2","","prediction_trial","2","","true","","2","true","true","false","true","false","true","[2]","001","010","1","","","","","","",""
"","","","","","image-keyboard-response","221","237107","0.0-196.0","5cb183d0bde8cf00179e42d5","665500ab8938657b03fbdba8","665776ab3237019115442965","129","stimuli/20010102.jpg"," ","","feedback_trial","2","","","","","","","","","","","","","","","","","","","","",""
"","","","","","image-keyboard-response","222","238134","0.0-197.0","5cb183d0bde8cf00179e42d5","665500ab8938657b03fbdba8","665776ab3237019115442965","1023","stimuli/1100011.jpg","1","","prediction_trial","1","","true","","1","false","false","true","true","false","false","[1]","100","011","1","","","","","","",""
"","","","","","image-keyboard-response","223","238280","0.0-198.0","5cb183d0bde8cf00179e42d5","665500ab8938657b03fbdba8","665776ab3237019115442965","143","stimuli/11000111.jpg"," ","","feedback_trial","1","","","","","","","","","","","","","","","","","","","","",""
"","","","","","image-keyboard-response","224","239061","0.0-199.0","5cb183d0bde8cf00179e42d5","665500ab8938657b03fbdba8","665776ab3237019115442965","778","stimuli/2010111.jpg","1","","prediction_trial","2","","false","","2","false","false","true","true","false","false","[2]","010","111","0","","","","","","",""
"","","","","","image-keyboard-response","225","239173","0.0-200.0","5cb183d0bde8cf00179e42d5","665500ab8938657b03fbdba8","665776ab3237019115442965","108","stimuli/20101112.jpg"," ","","feedback_trial","2","","","","","","","","","","","","","","","","","","","","",""
"","","","","","image-keyboard-response","226","239993","0.0-201.0","5cb183d0bde8cf00179e42d5","665500ab8938657b03fbdba8","665776ab3237019115442965","817","stimuli/0100010.jpg","0","","prediction_trial","0","","true","","0","true","true","false","true","false","true","[0]","100","010","1","","","","","","",""
"","","","","","image-keyboard-response","227","240146","0.0-202.0","5cb183d0bde8cf00179e42d5","665500ab8938657b03fbdba8","665776ab3237019115442965","150","stimuli/01000100.jpg"," ","","feedback_trial","0","","","","","","","","","","","","","","","","","","","","",""
"","","","","","image-keyboard-response","228","241009","0.0-203.0","5cb183d0bde8cf00179e42d5","665500ab8938657b03fbdba8","665776ab3237019115442965","858","stimuli/1011110.jpg","1","","prediction_trial","2","","false","","1","false","false","false","false","false","false","[2,1]","011","110","0","","","","","","",""
"","","","","","image-keyboard-response","229","241110","0.0-204.0","5cb183d0bde8cf00179e42d5","665500ab8938657b03fbdba8","665776ab3237019115442965","98","stimuli/10111102.jpg"," ","","feedback_trial","2","","","","","","","","","","","","","","","","","","","","",""
"","","","","","image-keyboard-response","230","241865","0.0-205.0","5cb183d0bde8cf00179e42d5","665500ab8938657b03fbdba8","665776ab3237019115442965","752","stimuli/1010111.jpg","1","","prediction_trial","1","","true","","1","false","false","false","true","false","false","[1]","010","111","1","","","","","","",""
"","","","","","image-keyboard-response","231","242014","0.0-206.0","5cb183d0bde8cf00179e42d5","665500ab8938657b03fbdba8","665776ab3237019115442965","146","stimuli/10101111.jpg"," ","","feedback_trial","1","","","","","","","","","","","","","","","","","","","","",""
"","","","","","image-keyboard-response","232","242903","0.0-207.0","5cb183d0bde8cf00179e42d5","665500ab8938657b03fbdba8","665776ab3237019115442965","885","stimuli/0110111.jpg","0","","prediction_trial","1","","false","","0","false","false","false","false","false","false","[0,1]","110","111","0","","","","","","",""
"","","","","","image-keyboard-response","233","243071","0.0-208.0","5cb183d0bde8cf00179e42d5","665500ab8938657b03fbdba8","665776ab3237019115442965","164","stimuli/01101111.jpg"," ","","feedback_trial","0","","","","","","","","","","","","","","","","","","","","",""
"","","","","","image-keyboard-response","234","243768","0.0-209.0","5cb183d0bde8cf00179e42d5","665500ab8938657b03fbdba8","665776ab3237019115442965","693","stimuli/2001111.jpg","1","","prediction_trial","2","","false","","2","false","false","false","true","false","false","[2]","001","111","0","","","","","","",""
"","","","","","image-keyboard-response","235","243869","0.0-210.0","5cb183d0bde8cf00179e42d5","665500ab8938657b03fbdba8","665776ab3237019115442965","98","stimuli/20011112.jpg"," ","","feedback_trial","2","","","","","","","","","","","","","","","","","","","","",""
"","","","","","image-keyboard-response","236","244575","0.0-211.0","5cb183d0bde8cf00179e42d5","665500ab8938657b03fbdba8","665776ab3237019115442965","702","stimuli/2110111.jpg","1","","prediction_trial","2","","false","","2","false","false","true","true","false","false","[2]","110","111","0","","","","","","",""
"","","","","","image-keyboard-response","237","244731","0.0-212.0","5cb183d0bde8cf00179e42d5","665500ab8938657b03fbdba8","665776ab3237019115442965","153","stimuli/21101112.jpg"," ","","feedback_trial","2","","","","","","","","","","","","","","","","","","","","",""
"","","","","","image-keyboard-response","238","245467","0.0-213.0","5cb183d0bde8cf00179e42d5","665500ab8938657b03fbdba8","665776ab3237019115442965","732","stimuli/0000011.jpg","0","","prediction_trial","0","","true","","0","true","true","true","true","true","true","[0]","000","011","1","","","","","","",""
"","","","","","image-keyboard-response","239","245611","0.0-214.0","5cb183d0bde8cf00179e42d5","665500ab8938657b03fbdba8","665776ab3237019115442965","139","stimuli/00000110.jpg"," ","","feedback_trial","0","","","","","","","","","","","","","","","","","","","","",""
"","","","","","image-keyboard-response","240","246295","0.0-215.0","5cb183d0bde8cf00179e42d5","665500ab8938657b03fbdba8","665776ab3237019115442965","681","stimuli/2010001.jpg","2","","prediction_trial","2","","true","","2","false","true","true","true","false","true","[2]","010","001","1","","","","","","",""
"","","","","","image-keyboard-response","241","246453","0.0-216.0","5cb183d0bde8cf00179e42d5","665500ab8938657b03fbdba8","665776ab3237019115442965","154","stimuli/20100012.jpg"," ","","feedback_trial","2","","","","","","","","","","","","","","","","","","","","",""
"","","","","","image-keyboard-response","242","247196","0.0-217.0","5cb183d0bde8cf00179e42d5","665500ab8938657b03fbdba8","665776ab3237019115442965","740","stimuli/2100001.jpg","2","","prediction_trial","2","","true","","2","false","true","true","true","false","true","[2]","100","001","1","","","","","","",""
"","","","","","image-keyboard-response","243","247314","0.0-218.0","5cb183d0bde8cf00179e42d5","665500ab8938657b03fbdba8","665776ab3237019115442965","114","stimuli/21000012.jpg"," ","","feedback_trial","2","","","","","","","","","","","","","","","","","","","","",""
"","","","","","image-keyboard-response","244","248127","0.0-219.0","5cb183d0bde8cf00179e42d5","665500ab8938657b03fbdba8","665776ab3237019115442965","810","stimuli/0000100.jpg","0","","prediction_trial","0","","true","","0","false","true","true","true","false","true","[0]","000","100","1","","","","","","",""
"","","","","","image-keyboard-response","245","248296","0.0-220.0","5cb183d0bde8cf00179e42d5","665500ab8938657b03fbdba8","665776ab3237019115442965","166","stimuli/00001000.jpg"," ","","feedback_trial","0","","","","","","","","","","","","","","","","","","","","",""
"","","","","","image-keyboard-response","246","248962","0.0-221.0","5cb183d0bde8cf00179e42d5","665500ab8938657b03fbdba8","665776ab3237019115442965","662","stimuli/2111101.jpg","2","","prediction_trial","2","","true","","2","false","false","false","false","false","false","[1,2,0]","111","101","1","","","","","","",""
"","","","","","image-keyboard-response","247","249089","0.0-222.0","5cb183d0bde8cf00179e42d5","665500ab8938657b03fbdba8","665776ab3237019115442965","124","stimuli/21111012.jpg"," ","","feedback_trial","1","","","","","","","","","","","","","","","","","","","","",""
"","","","","","image-keyboard-response","248","250091","0.0-223.0","5cb183d0bde8cf00179e42d5","665500ab8938657b03fbdba8","665776ab3237019115442965","999","stimuli/1110011.jpg","1","","prediction_trial","1","","true","","1","false","false","false","false","false","false","[1,0]","110","011","1","","","","","","",""
"","","","","","image-keyboard-response","249","250247","0.0-224.0","5cb183d0bde8cf00179e42d5","665500ab8938657b03fbdba8","665776ab3237019115442965","152","stimuli/11100111.jpg"," ","","feedback_trial","1","","","","","","","","","","","","","","","","","","","","",""
"","","","","","image-keyboard-response","250","250987","0.0-225.0","5cb183d0bde8cf00179e42d5","665500ab8938657b03fbdba8","665776ab3237019115442965","737","stimuli/1011101.jpg","1","","prediction_trial","1","","true","","1","true","true","false","false","false","false","[2,1]","011","101","1","","","","","","",""
"","","","","","image-keyboard-response","251","251141","0.0-226.0","5cb183d0bde8cf00179e42d5","665500ab8938657b03fbdba8","665776ab3237019115442965","151","stimuli/10111011.jpg"," ","","feedback_trial","2","","","","","","","","","","","","","","","","","","","","",""
"","","","","","image-keyboard-response","252","251837","0.0-227.0","5cb183d0bde8cf00179e42d5","665500ab8938657b03fbdba8","665776ab3237019115442965","693","stimuli/1110001.jpg","1","","prediction_trial","1","","true","","1","true","true","false","false","false","false","[1,0]","110","001","1","","","","","","",""
"","","","","","image-keyboard-response","253","251948","0.0-228.0","5cb183d0bde8cf00179e42d5","665500ab8938657b03fbdba8","665776ab3237019115442965","107","stimuli/11100011.jpg"," ","","feedback_trial","1","","","","","","","","","","","","","","","","","","","","",""
"","","","","","image-keyboard-response","254","252508","0.0-229.0","5cb183d0bde8cf00179e42d5","665500ab8938657b03fbdba8","665776ab3237019115442965","557","stimuli/1111001.jpg","1","","prediction_trial","2","","false","","1","true","true","false","false","false","false","[2,0,1]","111","001","0","","","","","","",""
"","","","","","image-keyboard-response","255","252677","0.0-230.0","5cb183d0bde8cf00179e42d5","665500ab8938657b03fbdba8","665776ab3237019115442965","165","stimuli/11110012.jpg"," ","","feedback_trial","2","","","","","","","","","","","","","","","","","","","","",""
"","","","","","image-keyboard-response","256","253295","0.0-231.0","5cb183d0bde8cf00179e42d5","665500ab8938657b03fbdba8","665776ab3237019115442965","615","stimuli/2010110.jpg","2","","prediction_trial","2","","true","","2","true","true","true","true","true","true","[2]","010","110","1","","","","","","",""
"","","","","","image-keyboard-response","257","253406","0.0-232.0","5cb183d0bde8cf00179e42d5","665500ab8938657b03fbdba8","665776ab3237019115442965","100","stimuli/20101102.jpg"," ","","feedback_trial","2","","","","","","","","","","","","","","","","","","","","",""
"","","","","","image-keyboard-response","258","254508","0.0-233.0","5cb183d0bde8cf00179e42d5","665500ab8938657b03fbdba8","665776ab3237019115442965","1098","stimuli/0110100.jpg","0","","prediction_trial","1","","false","","0","false","true","false","false","false","false","[0,1]","110","100","0","","","","","","",""
"","","","","","image-keyboard-response","259","254673","0.0-234.0","5cb183d0bde8cf00179e42d5","665500ab8938657b03fbdba8","665776ab3237019115442965","162","stimuli/01101001.jpg"," ","","feedback_trial","0","","","","","","","","","","","","","","","","","","","","",""
"","","","","","image-keyboard-response","260","255379","0.0-235.0","5cb183d0bde8cf00179e42d5","665500ab8938657b03fbdba8","665776ab3237019115442965","702","stimuli/2101001.jpg","2","","prediction_trial","2","","true","","2","false","true","false","false","false","false","[2,0]","101","001","1","","","","","","",""
"","","","","","image-keyboard-response","261","255544","0.0-236.0","5cb183d0bde8cf00179e42d5","665500ab8938657b03fbdba8","665776ab3237019115442965","162","stimuli/21010012.jpg"," ","","feedback_trial","2","","","","","","","","","","","","","","","","","","","","",""
"","","","","","image-keyboard-response","262","256277","0.0-237.0","5cb183d0bde8cf00179e42d5","665500ab8938657b03fbdba8","665776ab3237019115442965","730","stimuli/0100100.jpg","0","","prediction_trial","0","","true","","0","false","true","false","true","false","true","[0]","100","100","1","","","","","","",""
"","","","","","image-keyboard-response","263","256480","0.0-238.0","5cb183d0bde8cf00179e42d5","665500ab8938657b03fbdba8","665776ab3237019115442965","200","stimuli/01001000.jpg"," ","","feedback_trial","0","","","","","","","","","","","","","","","","","","","","",""
"","","","","","image-keyboard-response","264","257326","0.0-239.0","5cb183d0bde8cf00179e42d5","665500ab8938657b03fbdba8","665776ab3237019115442965","842","stimuli/1111101.jpg","1","","prediction_trial","0","","false","","1","true","true","false","false","false","false","[2,1,0]","111","101","0","","","","","","",""
"","","","","","image-keyboard-response","265","257465","0.0-240.0","5cb183d0bde8cf00179e42d5","665500ab8938657b03fbdba8","665776ab3237019115442965","136","stimuli/11111010.jpg"," ","","feedback_trial","2","","","","","","","","","","","","","","","","","","","","",""
"","","","","","image-keyboard-response","266","258345","0.0-241.0","5cb183d0bde8cf00179e42d5","665500ab8938657b03fbdba8","665776ab3237019115442965","876","stimuli/1001011.jpg","1","","prediction_trial","1","","true","","1","false","false","true","true","false","false","[1]","001","011","1","","","","","","",""
"","","","","","image-keyboard-response","267","258497","0.0-242.0","5cb183d0bde8cf00179e42d5","665500ab8938657b03fbdba8","665776ab3237019115442965","149","stimuli/10010111.jpg"," ","","feedback_trial","1","","","","","","","","","","","","","","","","","","","","",""
"","","","","","image-keyboard-response","268","259215","0.0-243.0","5cb183d0bde8cf00179e42d5","665500ab8938657b03fbdba8","665776ab3237019115442965","715","stimuli/0101000.jpg","0","","prediction_trial","2","","false","","0","true","true","false","false","false","false","[0,2]","101","000","0","","","","","","",""
"","","","","","image-keyboard-response","269","259378","0.0-244.0","5cb183d0bde8cf00179e42d5","665500ab8938657b03fbdba8","665776ab3237019115442965","157","stimuli/01010002.jpg"," ","","feedback_trial","0","","","","","","","","","","","","","","","","","","","","",""
"","","","","","image-keyboard-response","270","260073","0.0-245.0","5cb183d0bde8cf00179e42d5","665500ab8938657b03fbdba8","665776ab3237019115442965","692","stimuli/0100011.jpg","0","","prediction_trial","0","","true","","0","true","true","false","true","false","true","[0]","100","011","1","","","","","","",""
"","","","","","image-keyboard-response","271","260216","0.0-246.0","5cb183d0bde8cf00179e42d5","665500ab8938657b03fbdba8","665776ab3237019115442965","139","stimuli/01000110.jpg"," ","","feedback_trial","0","","","","","","","","","","","","","","","","","","","","",""
"","","","","","image-keyboard-response","272","260991","0.0-247.0","5cb183d0bde8cf00179e42d5","665500ab8938657b03fbdba8","665776ab3237019115442965","773","stimuli/1101110.jpg","1","","prediction_trial","1","","true","","1","false","false","true","true","false","false","[1]","101","110","1","","","","","","",""
"","","","","","image-keyboard-response","273","261157","0.0-248.0","5cb183d0bde8cf00179e42d5","665500ab8938657b03fbdba8","665776ab3237019115442965","162","stimuli/11011101.jpg"," ","","feedback_trial","1","","","","","","","","","","","","","","","","","","","","",""
"","","","","","image-keyboard-response","274","262082","0.0-249.0","5cb183d0bde8cf00179e42d5","665500ab8938657b03fbdba8","665776ab3237019115442965","921","stimuli/2110101.jpg","0","","prediction_trial","2","","false","","2","false","false","true","true","false","false","[2]","110","101","0","","","","","","",""
"","","","","","image-keyboard-response","275","262206","0.0-250.0","5cb183d0bde8cf00179e42d5","665500ab8938657b03fbdba8","665776ab3237019115442965","121","stimuli/21101012.jpg"," ","","feedback_trial","2","","","","","","","","","","","","","","","","","","","","",""
"","","","","","image-keyboard-response","276","263681","0.0-251.0","5cb183d0bde8cf00179e42d5","665500ab8938657b03fbdba8","665776ab3237019115442965","1472","stimuli/1001110.jpg","1","","prediction_trial","1","","true","","1","false","false","true","true","false","false","[1]","001","110","1","","","","","","",""
"","","","","","image-keyboard-response","277","263830","0.0-252.0","5cb183d0bde8cf00179e42d5","665500ab8938657b03fbdba8","665776ab3237019115442965","146","stimuli/10011101.jpg"," ","","feedback_trial","1","","","","","","","","","","","","","","","","","","","","",""
"","","","","","image-keyboard-response","278","264518","0.0-253.0","5cb183d0bde8cf00179e42d5","665500ab8938657b03fbdba8","665776ab3237019115442965","685","stimuli/1100000.jpg","1","","prediction_trial","1","","true","","1","true","true","true","true","true","true","[1]","100","000","1","","","","","","",""
"","","","","","image-keyboard-response","279","265150","0.0-254.0","5cb183d0bde8cf00179e42d5","665500ab8938657b03fbdba8","665776ab3237019115442965","629","stimuli/11000001.jpg"," ","","feedback_trial","1","","","","","","","","","","","","","","","","","","","","",""
"","","","","","image-keyboard-response","280","265795","0.0-255.0","5cb183d0bde8cf00179e42d5","665500ab8938657b03fbdba8","665776ab3237019115442965","643","stimuli/0101110.jpg","1","","prediction_trial","0","","false","","0","false","false","false","false","false","false","[0,2]","101","110","0","","","","","","",""
"","","","","","image-keyboard-response","281","266306","0.0-256.0","5cb183d0bde8cf00179e42d5","665500ab8938657b03fbdba8","665776ab3237019115442965","507","stimuli/01011100.jpg"," ","","feedback_trial","0","","","","","","","","","","","","","","","","","","","","",""
"","","","","","image-keyboard-response","282","267057","0.0-257.0","5cb183d0bde8cf00179e42d5","665500ab8938657b03fbdba8","665776ab3237019115442965","748","stimuli/0011111.jpg","1","","prediction_trial","0","","false","","0","false","false","true","true","false","false","[0]","011","111","0","","","","","","",""
"","","","","","image-keyboard-response","283","267375","0.0-258.0","5cb183d0bde8cf00179e42d5","665500ab8938657b03fbdba8","665776ab3237019115442965","315","stimuli/00111110.jpg"," ","","feedback_trial","0","","","","","","","","","","","","","","","","","","","","",""
"","","","","","image-keyboard-response","284","267925","0.0-259.0","5cb183d0bde8cf00179e42d5","665500ab8938657b03fbdba8","665776ab3237019115442965","547","stimuli/1011001.jpg","1","","prediction_trial","2","","false","","1","true","true","false","false","false","false","[2,1]","011","001","0","","","","","","",""
"","","","","","image-keyboard-response","285","268107","0.0-260.0","5cb183d0bde8cf00179e42d5","665500ab8938657b03fbdba8","665776ab3237019115442965","178","stimuli/10110012.jpg"," ","","feedback_trial","2","","","","","","","","","","","","","","","","","","","","",""
"","","","","","image-keyboard-response","286","269021","0.0-261.0","5cb183d0bde8cf00179e42d5","665500ab8938657b03fbdba8","665776ab3237019115442965","911","stimuli/0111010.jpg","0","","prediction_trial","2","","false","","0","true","true","false","false","false","false","[1,0,2]","111","010","0","","","","","","",""
"","","","","","image-keyboard-response","287","269093","0.0-262.0","5cb183d0bde8cf00179e42d5","665500ab8938657b03fbdba8","665776ab3237019115442965","69","stimuli/01110102.jpg"," ","","feedback_trial","1","","","","","","","","","","","","","","","","","","","","",""
"","","","","","image-keyboard-response","288","270229","0.0-263.0","5cb183d0bde8cf00179e42d5","665500ab8938657b03fbdba8","665776ab3237019115442965","1133","stimuli/1001010.jpg","1","","prediction_trial","1","","true","","1","false","true","true","true","false","true","[1]","001","010","1","","","","","","",""
"","","","","","image-keyboard-response","289","270354","0.0-264.0","5cb183d0bde8cf00179e42d5","665500ab8938657b03fbdba8","665776ab3237019115442965","121","stimuli/10010101.jpg"," ","","feedback_trial","1","","","","","","","","","","","","","","","","","","","","",""
"","","","","","image-keyboard-response","290","271017","0.0-265.0","5cb183d0bde8cf00179e42d5","665500ab8938657b03fbdba8","665776ab3237019115442965","657","stimuli/1101001.jpg","1","","prediction_trial","1","","true","","1","true","true","true","true","true","true","[1]","101","001","1","","","","","","",""
"","","","","","image-keyboard-response","291","271172","0.0-266.0","5cb183d0bde8cf00179e42d5","665500ab8938657b03fbdba8","665776ab3237019115442965","152","stimuli/11010011.jpg"," ","","feedback_trial","1","","","","","","","","","","","","","","","","","","","","",""
"","","","","","image-keyboard-response","292","271951","0.0-267.0","5cb183d0bde8cf00179e42d5","665500ab8938657b03fbdba8","665776ab3237019115442965","775","stimuli/1001101.jpg","1","","prediction_trial","1","","true","","1","true","true","true","true","true","true","[1]","001","101","1","","","","","","",""
"","","","","","image-keyboard-response","293","272100","0.0-268.0","5cb183d0bde8cf00179e42d5","665500ab8938657b03fbdba8","665776ab3237019115442965","145","stimuli/10011011.jpg"," ","","feedback_trial","1","","","","","","","","","","","","","","","","","","","","",""
"","","","","","image-keyboard-response","294","272908","0.0-269.0","5cb183d0bde8cf00179e42d5","665500ab8938657b03fbdba8","665776ab3237019115442965","803","stimuli/2001110.jpg","2","","prediction_trial","2","","true","","2","true","true","false","true","false","true","[2]","001","110","1","","","","","","",""
"","","","","","image-keyboard-response","295","273051","0.0-270.0","5cb183d0bde8cf00179e42d5","665500ab8938657b03fbdba8","665776ab3237019115442965","139","stimuli/20011102.jpg"," ","","feedback_trial","2","","","","","","","","","","","","","","","","","","","","",""
"","","","","","image-keyboard-response","296","273763","0.0-271.0","5cb183d0bde8cf00179e42d5","665500ab8938657b03fbdba8","665776ab3237019115442965","709","stimuli/2011000.jpg","2","","prediction_trial","1","","false","","2","true","true","false","false","false","false","[1,2]","011","000","0","","","","","","",""
"","","","","","image-keyboard-response","297","273874","0.0-272.0","5cb183d0bde8cf00179e42d5","665500ab8938657b03fbdba8","665776ab3237019115442965","108","stimuli/20110001.jpg"," ","","feedback_trial","1","","","","","","","","","","","","","","","","","","","","",""
"","","","","","image-keyboard-response","298","274711","0.0-273.0","5cb183d0bde8cf00179e42d5","665500ab8938657b03fbdba8","665776ab3237019115442965","834","stimuli/2010011.jpg","1","","prediction_trial","2","","false","","2","false","false","true","true","false","false","[2]","010","011","0","","","","","","",""
"","","","","","image-keyboard-response","299","274832","0.0-274.0","5cb183d0bde8cf00179e42d5","665500ab8938657b03fbdba8","665776ab3237019115442965","117","stimuli/20100112.jpg"," ","","feedback_trial","2","","","","","","","","","","","","","","","","","","","","",""
"","","","","","image-keyboard-response","300","275921","0.0-275.0","5cb183d0bde8cf00179e42d5","665500ab8938657b03fbdba8","665776ab3237019115442965","1085","stimuli/0001010.jpg","0","","prediction_trial","0","","true","","0","true","true","true","true","true","true","[0]","001","010","1","","","","","","",""
"","","","","","image-keyboard-response","301","276060","0.0-276.0","5cb183d0bde8cf00179e42d5","665500ab8938657b03fbdba8","665776ab3237019115442965","137","stimuli/00010100.jpg"," ","","feedback_trial","0","","","","","","","","","","","","","","","","","","","","",""
"","","","","","image-keyboard-response","302","276868","0.0-277.0","5cb183d0bde8cf00179e42d5","665500ab8938657b03fbdba8","665776ab3237019115442965","804","stimuli/1000010.jpg","1","","prediction_trial","1","","true","","1","false","true","true","true","false","true","[1]","000","010","1","","","","","","",""
"","","","","","image-keyboard-response","303","277015","0.0-278.0","5cb183d0bde8cf00179e42d5","665500ab8938657b03fbdba8","665776ab3237019115442965","143","stimuli/10000101.jpg"," ","","feedback_trial","1","","","","","","","","","","","","","","","","","","","","",""
"","","","","","image-keyboard-response","304","277751","0.0-279.0","5cb183d0bde8cf00179e42d5","665500ab8938657b03fbdba8","665776ab3237019115442965","733","stimuli/1110100.jpg","1","","prediction_trial","1","","true","","1","true","true","false","false","false","false","[1,0]","110","100","1","","","","","","",""
"","","","","","image-keyboard-response","305","277865","0.0-280.0","5cb183d0bde8cf00179e42d5","665500ab8938657b03fbdba8","665776ab3237019115442965","102","stimuli/11101001.jpg"," ","","feedback_trial","1","","","","","","","","","","","","","","","","","","","","",""
"","","","","","image-keyboard-response","306","279608","0.0-281.0","5cb183d0bde8cf00179e42d5","665500ab8938657b03fbdba8","665776ab3237019115442965","1739","stimuli/2110110.jpg","2","","prediction_trial","2","","true","","2","true","true","true","true","true","true","[2]","110","110","1","","","","","","",""
"","","","","","image-keyboard-response","307","279781","0.0-282.0","5cb183d0bde8cf00179e42d5","665500ab8938657b03fbdba8","665776ab3237019115442965","170","stimuli/21101102.jpg"," ","","feedback_trial","2","","","","","","","","","","","","","","","","","","","","",""
"","","","","","image-keyboard-response","308","280742","0.0-283.0","5cb183d0bde8cf00179e42d5","665500ab8938657b03fbdba8","665776ab3237019115442965","959","stimuli/0101011.jpg","0","","prediction_trial","2","","false","","0","true","true","false","false","false","false","[2,0]","101","011","0","","","","","","",""
"","","","","","image-keyboard-response","309","280888","0.0-284.0","5cb183d0bde8cf00179e42d5","665500ab8938657b03fbdba8","665776ab3237019115442965","143","stimuli/01010112.jpg"," ","","feedback_trial","2","","","","","","","","","","","","","","","","","","","","",""
"","","","","","image-keyboard-response","310","281640","0.0-285.0","5cb183d0bde8cf00179e42d5","665500ab8938657b03fbdba8","665776ab3237019115442965","748","stimuli/2111010.jpg","2","","prediction_trial","2","","true","","2","true","true","false","false","false","false","[0,1,2]","111","010","1","","","","","","",""
"","","","","","image-keyboard-response","311","281802","0.0-286.0","5cb183d0bde8cf00179e42d5","665500ab8938657b03fbdba8","665776ab3237019115442965","159","stimuli/21110102.jpg"," ","","feedback_trial","0","","","","","","","","","","","","","","","","","","","","",""
"","","","","","image-keyboard-response","312","282565","0.0-287.0","5cb183d0bde8cf00179e42d5","665500ab8938657b03fbdba8","665776ab3237019115442965","759","stimuli/2110100.jpg","2","","prediction_trial","2","","true","","2","true","true","true","true","true","true","[2]","110","100","1","","","","","","",""
"","","","","","image-keyboard-response","313","282718","0.0-288.0","5cb183d0bde8cf00179e42d5","665500ab8938657b03fbdba8","665776ab3237019115442965","150","stimuli/21101002.jpg"," ","","feedback_trial","2","","","","","","","","","","","","","","","","","","","","",""
"","","","","","image-keyboard-response","314","283650","0.0-289.0","5cb183d0bde8cf00179e42d5","665500ab8938657b03fbdba8","665776ab3237019115442965","929","stimuli/1101100.jpg","1","","prediction_trial","1","","true","","1","true","true","true","true","true","true","[1]","101","100","1","","","","","","",""
"","","","","","image-keyboard-response","315","283806","0.0-290.0","5cb183d0bde8cf00179e42d5","665500ab8938657b03fbdba8","665776ab3237019115442965","152","stimuli/11011001.jpg"," ","","feedback_trial","1","","","","","","","","","","","","","","","","","","","","",""
"","","","","","image-keyboard-response","316","285064","0.0-291.0","5cb183d0bde8cf00179e42d5","665500ab8938657b03fbdba8","665776ab3237019115442965","1255","stimuli/0100111.jpg","0","","prediction_trial","0","","true","","0","false","false","false","true","false","false","[0]","100","111","1","","","","","","",""
"","","","","","image-keyboard-response","317","285240","0.0-292.0","5cb183d0bde8cf00179e42d5","665500ab8938657b03fbdba8","665776ab3237019115442965","167","stimuli/01001110.jpg"," ","","feedback_trial","0","","","","","","","","","","","","","","","","","","","","",""
"","","","","","survey-html-form","318","311553","0.0-293.0","5cb183d0bde8cf00179e42d5","665500ab8938657b03fbdba8","665776ab3237019115442965","26298","","{""feedback"":""Just going with the flow."",""age"":""26"",""gender"":""Female"",""other_gender"":"""",""race"":""Multiracial"",""other_race"":"""",""ethnicity"":""Non-Hispanic""}","","exit_survey","","","","","","","","","","","","","","","","Just going with the flow.","26","Non-Hispanic","Female","Multiracial","0.6388888888888888","0.6388888888888888"
