"success","timeout","failed_images","failed_audio","failed_video","trial_type","trial_index","time_elapsed","internal_node_id","prolific_id","prolific_study_id","prolific_session_id","rt","stimulus","response","view_history","trial","character_choice","stimulus_dict","accuracy","correct_response","ball_pos","ego_ball_visible","ego_can_infer","alter_ball_visible","alter_can_infer","collective_ball_visible","collective_can_infer","search_locations","alter_occluders","ego_occluders","accuracy_bool","feedback","age","ethnicity","gender","race","overall_accuracy","bonus"
"true","false","[]","[]","[]","preload","0","5604","0.0-0.0","5bc0cded8b8bfe000105ea82","665500ab8938657b03fbdba8","66579326c24bcd454bfb28ba","","","","","","","","","","","","","","","","","","","","","","","","","","",""
"true","","","","","fullscreen","1","8154","0.0-1.0","5bc0cded8b8bfe000105ea82","665500ab8938657b03fbdba8","66579326c24bcd454bfb28ba","","","","","","","","","","","","","","","","","","","","","","","","","","",""
"","","","","","html-button-response","2","9988","0.0-2.0","5bc0cded8b8bfe000105ea82","665500ab8938657b03fbdba8","66579326c24bcd454bfb28ba","1828","<p><b>Consent Form</b></p> <div style=""text-align:left;background-color:lightgrey; padding:20px; max-width:900px;""><p>Please consider this information carefully before deciding whether to participate in this research.</p> <p>The purpose of this research is to examine which factors influence social judgment and decision-making. You will be asked to make judgements about individuals and actions in social scenarios. We are simply interested in your judgement. The study will take less than 1 hour to complete, and you will receive less than $20 on Prolific. Your compensation and time commitment are specified in the study description. There are no anticipated risks associated with participating in this study. The effects of participating should be comparable to those you would ordinarily experience from viewing a computer monitor and using a mouse or keyboard for a similar amount of time. At the end of the study, we will provide an explanation of the questions that motivate this line of research and will describe the potential implications. </p><p> Your participation in this study is completely voluntary and you may refuse to participate or you may choose to withdraw at any time without penalty or loss of benefits to you which are otherwise entitled. Your participation in this study will remain confidential. No personally identifiable information will be associated with your data. Also, all analyses of the data will be averaged across all the participants, so your individual responses will never be specifically analyzed. </p><p> If you have questions or concerns about your participation or payment, or want to request a summary of research findings, please contact Dr. Jonathan Phillips at Jonathan.S.Phillips@dartmouth.edu. </p><p> Please save a copy of this form for your records. </p><p><b>Agreement: </b>The nature and purpose of this research have been sufficiently explained and I agree to participate in this study. I understand that I am free to withdraw at any time without incurring any penalty. Please consent by clicking the button below to continue. Otherwise, please exit the study at any time. </p>","0","","","","","","","","","","","","","","","","","","","","","","","",""
"","","","","","instructions","3","54855","0.0-3.0-0.0","5bc0cded8b8bfe000105ea82","665500ab8938657b03fbdba8","66579326c24bcd454bfb28ba","44865","","","[{""page_index"":0,""viewing_time"":1522},{""page_index"":1,""viewing_time"":1549},{""page_index"":2,""viewing_time"":1866},{""page_index"":3,""viewing_time"":3353},{""page_index"":4,""viewing_time"":1732},{""page_index"":5,""viewing_time"":3078},{""page_index"":6,""viewing_time"":3025},{""page_index"":7,""viewing_time"":3022},{""page_index"":8,""viewing_time"":2673},{""page_index"":9,""viewing_time"":3273},{""page_index"":10,""viewing_time"":7500},{""page_index"":11,""viewing_time"":6743},{""page_index"":12,""viewing_time"":4480},{""page_index"":13,""viewing_time"":1050}]","intro","","","","","","","","","","","","","","","","","","","","","",""
"","","","","","image-keyboard-response","4","58955","0.0-3.0-1.0","5bc0cded8b8bfe000105ea82","665500ab8938657b03fbdba8","66579326c24bcd454bfb28ba","4053","stimuli/0101100.jpg","0","","prediction_practice","0","{""filepath"":""stimuli/0101100.jpg"",""ball_pos"":0,""ego_ball_visible"":false,""ego_can_infer"":true,""alter_ball_visible"":false,""alter_can_infer"":false,""collective_ball_visible"":false,""collective_can_infer"":false,""search_locations"":[2,0],""alter_occluders"":""101"",""ego_occluders"":""100""}","true","","","","","","","","","","","","","","","","","","",""
"","","","","","image-keyboard-response","5","60894","0.0-3.0-2.0","5bc0cded8b8bfe000105ea82","665500ab8938657b03fbdba8","66579326c24bcd454bfb28ba","1925","stimuli/01011000.jpg"," ","","practrice_feedback","2","","","","","","","","","","","","","","","","","","","","",""
"","","","","","image-keyboard-response","6","62767","0.0-3.0-3.0","5bc0cded8b8bfe000105ea82","665500ab8938657b03fbdba8","66579326c24bcd454bfb28ba","1871","stimuli/1111101.jpg","1","","prediction_practice","2","{""filepath"":""stimuli/1111101.jpg"",""ball_pos"":1,""ego_ball_visible"":true,""ego_can_infer"":true,""alter_ball_visible"":false,""alter_can_infer"":false,""collective_ball_visible"":false,""collective_can_infer"":false,""search_locations"":[2,0,1],""alter_occluders"":""111"",""ego_occluders"":""101""}","false","","","","","","","","","","","","","","","","","","",""
"","","","","","image-keyboard-response","7","64193","0.0-3.0-4.0","5bc0cded8b8bfe000105ea82","665500ab8938657b03fbdba8","66579326c24bcd454bfb28ba","1424","stimuli/11111012.jpg"," ","","practrice_feedback","2","","","","","","","","","","","","","","","","","","","","",""
"","","","","","image-keyboard-response","8","65705","0.0-3.0-5.0","5bc0cded8b8bfe000105ea82","665500ab8938657b03fbdba8","66579326c24bcd454bfb28ba","1510","stimuli/1100101.jpg","1","","prediction_practice","1","{""filepath"":""stimuli/1100101.jpg"",""ball_pos"":1,""ego_ball_visible"":true,""ego_can_infer"":true,""alter_ball_visible"":true,""alter_can_infer"":true,""collective_ball_visible"":true,""collective_can_infer"":true,""search_locations"":[1],""alter_occluders"":""100"",""ego_occluders"":""101""}","true","","","","","","","","","","","","","","","","","","",""
"","","","","","image-keyboard-response","9","66467","0.0-3.0-6.0","5bc0cded8b8bfe000105ea82","665500ab8938657b03fbdba8","66579326c24bcd454bfb28ba","760","stimuli/11001011.jpg"," ","","practrice_feedback","1","","","","","","","","","","","","","","","","","","","","",""
"","","","","","image-keyboard-response","10","67125","0.0-3.0-7.0","5bc0cded8b8bfe000105ea82","665500ab8938657b03fbdba8","66579326c24bcd454bfb28ba","655","stimuli/1001001.jpg","1","","prediction_practice","1","{""filepath"":""stimuli/1001001.jpg"",""ball_pos"":1,""ego_ball_visible"":true,""ego_can_infer"":true,""alter_ball_visible"":true,""alter_can_infer"":true,""collective_ball_visible"":true,""collective_can_infer"":true,""search_locations"":[1],""alter_occluders"":""001"",""ego_occluders"":""001""}","true","","","","","","","","","","","","","","","","","","",""
"","","","","","image-keyboard-response","11","67638","0.0-3.0-8.0","5bc0cded8b8bfe000105ea82","665500ab8938657b03fbdba8","66579326c24bcd454bfb28ba","510","stimuli/10010011.jpg"," ","","practrice_feedback","1","","","","","","","","","","","","","","","","","","","","",""
"","","","","","image-keyboard-response","12","68315","0.0-3.0-9.0","5bc0cded8b8bfe000105ea82","665500ab8938657b03fbdba8","66579326c24bcd454bfb28ba","675","stimuli/2110000.jpg","2","","prediction_practice","2","{""filepath"":""stimuli/2110000.jpg"",""ball_pos"":2,""ego_ball_visible"":true,""ego_can_infer"":true,""alter_ball_visible"":true,""alter_can_infer"":true,""collective_ball_visible"":true,""collective_can_infer"":true,""search_locations"":[2],""alter_occluders"":""110"",""ego_occluders"":""000""}","true","","","","","","","","","","","","","","","","","","",""
"","","","","","image-keyboard-response","13","69008","0.0-3.0-10.0","5bc0cded8b8bfe000105ea82","665500ab8938657b03fbdba8","66579326c24bcd454bfb28ba","692","stimuli/21100002.jpg"," ","","practrice_feedback","2","","","","","","","","","","","","","","","","","","","","",""
"","","","","","image-keyboard-response","14","70246","0.0-3.0-11.0","5bc0cded8b8bfe000105ea82","665500ab8938657b03fbdba8","66579326c24bcd454bfb28ba","1235","stimuli/1111110.jpg","1","","prediction_practice","1","{""filepath"":""stimuli/1111110.jpg"",""ball_pos"":1,""ego_ball_visible"":false,""ego_can_infer"":false,""alter_ball_visible"":false,""alter_can_infer"":false,""collective_ball_visible"":false,""collective_can_infer"":false,""search_locations"":[1,0,2],""alter_occluders"":""111"",""ego_occluders"":""110""}","true","","","","","","","","","","","","","","","","","","",""
"","","","","","image-keyboard-response","15","71938","0.0-3.0-12.0","5bc0cded8b8bfe000105ea82","665500ab8938657b03fbdba8","66579326c24bcd454bfb28ba","1691","stimuli/11111101.jpg"," ","","practrice_feedback","1","","","","","","","","","","","","","","","","","","","","",""
"","","","","","image-keyboard-response","16","73474","0.0-3.0-13.0","5bc0cded8b8bfe000105ea82","665500ab8938657b03fbdba8","66579326c24bcd454bfb28ba","1533","stimuli/0111011.jpg","0","","prediction_practice","2","{""filepath"":""stimuli/0111011.jpg"",""ball_pos"":0,""ego_ball_visible"":true,""ego_can_infer"":true,""alter_ball_visible"":false,""alter_can_infer"":false,""collective_ball_visible"":false,""collective_can_infer"":false,""search_locations"":[0,1,2],""alter_occluders"":""111"",""ego_occluders"":""011""}","false","","","","","","","","","","","","","","","","","","",""
"","","","","","image-keyboard-response","17","75061","0.0-3.0-14.0","5bc0cded8b8bfe000105ea82","665500ab8938657b03fbdba8","66579326c24bcd454bfb28ba","1585","stimuli/01110112.jpg"," ","","practrice_feedback","0","","","","","","","","","","","","","","","","","","","","",""
"","","","","","image-keyboard-response","18","76398","0.0-3.0-15.0","5bc0cded8b8bfe000105ea82","665500ab8938657b03fbdba8","66579326c24bcd454bfb28ba","1335","stimuli/0101111.jpg","1","","prediction_practice","2","{""filepath"":""stimuli/0101111.jpg"",""ball_pos"":0,""ego_ball_visible"":false,""ego_can_infer"":false,""alter_ball_visible"":false,""alter_can_infer"":false,""collective_ball_visible"":false,""collective_can_infer"":false,""search_locations"":[0,2],""alter_occluders"":""101"",""ego_occluders"":""111""}","false","","","","","","","","","","","","","","","","","","",""
"","","","","","image-keyboard-response","19","78536","0.0-3.0-16.0","5bc0cded8b8bfe000105ea82","665500ab8938657b03fbdba8","66579326c24bcd454bfb28ba","2137","stimuli/01011112.jpg"," ","","practrice_feedback","0","","","","","","","","","","","","","","","","","","","","",""
"","","","","","image-keyboard-response","20","79920","0.0-3.0-17.0","5bc0cded8b8bfe000105ea82","665500ab8938657b03fbdba8","66579326c24bcd454bfb28ba","1382","stimuli/1101011.jpg","0","","prediction_practice","1","{""filepath"":""stimuli/1101011.jpg"",""ball_pos"":1,""ego_ball_visible"":false,""ego_can_infer"":false,""alter_ball_visible"":true,""alter_can_infer"":true,""collective_ball_visible"":false,""collective_can_infer"":false,""search_locations"":[1],""alter_occluders"":""101"",""ego_occluders"":""011""}","false","","","","","","","","","","","","","","","","","","",""
"","","","","","image-keyboard-response","21","81043","0.0-3.0-18.0","5bc0cded8b8bfe000105ea82","665500ab8938657b03fbdba8","66579326c24bcd454bfb28ba","1122","stimuli/11010111.jpg"," ","","practrice_feedback","1","","","","","","","","","","","","","","","","","","","","",""
"","","","","","image-keyboard-response","22","81902","0.0-3.0-19.0","5bc0cded8b8bfe000105ea82","665500ab8938657b03fbdba8","66579326c24bcd454bfb28ba","858","stimuli/1110100.jpg","1","","prediction_practice","1","{""filepath"":""stimuli/1110100.jpg"",""ball_pos"":1,""ego_ball_visible"":true,""ego_can_infer"":true,""alter_ball_visible"":false,""alter_can_infer"":false,""collective_ball_visible"":false,""collective_can_infer"":false,""search_locations"":[0,1],""alter_occluders"":""110"",""ego_occluders"":""100""}","true","","","","","","","","","","","","","","","","","","",""
"","","","","","image-keyboard-response","23","82521","0.0-3.0-20.0","5bc0cded8b8bfe000105ea82","665500ab8938657b03fbdba8","66579326c24bcd454bfb28ba","617","stimuli/11101001.jpg"," ","","practrice_feedback","0","","","","","","","","","","","","","","","","","","","","",""
"","","","","","html-button-response","24","84388","0.0-3.0-21.0","5bc0cded8b8bfe000105ea82","665500ab8938657b03fbdba8","66579326c24bcd454bfb28ba","1864","Now that you've had some practice, you'll be tested with a couple of easy trials. If you correctly predict Sam's choice, you'll move on to complete the experiment!","0","","","","","","","","","","","","","","","","","","","","","","","",""
"","","","","","image-keyboard-response","25","85590","0.0-3.0-22.0-0.0","5bc0cded8b8bfe000105ea82","665500ab8938657b03fbdba8","66579326c24bcd454bfb28ba","1200","stimuli/0000011.jpg","arrowleft","","comprehension_quiz","","","true","arrowleft","","","","","","","","","","","","","","","","","",""
"","","","","","image-keyboard-response","26","86758","0.0-3.0-22.0-1.0","5bc0cded8b8bfe000105ea82","665500ab8938657b03fbdba8","66579326c24bcd454bfb28ba","1165","stimuli/00000110.jpg"," ","","comprehension_quiz","","","true"," ","","","","","","","","","","","","","","","","","",""
"","","","","","image-keyboard-response","27","88508","0.0-3.0-22.0-2.0","5bc0cded8b8bfe000105ea82","665500ab8938657b03fbdba8","66579326c24bcd454bfb28ba","1748","stimuli/1010010.jpg","arrowdown","","comprehension_quiz","","","true","arrowdown","","","","","","","","","","","","","","","","","",""
"","","","","","image-keyboard-response","28","89515","0.0-3.0-22.0-3.0","5bc0cded8b8bfe000105ea82","665500ab8938657b03fbdba8","66579326c24bcd454bfb28ba","1005","stimuli/10100101.jpg"," ","","comprehension_quiz","","","true"," ","","","","","","","","","","","","","","","","","",""
"","","","","","html-button-response","29","91239","0.0-4.0","5bc0cded8b8bfe000105ea82","665500ab8938657b03fbdba8","66579326c24bcd454bfb28ba","1722","The experiment will now begin.","0","","","","","","","","","","","","","","","","","","","","","","","",""
"","","","","","image-keyboard-response","30","92325","0.0-5.0","5bc0cded8b8bfe000105ea82","665500ab8938657b03fbdba8","66579326c24bcd454bfb28ba","1073","stimuli/1001100.jpg","1","","prediction_trial","1","","true","","1","true","true","true","true","true","true","[1]","001","100","1","","","","","","",""
"","","","","","image-keyboard-response","31","93861","0.0-6.0","5bc0cded8b8bfe000105ea82","665500ab8938657b03fbdba8","66579326c24bcd454bfb28ba","1533","stimuli/10011001.jpg"," ","","feedback_trial","1","","","","","","","","","","","","","","","","","","","","",""
"","","","","","image-keyboard-response","32","95706","0.0-7.0","5bc0cded8b8bfe000105ea82","665500ab8938657b03fbdba8","66579326c24bcd454bfb28ba","1843","stimuli/0110101.jpg","2","","prediction_trial","1","","false","","0","false","false","false","false","false","false","[0,1]","110","101","0","","","","","","",""
"","","","","","image-keyboard-response","33","96758","0.0-8.0","5bc0cded8b8bfe000105ea82","665500ab8938657b03fbdba8","66579326c24bcd454bfb28ba","1051","stimuli/01101011.jpg"," ","","feedback_trial","0","","","","","","","","","","","","","","","","","","","","",""
"","","","","","image-keyboard-response","34","98578","0.0-9.0","5bc0cded8b8bfe000105ea82","665500ab8938657b03fbdba8","66579326c24bcd454bfb28ba","1818","stimuli/0001110.jpg","1","","prediction_trial","0","","false","","0","false","false","true","true","false","false","[0]","001","110","0","","","","","","",""
"","","","","","image-keyboard-response","35","99380","0.0-10.0","5bc0cded8b8bfe000105ea82","665500ab8938657b03fbdba8","66579326c24bcd454bfb28ba","799","stimuli/00011100.jpg"," ","","feedback_trial","0","","","","","","","","","","","","","","","","","","","","",""
"","","","","","image-keyboard-response","36","101760","0.0-11.0","5bc0cded8b8bfe000105ea82","665500ab8938657b03fbdba8","66579326c24bcd454bfb28ba","2378","stimuli/2101100.jpg","0","","prediction_trial","0","","true","","2","true","true","false","false","false","false","[2,0]","101","100","1","","","","","","",""
"","","","","","image-keyboard-response","37","102516","0.0-12.0","5bc0cded8b8bfe000105ea82","665500ab8938657b03fbdba8","66579326c24bcd454bfb28ba","754","stimuli/21011000.jpg"," ","","feedback_trial","2","","","","","","","","","","","","","","","","","","","","",""
"","","","","","image-keyboard-response","38","104583","0.0-13.0","5bc0cded8b8bfe000105ea82","665500ab8938657b03fbdba8","66579326c24bcd454bfb28ba","2065","stimuli/2011000.jpg","1","","prediction_trial","2","","false","","2","true","true","false","false","false","false","[1,2]","011","000","0","","","","","","",""
"","","","","","image-keyboard-response","39","105236","0.0-14.0","5bc0cded8b8bfe000105ea82","665500ab8938657b03fbdba8","66579326c24bcd454bfb28ba","650","stimuli/20110002.jpg"," ","","feedback_trial","1","","","","","","","","","","","","","","","","","","","","",""
"","","","","","image-keyboard-response","40","107409","0.0-15.0","5bc0cded8b8bfe000105ea82","665500ab8938657b03fbdba8","66579326c24bcd454bfb28ba","2167","stimuli/0011001.jpg","0","","prediction_trial","0","","true","","0","true","true","true","true","true","true","[0]","011","001","1","","","","","","",""
"","","","","","image-keyboard-response","41","107953","0.0-16.0","5bc0cded8b8bfe000105ea82","665500ab8938657b03fbdba8","66579326c24bcd454bfb28ba","541","stimuli/00110010.jpg"," ","","feedback_trial","0","","","","","","","","","","","","","","","","","","","","",""
"","","","","","image-keyboard-response","42","108893","0.0-17.0","5bc0cded8b8bfe000105ea82","665500ab8938657b03fbdba8","66579326c24bcd454bfb28ba","939","stimuli/0010011.jpg","0","","prediction_trial","0","","true","","0","true","true","true","true","true","true","[0]","010","011","1","","","","","","",""
"","","","","","image-keyboard-response","43","109210","0.0-18.0","5bc0cded8b8bfe000105ea82","665500ab8938657b03fbdba8","66579326c24bcd454bfb28ba","315","stimuli/00100110.jpg"," ","","feedback_trial","0","","","","","","","","","","","","","","","","","","","","",""
"","","","","","image-keyboard-response","44","111012","0.0-19.0","5bc0cded8b8bfe000105ea82","665500ab8938657b03fbdba8","66579326c24bcd454bfb28ba","1798","stimuli/2110111.jpg","0","","prediction_trial","2","","false","","2","false","false","true","true","false","false","[2]","110","111","0","","","","","","",""
"","","","","","image-keyboard-response","45","111566","0.0-20.0","5bc0cded8b8bfe000105ea82","665500ab8938657b03fbdba8","66579326c24bcd454bfb28ba","551","stimuli/21101112.jpg"," ","","feedback_trial","2","","","","","","","","","","","","","","","","","","","","",""
"","","","","","image-keyboard-response","46","112873","0.0-21.0","5bc0cded8b8bfe000105ea82","665500ab8938657b03fbdba8","66579326c24bcd454bfb28ba","1305","stimuli/1010100.jpg","1","","prediction_trial","1","","true","","1","true","true","false","true","false","true","[1]","010","100","1","","","","","","",""
"","","","","","image-keyboard-response","47","113270","0.0-22.0","5bc0cded8b8bfe000105ea82","665500ab8938657b03fbdba8","66579326c24bcd454bfb28ba","395","stimuli/10101001.jpg"," ","","feedback_trial","1","","","","","","","","","","","","","","","","","","","","",""
"","","","","","image-keyboard-response","48","114002","0.0-23.0","5bc0cded8b8bfe000105ea82","665500ab8938657b03fbdba8","66579326c24bcd454bfb28ba","713","stimuli/2100110.jpg","2","","prediction_trial","2","","true","","2","true","true","true","true","true","true","[2]","100","110","1","","","","","","",""
"","","","","","image-keyboard-response","49","114334","0.0-24.0","5bc0cded8b8bfe000105ea82","665500ab8938657b03fbdba8","66579326c24bcd454bfb28ba","330","stimuli/21001102.jpg"," ","","feedback_trial","2","","","","","","","","","","","","","","","","","","","","",""
"","","","","","image-keyboard-response","50","115339","0.0-25.0","5bc0cded8b8bfe000105ea82","665500ab8938657b03fbdba8","66579326c24bcd454bfb28ba","1003","stimuli/2000011.jpg","0","","prediction_trial","2","","false","","2","false","false","true","true","false","false","[2]","000","011","0","","","","","","",""
"","","","","","image-keyboard-response","51","116960","0.0-26.0","5bc0cded8b8bfe000105ea82","665500ab8938657b03fbdba8","66579326c24bcd454bfb28ba","1619","stimuli/20000112.jpg"," ","","feedback_trial","2","","","","","","","","","","","","","","","","","","","","",""
"","","","","","image-keyboard-response","52","119626","0.0-27.0","5bc0cded8b8bfe000105ea82","665500ab8938657b03fbdba8","66579326c24bcd454bfb28ba","2664","stimuli/0110010.jpg","1","","prediction_trial","0","","false","","0","true","true","false","false","false","false","[0,1]","110","010","0","","","","","","",""
"","","","","","image-keyboard-response","53","120151","0.0-28.0","5bc0cded8b8bfe000105ea82","665500ab8938657b03fbdba8","66579326c24bcd454bfb28ba","524","stimuli/01100100.jpg"," ","","feedback_trial","0","","","","","","","","","","","","","","","","","","","","",""
"","","","","","image-keyboard-response","54","121047","0.0-29.0","5bc0cded8b8bfe000105ea82","665500ab8938657b03fbdba8","66579326c24bcd454bfb28ba","884","stimuli/1110001.jpg","1","","prediction_trial","1","","true","","1","true","true","false","false","false","false","[1,0]","110","001","1","","","","","","",""
"","","","","","image-keyboard-response","55","121634","0.0-30.0","5bc0cded8b8bfe000105ea82","665500ab8938657b03fbdba8","66579326c24bcd454bfb28ba","585","stimuli/11100011.jpg"," ","","feedback_trial","1","","","","","","","","","","","","","","","","","","","","",""
"","","","","","image-keyboard-response","56","122482","0.0-31.0","5bc0cded8b8bfe000105ea82","665500ab8938657b03fbdba8","66579326c24bcd454bfb28ba","846","stimuli/2000100.jpg","2","","prediction_trial","2","","true","","2","true","true","true","true","true","true","[2]","000","100","1","","","","","","",""
"","","","","","image-keyboard-response","57","122878","0.0-32.0","5bc0cded8b8bfe000105ea82","665500ab8938657b03fbdba8","66579326c24bcd454bfb28ba","394","stimuli/20001002.jpg"," ","","feedback_trial","2","","","","","","","","","","","","","","","","","","","","",""
"","","","","","image-keyboard-response","58","123499","0.0-33.0","5bc0cded8b8bfe000105ea82","665500ab8938657b03fbdba8","66579326c24bcd454bfb28ba","618","stimuli/0011011.jpg","0","","prediction_trial","0","","true","","0","true","true","true","true","true","true","[0]","011","011","1","","","","","","",""
"","","","","","image-keyboard-response","59","123906","0.0-34.0","5bc0cded8b8bfe000105ea82","665500ab8938657b03fbdba8","66579326c24bcd454bfb28ba","406","stimuli/00110110.jpg"," ","","feedback_trial","0","","","","","","","","","","","","","","","","","","","","",""
"","","","","","image-keyboard-response","60","126102","0.0-35.0","5bc0cded8b8bfe000105ea82","665500ab8938657b03fbdba8","66579326c24bcd454bfb28ba","2194","stimuli/2110101.jpg","0","","prediction_trial","2","","false","","2","false","false","true","true","false","false","[2]","110","101","0","","","","","","",""
"","","","","","image-keyboard-response","61","127249","0.0-36.0","5bc0cded8b8bfe000105ea82","665500ab8938657b03fbdba8","66579326c24bcd454bfb28ba","1146","stimuli/21101012.jpg"," ","","feedback_trial","2","","","","","","","","","","","","","","","","","","","","",""
"","","","","","image-keyboard-response","62","128758","0.0-37.0","5bc0cded8b8bfe000105ea82","665500ab8938657b03fbdba8","66579326c24bcd454bfb28ba","1503","stimuli/0100101.jpg","2","","prediction_trial","0","","false","","0","false","false","false","true","false","false","[0]","100","101","0","","","","","","",""
"","","","","","image-keyboard-response","63","129676","0.0-38.0","5bc0cded8b8bfe000105ea82","665500ab8938657b03fbdba8","66579326c24bcd454bfb28ba","916","stimuli/01001010.jpg"," ","","feedback_trial","0","","","","","","","","","","","","","","","","","","","","",""
"","","","","","image-keyboard-response","64","130623","0.0-39.0","5bc0cded8b8bfe000105ea82","665500ab8938657b03fbdba8","66579326c24bcd454bfb28ba","945","stimuli/0010000.jpg","0","","prediction_trial","0","","true","","0","true","true","true","true","true","true","[0]","010","000","1","","","","","","",""
"","","","","","image-keyboard-response","65","131028","0.0-40.0","5bc0cded8b8bfe000105ea82","665500ab8938657b03fbdba8","66579326c24bcd454bfb28ba","404","stimuli/00100000.jpg"," ","","feedback_trial","0","","","","","","","","","","","","","","","","","","","","",""
"","","","","","image-keyboard-response","66","133607","0.0-41.0","5bc0cded8b8bfe000105ea82","665500ab8938657b03fbdba8","66579326c24bcd454bfb28ba","2577","stimuli/1010101.jpg","1","","prediction_trial","1","","true","","1","true","true","false","true","false","true","[1]","010","101","1","","","","","","",""
"","","","","","image-keyboard-response","67","134038","0.0-42.0","5bc0cded8b8bfe000105ea82","665500ab8938657b03fbdba8","66579326c24bcd454bfb28ba","421","stimuli/10101011.jpg"," ","","feedback_trial","1","","","","","","","","","","","","","","","","","","","","",""
"","","","","","image-keyboard-response","68","134988","0.0-43.0","5bc0cded8b8bfe000105ea82","665500ab8938657b03fbdba8","66579326c24bcd454bfb28ba","948","stimuli/2100010.jpg","2","","prediction_trial","2","","true","","2","true","true","true","true","true","true","[2]","100","010","1","","","","","","",""
"","","","","","image-keyboard-response","69","135321","0.0-44.0","5bc0cded8b8bfe000105ea82","665500ab8938657b03fbdba8","66579326c24bcd454bfb28ba","331","stimuli/21000102.jpg"," ","","feedback_trial","2","","","","","","","","","","","","","","","","","","","","",""
"","","","","","image-keyboard-response","70","137559","0.0-45.0","5bc0cded8b8bfe000105ea82","665500ab8938657b03fbdba8","66579326c24bcd454bfb28ba","2236","stimuli/2010001.jpg","2","","prediction_trial","2","","true","","2","false","true","true","true","false","true","[2]","010","001","1","","","","","","",""
"","","","","","image-keyboard-response","71","137955","0.0-46.0","5bc0cded8b8bfe000105ea82","665500ab8938657b03fbdba8","66579326c24bcd454bfb28ba","395","stimuli/20100012.jpg"," ","","feedback_trial","2","","","","","","","","","","","","","","","","","","","","",""
"","","","","","image-keyboard-response","72","139562","0.0-47.0","5bc0cded8b8bfe000105ea82","665500ab8938657b03fbdba8","66579326c24bcd454bfb28ba","1604","stimuli/1101110.jpg","1","","prediction_trial","1","","true","","1","false","false","true","true","false","false","[1]","101","110","1","","","","","","",""
"","","","","","image-keyboard-response","73","140169","0.0-48.0","5bc0cded8b8bfe000105ea82","665500ab8938657b03fbdba8","66579326c24bcd454bfb28ba","604","stimuli/11011101.jpg"," ","","feedback_trial","1","","","","","","","","","","","","","","","","","","","","",""
"","","","","","image-keyboard-response","74","143603","0.0-49.0","5bc0cded8b8bfe000105ea82","665500ab8938657b03fbdba8","66579326c24bcd454bfb28ba","3432","stimuli/0111100.jpg","1","","prediction_trial","1","","true","","0","false","true","false","false","false","false","[2,0,1]","111","100","1","","","","","","",""
"","","","","","image-keyboard-response","75","144129","0.0-50.0","5bc0cded8b8bfe000105ea82","665500ab8938657b03fbdba8","66579326c24bcd454bfb28ba","525","stimuli/01111001.jpg"," ","","feedback_trial","2","","","","","","","","","","","","","","","","","","","","",""
"","","","","","image-keyboard-response","76","145083","0.0-51.0","5bc0cded8b8bfe000105ea82","665500ab8938657b03fbdba8","66579326c24bcd454bfb28ba","952","stimuli/2010110.jpg","2","","prediction_trial","2","","true","","2","true","true","true","true","true","true","[2]","010","110","1","","","","","","",""
"","","","","","image-keyboard-response","77","145436","0.0-52.0","5bc0cded8b8bfe000105ea82","665500ab8938657b03fbdba8","66579326c24bcd454bfb28ba","351","stimuli/20101102.jpg"," ","","feedback_trial","2","","","","","","","","","","","","","","","","","","","","",""
"","","","","","image-keyboard-response","78","146662","0.0-53.0","5bc0cded8b8bfe000105ea82","665500ab8938657b03fbdba8","66579326c24bcd454bfb28ba","1224","stimuli/1011111.jpg","1","","prediction_trial","1","","true","","1","false","false","false","false","false","false","[1,2]","011","111","1","","","","","","",""
"","","","","","image-keyboard-response","79","147017","0.0-54.0","5bc0cded8b8bfe000105ea82","665500ab8938657b03fbdba8","66579326c24bcd454bfb28ba","353","stimuli/10111111.jpg"," ","","feedback_trial","1","","","","","","","","","","","","","","","","","","","","",""
"","","","","","image-keyboard-response","80","148799","0.0-55.0","5bc0cded8b8bfe000105ea82","665500ab8938657b03fbdba8","66579326c24bcd454bfb28ba","1780","stimuli/0101111.jpg","1","","prediction_trial","0","","false","","0","false","false","false","false","false","false","[0,2]","101","111","0","","","","","","",""
"","","","","","image-keyboard-response","81","149157","0.0-56.0","5bc0cded8b8bfe000105ea82","665500ab8938657b03fbdba8","66579326c24bcd454bfb28ba","356","stimuli/01011110.jpg"," ","","feedback_trial","0","","","","","","","","","","","","","","","","","","","","",""
"","","","","","image-keyboard-response","82","150837","0.0-57.0","5bc0cded8b8bfe000105ea82","665500ab8938657b03fbdba8","66579326c24bcd454bfb28ba","1675","stimuli/2100001.jpg","2","","prediction_trial","2","","true","","2","false","true","true","true","false","true","[2]","100","001","1","","","","","","",""
"","","","","","image-keyboard-response","83","151251","0.0-58.0","5bc0cded8b8bfe000105ea82","665500ab8938657b03fbdba8","66579326c24bcd454bfb28ba","412","stimuli/21000012.jpg"," ","","feedback_trial","2","","","","","","","","","","","","","","","","","","","","",""
"","","","","","image-keyboard-response","84","153168","0.0-59.0","5bc0cded8b8bfe000105ea82","665500ab8938657b03fbdba8","66579326c24bcd454bfb28ba","1915","stimuli/1000011.jpg","2","","prediction_trial","1","","false","","1","false","false","true","true","false","false","[1]","000","011","0","","","","","","",""
"","","","","","image-keyboard-response","85","153741","0.0-60.0","5bc0cded8b8bfe000105ea82","665500ab8938657b03fbdba8","66579326c24bcd454bfb28ba","572","stimuli/10000111.jpg"," ","","feedback_trial","1","","","","","","","","","","","","","","","","","","","","",""
"","","","","","image-keyboard-response","86","157786","0.0-61.0","5bc0cded8b8bfe000105ea82","665500ab8938657b03fbdba8","66579326c24bcd454bfb28ba","4043","stimuli/2011101.jpg","0","","prediction_trial","2","","false","","2","false","false","false","false","false","false","[2,1]","011","101","0","","","","","","",""
"","","","","","image-keyboard-response","87","158669","0.0-62.0","5bc0cded8b8bfe000105ea82","665500ab8938657b03fbdba8","66579326c24bcd454bfb28ba","881","stimuli/20111012.jpg"," ","","feedback_trial","2","","","","","","","","","","","","","","","","","","","","",""
"","","","","","image-keyboard-response","88","160900","0.0-63.0","5bc0cded8b8bfe000105ea82","665500ab8938657b03fbdba8","66579326c24bcd454bfb28ba","2223","stimuli/2101000.jpg","2","","prediction_trial","0","","false","","2","true","true","false","false","false","false","[2,0]","101","000","0","","","","","","",""
"","","","","","image-keyboard-response","89","161495","0.0-64.0","5bc0cded8b8bfe000105ea82","665500ab8938657b03fbdba8","66579326c24bcd454bfb28ba","593","stimuli/21010000.jpg"," ","","feedback_trial","2","","","","","","","","","","","","","","","","","","","","",""
"","","","","","image-keyboard-response","90","163942","0.0-65.0","5bc0cded8b8bfe000105ea82","665500ab8938657b03fbdba8","66579326c24bcd454bfb28ba","2445","stimuli/1111101.jpg","1","","prediction_trial","0","","false","","1","true","true","false","false","false","false","[2,0,1]","111","101","0","","","","","","",""
"","","","","","image-keyboard-response","91","164499","0.0-66.0","5bc0cded8b8bfe000105ea82","665500ab8938657b03fbdba8","66579326c24bcd454bfb28ba","555","stimuli/11111010.jpg"," ","","feedback_trial","2","","","","","","","","","","","","","","","","","","","","",""
"","","","","","image-keyboard-response","92","166612","0.0-67.0","5bc0cded8b8bfe000105ea82","665500ab8938657b03fbdba8","66579326c24bcd454bfb28ba","2111","stimuli/0001101.jpg","0","","prediction_trial","0","","true","","0","false","false","true","true","false","false","[0]","001","101","1","","","","","","",""
"","","","","","image-keyboard-response","93","167228","0.0-68.0","5bc0cded8b8bfe000105ea82","665500ab8938657b03fbdba8","66579326c24bcd454bfb28ba","606","stimuli/00011010.jpg"," ","","feedback_trial","0","","","","","","","","","","","","","","","","","","","","",""
"","","","","","image-keyboard-response","94","168028","0.0-69.0","5bc0cded8b8bfe000105ea82","665500ab8938657b03fbdba8","66579326c24bcd454bfb28ba","798","stimuli/2000110.jpg","2","","prediction_trial","2","","true","","2","true","true","true","true","true","true","[2]","000","110","1","","","","","","",""
"","","","","","image-keyboard-response","95","168389","0.0-70.0","5bc0cded8b8bfe000105ea82","665500ab8938657b03fbdba8","66579326c24bcd454bfb28ba","359","stimuli/20001102.jpg"," ","","feedback_trial","2","","","","","","","","","","","","","","","","","","","","",""
"","","","","","image-keyboard-response","96","169003","0.0-71.0","5bc0cded8b8bfe000105ea82","665500ab8938657b03fbdba8","66579326c24bcd454bfb28ba","613","stimuli/2110100.jpg","2","","prediction_trial","2","","true","","2","true","true","true","true","true","true","[2]","110","100","1","","","","","","",""
"","","","","","image-keyboard-response","97","169298","0.0-72.0","5bc0cded8b8bfe000105ea82","665500ab8938657b03fbdba8","66579326c24bcd454bfb28ba","293","stimuli/21101002.jpg"," ","","feedback_trial","2","","","","","","","","","","","","","","","","","","","","",""
"","","","","","image-keyboard-response","98","171158","0.0-73.0","5bc0cded8b8bfe000105ea82","665500ab8938657b03fbdba8","66579326c24bcd454bfb28ba","1858","stimuli/1100010.jpg","1","","prediction_trial","1","","true","","1","false","true","true","true","false","true","[1]","100","010","1","","","","","","",""
"","","","","","image-keyboard-response","99","171566","0.0-74.0","5bc0cded8b8bfe000105ea82","665500ab8938657b03fbdba8","66579326c24bcd454bfb28ba","405","stimuli/11000101.jpg"," ","","feedback_trial","1","","","","","","","","","","","","","","","","","","","","",""
"","","","","","image-keyboard-response","100","172510","0.0-75.0","5bc0cded8b8bfe000105ea82","665500ab8938657b03fbdba8","66579326c24bcd454bfb28ba","943","stimuli/1000111.jpg","1","","prediction_trial","1","","true","","1","false","false","true","true","false","false","[1]","000","111","1","","","","","","",""
"","","","","","image-keyboard-response","101","172854","0.0-76.0","5bc0cded8b8bfe000105ea82","665500ab8938657b03fbdba8","66579326c24bcd454bfb28ba","342","stimuli/10001111.jpg"," ","","feedback_trial","1","","","","","","","","","","","","","","","","","","","","",""
"","","","","","image-keyboard-response","102","175386","0.0-77.0","5bc0cded8b8bfe000105ea82","665500ab8938657b03fbdba8","66579326c24bcd454bfb28ba","2531","stimuli/2011111.jpg","1","","prediction_trial","2","","false","","2","false","false","false","false","false","false","[2,1]","011","111","0","","","","","","",""
"","","","","","image-keyboard-response","103","175821","0.0-78.0","5bc0cded8b8bfe000105ea82","665500ab8938657b03fbdba8","66579326c24bcd454bfb28ba","433","stimuli/20111112.jpg"," ","","feedback_trial","2","","","","","","","","","","","","","","","","","","","","",""
"","","","","","image-keyboard-response","104","177592","0.0-79.0","5bc0cded8b8bfe000105ea82","665500ab8938657b03fbdba8","66579326c24bcd454bfb28ba","1769","stimuli/2001100.jpg","2","","prediction_trial","2","","true","","2","true","true","false","true","false","true","[2]","001","100","1","","","","","","",""
"","","","","","image-keyboard-response","105","178010","0.0-80.0","5bc0cded8b8bfe000105ea82","665500ab8938657b03fbdba8","66579326c24bcd454bfb28ba","415","stimuli/20011002.jpg"," ","","feedback_trial","2","","","","","","","","","","","","","","","","","","","","",""
"","","","","","image-keyboard-response","106","179200","0.0-81.0","5bc0cded8b8bfe000105ea82","665500ab8938657b03fbdba8","66579326c24bcd454bfb28ba","1189","stimuli/1111011.jpg","2","","prediction_trial","0","","false","","1","false","false","false","false","false","false","[0,2,1]","111","011","0","","","","","","",""
"","","","","","image-keyboard-response","107","179671","0.0-82.0","5bc0cded8b8bfe000105ea82","665500ab8938657b03fbdba8","66579326c24bcd454bfb28ba","469","stimuli/11110110.jpg"," ","","feedback_trial","0","","","","","","","","","","","","","","","","","","","","",""
"","","","","","image-keyboard-response","108","181939","0.0-83.0","5bc0cded8b8bfe000105ea82","665500ab8938657b03fbdba8","66579326c24bcd454bfb28ba","2262","stimuli/1010111.jpg","1","","prediction_trial","1","","true","","1","false","false","false","true","false","false","[1]","010","111","1","","","","","","",""
"","","","","","image-keyboard-response","109","182333","0.0-84.0","5bc0cded8b8bfe000105ea82","665500ab8938657b03fbdba8","66579326c24bcd454bfb28ba","393","stimuli/10101111.jpg"," ","","feedback_trial","1","","","","","","","","","","","","","","","","","","","","",""
"","","","","","image-keyboard-response","110","183420","0.0-85.0","5bc0cded8b8bfe000105ea82","665500ab8938657b03fbdba8","66579326c24bcd454bfb28ba","1085","stimuli/2111100.jpg","2","","prediction_trial","1","","false","","2","true","true","false","false","false","false","[1,0,2]","111","100","0","","","","","","",""
"","","","","","image-keyboard-response","111","183853","0.0-86.0","5bc0cded8b8bfe000105ea82","665500ab8938657b03fbdba8","66579326c24bcd454bfb28ba","432","stimuli/21111001.jpg"," ","","feedback_trial","1","","","","","","","","","","","","","","","","","","","","",""
"","","","","","image-keyboard-response","112","185908","0.0-87.0","5bc0cded8b8bfe000105ea82","665500ab8938657b03fbdba8","66579326c24bcd454bfb28ba","2051","stimuli/2001011.jpg","1","","prediction_trial","2","","false","","2","false","false","false","true","false","false","[2]","001","011","0","","","","","","",""
"","","","","","image-keyboard-response","113","186379","0.0-88.0","5bc0cded8b8bfe000105ea82","665500ab8938657b03fbdba8","66579326c24bcd454bfb28ba","469","stimuli/20010112.jpg"," ","","feedback_trial","2","","","","","","","","","","","","","","","","","","","","",""
"","","","","","image-keyboard-response","114","188243","0.0-89.0","5bc0cded8b8bfe000105ea82","665500ab8938657b03fbdba8","66579326c24bcd454bfb28ba","1861","stimuli/0101001.jpg","0","","prediction_trial","0","","true","","0","true","true","false","false","false","false","[0,2]","101","001","1","","","","","","",""
"","","","","","image-keyboard-response","115","188709","0.0-90.0","5bc0cded8b8bfe000105ea82","665500ab8938657b03fbdba8","66579326c24bcd454bfb28ba","464","stimuli/01010010.jpg"," ","","feedback_trial","0","","","","","","","","","","","","","","","","","","","","",""
"","","","","","image-keyboard-response","116","190065","0.0-91.0","5bc0cded8b8bfe000105ea82","665500ab8938657b03fbdba8","66579326c24bcd454bfb28ba","1354","stimuli/2101001.jpg","2","","prediction_trial","0","","false","","2","false","true","false","false","false","false","[0,2]","101","001","0","","","","","","",""
"","","","","","image-keyboard-response","117","190695","0.0-92.0","5bc0cded8b8bfe000105ea82","665500ab8938657b03fbdba8","66579326c24bcd454bfb28ba","627","stimuli/21010010.jpg"," ","","feedback_trial","0","","","","","","","","","","","","","","","","","","","","",""
"","","","","","image-keyboard-response","118","194149","0.0-93.0","5bc0cded8b8bfe000105ea82","665500ab8938657b03fbdba8","66579326c24bcd454bfb28ba","3452","stimuli/0101010.jpg","0","","prediction_trial","2","","false","","0","true","true","false","false","false","false","[0,2]","101","010","0","","","","","","",""
"","","","","","image-keyboard-response","119","194669","0.0-94.0","5bc0cded8b8bfe000105ea82","665500ab8938657b03fbdba8","66579326c24bcd454bfb28ba","518","stimuli/01010102.jpg"," ","","feedback_trial","0","","","","","","","","","","","","","","","","","","","","",""
"","","","","","image-keyboard-response","120","195863","0.0-95.0","5bc0cded8b8bfe000105ea82","665500ab8938657b03fbdba8","66579326c24bcd454bfb28ba","1192","stimuli/2111101.jpg","2","","prediction_trial","0","","false","","2","false","false","false","false","false","false","[2,1,0]","111","101","0","","","","","","",""
"","","","","","image-keyboard-response","121","196391","0.0-96.0","5bc0cded8b8bfe000105ea82","665500ab8938657b03fbdba8","66579326c24bcd454bfb28ba","526","stimuli/21111010.jpg"," ","","feedback_trial","2","","","","","","","","","","","","","","","","","","","","",""
"","","","","","image-keyboard-response","122","197953","0.0-97.0","5bc0cded8b8bfe000105ea82","665500ab8938657b03fbdba8","66579326c24bcd454bfb28ba","1560","stimuli/2000000.jpg","2","","prediction_trial","2","","true","","2","true","true","true","true","true","true","[2]","000","000","1","","","","","","",""
"","","","","","image-keyboard-response","123","198334","0.0-98.0","5bc0cded8b8bfe000105ea82","665500ab8938657b03fbdba8","66579326c24bcd454bfb28ba","376","stimuli/20000002.jpg"," ","","feedback_trial","2","","","","","","","","","","","","","","","","","","","","",""
"","","","","","image-keyboard-response","124","200399","0.0-99.0","5bc0cded8b8bfe000105ea82","665500ab8938657b03fbdba8","66579326c24bcd454bfb28ba","2062","stimuli/0010010.jpg","0","","prediction_trial","0","","true","","0","true","true","true","true","true","true","[0]","010","010","1","","","","","","",""
"","","","","","image-keyboard-response","125","200837","0.0-100.0","5bc0cded8b8bfe000105ea82","665500ab8938657b03fbdba8","66579326c24bcd454bfb28ba","437","stimuli/00100100.jpg"," ","","feedback_trial","0","","","","","","","","","","","","","","","","","","","","",""
"","","","","","image-keyboard-response","126","203019","0.0-101.0","5bc0cded8b8bfe000105ea82","665500ab8938657b03fbdba8","66579326c24bcd454bfb28ba","2176","stimuli/0001011.jpg","0","","prediction_trial","0","","true","","0","true","true","true","true","true","true","[0]","001","011","1","","","","","","",""
"","","","","","image-keyboard-response","127","203307","0.0-102.0","5bc0cded8b8bfe000105ea82","665500ab8938657b03fbdba8","66579326c24bcd454bfb28ba","286","stimuli/00010110.jpg"," ","","feedback_trial","0","","","","","","","","","","","","","","","","","","","","",""
"","","","","","image-keyboard-response","128","205371","0.0-103.0","5bc0cded8b8bfe000105ea82","665500ab8938657b03fbdba8","66579326c24bcd454bfb28ba","2063","stimuli/2001111.jpg","0","","prediction_trial","2","","false","","2","false","false","false","true","false","false","[2]","001","111","0","","","","","","",""
"","","","","","image-keyboard-response","129","205778","0.0-104.0","5bc0cded8b8bfe000105ea82","665500ab8938657b03fbdba8","66579326c24bcd454bfb28ba","405","stimuli/20011112.jpg"," ","","feedback_trial","2","","","","","","","","","","","","","","","","","","","","",""
"","","","","","image-keyboard-response","130","207141","0.0-105.0","5bc0cded8b8bfe000105ea82","665500ab8938657b03fbdba8","66579326c24bcd454bfb28ba","1361","stimuli/0010111.jpg","1","","prediction_trial","0","","false","","0","false","false","true","true","false","false","[0]","010","111","0","","","","","","",""
"","","","","","image-keyboard-response","131","207576","0.0-106.0","5bc0cded8b8bfe000105ea82","665500ab8938657b03fbdba8","66579326c24bcd454bfb28ba","433","stimuli/00101110.jpg"," ","","feedback_trial","0","","","","","","","","","","","","","","","","","","","","",""
"","","","","","image-keyboard-response","132","210123","0.0-107.0","5bc0cded8b8bfe000105ea82","665500ab8938657b03fbdba8","66579326c24bcd454bfb28ba","2545","stimuli/0001111.jpg","1","","prediction_trial","0","","false","","0","false","false","true","true","false","false","[0]","001","111","0","","","","","","",""
"","","","","","image-keyboard-response","133","210531","0.0-108.0","5bc0cded8b8bfe000105ea82","665500ab8938657b03fbdba8","66579326c24bcd454bfb28ba","406","stimuli/00011110.jpg"," ","","feedback_trial","0","","","","","","","","","","","","","","","","","","","","",""
"","","","","","image-keyboard-response","134","212872","0.0-109.0","5bc0cded8b8bfe000105ea82","665500ab8938657b03fbdba8","66579326c24bcd454bfb28ba","2335","stimuli/0110110.jpg","0","","prediction_trial","0","","true","","0","false","false","false","false","false","false","[0,1]","110","110","1","","","","","","",""
"","","","","","image-keyboard-response","135","213567","0.0-110.0","5bc0cded8b8bfe000105ea82","665500ab8938657b03fbdba8","66579326c24bcd454bfb28ba","693","stimuli/01101100.jpg"," ","","feedback_trial","0","","","","","","","","","","","","","","","","","","","","",""
"","","","","","image-keyboard-response","136","214730","0.0-111.0","5bc0cded8b8bfe000105ea82","665500ab8938657b03fbdba8","66579326c24bcd454bfb28ba","1161","stimuli/0100100.jpg","0","","prediction_trial","0","","true","","0","false","true","false","true","false","true","[0]","100","100","1","","","","","","",""
"","","","","","image-keyboard-response","137","215089","0.0-112.0","5bc0cded8b8bfe000105ea82","665500ab8938657b03fbdba8","66579326c24bcd454bfb28ba","357","stimuli/01001000.jpg"," ","","feedback_trial","0","","","","","","","","","","","","","","","","","","","","",""
"","","","","","image-keyboard-response","138","216213","0.0-113.0","5bc0cded8b8bfe000105ea82","665500ab8938657b03fbdba8","66579326c24bcd454bfb28ba","1121","stimuli/2111110.jpg","0","","prediction_trial","1","","false","","2","true","true","false","false","false","false","[1,2,0]","111","110","0","","","","","","",""
"","","","","","image-keyboard-response","139","216743","0.0-114.0","5bc0cded8b8bfe000105ea82","665500ab8938657b03fbdba8","66579326c24bcd454bfb28ba","528","stimuli/21111101.jpg"," ","","feedback_trial","1","","","","","","","","","","","","","","","","","","","","",""
"","","","","","image-keyboard-response","140","217453","0.0-115.0","5bc0cded8b8bfe000105ea82","665500ab8938657b03fbdba8","66579326c24bcd454bfb28ba","709","stimuli/1111110.jpg","0","","prediction_trial","1","","false","","1","false","false","false","false","false","false","[1,0,2]","111","110","0","","","","","","",""
"","","","","","image-keyboard-response","141","217913","0.0-116.0","5bc0cded8b8bfe000105ea82","665500ab8938657b03fbdba8","66579326c24bcd454bfb28ba","458","stimuli/11111101.jpg"," ","","feedback_trial","1","","","","","","","","","","","","","","","","","","","","",""
"","","","","","image-keyboard-response","142","219458","0.0-117.0","5bc0cded8b8bfe000105ea82","665500ab8938657b03fbdba8","66579326c24bcd454bfb28ba","1543","stimuli/0010100.jpg","1","","prediction_trial","0","","false","","0","false","true","true","true","false","true","[0]","010","100","0","","","","","","",""
"","","","","","image-keyboard-response","143","219981","0.0-118.0","5bc0cded8b8bfe000105ea82","665500ab8938657b03fbdba8","66579326c24bcd454bfb28ba","521","stimuli/00101000.jpg"," ","","feedback_trial","0","","","","","","","","","","","","","","","","","","","","",""
"","","","","","image-keyboard-response","144","220757","0.0-119.0","5bc0cded8b8bfe000105ea82","665500ab8938657b03fbdba8","66579326c24bcd454bfb28ba","775","stimuli/0001001.jpg","0","","prediction_trial","0","","true","","0","true","true","true","true","true","true","[0]","001","001","1","","","","","","",""
"","","","","","image-keyboard-response","145","221270","0.0-120.0","5bc0cded8b8bfe000105ea82","665500ab8938657b03fbdba8","66579326c24bcd454bfb28ba","511","stimuli/00010010.jpg"," ","","feedback_trial","0","","","","","","","","","","","","","","","","","","","","",""
"","","","","","image-keyboard-response","146","222915","0.0-121.0","5bc0cded8b8bfe000105ea82","665500ab8938657b03fbdba8","66579326c24bcd454bfb28ba","1635","stimuli/1110010.jpg","1","","prediction_trial","1","","true","","1","false","true","false","false","false","false","[0,1]","110","010","1","","","","","","",""
"","","","","","image-keyboard-response","147","223400","0.0-122.0","5bc0cded8b8bfe000105ea82","665500ab8938657b03fbdba8","66579326c24bcd454bfb28ba","480","stimuli/11100101.jpg"," ","","feedback_trial","0","","","","","","","","","","","","","","","","","","","","",""
"","","","","","image-keyboard-response","148","224231","0.0-123.0","5bc0cded8b8bfe000105ea82","665500ab8938657b03fbdba8","66579326c24bcd454bfb28ba","828","stimuli/0001000.jpg","0","","prediction_trial","0","","true","","0","true","true","true","true","true","true","[0]","001","000","1","","","","","","",""
"","","","","","image-keyboard-response","149","224621","0.0-124.0","5bc0cded8b8bfe000105ea82","665500ab8938657b03fbdba8","66579326c24bcd454bfb28ba","388","stimuli/00010000.jpg"," ","","feedback_trial","0","","","","","","","","","","","","","","","","","","","","",""
"","","","","","image-keyboard-response","150","226371","0.0-125.0","5bc0cded8b8bfe000105ea82","665500ab8938657b03fbdba8","66579326c24bcd454bfb28ba","1748","stimuli/1011011.jpg","2","","prediction_trial","1","","false","","1","false","false","false","false","false","false","[1,2]","011","011","0","","","","","","",""
"","","","","","image-keyboard-response","151","226839","0.0-126.0","5bc0cded8b8bfe000105ea82","665500ab8938657b03fbdba8","66579326c24bcd454bfb28ba","466","stimuli/10110111.jpg"," ","","feedback_trial","1","","","","","","","","","","","","","","","","","","","","",""
"","","","","","image-keyboard-response","152","228300","0.0-127.0","5bc0cded8b8bfe000105ea82","665500ab8938657b03fbdba8","66579326c24bcd454bfb28ba","1459","stimuli/0111011.jpg","1","","prediction_trial","0","","false","","0","true","true","false","false","false","false","[0,1,2]","111","011","0","","","","","","",""
"","","","","","image-keyboard-response","153","228866","0.0-128.0","5bc0cded8b8bfe000105ea82","665500ab8938657b03fbdba8","66579326c24bcd454bfb28ba","564","stimuli/01110110.jpg"," ","","feedback_trial","0","","","","","","","","","","","","","","","","","","","","",""
"","","","","","image-keyboard-response","154","231451","0.0-129.0","5bc0cded8b8bfe000105ea82","665500ab8938657b03fbdba8","66579326c24bcd454bfb28ba","2582","stimuli/0111001.jpg","0","","prediction_trial","1","","false","","0","true","true","false","false","false","false","[0,1,2]","111","001","0","","","","","","",""
"","","","","","image-keyboard-response","155","231921","0.0-130.0","5bc0cded8b8bfe000105ea82","665500ab8938657b03fbdba8","66579326c24bcd454bfb28ba","469","stimuli/01110011.jpg"," ","","feedback_trial","0","","","","","","","","","","","","","","","","","","","","",""
"","","","","","image-keyboard-response","156","233526","0.0-131.0","5bc0cded8b8bfe000105ea82","665500ab8938657b03fbdba8","66579326c24bcd454bfb28ba","1602","stimuli/1110101.jpg","1","","prediction_trial","1","","true","","1","true","true","false","false","false","false","[1,0]","110","101","1","","","","","","",""
"","","","","","image-keyboard-response","157","234048","0.0-132.0","5bc0cded8b8bfe000105ea82","665500ab8938657b03fbdba8","66579326c24bcd454bfb28ba","521","stimuli/11101011.jpg"," ","","feedback_trial","1","","","","","","","","","","","","","","","","","","","","",""
"","","","","","image-keyboard-response","158","234918","0.0-133.0","5bc0cded8b8bfe000105ea82","665500ab8938657b03fbdba8","66579326c24bcd454bfb28ba","868","stimuli/2100000.jpg","2","","prediction_trial","2","","true","","2","true","true","true","true","true","true","[2]","100","000","1","","","","","","",""
"","","","","","image-keyboard-response","159","235265","0.0-134.0","5bc0cded8b8bfe000105ea82","665500ab8938657b03fbdba8","66579326c24bcd454bfb28ba","345","stimuli/21000002.jpg"," ","","feedback_trial","2","","","","","","","","","","","","","","","","","","","","",""
"","","","","","image-keyboard-response","160","236315","0.0-135.0","5bc0cded8b8bfe000105ea82","665500ab8938657b03fbdba8","66579326c24bcd454bfb28ba","1048","stimuli/1100111.jpg","2","","prediction_trial","1","","false","","1","false","false","true","true","false","false","[1]","100","111","0","","","","","","",""
"","","","","","image-keyboard-response","161","236656","0.0-136.0","5bc0cded8b8bfe000105ea82","665500ab8938657b03fbdba8","66579326c24bcd454bfb28ba","339","stimuli/11001111.jpg"," ","","feedback_trial","1","","","","","","","","","","","","","","","","","","","","",""
"","","","","","image-keyboard-response","162","237394","0.0-137.0","5bc0cded8b8bfe000105ea82","665500ab8938657b03fbdba8","66579326c24bcd454bfb28ba","736","stimuli/1000001.jpg","1","","prediction_trial","1","","true","","1","true","true","true","true","true","true","[1]","000","001","1","","","","","","",""
"","","","","","image-keyboard-response","163","237739","0.0-138.0","5bc0cded8b8bfe000105ea82","665500ab8938657b03fbdba8","66579326c24bcd454bfb28ba","342","stimuli/10000011.jpg"," ","","feedback_trial","1","","","","","","","","","","","","","","","","","","","","",""
"","","","","","image-keyboard-response","164","238782","0.0-139.0","5bc0cded8b8bfe000105ea82","665500ab8938657b03fbdba8","66579326c24bcd454bfb28ba","1041","stimuli/0000101.jpg","2","","prediction_trial","0","","false","","0","false","false","true","true","false","false","[0]","000","101","0","","","","","","",""
"","","","","","image-keyboard-response","165","239152","0.0-140.0","5bc0cded8b8bfe000105ea82","665500ab8938657b03fbdba8","66579326c24bcd454bfb28ba","369","stimuli/00001010.jpg"," ","","feedback_trial","0","","","","","","","","","","","","","","","","","","","","",""
"","","","","","image-keyboard-response","166","240042","0.0-141.0","5bc0cded8b8bfe000105ea82","665500ab8938657b03fbdba8","66579326c24bcd454bfb28ba","886","stimuli/2111111.jpg","1","","prediction_trial","1","","true","","2","false","false","false","false","false","false","[1,2,0]","111","111","1","","","","","","",""
"","","","","","image-keyboard-response","167","240433","0.0-142.0","5bc0cded8b8bfe000105ea82","665500ab8938657b03fbdba8","66579326c24bcd454bfb28ba","390","stimuli/21111111.jpg"," ","","feedback_trial","1","","","","","","","","","","","","","","","","","","","","",""
"","","","","","image-keyboard-response","168","241558","0.0-143.0","5bc0cded8b8bfe000105ea82","665500ab8938657b03fbdba8","66579326c24bcd454bfb28ba","1123","stimuli/1100011.jpg","1","","prediction_trial","1","","true","","1","false","false","true","true","false","false","[1]","100","011","1","","","","","","",""
"","","","","","image-keyboard-response","169","241907","0.0-144.0","5bc0cded8b8bfe000105ea82","665500ab8938657b03fbdba8","66579326c24bcd454bfb28ba","348","stimuli/11000111.jpg"," ","","feedback_trial","1","","","","","","","","","","","","","","","","","","","","",""
"","","","","","image-keyboard-response","170","243828","0.0-145.0","5bc0cded8b8bfe000105ea82","665500ab8938657b03fbdba8","66579326c24bcd454bfb28ba","1918","stimuli/2001010.jpg","2","","prediction_trial","2","","true","","2","true","true","false","true","false","true","[2]","001","010","1","","","","","","",""
"","","","","","image-keyboard-response","171","244225","0.0-146.0","5bc0cded8b8bfe000105ea82","665500ab8938657b03fbdba8","66579326c24bcd454bfb28ba","395","stimuli/20010102.jpg"," ","","feedback_trial","2","","","","","","","","","","","","","","","","","","","","",""
"","","","","","image-keyboard-response","172","246866","0.0-147.0","5bc0cded8b8bfe000105ea82","665500ab8938657b03fbdba8","66579326c24bcd454bfb28ba","2639","stimuli/1011010.jpg","1","","prediction_trial","2","","false","","1","false","true","false","false","false","false","[2,1]","011","010","0","","","","","","",""
"","","","","","image-keyboard-response","173","247319","0.0-148.0","5bc0cded8b8bfe000105ea82","665500ab8938657b03fbdba8","66579326c24bcd454bfb28ba","452","stimuli/10110102.jpg"," ","","feedback_trial","2","","","","","","","","","","","","","","","","","","","","",""
"","","","","","image-keyboard-response","174","248155","0.0-149.0","5bc0cded8b8bfe000105ea82","665500ab8938657b03fbdba8","66579326c24bcd454bfb28ba","834","stimuli/1101000.jpg","1","","prediction_trial","1","","true","","1","true","true","true","true","true","true","[1]","101","000","1","","","","","","",""
"","","","","","image-keyboard-response","175","248560","0.0-150.0","5bc0cded8b8bfe000105ea82","665500ab8938657b03fbdba8","66579326c24bcd454bfb28ba","403","stimuli/11010001.jpg"," ","","feedback_trial","1","","","","","","","","","","","","","","","","","","","","",""
"","","","","","image-keyboard-response","176","249207","0.0-151.0","5bc0cded8b8bfe000105ea82","665500ab8938657b03fbdba8","66579326c24bcd454bfb28ba","637","stimuli/2111011.jpg","1","","prediction_trial","2","","false","","2","false","false","false","false","false","false","[2,1,0]","111","011","0","","","","","","",""
"","","","","","image-keyboard-response","177","249579","0.0-152.0","5bc0cded8b8bfe000105ea82","665500ab8938657b03fbdba8","66579326c24bcd454bfb28ba","370","stimuli/21110112.jpg"," ","","feedback_trial","2","","","","","","","","","","","","","","","","","","","","",""
"","","","","","image-keyboard-response","178","251680","0.0-153.0","5bc0cded8b8bfe000105ea82","665500ab8938657b03fbdba8","66579326c24bcd454bfb28ba","2099","stimuli/0100001.jpg","0","","prediction_trial","0","","true","","0","true","true","false","true","false","true","[0]","100","001","1","","","","","","",""
"","","","","","image-keyboard-response","179","252058","0.0-154.0","5bc0cded8b8bfe000105ea82","665500ab8938657b03fbdba8","66579326c24bcd454bfb28ba","375","stimuli/01000010.jpg"," ","","feedback_trial","0","","","","","","","","","","","","","","","","","","","","",""
"","","","","","image-keyboard-response","180","253095","0.0-155.0","5bc0cded8b8bfe000105ea82","665500ab8938657b03fbdba8","66579326c24bcd454bfb28ba","1035","stimuli/2001001.jpg","2","","prediction_trial","2","","true","","2","false","true","false","true","false","true","[2]","001","001","1","","","","","","",""
"","","","","","image-keyboard-response","181","253415","0.0-156.0","5bc0cded8b8bfe000105ea82","665500ab8938657b03fbdba8","66579326c24bcd454bfb28ba","319","stimuli/20010012.jpg"," ","","feedback_trial","2","","","","","","","","","","","","","","","","","","","","",""
"","","","","","image-keyboard-response","182","255246","0.0-157.0","5bc0cded8b8bfe000105ea82","665500ab8938657b03fbdba8","66579326c24bcd454bfb28ba","1824","stimuli/0011111.jpg","1","","prediction_trial","0","","false","","0","false","false","true","true","false","false","[0]","011","111","0","","","","","","",""
"","","","","","image-keyboard-response","183","255611","0.0-158.0","5bc0cded8b8bfe000105ea82","665500ab8938657b03fbdba8","66579326c24bcd454bfb28ba","363","stimuli/00111110.jpg"," ","","feedback_trial","0","","","","","","","","","","","","","","","","","","","","",""
"","","","","","image-keyboard-response","184","256595","0.0-159.0","5bc0cded8b8bfe000105ea82","665500ab8938657b03fbdba8","66579326c24bcd454bfb28ba","982","stimuli/1110100.jpg","1","","prediction_trial","0","","false","","1","true","true","false","false","false","false","[0,1]","110","100","0","","","","","","",""
"","","","","","image-keyboard-response","185","256928","0.0-160.0","5bc0cded8b8bfe000105ea82","665500ab8938657b03fbdba8","66579326c24bcd454bfb28ba","331","stimuli/11101000.jpg"," ","","feedback_trial","0","","","","","","","","","","","","","","","","","","","","",""
"","","","","","image-keyboard-response","186","258527","0.0-161.0","5bc0cded8b8bfe000105ea82","665500ab8938657b03fbdba8","66579326c24bcd454bfb28ba","1597","stimuli/1001111.jpg","2","","prediction_trial","1","","false","","1","false","false","true","true","false","false","[1]","001","111","0","","","","","","",""
"","","","","","image-keyboard-response","187","258915","0.0-162.0","5bc0cded8b8bfe000105ea82","665500ab8938657b03fbdba8","66579326c24bcd454bfb28ba","385","stimuli/10011111.jpg"," ","","feedback_trial","1","","","","","","","","","","","","","","","","","","","","",""
"","","","","","image-keyboard-response","188","259902","0.0-163.0","5bc0cded8b8bfe000105ea82","665500ab8938657b03fbdba8","66579326c24bcd454bfb28ba","985","stimuli/2100011.jpg","1","","prediction_trial","2","","false","","2","false","false","true","true","false","false","[2]","100","011","0","","","","","","",""
"","","","","","image-keyboard-response","189","260308","0.0-164.0","5bc0cded8b8bfe000105ea82","665500ab8938657b03fbdba8","66579326c24bcd454bfb28ba","404","stimuli/21000112.jpg"," ","","feedback_trial","2","","","","","","","","","","","","","","","","","","","","",""
"","","","","","image-keyboard-response","190","261316","0.0-165.0","5bc0cded8b8bfe000105ea82","665500ab8938657b03fbdba8","66579326c24bcd454bfb28ba","1006","stimuli/1111000.jpg","1","","prediction_trial","0","","false","","1","true","true","false","false","false","false","[2,1,0]","111","000","0","","","","","","",""
"","","","","","image-keyboard-response","191","262026","0.0-166.0","5bc0cded8b8bfe000105ea82","665500ab8938657b03fbdba8","66579326c24bcd454bfb28ba","708","stimuli/11110000.jpg"," ","","feedback_trial","2","","","","","","","","","","","","","","","","","","","","",""
"","","","","","image-keyboard-response","192","263922","0.0-167.0","5bc0cded8b8bfe000105ea82","665500ab8938657b03fbdba8","66579326c24bcd454bfb28ba","1893","stimuli/1011110.jpg","1","","prediction_trial","2","","false","","1","false","false","false","false","false","false","[2,1]","011","110","0","","","","","","",""
"","","","","","image-keyboard-response","193","264427","0.0-168.0","5bc0cded8b8bfe000105ea82","665500ab8938657b03fbdba8","66579326c24bcd454bfb28ba","504","stimuli/10111102.jpg"," ","","feedback_trial","2","","","","","","","","","","","","","","","","","","","","",""
"","","","","","image-keyboard-response","194","267116","0.0-169.0","5bc0cded8b8bfe000105ea82","665500ab8938657b03fbdba8","66579326c24bcd454bfb28ba","2687","stimuli/2011011.jpg","1","","prediction_trial","1","","true","","2","false","false","false","false","false","false","[1,2]","011","011","1","","","","","","",""
"","","","","","image-keyboard-response","195","267566","0.0-170.0","5bc0cded8b8bfe000105ea82","665500ab8938657b03fbdba8","66579326c24bcd454bfb28ba","448","stimuli/20110111.jpg"," ","","feedback_trial","1","","","","","","","","","","","","","","","","","","","","",""
"","","","","","image-keyboard-response","196","268578","0.0-171.0","5bc0cded8b8bfe000105ea82","665500ab8938657b03fbdba8","66579326c24bcd454bfb28ba","1007","stimuli/2000010.jpg","2","","prediction_trial","2","","true","","2","true","true","true","true","true","true","[2]","000","010","1","","","","","","",""
"","","","","","image-keyboard-response","197","268942","0.0-172.0","5bc0cded8b8bfe000105ea82","665500ab8938657b03fbdba8","66579326c24bcd454bfb28ba","362","stimuli/20000102.jpg"," ","","feedback_trial","2","","","","","","","","","","","","","","","","","","","","",""
"","","","","","image-keyboard-response","198","269555","0.0-173.0","5bc0cded8b8bfe000105ea82","665500ab8938657b03fbdba8","66579326c24bcd454bfb28ba","609","stimuli/0000001.jpg","0","","prediction_trial","0","","true","","0","true","true","true","true","true","true","[0]","000","001","1","","","","","","",""
"","","","","","image-keyboard-response","199","269949","0.0-174.0","5bc0cded8b8bfe000105ea82","665500ab8938657b03fbdba8","66579326c24bcd454bfb28ba","392","stimuli/00000010.jpg"," ","","feedback_trial","0","","","","","","","","","","","","","","","","","","","","",""
"","","","","","image-keyboard-response","200","271133","0.0-175.0","5bc0cded8b8bfe000105ea82","665500ab8938657b03fbdba8","66579326c24bcd454bfb28ba","1168","stimuli/1000010.jpg","1","","prediction_trial","1","","true","","1","false","true","true","true","false","true","[1]","000","010","1","","","","","","",""
"","","","","","image-keyboard-response","201","271508","0.0-176.0","5bc0cded8b8bfe000105ea82","665500ab8938657b03fbdba8","66579326c24bcd454bfb28ba","373","stimuli/10000101.jpg"," ","","feedback_trial","1","","","","","","","","","","","","","","","","","","","","",""
"","","","","","image-keyboard-response","202","272253","0.0-177.0","5bc0cded8b8bfe000105ea82","665500ab8938657b03fbdba8","66579326c24bcd454bfb28ba","743","stimuli/0111010.jpg","0","","prediction_trial","1","","false","","0","true","true","false","false","false","false","[2,0,1]","111","010","0","","","","","","",""
"","","","","","image-keyboard-response","203","272669","0.0-178.0","5bc0cded8b8bfe000105ea82","665500ab8938657b03fbdba8","66579326c24bcd454bfb28ba","413","stimuli/01110101.jpg"," ","","feedback_trial","2","","","","","","","","","","","","","","","","","","","","",""
"","","","","","image-keyboard-response","204","274434","0.0-179.0","5bc0cded8b8bfe000105ea82","665500ab8938657b03fbdba8","66579326c24bcd454bfb28ba","1763","stimuli/1101011.jpg","1","","prediction_trial","1","","true","","1","false","false","true","true","false","false","[1]","101","011","1","","","","","","",""
"","","","","","image-keyboard-response","205","274878","0.0-180.0","5bc0cded8b8bfe000105ea82","665500ab8938657b03fbdba8","66579326c24bcd454bfb28ba","442","stimuli/11010111.jpg"," ","","feedback_trial","1","","","","","","","","","","","","","","","","","","","","",""
"","","","","","image-keyboard-response","206","275564","0.0-181.0","5bc0cded8b8bfe000105ea82","665500ab8938657b03fbdba8","66579326c24bcd454bfb28ba","685","stimuli/1100001.jpg","1","","prediction_trial","1","","true","","1","true","true","true","true","true","true","[1]","100","001","1","","","","","","",""
"","","","","","image-keyboard-response","207","275896","0.0-182.0","5bc0cded8b8bfe000105ea82","665500ab8938657b03fbdba8","66579326c24bcd454bfb28ba","330","stimuli/11000011.jpg"," ","","feedback_trial","1","","","","","","","","","","","","","","","","","","","","",""
"","","","","","image-keyboard-response","208","276906","0.0-183.0","5bc0cded8b8bfe000105ea82","665500ab8938657b03fbdba8","66579326c24bcd454bfb28ba","1008","stimuli/0100110.jpg","2","","prediction_trial","0","","false","","0","false","false","false","true","false","false","[0]","100","110","0","","","","","","",""
"","","","","","image-keyboard-response","209","278040","0.0-184.0","5bc0cded8b8bfe000105ea82","665500ab8938657b03fbdba8","66579326c24bcd454bfb28ba","1131","stimuli/01001100.jpg"," ","","feedback_trial","0","","","","","","","","","","","","","","","","","","","","",""
"","","","","","image-keyboard-response","210","278751","0.0-185.0","5bc0cded8b8bfe000105ea82","665500ab8938657b03fbdba8","66579326c24bcd454bfb28ba","710","stimuli/2111010.jpg","2","","prediction_trial","1","","false","","2","true","true","false","false","false","false","[0,2,1]","111","010","0","","","","","","",""
"","","","","","image-keyboard-response","211","279068","0.0-186.0","5bc0cded8b8bfe000105ea82","665500ab8938657b03fbdba8","66579326c24bcd454bfb28ba","315","stimuli/21110101.jpg"," ","","feedback_trial","0","","","","","","","","","","","","","","","","","","","","",""
"","","","","","image-keyboard-response","212","280497","0.0-187.0","5bc0cded8b8bfe000105ea82","665500ab8938657b03fbdba8","66579326c24bcd454bfb28ba","1427","stimuli/0101100.jpg","0","","prediction_trial","0","","true","","0","false","true","false","false","false","false","[2,0]","101","100","1","","","","","","",""
"","","","","","image-keyboard-response","213","280988","0.0-188.0","5bc0cded8b8bfe000105ea82","665500ab8938657b03fbdba8","66579326c24bcd454bfb28ba","489","stimuli/01011000.jpg"," ","","feedback_trial","2","","","","","","","","","","","","","","","","","","","","",""
"","","","","","image-keyboard-response","214","283357","0.0-189.0","5bc0cded8b8bfe000105ea82","665500ab8938657b03fbdba8","66579326c24bcd454bfb28ba","2367","stimuli/0101011.jpg","0","","prediction_trial","2","","false","","0","true","true","false","false","false","false","[0,2]","101","011","0","","","","","","",""
"","","","","","image-keyboard-response","215","283823","0.0-190.0","5bc0cded8b8bfe000105ea82","665500ab8938657b03fbdba8","66579326c24bcd454bfb28ba","461","stimuli/01010112.jpg"," ","","feedback_trial","0","","","","","","","","","","","","","","","","","","","","",""
"","","","","","image-keyboard-response","216","285007","0.0-191.0","5bc0cded8b8bfe000105ea82","665500ab8938657b03fbdba8","66579326c24bcd454bfb28ba","1182","stimuli/0110000.jpg","0","","prediction_trial","1","","false","","0","true","true","false","false","false","false","[1,0]","110","000","0","","","","","","",""
"","","","","","image-keyboard-response","217","285370","0.0-192.0","5bc0cded8b8bfe000105ea82","665500ab8938657b03fbdba8","66579326c24bcd454bfb28ba","361","stimuli/01100001.jpg"," ","","feedback_trial","1","","","","","","","","","","","","","","","","","","","","",""
"","","","","","image-keyboard-response","218","286304","0.0-193.0","5bc0cded8b8bfe000105ea82","665500ab8938657b03fbdba8","66579326c24bcd454bfb28ba","932","stimuli/1111111.jpg","0","","prediction_trial","2","","false","","1","false","false","false","false","false","false","[0,1,2]","111","111","0","","","","","","",""
"","","","","","image-keyboard-response","219","286628","0.0-194.0","5bc0cded8b8bfe000105ea82","665500ab8938657b03fbdba8","66579326c24bcd454bfb28ba","322","stimuli/11111112.jpg"," ","","feedback_trial","0","","","","","","","","","","","","","","","","","","","","",""
"","","","","","image-keyboard-response","220","288185","0.0-195.0","5bc0cded8b8bfe000105ea82","665500ab8938657b03fbdba8","66579326c24bcd454bfb28ba","1555","stimuli/0010110.jpg","1","","prediction_trial","0","","false","","0","false","false","true","true","false","false","[0]","010","110","0","","","","","","",""
"","","","","","image-keyboard-response","221","288641","0.0-196.0","5bc0cded8b8bfe000105ea82","665500ab8938657b03fbdba8","66579326c24bcd454bfb28ba","454","stimuli/00101100.jpg"," ","","feedback_trial","0","","","","","","","","","","","","","","","","","","","","",""
"","","","","","image-keyboard-response","222","289940","0.0-197.0","5bc0cded8b8bfe000105ea82","665500ab8938657b03fbdba8","66579326c24bcd454bfb28ba","1297","stimuli/2101010.jpg","2","","prediction_trial","0","","false","","2","true","true","false","false","false","false","[2,0]","101","010","0","","","","","","",""
"","","","","","image-keyboard-response","223","290344","0.0-198.0","5bc0cded8b8bfe000105ea82","665500ab8938657b03fbdba8","66579326c24bcd454bfb28ba","402","stimuli/21010100.jpg"," ","","feedback_trial","2","","","","","","","","","","","","","","","","","","","","",""
"","","","","","image-keyboard-response","224","291410","0.0-199.0","5bc0cded8b8bfe000105ea82","665500ab8938657b03fbdba8","66579326c24bcd454bfb28ba","1064","stimuli/0100111.jpg","1","","prediction_trial","0","","false","","0","false","false","false","true","false","false","[0]","100","111","0","","","","","","",""
"","","","","","image-keyboard-response","225","291842","0.0-200.0","5bc0cded8b8bfe000105ea82","665500ab8938657b03fbdba8","66579326c24bcd454bfb28ba","430","stimuli/01001110.jpg"," ","","feedback_trial","0","","","","","","","","","","","","","","","","","","","","",""
"","","","","","image-keyboard-response","226","294359","0.0-201.0","5bc0cded8b8bfe000105ea82","665500ab8938657b03fbdba8","66579326c24bcd454bfb28ba","2515","stimuli/0100000.jpg","0","","prediction_trial","0","","true","","0","true","true","false","true","false","true","[0]","100","000","1","","","","","","",""
"","","","","","image-keyboard-response","227","294869","0.0-202.0","5bc0cded8b8bfe000105ea82","665500ab8938657b03fbdba8","66579326c24bcd454bfb28ba","508","stimuli/01000000.jpg"," ","","feedback_trial","0","","","","","","","","","","","","","","","","","","","","",""
"","","","","","image-keyboard-response","228","295704","0.0-203.0","5bc0cded8b8bfe000105ea82","665500ab8938657b03fbdba8","66579326c24bcd454bfb28ba","833","stimuli/1010010.jpg","1","","prediction_trial","1","","true","","1","false","true","false","true","false","true","[1]","010","010","1","","","","","","",""
"","","","","","image-keyboard-response","229","296147","0.0-204.0","5bc0cded8b8bfe000105ea82","665500ab8938657b03fbdba8","66579326c24bcd454bfb28ba","442","stimuli/10100101.jpg"," ","","feedback_trial","1","","","","","","","","","","","","","","","","","","","","",""
"","","","","","image-keyboard-response","230","297500","0.0-205.0","5bc0cded8b8bfe000105ea82","665500ab8938657b03fbdba8","66579326c24bcd454bfb28ba","1351","stimuli/0101110.jpg","1","","prediction_trial","0","","false","","0","false","false","false","false","false","false","[0,2]","101","110","0","","","","","","",""
"","","","","","image-keyboard-response","231","297839","0.0-206.0","5bc0cded8b8bfe000105ea82","665500ab8938657b03fbdba8","66579326c24bcd454bfb28ba","337","stimuli/01011100.jpg"," ","","feedback_trial","0","","","","","","","","","","","","","","","","","","","","",""
"","","","","","image-keyboard-response","232","299486","0.0-207.0","5bc0cded8b8bfe000105ea82","665500ab8938657b03fbdba8","66579326c24bcd454bfb28ba","1645","stimuli/2001101.jpg","2","","prediction_trial","2","","true","","2","false","false","false","true","false","false","[2]","001","101","1","","","","","","",""
"","","","","","image-keyboard-response","233","299925","0.0-208.0","5bc0cded8b8bfe000105ea82","665500ab8938657b03fbdba8","66579326c24bcd454bfb28ba","437","stimuli/20011012.jpg"," ","","feedback_trial","2","","","","","","","","","","","","","","","","","","","","",""
"","","","","","image-keyboard-response","234","300991","0.0-209.0","5bc0cded8b8bfe000105ea82","665500ab8938657b03fbdba8","66579326c24bcd454bfb28ba","1056","stimuli/2011001.jpg","2","","prediction_trial","1","","false","","2","false","true","false","false","false","false","[2,1]","011","001","0","","","","","","",""
"","","","","","image-keyboard-response","235","301346","0.0-210.0","5bc0cded8b8bfe000105ea82","665500ab8938657b03fbdba8","66579326c24bcd454bfb28ba","354","stimuli/20110011.jpg"," ","","feedback_trial","2","","","","","","","","","","","","","","","","","","","","",""
"","","","","","image-keyboard-response","236","302628","0.0-211.0","5bc0cded8b8bfe000105ea82","665500ab8938657b03fbdba8","66579326c24bcd454bfb28ba","1279","stimuli/2000111.jpg","1","","prediction_trial","2","","false","","2","false","false","true","true","false","false","[2]","000","111","0","","","","","","",""
"","","","","","image-keyboard-response","237","303027","0.0-212.0","5bc0cded8b8bfe000105ea82","665500ab8938657b03fbdba8","66579326c24bcd454bfb28ba","398","stimuli/20001112.jpg"," ","","feedback_trial","2","","","","","","","","","","","","","","","","","","","","",""
"","","","","","image-keyboard-response","238","303904","0.0-213.0","5bc0cded8b8bfe000105ea82","665500ab8938657b03fbdba8","66579326c24bcd454bfb28ba","874","stimuli/1010110.jpg","1","","prediction_trial","1","","true","","1","false","false","false","true","false","false","[1]","010","110","1","","","","","","",""
"","","","","","image-keyboard-response","239","304267","0.0-214.0","5bc0cded8b8bfe000105ea82","665500ab8938657b03fbdba8","66579326c24bcd454bfb28ba","361","stimuli/10101101.jpg"," ","","feedback_trial","1","","","","","","","","","","","","","","","","","","","","",""
"","","","","","image-keyboard-response","240","306118","0.0-215.0","5bc0cded8b8bfe000105ea82","665500ab8938657b03fbdba8","66579326c24bcd454bfb28ba","1849","stimuli/2101110.jpg","2","","prediction_trial","2","","true","","2","true","true","false","false","false","false","[0,2]","101","110","1","","","","","","",""
"","","","","","image-keyboard-response","241","306474","0.0-216.0","5bc0cded8b8bfe000105ea82","665500ab8938657b03fbdba8","66579326c24bcd454bfb28ba","354","stimuli/21011102.jpg"," ","","feedback_trial","0","","","","","","","","","","","","","","","","","","","","",""
"","","","","","image-keyboard-response","242","307304","0.0-217.0","5bc0cded8b8bfe000105ea82","665500ab8938657b03fbdba8","66579326c24bcd454bfb28ba","819","stimuli/1000101.jpg","1","","prediction_trial","1","","true","","1","true","true","true","true","true","true","[1]","000","101","1","","","","","","",""
"","","","","","image-keyboard-response","243","307661","0.0-218.0","5bc0cded8b8bfe000105ea82","665500ab8938657b03fbdba8","66579326c24bcd454bfb28ba","355","stimuli/10001011.jpg"," ","","feedback_trial","1","","","","","","","","","","","","","","","","","","","","",""
"","","","","","image-keyboard-response","244","308600","0.0-219.0","5bc0cded8b8bfe000105ea82","665500ab8938657b03fbdba8","66579326c24bcd454bfb28ba","938","stimuli/0110100.jpg","0","","prediction_trial","0","","true","","0","false","true","false","false","false","false","[1,0]","110","100","1","","","","","","",""
"","","","","","image-keyboard-response","245","308974","0.0-220.0","5bc0cded8b8bfe000105ea82","665500ab8938657b03fbdba8","66579326c24bcd454bfb28ba","371","stimuli/01101000.jpg"," ","","feedback_trial","1","","","","","","","","","","","","","","","","","","","","",""
"","","","","","image-keyboard-response","246","310188","0.0-221.0","5bc0cded8b8bfe000105ea82","665500ab8938657b03fbdba8","66579326c24bcd454bfb28ba","1213","stimuli/0000011.jpg","0","","prediction_trial","0","","true","","0","true","true","true","true","true","true","[0]","000","011","1","","","","","","",""
"","","","","","image-keyboard-response","247","310658","0.0-222.0","5bc0cded8b8bfe000105ea82","665500ab8938657b03fbdba8","66579326c24bcd454bfb28ba","468","stimuli/00000110.jpg"," ","","feedback_trial","0","","","","","","","","","","","","","","","","","","","","",""
"","","","","","image-keyboard-response","248","311603","0.0-223.0","5bc0cded8b8bfe000105ea82","665500ab8938657b03fbdba8","66579326c24bcd454bfb28ba","943","stimuli/0010101.jpg","2","","prediction_trial","0","","false","","0","false","false","true","true","false","false","[0]","010","101","0","","","","","","",""
"","","","","","image-keyboard-response","249","312038","0.0-224.0","5bc0cded8b8bfe000105ea82","665500ab8938657b03fbdba8","66579326c24bcd454bfb28ba","432","stimuli/00101010.jpg"," ","","feedback_trial","0","","","","","","","","","","","","","","","","","","","","",""
"","","","","","image-keyboard-response","250","312755","0.0-225.0","5bc0cded8b8bfe000105ea82","665500ab8938657b03fbdba8","66579326c24bcd454bfb28ba","716","stimuli/2111000.jpg","2","","prediction_trial","2","","true","","2","true","true","false","false","false","false","[1,2,0]","111","000","1","","","","","","",""
"","","","","","image-keyboard-response","251","313308","0.0-226.0","5bc0cded8b8bfe000105ea82","665500ab8938657b03fbdba8","66579326c24bcd454bfb28ba","551","stimuli/21110002.jpg"," ","","feedback_trial","1","","","","","","","","","","","","","","","","","","","","",""
"","","","","","image-keyboard-response","252","314391","0.0-227.0","5bc0cded8b8bfe000105ea82","665500ab8938657b03fbdba8","66579326c24bcd454bfb28ba","1062","stimuli/0000010.jpg","0","","prediction_trial","0","","true","","0","true","true","true","true","true","true","[0]","000","010","1","","","","","","",""
"","","","","","image-keyboard-response","253","314812","0.0-228.0","5bc0cded8b8bfe000105ea82","665500ab8938657b03fbdba8","66579326c24bcd454bfb28ba","418","stimuli/00000100.jpg"," ","","feedback_trial","0","","","","","","","","","","","","","","","","","","","","",""
"","","","","","image-keyboard-response","254","315452","0.0-229.0","5bc0cded8b8bfe000105ea82","665500ab8938657b03fbdba8","66579326c24bcd454bfb28ba","638","stimuli/0000110.jpg","1","","prediction_trial","0","","false","","0","false","false","true","true","false","false","[0]","000","110","0","","","","","","",""
"","","","","","image-keyboard-response","255","315863","0.0-230.0","5bc0cded8b8bfe000105ea82","665500ab8938657b03fbdba8","66579326c24bcd454bfb28ba","409","stimuli/00001100.jpg"," ","","feedback_trial","0","","","","","","","","","","","","","","","","","","","","",""
"","","","","","image-keyboard-response","256","317097","0.0-231.0","5bc0cded8b8bfe000105ea82","665500ab8938657b03fbdba8","66579326c24bcd454bfb28ba","1229","stimuli/2000101.jpg","2","","prediction_trial","2","","true","","2","false","false","true","true","false","false","[2]","000","101","1","","","","","","",""
"","","","","","image-keyboard-response","257","317475","0.0-232.0","5bc0cded8b8bfe000105ea82","665500ab8938657b03fbdba8","66579326c24bcd454bfb28ba","376","stimuli/20001012.jpg"," ","","feedback_trial","2","","","","","","","","","","","","","","","","","","","","",""
"","","","","","image-keyboard-response","258","319524","0.0-233.0","5bc0cded8b8bfe000105ea82","665500ab8938657b03fbdba8","66579326c24bcd454bfb28ba","2048","stimuli/2011010.jpg","1","","prediction_trial","2","","false","","2","true","true","false","false","false","false","[1,2]","011","010","0","","","","","","",""
"","","","","","image-keyboard-response","259","319954","0.0-234.0","5bc0cded8b8bfe000105ea82","665500ab8938657b03fbdba8","66579326c24bcd454bfb28ba","428","stimuli/20110102.jpg"," ","","feedback_trial","1","","","","","","","","","","","","","","","","","","","","",""
"","","","","","image-keyboard-response","260","321002","0.0-235.0","5bc0cded8b8bfe000105ea82","665500ab8938657b03fbdba8","66579326c24bcd454bfb28ba","1046","stimuli/2110110.jpg","2","","prediction_trial","2","","true","","2","true","true","true","true","true","true","[2]","110","110","1","","","","","","",""
"","","","","","image-keyboard-response","261","321362","0.0-236.0","5bc0cded8b8bfe000105ea82","665500ab8938657b03fbdba8","66579326c24bcd454bfb28ba","359","stimuli/21101102.jpg"," ","","feedback_trial","2","","","","","","","","","","","","","","","","","","","","",""
"","","","","","image-keyboard-response","262","322090","0.0-237.0","5bc0cded8b8bfe000105ea82","665500ab8938657b03fbdba8","66579326c24bcd454bfb28ba","726","stimuli/1101111.jpg","1","","prediction_trial","1","","true","","1","false","false","true","true","false","false","[1]","101","111","1","","","","","","",""
"","","","","","image-keyboard-response","263","322850","0.0-238.0","5bc0cded8b8bfe000105ea82","665500ab8938657b03fbdba8","66579326c24bcd454bfb28ba","758","stimuli/11011111.jpg"," ","","feedback_trial","1","","","","","","","","","","","","","","","","","","","","",""
"","","","","","image-keyboard-response","264","323739","0.0-239.0","5bc0cded8b8bfe000105ea82","665500ab8938657b03fbdba8","66579326c24bcd454bfb28ba","887","stimuli/2010111.jpg","1","","prediction_trial","2","","false","","2","false","false","true","true","false","false","[2]","010","111","0","","","","","","",""
"","","","","","image-keyboard-response","265","324272","0.0-240.0","5bc0cded8b8bfe000105ea82","665500ab8938657b03fbdba8","66579326c24bcd454bfb28ba","532","stimuli/20101112.jpg"," ","","feedback_trial","2","","","","","","","","","","","","","","","","","","","","",""
"","","","","","image-keyboard-response","266","324933","0.0-241.0","5bc0cded8b8bfe000105ea82","665500ab8938657b03fbdba8","66579326c24bcd454bfb28ba","656","stimuli/1010001.jpg","1","","prediction_trial","1","","true","","1","true","true","false","true","false","true","[1]","010","001","1","","","","","","",""
"","","","","","image-keyboard-response","267","325385","0.0-242.0","5bc0cded8b8bfe000105ea82","665500ab8938657b03fbdba8","66579326c24bcd454bfb28ba","450","stimuli/10100011.jpg"," ","","feedback_trial","1","","","","","","","","","","","","","","","","","","","","",""
"","","","","","image-keyboard-response","268","326623","0.0-243.0","5bc0cded8b8bfe000105ea82","665500ab8938657b03fbdba8","66579326c24bcd454bfb28ba","1235","stimuli/2010010.jpg","2","","prediction_trial","2","","true","","2","true","true","true","true","true","true","[2]","010","010","1","","","","","","",""
"","","","","","image-keyboard-response","269","327057","0.0-244.0","5bc0cded8b8bfe000105ea82","665500ab8938657b03fbdba8","66579326c24bcd454bfb28ba","432","stimuli/20100102.jpg"," ","","feedback_trial","2","","","","","","","","","","","","","","","","","","","","",""
"","","","","","image-keyboard-response","270","328232","0.0-245.0","5bc0cded8b8bfe000105ea82","665500ab8938657b03fbdba8","66579326c24bcd454bfb28ba","1172","stimuli/1100000.jpg","1","","prediction_trial","1","","true","","1","true","true","true","true","true","true","[1]","100","000","1","","","","","","",""
"","","","","","image-keyboard-response","271","328799","0.0-246.0","5bc0cded8b8bfe000105ea82","665500ab8938657b03fbdba8","66579326c24bcd454bfb28ba","564","stimuli/11000001.jpg"," ","","feedback_trial","1","","","","","","","","","","","","","","","","","","","","",""
"","","","","","image-keyboard-response","272","330167","0.0-247.0","5bc0cded8b8bfe000105ea82","665500ab8938657b03fbdba8","66579326c24bcd454bfb28ba","1366","stimuli/2010011.jpg","1","","prediction_trial","2","","false","","2","false","false","true","true","false","false","[2]","010","011","0","","","","","","",""
"","","","","","image-keyboard-response","273","330578","0.0-248.0","5bc0cded8b8bfe000105ea82","665500ab8938657b03fbdba8","66579326c24bcd454bfb28ba","409","stimuli/20100112.jpg"," ","","feedback_trial","2","","","","","","","","","","","","","","","","","","","","",""
"","","","","","image-keyboard-response","274","331524","0.0-249.0","5bc0cded8b8bfe000105ea82","665500ab8938657b03fbdba8","66579326c24bcd454bfb28ba","944","stimuli/0100010.jpg","0","","prediction_trial","0","","true","","0","true","true","false","true","false","true","[0]","100","010","1","","","","","","",""
"","","","","","image-keyboard-response","275","331941","0.0-250.0","5bc0cded8b8bfe000105ea82","665500ab8938657b03fbdba8","66579326c24bcd454bfb28ba","415","stimuli/01000100.jpg"," ","","feedback_trial","0","","","","","","","","","","","","","","","","","","","","",""
"","","","","","image-keyboard-response","276","334058","0.0-251.0","5bc0cded8b8bfe000105ea82","665500ab8938657b03fbdba8","66579326c24bcd454bfb28ba","2114","stimuli/1110011.jpg","1","","prediction_trial","0","","false","","1","false","false","false","false","false","false","[0,1]","110","011","0","","","","","","",""
"","","","","","image-keyboard-response","277","334423","0.0-252.0","5bc0cded8b8bfe000105ea82","665500ab8938657b03fbdba8","66579326c24bcd454bfb28ba","363","stimuli/11100110.jpg"," ","","feedback_trial","0","","","","","","","","","","","","","","","","","","","","",""
"","","","","","image-keyboard-response","278","335183","0.0-253.0","5bc0cded8b8bfe000105ea82","665500ab8938657b03fbdba8","66579326c24bcd454bfb28ba","758","stimuli/1101100.jpg","1","","prediction_trial","1","","true","","1","true","true","true","true","true","true","[1]","101","100","1","","","","","","",""
"","","","","","image-keyboard-response","279","335543","0.0-254.0","5bc0cded8b8bfe000105ea82","665500ab8938657b03fbdba8","66579326c24bcd454bfb28ba","358","stimuli/11011001.jpg"," ","","feedback_trial","1","","","","","","","","","","","","","","","","","","","","",""
"","","","","","image-keyboard-response","280","336853","0.0-255.0","5bc0cded8b8bfe000105ea82","665500ab8938657b03fbdba8","66579326c24bcd454bfb28ba","1308","stimuli/2100111.jpg","1","","prediction_trial","2","","false","","2","false","false","true","true","false","false","[2]","100","111","0","","","","","","",""
"","","","","","image-keyboard-response","281","337217","0.0-256.0","5bc0cded8b8bfe000105ea82","665500ab8938657b03fbdba8","66579326c24bcd454bfb28ba","362","stimuli/21001112.jpg"," ","","feedback_trial","2","","","","","","","","","","","","","","","","","","","","",""
"","","","","","image-keyboard-response","282","337882","0.0-257.0","5bc0cded8b8bfe000105ea82","665500ab8938657b03fbdba8","66579326c24bcd454bfb28ba","664","stimuli/0000111.jpg","1","","prediction_trial","0","","false","","0","false","false","true","true","false","false","[0]","000","111","0","","","","","","",""
"","","","","","image-keyboard-response","283","338206","0.0-258.0","5bc0cded8b8bfe000105ea82","665500ab8938657b03fbdba8","66579326c24bcd454bfb28ba","321","stimuli/00001110.jpg"," ","","feedback_trial","0","","","","","","","","","","","","","","","","","","","","",""
"","","","","","image-keyboard-response","284","338775","0.0-259.0","5bc0cded8b8bfe000105ea82","665500ab8938657b03fbdba8","66579326c24bcd454bfb28ba","568","stimuli/1101001.jpg","1","","prediction_trial","1","","true","","1","true","true","true","true","true","true","[1]","101","001","1","","","","","","",""
"","","","","","image-keyboard-response","285","339137","0.0-260.0","5bc0cded8b8bfe000105ea82","665500ab8938657b03fbdba8","66579326c24bcd454bfb28ba","359","stimuli/11010011.jpg"," ","","feedback_trial","1","","","","","","","","","","","","","","","","","","","","",""
"","","","","","image-keyboard-response","286","341080","0.0-261.0","5bc0cded8b8bfe000105ea82","665500ab8938657b03fbdba8","66579326c24bcd454bfb28ba","1941","stimuli/0011101.jpg","0","","prediction_trial","0","","true","","0","false","false","true","true","false","false","[0]","011","101","1","","","","","","",""
"","","","","","image-keyboard-response","287","341481","0.0-262.0","5bc0cded8b8bfe000105ea82","665500ab8938657b03fbdba8","66579326c24bcd454bfb28ba","399","stimuli/00111010.jpg"," ","","feedback_trial","0","","","","","","","","","","","","","","","","","","","","",""
"","","","","","image-keyboard-response","288","342234","0.0-263.0","5bc0cded8b8bfe000105ea82","665500ab8938657b03fbdba8","66579326c24bcd454bfb28ba","751","stimuli/2110000.jpg","2","","prediction_trial","2","","true","","2","true","true","true","true","true","true","[2]","110","000","1","","","","","","",""
"","","","","","image-keyboard-response","289","342587","0.0-264.0","5bc0cded8b8bfe000105ea82","665500ab8938657b03fbdba8","66579326c24bcd454bfb28ba","351","stimuli/21100002.jpg"," ","","feedback_trial","2","","","","","","","","","","","","","","","","","","","","",""
"","","","","","image-keyboard-response","290","344041","0.0-265.0","5bc0cded8b8bfe000105ea82","665500ab8938657b03fbdba8","66579326c24bcd454bfb28ba","1452","stimuli/1001010.jpg","1","","prediction_trial","1","","true","","1","false","true","true","true","false","true","[1]","001","010","1","","","","","","",""
"","","","","","image-keyboard-response","291","344446","0.0-266.0","5bc0cded8b8bfe000105ea82","665500ab8938657b03fbdba8","66579326c24bcd454bfb28ba","403","stimuli/10010101.jpg"," ","","feedback_trial","1","","","","","","","","","","","","","","","","","","","","",""
"","","","","","image-keyboard-response","292","345274","0.0-267.0","5bc0cded8b8bfe000105ea82","665500ab8938657b03fbdba8","66579326c24bcd454bfb28ba","819","stimuli/1110111.jpg","2","","prediction_trial","1","","false","","1","false","false","false","false","false","false","[0,1]","110","111","0","","","","","","",""
"","","","","","image-keyboard-response","293","345995","0.0-268.0","5bc0cded8b8bfe000105ea82","665500ab8938657b03fbdba8","66579326c24bcd454bfb28ba","719","stimuli/11101111.jpg"," ","","feedback_trial","0","","","","","","","","","","","","","","","","","","","","",""
"","","","","","image-keyboard-response","294","346933","0.0-269.0","5bc0cded8b8bfe000105ea82","665500ab8938657b03fbdba8","66579326c24bcd454bfb28ba","936","stimuli/0011010.jpg","0","","prediction_trial","0","","true","","0","true","true","true","true","true","true","[0]","011","010","1","","","","","","",""
"","","","","","image-keyboard-response","295","347499","0.0-270.0","5bc0cded8b8bfe000105ea82","665500ab8938657b03fbdba8","66579326c24bcd454bfb28ba","564","stimuli/00110100.jpg"," ","","feedback_trial","0","","","","","","","","","","","","","","","","","","","","",""
"","","","","","image-keyboard-response","296","349204","0.0-271.0","5bc0cded8b8bfe000105ea82","665500ab8938657b03fbdba8","66579326c24bcd454bfb28ba","1703","stimuli/0101000.jpg","0","","prediction_trial","2","","false","","0","true","true","false","false","false","false","[2,0]","101","000","0","","","","","","",""
"","","","","","image-keyboard-response","297","349495","0.0-272.0","5bc0cded8b8bfe000105ea82","665500ab8938657b03fbdba8","66579326c24bcd454bfb28ba","289","stimuli/01010002.jpg"," ","","feedback_trial","2","","","","","","","","","","","","","","","","","","","","",""
"","","","","","image-keyboard-response","298","350734","0.0-273.0","5bc0cded8b8bfe000105ea82","665500ab8938657b03fbdba8","66579326c24bcd454bfb28ba","1237","stimuli/1000110.jpg","1","","prediction_trial","1","","true","","1","false","false","true","true","false","false","[1]","000","110","1","","","","","","",""
"","","","","","image-keyboard-response","299","351197","0.0-274.0","5bc0cded8b8bfe000105ea82","665500ab8938657b03fbdba8","66579326c24bcd454bfb28ba","461","stimuli/10001101.jpg"," ","","feedback_trial","1","","","","","","","","","","","","","","","","","","","","",""
"","","","","","image-keyboard-response","300","354008","0.0-275.0","5bc0cded8b8bfe000105ea82","665500ab8938657b03fbdba8","66579326c24bcd454bfb28ba","2809","stimuli/1010011.jpg","1","","prediction_trial","1","","true","","1","false","false","false","true","false","false","[1]","010","011","1","","","","","","",""
"","","","","","image-keyboard-response","301","354425","0.0-276.0","5bc0cded8b8bfe000105ea82","665500ab8938657b03fbdba8","66579326c24bcd454bfb28ba","415","stimuli/10100111.jpg"," ","","feedback_trial","1","","","","","","","","","","","","","","","","","","","","",""
"","","","","","image-keyboard-response","302","356585","0.0-277.0","5bc0cded8b8bfe000105ea82","665500ab8938657b03fbdba8","66579326c24bcd454bfb28ba","2158","stimuli/1011001.jpg","1","","prediction_trial","2","","false","","1","true","true","false","false","false","false","[2,1]","011","001","0","","","","","","",""
"","","","","","image-keyboard-response","303","357033","0.0-278.0","5bc0cded8b8bfe000105ea82","665500ab8938657b03fbdba8","66579326c24bcd454bfb28ba","446","stimuli/10110012.jpg"," ","","feedback_trial","2","","","","","","","","","","","","","","","","","","","","",""
"","","","","","image-keyboard-response","304","357648","0.0-279.0","5bc0cded8b8bfe000105ea82","665500ab8938657b03fbdba8","66579326c24bcd454bfb28ba","613","stimuli/1000100.jpg","1","","prediction_trial","1","","true","","1","true","true","true","true","true","true","[1]","000","100","1","","","","","","",""
"","","","","","image-keyboard-response","305","357996","0.0-280.0","5bc0cded8b8bfe000105ea82","665500ab8938657b03fbdba8","66579326c24bcd454bfb28ba","346","stimuli/10001001.jpg"," ","","feedback_trial","1","","","","","","","","","","","","","","","","","","","","",""
"","","","","","image-keyboard-response","306","359075","0.0-281.0","5bc0cded8b8bfe000105ea82","665500ab8938657b03fbdba8","66579326c24bcd454bfb28ba","1076","stimuli/2001000.jpg","2","","prediction_trial","2","","true","","2","true","true","false","true","false","true","[2]","001","000","1","","","","","","",""
"","","","","","image-keyboard-response","307","359479","0.0-282.0","5bc0cded8b8bfe000105ea82","665500ab8938657b03fbdba8","66579326c24bcd454bfb28ba","402","stimuli/20010002.jpg"," ","","feedback_trial","2","","","","","","","","","","","","","","","","","","","","",""
"","","","","","image-keyboard-response","308","360394","0.0-283.0","5bc0cded8b8bfe000105ea82","665500ab8938657b03fbdba8","66579326c24bcd454bfb28ba","913","stimuli/1110110.jpg","1","","prediction_trial","0","","false","","1","false","false","false","false","false","false","[0,1]","110","110","0","","","","","","",""
"","","","","","image-keyboard-response","309","360790","0.0-284.0","5bc0cded8b8bfe000105ea82","665500ab8938657b03fbdba8","66579326c24bcd454bfb28ba","394","stimuli/11101100.jpg"," ","","feedback_trial","0","","","","","","","","","","","","","","","","","","","","",""
"","","","","","image-keyboard-response","310","361841","0.0-285.0","5bc0cded8b8bfe000105ea82","665500ab8938657b03fbdba8","66579326c24bcd454bfb28ba","1050","stimuli/2011110.jpg","2","","prediction_trial","2","","true","","2","true","true","false","false","false","false","[2,1]","011","110","1","","","","","","",""
"","","","","","image-keyboard-response","311","362241","0.0-286.0","5bc0cded8b8bfe000105ea82","665500ab8938657b03fbdba8","66579326c24bcd454bfb28ba","398","stimuli/20111102.jpg"," ","","feedback_trial","2","","","","","","","","","","","","","","","","","","","","",""
"","","","","","image-keyboard-response","312","363132","0.0-287.0","5bc0cded8b8bfe000105ea82","665500ab8938657b03fbdba8","66579326c24bcd454bfb28ba","890","stimuli/2101111.jpg","1","","prediction_trial","0","","false","","2","false","false","false","false","false","false","[2,0]","101","111","0","","","","","","",""
"","","","","","image-keyboard-response","313","363550","0.0-288.0","5bc0cded8b8bfe000105ea82","665500ab8938657b03fbdba8","66579326c24bcd454bfb28ba","415","stimuli/21011110.jpg"," ","","feedback_trial","2","","","","","","","","","","","","","","","","","","","","",""
"","","","","","image-keyboard-response","314","364455","0.0-289.0","5bc0cded8b8bfe000105ea82","665500ab8938657b03fbdba8","66579326c24bcd454bfb28ba","903","stimuli/0111101.jpg","2","","prediction_trial","0","","false","","0","false","false","false","false","false","false","[1,0,2]","111","101","0","","","","","","",""
"","","","","","image-keyboard-response","315","364829","0.0-290.0","5bc0cded8b8bfe000105ea82","665500ab8938657b03fbdba8","66579326c24bcd454bfb28ba","368","stimuli/01111010.jpg"," ","","feedback_trial","1","","","","","","","","","","","","","","","","","","","","",""
"","","","","","image-keyboard-response","316","365588","0.0-291.0","5bc0cded8b8bfe000105ea82","665500ab8938657b03fbdba8","66579326c24bcd454bfb28ba","756","stimuli/2010000.jpg","2","","prediction_trial","2","","true","","2","true","true","true","true","true","true","[2]","010","000","1","","","","","","",""
"","","","","","image-keyboard-response","317","365924","0.0-292.0","5bc0cded8b8bfe000105ea82","665500ab8938657b03fbdba8","66579326c24bcd454bfb28ba","334","stimuli/20100002.jpg"," ","","feedback_trial","2","","","","","","","","","","","","","","","","","","","","",""
"","","","","","survey-html-form","318","392808","0.0-293.0","5bc0cded8b8bfe000105ea82","665500ab8938657b03fbdba8","66579326c24bcd454bfb28ba","26881","","{""feedback"":""I only relied on what I could actually see. The rest was simply just guessing."",""age"":""38"",""gender"":""Male"",""other_gender"":"""",""race"":""White"",""other_race"":"""",""ethnicity"":""Non-Hispanic""}","","exit_survey","","","","","","","","","","","","","","","","I only relied on what I could actually see. The rest was simply just guessing.","38","Non-Hispanic","Male","White","0.5486111111111112","0.5486111111111112"
