"success","timeout","failed_images","failed_audio","failed_video","trial_type","trial_index","time_elapsed","internal_node_id","prolific_id","prolific_study_id","prolific_session_id","rt","stimulus","response","view_history","trial","character_choice","stimulus_dict","accuracy","correct_response","ball_pos","ego_ball_visible","ego_can_infer","alter_ball_visible","alter_can_infer","collective_ball_visible","collective_can_infer","search_locations","alter_occluders","ego_occluders","accuracy_bool","feedback","age","ethnicity","gender","race","overall_accuracy","bonus"
"true","false","[]","[]","[]","preload","0","1385","0.0-0.0","605ff0746397c26c436b88af","665500ab8938657b03fbdba8","665792e72c1e99aa0a212090","","","","","","","","","","","","","","","","","","","","","","","","","","",""
"true","","","","","fullscreen","1","3671","0.0-1.0","605ff0746397c26c436b88af","665500ab8938657b03fbdba8","665792e72c1e99aa0a212090","","","","","","","","","","","","","","","","","","","","","","","","","","",""
"","","","","","html-button-response","2","5179","0.0-2.0","605ff0746397c26c436b88af","665500ab8938657b03fbdba8","665792e72c1e99aa0a212090","1506","<p><b>Consent Form</b></p> <div style=""text-align:left;background-color:lightgrey; padding:20px; max-width:900px;""><p>Please consider this information carefully before deciding whether to participate in this research.</p> <p>The purpose of this research is to examine which factors influence social judgment and decision-making. You will be asked to make judgements about individuals and actions in social scenarios. We are simply interested in your judgement. The study will take less than 1 hour to complete, and you will receive less than $20 on Prolific. Your compensation and time commitment are specified in the study description. There are no anticipated risks associated with participating in this study. The effects of participating should be comparable to those you would ordinarily experience from viewing a computer monitor and using a mouse or keyboard for a similar amount of time. At the end of the study, we will provide an explanation of the questions that motivate this line of research and will describe the potential implications. </p><p> Your participation in this study is completely voluntary and you may refuse to participate or you may choose to withdraw at any time without penalty or loss of benefits to you which are otherwise entitled. Your participation in this study will remain confidential. No personally identifiable information will be associated with your data. Also, all analyses of the data will be averaged across all the participants, so your individual responses will never be specifically analyzed. </p><p> If you have questions or concerns about your participation or payment, or want to request a summary of research findings, please contact Dr. Jonathan Phillips at Jonathan.S.Phillips@dartmouth.edu. </p><p> Please save a copy of this form for your records. </p><p><b>Agreement: </b>The nature and purpose of this research have been sufficiently explained and I agree to participate in this study. I understand that I am free to withdraw at any time without incurring any penalty. Please consent by clicking the button below to continue. Otherwise, please exit the study at any time. </p>","0","","","","","","","","","","","","","","","","","","","","","","","",""
"","","","","","instructions","3","441963","0.0-3.0-0.0","605ff0746397c26c436b88af","665500ab8938657b03fbdba8","665792e72c1e99aa0a212090","436784","","","[{""page_index"":0,""viewing_time"":7775},{""page_index"":1,""viewing_time"":276352},{""page_index"":2,""viewing_time"":2400},{""page_index"":3,""viewing_time"":6216},{""page_index"":4,""viewing_time"":118385},{""page_index"":5,""viewing_time"":2935},{""page_index"":6,""viewing_time"":2800},{""page_index"":7,""viewing_time"":1512},{""page_index"":8,""viewing_time"":3288},{""page_index"":9,""viewing_time"":2361},{""page_index"":10,""viewing_time"":6247},{""page_index"":11,""viewing_time"":1984},{""page_index"":12,""viewing_time"":3752},{""page_index"":13,""viewing_time"":776}]","intro","","","","","","","","","","","","","","","","","","","","","",""
"","","","","","image-keyboard-response","4","444204","0.0-3.0-1.0","605ff0746397c26c436b88af","665500ab8938657b03fbdba8","665792e72c1e99aa0a212090","2237","stimuli/0101100.jpg","0","","prediction_practice","2","{""filepath"":""stimuli/0101100.jpg"",""ball_pos"":0,""ego_ball_visible"":false,""ego_can_infer"":true,""alter_ball_visible"":false,""alter_can_infer"":false,""collective_ball_visible"":false,""collective_can_infer"":false,""search_locations"":[2,0],""alter_occluders"":""101"",""ego_occluders"":""100""}","false","","","","","","","","","","","","","","","","","","",""
"","","","","","image-keyboard-response","5","445795","0.0-3.0-2.0","605ff0746397c26c436b88af","665500ab8938657b03fbdba8","665792e72c1e99aa0a212090","1588","stimuli/01011002.jpg"," ","","practrice_feedback","2","","","","","","","","","","","","","","","","","","","","",""
"","","","","","image-keyboard-response","6","446836","0.0-3.0-3.0","605ff0746397c26c436b88af","665500ab8938657b03fbdba8","665792e72c1e99aa0a212090","1039","stimuli/2011011.jpg","2","","prediction_practice","1","{""filepath"":""stimuli/2011011.jpg"",""ball_pos"":2,""ego_ball_visible"":false,""ego_can_infer"":false,""alter_ball_visible"":false,""alter_can_infer"":false,""collective_ball_visible"":false,""collective_can_infer"":false,""search_locations"":[1,2],""alter_occluders"":""011"",""ego_occluders"":""011""}","false","","","","","","","","","","","","","","","","","","",""
"","","","","","image-keyboard-response","7","447678","0.0-3.0-4.0","605ff0746397c26c436b88af","665500ab8938657b03fbdba8","665792e72c1e99aa0a212090","835","stimuli/20110111.jpg"," ","","practrice_feedback","1","","","","","","","","","","","","","","","","","","","","",""
"","","","","","image-keyboard-response","8","449187","0.0-3.0-5.0","605ff0746397c26c436b88af","665500ab8938657b03fbdba8","665792e72c1e99aa0a212090","1507","stimuli/1001101.jpg","1","","prediction_practice","1","{""filepath"":""stimuli/1001101.jpg"",""ball_pos"":1,""ego_ball_visible"":true,""ego_can_infer"":true,""alter_ball_visible"":true,""alter_can_infer"":true,""collective_ball_visible"":true,""collective_can_infer"":true,""search_locations"":[1],""alter_occluders"":""001"",""ego_occluders"":""101""}","true","","","","","","","","","","","","","","","","","","",""
"","","","","","image-keyboard-response","9","449995","0.0-3.0-6.0","605ff0746397c26c436b88af","665500ab8938657b03fbdba8","665792e72c1e99aa0a212090","806","stimuli/10011011.jpg"," ","","practrice_feedback","1","","","","","","","","","","","","","","","","","","","","",""
"","","","","","image-keyboard-response","10","451899","0.0-3.0-7.0","605ff0746397c26c436b88af","665500ab8938657b03fbdba8","665792e72c1e99aa0a212090","1902","stimuli/1010101.jpg","1","","prediction_practice","1","{""filepath"":""stimuli/1010101.jpg"",""ball_pos"":1,""ego_ball_visible"":true,""ego_can_infer"":true,""alter_ball_visible"":false,""alter_can_infer"":true,""collective_ball_visible"":false,""collective_can_infer"":true,""search_locations"":[1],""alter_occluders"":""010"",""ego_occluders"":""101""}","true","","","","","","","","","","","","","","","","","","",""
"","","","","","image-keyboard-response","11","453131","0.0-3.0-8.0","605ff0746397c26c436b88af","665500ab8938657b03fbdba8","665792e72c1e99aa0a212090","1225","stimuli/10101011.jpg"," ","","practrice_feedback","1","","","","","","","","","","","","","","","","","","","","",""
"","","","","","image-keyboard-response","12","455275","0.0-3.0-9.0","605ff0746397c26c436b88af","665500ab8938657b03fbdba8","665792e72c1e99aa0a212090","2142","stimuli/0010100.jpg","0","","prediction_practice","0","{""filepath"":""stimuli/0010100.jpg"",""ball_pos"":0,""ego_ball_visible"":false,""ego_can_infer"":true,""alter_ball_visible"":true,""alter_can_infer"":true,""collective_ball_visible"":false,""collective_can_infer"":true,""search_locations"":[0],""alter_occluders"":""010"",""ego_occluders"":""100""}","true","","","","","","","","","","","","","","","","","","",""
"","","","","","image-keyboard-response","13","456323","0.0-3.0-10.0","605ff0746397c26c436b88af","665500ab8938657b03fbdba8","665792e72c1e99aa0a212090","1046","stimuli/00101000.jpg"," ","","practrice_feedback","0","","","","","","","","","","","","","","","","","","","","",""
"","","","","","image-keyboard-response","14","457442","0.0-3.0-11.0","605ff0746397c26c436b88af","665500ab8938657b03fbdba8","665792e72c1e99aa0a212090","1118","stimuli/1100101.jpg","1","","prediction_practice","1","{""filepath"":""stimuli/1100101.jpg"",""ball_pos"":1,""ego_ball_visible"":true,""ego_can_infer"":true,""alter_ball_visible"":true,""alter_can_infer"":true,""collective_ball_visible"":true,""collective_can_infer"":true,""search_locations"":[1],""alter_occluders"":""100"",""ego_occluders"":""101""}","true","","","","","","","","","","","","","","","","","","",""
"","","","","","image-keyboard-response","15","457893","0.0-3.0-12.0","605ff0746397c26c436b88af","665500ab8938657b03fbdba8","665792e72c1e99aa0a212090","444","stimuli/11001011.jpg"," ","","practrice_feedback","1","","","","","","","","","","","","","","","","","","","","",""
"","","","","","image-keyboard-response","16","458482","0.0-3.0-13.0","605ff0746397c26c436b88af","665500ab8938657b03fbdba8","665792e72c1e99aa0a212090","588","stimuli/0011010.jpg","0","","prediction_practice","0","{""filepath"":""stimuli/0011010.jpg"",""ball_pos"":0,""ego_ball_visible"":true,""ego_can_infer"":true,""alter_ball_visible"":true,""alter_can_infer"":true,""collective_ball_visible"":true,""collective_can_infer"":true,""search_locations"":[0],""alter_occluders"":""011"",""ego_occluders"":""010""}","true","","","","","","","","","","","","","","","","","","",""
"","","","","","image-keyboard-response","17","458987","0.0-3.0-14.0","605ff0746397c26c436b88af","665500ab8938657b03fbdba8","665792e72c1e99aa0a212090","503","stimuli/00110100.jpg"," ","","practrice_feedback","0","","","","","","","","","","","","","","","","","","","","",""
"","","","","","image-keyboard-response","18","460163","0.0-3.0-15.0","605ff0746397c26c436b88af","665500ab8938657b03fbdba8","665792e72c1e99aa0a212090","1174","stimuli/1101010.jpg","1","","prediction_practice","1","{""filepath"":""stimuli/1101010.jpg"",""ball_pos"":1,""ego_ball_visible"":false,""ego_can_infer"":true,""alter_ball_visible"":true,""alter_can_infer"":true,""collective_ball_visible"":false,""collective_can_infer"":true,""search_locations"":[1],""alter_occluders"":""101"",""ego_occluders"":""010""}","true","","","","","","","","","","","","","","","","","","",""
"","","","","","image-keyboard-response","19","460707","0.0-3.0-16.0","605ff0746397c26c436b88af","665500ab8938657b03fbdba8","665792e72c1e99aa0a212090","537","stimuli/11010101.jpg"," ","","practrice_feedback","1","","","","","","","","","","","","","","","","","","","","",""
"","","","","","image-keyboard-response","20","463233","0.0-3.0-17.0","605ff0746397c26c436b88af","665500ab8938657b03fbdba8","665792e72c1e99aa0a212090","2525","stimuli/1010001.jpg","1","","prediction_practice","1","{""filepath"":""stimuli/1010001.jpg"",""ball_pos"":1,""ego_ball_visible"":true,""ego_can_infer"":true,""alter_ball_visible"":false,""alter_can_infer"":true,""collective_ball_visible"":false,""collective_can_infer"":true,""search_locations"":[1],""alter_occluders"":""010"",""ego_occluders"":""001""}","true","","","","","","","","","","","","","","","","","","",""
"","","","","","image-keyboard-response","21","463850","0.0-3.0-18.0","605ff0746397c26c436b88af","665500ab8938657b03fbdba8","665792e72c1e99aa0a212090","616","stimuli/10100011.jpg"," ","","practrice_feedback","1","","","","","","","","","","","","","","","","","","","","",""
"","","","","","image-keyboard-response","22","466955","0.0-3.0-19.0","605ff0746397c26c436b88af","665500ab8938657b03fbdba8","665792e72c1e99aa0a212090","3103","stimuli/1111101.jpg","1","","prediction_practice","1","{""filepath"":""stimuli/1111101.jpg"",""ball_pos"":1,""ego_ball_visible"":true,""ego_can_infer"":true,""alter_ball_visible"":false,""alter_can_infer"":false,""collective_ball_visible"":false,""collective_can_infer"":false,""search_locations"":[1,0,2],""alter_occluders"":""111"",""ego_occluders"":""101""}","true","","","","","","","","","","","","","","","","","","",""
"","","","","","image-keyboard-response","23","467459","0.0-3.0-20.0","605ff0746397c26c436b88af","665500ab8938657b03fbdba8","665792e72c1e99aa0a212090","497","stimuli/11111011.jpg"," ","","practrice_feedback","1","","","","","","","","","","","","","","","","","","","","",""
"","","","","","html-button-response","24","469427","0.0-3.0-21.0","605ff0746397c26c436b88af","665500ab8938657b03fbdba8","665792e72c1e99aa0a212090","1967","Now that you've had some practice, you'll be tested with a couple of easy trials. If you correctly predict Sam's choice, you'll move on to complete the experiment!","0","","","","","","","","","","","","","","","","","","","","","","","",""
"","","","","","image-keyboard-response","25","471027","0.0-3.0-22.0-0.0","605ff0746397c26c436b88af","665500ab8938657b03fbdba8","665792e72c1e99aa0a212090","1599","stimuli/0000011.jpg","arrowleft","","comprehension_quiz","","","true","arrowleft","","","","","","","","","","","","","","","","","",""
"","","","","","image-keyboard-response","26","471747","0.0-3.0-22.0-1.0","605ff0746397c26c436b88af","665500ab8938657b03fbdba8","665792e72c1e99aa0a212090","718","stimuli/00000110.jpg"," ","","comprehension_quiz","","","true"," ","","","","","","","","","","","","","","","","","",""
"","","","","","image-keyboard-response","27","472523","0.0-3.0-22.0-2.0","605ff0746397c26c436b88af","665500ab8938657b03fbdba8","665792e72c1e99aa0a212090","774","stimuli/1010010.jpg","arrowdown","","comprehension_quiz","","","true","arrowdown","","","","","","","","","","","","","","","","","",""
"","","","","","image-keyboard-response","28","473307","0.0-3.0-22.0-3.0","605ff0746397c26c436b88af","665500ab8938657b03fbdba8","665792e72c1e99aa0a212090","778","stimuli/10100101.jpg"," ","","comprehension_quiz","","","true"," ","","","","","","","","","","","","","","","","","",""
"","","","","","html-button-response","29","475226","0.0-4.0","605ff0746397c26c436b88af","665500ab8938657b03fbdba8","665792e72c1e99aa0a212090","1916","The experiment will now begin.","0","","","","","","","","","","","","","","","","","","","","","","","",""
"","","","","","image-keyboard-response","30","476251","0.0-5.0","605ff0746397c26c436b88af","665500ab8938657b03fbdba8","665792e72c1e99aa0a212090","1023","stimuli/0010001.jpg","0","","prediction_trial","0","","true","","0","true","true","true","true","true","true","[0]","010","001","1","","","","","","",""
"","","","","","image-keyboard-response","31","476803","0.0-6.0","605ff0746397c26c436b88af","665500ab8938657b03fbdba8","665792e72c1e99aa0a212090","550","stimuli/00100010.jpg"," ","","feedback_trial","0","","","","","","","","","","","","","","","","","","","","",""
"","","","","","image-keyboard-response","32","477835","0.0-7.0","605ff0746397c26c436b88af","665500ab8938657b03fbdba8","665792e72c1e99aa0a212090","1031","stimuli/2011000.jpg","2","","prediction_trial","2","","true","","2","true","true","false","false","false","false","[1,2]","011","000","1","","","","","","",""
"","","","","","image-keyboard-response","33","478531","0.0-8.0","605ff0746397c26c436b88af","665500ab8938657b03fbdba8","665792e72c1e99aa0a212090","689","stimuli/20110002.jpg"," ","","feedback_trial","1","","","","","","","","","","","","","","","","","","","","",""
"","","","","","image-keyboard-response","34","479766","0.0-9.0","605ff0746397c26c436b88af","665500ab8938657b03fbdba8","665792e72c1e99aa0a212090","1233","stimuli/0100010.jpg","0","","prediction_trial","0","","true","","0","true","true","false","true","false","true","[0]","100","010","1","","","","","","",""
"","","","","","image-keyboard-response","35","480155","0.0-10.0","605ff0746397c26c436b88af","665500ab8938657b03fbdba8","665792e72c1e99aa0a212090","387","stimuli/01000100.jpg"," ","","feedback_trial","0","","","","","","","","","","","","","","","","","","","","",""
"","","","","","image-keyboard-response","36","481203","0.0-11.0","605ff0746397c26c436b88af","665500ab8938657b03fbdba8","665792e72c1e99aa0a212090","1047","stimuli/0011101.jpg","2","","prediction_trial","0","","false","","0","false","false","true","true","false","false","[0]","011","101","0","","","","","","",""
"","","","","","image-keyboard-response","37","482659","0.0-12.0","605ff0746397c26c436b88af","665500ab8938657b03fbdba8","665792e72c1e99aa0a212090","1450","stimuli/00111010.jpg"," ","","feedback_trial","0","","","","","","","","","","","","","","","","","","","","",""
"","","","","","image-keyboard-response","38","483419","0.0-13.0","605ff0746397c26c436b88af","665500ab8938657b03fbdba8","665792e72c1e99aa0a212090","759","stimuli/1111001.jpg","1","","prediction_trial","1","","true","","1","true","true","false","false","false","false","[2,0,1]","111","001","1","","","","","","",""
"","","","","","image-keyboard-response","39","484043","0.0-14.0","605ff0746397c26c436b88af","665500ab8938657b03fbdba8","665792e72c1e99aa0a212090","622","stimuli/11110011.jpg"," ","","feedback_trial","2","","","","","","","","","","","","","","","","","","","","",""
"","","","","","image-keyboard-response","40","484779","0.0-15.0","605ff0746397c26c436b88af","665500ab8938657b03fbdba8","665792e72c1e99aa0a212090","735","stimuli/2100110.jpg","2","","prediction_trial","2","","true","","2","true","true","true","true","true","true","[2]","100","110","1","","","","","","",""
"","","","","","image-keyboard-response","41","485283","0.0-16.0","605ff0746397c26c436b88af","665500ab8938657b03fbdba8","665792e72c1e99aa0a212090","497","stimuli/21001102.jpg"," ","","feedback_trial","2","","","","","","","","","","","","","","","","","","","","",""
"","","","","","image-keyboard-response","42","487091","0.0-17.0","605ff0746397c26c436b88af","665500ab8938657b03fbdba8","665792e72c1e99aa0a212090","1807","stimuli/1110001.jpg","1","","prediction_trial","1","","true","","1","true","true","false","false","false","false","[0,1]","110","001","1","","","","","","",""
"","","","","","image-keyboard-response","43","487555","0.0-18.0","605ff0746397c26c436b88af","665500ab8938657b03fbdba8","665792e72c1e99aa0a212090","462","stimuli/11100011.jpg"," ","","feedback_trial","0","","","","","","","","","","","","","","","","","","","","",""
"","","","","","image-keyboard-response","44","488275","0.0-19.0","605ff0746397c26c436b88af","665500ab8938657b03fbdba8","665792e72c1e99aa0a212090","718","stimuli/0000000.jpg","0","","prediction_trial","0","","true","","0","true","true","true","true","true","true","[0]","000","000","1","","","","","","",""
"","","","","","image-keyboard-response","45","488627","0.0-20.0","605ff0746397c26c436b88af","665500ab8938657b03fbdba8","665792e72c1e99aa0a212090","344","stimuli/00000000.jpg"," ","","feedback_trial","0","","","","","","","","","","","","","","","","","","","","",""
"","","","","","image-keyboard-response","46","489299","0.0-21.0","605ff0746397c26c436b88af","665500ab8938657b03fbdba8","665792e72c1e99aa0a212090","671","stimuli/2000001.jpg","2","","prediction_trial","2","","true","","2","false","true","true","true","false","true","[2]","000","001","1","","","","","","",""
"","","","","","image-keyboard-response","47","489731","0.0-22.0","605ff0746397c26c436b88af","665500ab8938657b03fbdba8","665792e72c1e99aa0a212090","430","stimuli/20000012.jpg"," ","","feedback_trial","2","","","","","","","","","","","","","","","","","","","","",""
"","","","","","image-keyboard-response","48","490902","0.0-23.0","605ff0746397c26c436b88af","665500ab8938657b03fbdba8","665792e72c1e99aa0a212090","1170","stimuli/2111100.jpg","2","","prediction_trial","1","","false","","2","true","true","false","false","false","false","[1,0,2]","111","100","0","","","","","","",""
"","","","","","image-keyboard-response","49","491387","0.0-24.0","605ff0746397c26c436b88af","665500ab8938657b03fbdba8","665792e72c1e99aa0a212090","481","stimuli/21111001.jpg"," ","","feedback_trial","1","","","","","","","","","","","","","","","","","","","","",""
"","","","","","image-keyboard-response","50","492155","0.0-25.0","605ff0746397c26c436b88af","665500ab8938657b03fbdba8","665792e72c1e99aa0a212090","766","stimuli/1101101.jpg","1","","prediction_trial","1","","true","","1","true","true","true","true","true","true","[1]","101","101","1","","","","","","",""
"","","","","","image-keyboard-response","51","492507","0.0-26.0","605ff0746397c26c436b88af","665500ab8938657b03fbdba8","665792e72c1e99aa0a212090","351","stimuli/11011011.jpg"," ","","feedback_trial","1","","","","","","","","","","","","","","","","","","","","",""
"","","","","","image-keyboard-response","52","493131","0.0-27.0","605ff0746397c26c436b88af","665500ab8938657b03fbdba8","665792e72c1e99aa0a212090","622","stimuli/0011001.jpg","0","","prediction_trial","0","","true","","0","true","true","true","true","true","true","[0]","011","001","1","","","","","","",""
"","","","","","image-keyboard-response","53","493411","0.0-28.0","605ff0746397c26c436b88af","665500ab8938657b03fbdba8","665792e72c1e99aa0a212090","273","stimuli/00110010.jpg"," ","","feedback_trial","0","","","","","","","","","","","","","","","","","","","","",""
"","","","","","image-keyboard-response","54","494363","0.0-29.0","605ff0746397c26c436b88af","665500ab8938657b03fbdba8","665792e72c1e99aa0a212090","950","stimuli/1011101.jpg","1","","prediction_trial","2","","false","","1","true","true","false","false","false","false","[1,2]","011","101","0","","","","","","",""
"","","","","","image-keyboard-response","55","494947","0.0-30.0","605ff0746397c26c436b88af","665500ab8938657b03fbdba8","665792e72c1e99aa0a212090","582","stimuli/10111012.jpg"," ","","feedback_trial","1","","","","","","","","","","","","","","","","","","","","",""
"","","","","","image-keyboard-response","56","496619","0.0-31.0","605ff0746397c26c436b88af","665500ab8938657b03fbdba8","665792e72c1e99aa0a212090","1671","stimuli/0010101.jpg","0","","prediction_trial","0","","true","","0","false","false","true","true","false","false","[0]","010","101","1","","","","","","",""
"","","","","","image-keyboard-response","57","497307","0.0-32.0","605ff0746397c26c436b88af","665500ab8938657b03fbdba8","665792e72c1e99aa0a212090","681","stimuli/00101010.jpg"," ","","feedback_trial","0","","","","","","","","","","","","","","","","","","","","",""
"","","","","","image-keyboard-response","58","498187","0.0-33.0","605ff0746397c26c436b88af","665500ab8938657b03fbdba8","665792e72c1e99aa0a212090","878","stimuli/2000101.jpg","0","","prediction_trial","2","","false","","2","false","false","true","true","false","false","[2]","000","101","0","","","","","","",""
"","","","","","image-keyboard-response","59","498802","0.0-34.0","605ff0746397c26c436b88af","665500ab8938657b03fbdba8","665792e72c1e99aa0a212090","614","stimuli/20001012.jpg"," ","","feedback_trial","2","","","","","","","","","","","","","","","","","","","","",""
"","","","","","image-keyboard-response","60","499507","0.0-35.0","605ff0746397c26c436b88af","665500ab8938657b03fbdba8","665792e72c1e99aa0a212090","704","stimuli/1001001.jpg","1","","prediction_trial","1","","true","","1","true","true","true","true","true","true","[1]","001","001","1","","","","","","",""
"","","","","","image-keyboard-response","61","499939","0.0-36.0","605ff0746397c26c436b88af","665500ab8938657b03fbdba8","665792e72c1e99aa0a212090","426","stimuli/10010011.jpg"," ","","feedback_trial","1","","","","","","","","","","","","","","","","","","","","",""
"","","","","","image-keyboard-response","62","500982","0.0-37.0","605ff0746397c26c436b88af","665500ab8938657b03fbdba8","665792e72c1e99aa0a212090","1041","stimuli/2011100.jpg","2","","prediction_trial","2","","true","","2","true","true","false","false","false","false","[1,2]","011","100","1","","","","","","",""
"","","","","","image-keyboard-response","63","501475","0.0-38.0","605ff0746397c26c436b88af","665500ab8938657b03fbdba8","665792e72c1e99aa0a212090","491","stimuli/20111002.jpg"," ","","feedback_trial","1","","","","","","","","","","","","","","","","","","","","",""
"","","","","","image-keyboard-response","64","502131","0.0-39.0","605ff0746397c26c436b88af","665500ab8938657b03fbdba8","665792e72c1e99aa0a212090","655","stimuli/0011011.jpg","0","","prediction_trial","0","","true","","0","true","true","true","true","true","true","[0]","011","011","1","","","","","","",""
"","","","","","image-keyboard-response","65","502419","0.0-40.0","605ff0746397c26c436b88af","665500ab8938657b03fbdba8","665792e72c1e99aa0a212090","280","stimuli/00110110.jpg"," ","","feedback_trial","0","","","","","","","","","","","","","","","","","","","","",""
"","","","","","image-keyboard-response","66","502939","0.0-41.0","605ff0746397c26c436b88af","665500ab8938657b03fbdba8","665792e72c1e99aa0a212090","519","stimuli/1010101.jpg","1","","prediction_trial","1","","true","","1","true","true","false","true","false","true","[1]","010","101","1","","","","","","",""
"","","","","","image-keyboard-response","67","503339","0.0-42.0","605ff0746397c26c436b88af","665500ab8938657b03fbdba8","665792e72c1e99aa0a212090","399","stimuli/10101011.jpg"," ","","feedback_trial","1","","","","","","","","","","","","","","","","","","","","",""
"","","","","","image-keyboard-response","68","503971","0.0-43.0","605ff0746397c26c436b88af","665500ab8938657b03fbdba8","665792e72c1e99aa0a212090","631","stimuli/0111100.jpg","0","","prediction_trial","0","","true","","0","false","true","false","false","false","false","[1,2,0]","111","100","1","","","","","","",""
"","","","","","image-keyboard-response","69","504339","0.0-44.0","605ff0746397c26c436b88af","665500ab8938657b03fbdba8","665792e72c1e99aa0a212090","361","stimuli/01111000.jpg"," ","","feedback_trial","1","","","","","","","","","","","","","","","","","","","","",""
"","","","","","image-keyboard-response","70","504834","0.0-45.0","605ff0746397c26c436b88af","665500ab8938657b03fbdba8","665792e72c1e99aa0a212090","494","stimuli/2011110.jpg","2","","prediction_trial","2","","true","","2","true","true","false","false","false","false","[2,1]","011","110","1","","","","","","",""
"","","","","","image-keyboard-response","71","505371","0.0-46.0","605ff0746397c26c436b88af","665500ab8938657b03fbdba8","665792e72c1e99aa0a212090","535","stimuli/20111102.jpg"," ","","feedback_trial","2","","","","","","","","","","","","","","","","","","","","",""
"","","","","","image-keyboard-response","72","505971","0.0-47.0","605ff0746397c26c436b88af","665500ab8938657b03fbdba8","665792e72c1e99aa0a212090","599","stimuli/1001111.jpg","2","","prediction_trial","1","","false","","1","false","false","true","true","false","false","[1]","001","111","0","","","","","","",""
"","","","","","image-keyboard-response","73","506611","0.0-48.0","605ff0746397c26c436b88af","665500ab8938657b03fbdba8","665792e72c1e99aa0a212090","634","stimuli/10011111.jpg"," ","","feedback_trial","1","","","","","","","","","","","","","","","","","","","","",""
"","","","","","image-keyboard-response","74","507163","0.0-49.0","605ff0746397c26c436b88af","665500ab8938657b03fbdba8","665792e72c1e99aa0a212090","550","stimuli/1000100.jpg","1","","prediction_trial","1","","true","","1","true","true","true","true","true","true","[1]","000","100","1","","","","","","",""
"","","","","","image-keyboard-response","75","508443","0.0-50.0","605ff0746397c26c436b88af","665500ab8938657b03fbdba8","665792e72c1e99aa0a212090","1279","stimuli/10001001.jpg"," ","","feedback_trial","1","","","","","","","","","","","","","","","","","","","","",""
"","","","","","image-keyboard-response","76","509555","0.0-51.0","605ff0746397c26c436b88af","665500ab8938657b03fbdba8","665792e72c1e99aa0a212090","1110","stimuli/0000101.jpg","0","","prediction_trial","0","","true","","0","false","false","true","true","false","false","[0]","000","101","1","","","","","","",""
"","","","","","image-keyboard-response","77","510179","0.0-52.0","605ff0746397c26c436b88af","665500ab8938657b03fbdba8","665792e72c1e99aa0a212090","617","stimuli/00001010.jpg"," ","","feedback_trial","0","","","","","","","","","","","","","","","","","","","","",""
"","","","","","image-keyboard-response","78","510763","0.0-53.0","605ff0746397c26c436b88af","665500ab8938657b03fbdba8","665792e72c1e99aa0a212090","582","stimuli/2111010.jpg","2","","prediction_trial","0","","false","","2","true","true","false","false","false","false","[2,0,1]","111","010","0","","","","","","",""
"","","","","","image-keyboard-response","79","512126","0.0-54.0","605ff0746397c26c436b88af","665500ab8938657b03fbdba8","665792e72c1e99aa0a212090","1361","stimuli/21110100.jpg"," ","","feedback_trial","2","","","","","","","","","","","","","","","","","","","","",""
"","","","","","image-keyboard-response","80","512907","0.0-55.0","605ff0746397c26c436b88af","665500ab8938657b03fbdba8","665792e72c1e99aa0a212090","779","stimuli/2010010.jpg","2","","prediction_trial","2","","true","","2","true","true","true","true","true","true","[2]","010","010","1","","","","","","",""
"","","","","","image-keyboard-response","81","513243","0.0-56.0","605ff0746397c26c436b88af","665500ab8938657b03fbdba8","665792e72c1e99aa0a212090","330","stimuli/20100102.jpg"," ","","feedback_trial","2","","","","","","","","","","","","","","","","","","","","",""
"","","","","","image-keyboard-response","82","513795","0.0-57.0","605ff0746397c26c436b88af","665500ab8938657b03fbdba8","665792e72c1e99aa0a212090","550","stimuli/2000010.jpg","2","","prediction_trial","2","","true","","2","true","true","true","true","true","true","[2]","000","010","1","","","","","","",""
"","","","","","image-keyboard-response","83","514179","0.0-58.0","605ff0746397c26c436b88af","665500ab8938657b03fbdba8","665792e72c1e99aa0a212090","382","stimuli/20000102.jpg"," ","","feedback_trial","2","","","","","","","","","","","","","","","","","","","","",""
"","","","","","image-keyboard-response","84","515163","0.0-59.0","605ff0746397c26c436b88af","665500ab8938657b03fbdba8","665792e72c1e99aa0a212090","983","stimuli/1000110.jpg","1","","prediction_trial","1","","true","","1","false","false","true","true","false","false","[1]","000","110","1","","","","","","",""
"","","","","","image-keyboard-response","85","515786","0.0-60.0","605ff0746397c26c436b88af","665500ab8938657b03fbdba8","665792e72c1e99aa0a212090","615","stimuli/10001101.jpg"," ","","feedback_trial","1","","","","","","","","","","","","","","","","","","","","",""
"","","","","","image-keyboard-response","86","516395","0.0-61.0","605ff0746397c26c436b88af","665500ab8938657b03fbdba8","665792e72c1e99aa0a212090","608","stimuli/2000100.jpg","2","","prediction_trial","2","","true","","2","true","true","true","true","true","true","[2]","000","100","1","","","","","","",""
"","","","","","image-keyboard-response","87","516714","0.0-62.0","605ff0746397c26c436b88af","665500ab8938657b03fbdba8","665792e72c1e99aa0a212090","318","stimuli/20001002.jpg"," ","","feedback_trial","2","","","","","","","","","","","","","","","","","","","","",""
"","","","","","image-keyboard-response","88","518347","0.0-63.0","605ff0746397c26c436b88af","665500ab8938657b03fbdba8","665792e72c1e99aa0a212090","1633","stimuli/2010101.jpg","2","","prediction_trial","2","","true","","2","false","false","true","true","false","false","[2]","010","101","1","","","","","","",""
"","","","","","image-keyboard-response","89","518907","0.0-64.0","605ff0746397c26c436b88af","665500ab8938657b03fbdba8","665792e72c1e99aa0a212090","552","stimuli/20101012.jpg"," ","","feedback_trial","2","","","","","","","","","","","","","","","","","","","","",""
"","","","","","image-keyboard-response","90","519499","0.0-65.0","605ff0746397c26c436b88af","665500ab8938657b03fbdba8","665792e72c1e99aa0a212090","590","stimuli/1100101.jpg","1","","prediction_trial","1","","true","","1","true","true","true","true","true","true","[1]","100","101","1","","","","","","",""
"","","","","","image-keyboard-response","91","519763","0.0-66.0","605ff0746397c26c436b88af","665500ab8938657b03fbdba8","665792e72c1e99aa0a212090","262","stimuli/11001011.jpg"," ","","feedback_trial","1","","","","","","","","","","","","","","","","","","","","",""
"","","","","","image-keyboard-response","92","522310","0.0-67.0","605ff0746397c26c436b88af","665500ab8938657b03fbdba8","665792e72c1e99aa0a212090","2546","stimuli/2100101.jpg","0","","prediction_trial","2","","false","","2","false","false","true","true","false","false","[2]","100","101","0","","","","","","",""
"","","","","","image-keyboard-response","93","522971","0.0-68.0","605ff0746397c26c436b88af","665500ab8938657b03fbdba8","665792e72c1e99aa0a212090","654","stimuli/21001012.jpg"," ","","feedback_trial","2","","","","","","","","","","","","","","","","","","","","",""
"","","","","","image-keyboard-response","94","523826","0.0-69.0","605ff0746397c26c436b88af","665500ab8938657b03fbdba8","665792e72c1e99aa0a212090","854","stimuli/0100001.jpg","0","","prediction_trial","0","","true","","0","true","true","false","true","false","true","[0]","100","001","1","","","","","","",""
"","","","","","image-keyboard-response","95","524363","0.0-70.0","605ff0746397c26c436b88af","665500ab8938657b03fbdba8","665792e72c1e99aa0a212090","536","stimuli/01000010.jpg"," ","","feedback_trial","0","","","","","","","","","","","","","","","","","","","","",""
"","","","","","image-keyboard-response","96","525507","0.0-71.0","605ff0746397c26c436b88af","665500ab8938657b03fbdba8","665792e72c1e99aa0a212090","1142","stimuli/2111111.jpg","0","","prediction_trial","2","","false","","2","false","false","false","false","false","false","[0,2,1]","111","111","0","","","","","","",""
"","","","","","image-keyboard-response","97","526115","0.0-72.0","605ff0746397c26c436b88af","665500ab8938657b03fbdba8","665792e72c1e99aa0a212090","600","stimuli/21111112.jpg"," ","","feedback_trial","0","","","","","","","","","","","","","","","","","","","","",""
"","","","","","image-keyboard-response","98","527355","0.0-73.0","605ff0746397c26c436b88af","665500ab8938657b03fbdba8","665792e72c1e99aa0a212090","1238","stimuli/0111101.jpg","0","","prediction_trial","1","","false","","0","false","false","false","false","false","false","[0,1,2]","111","101","0","","","","","","",""
"","","","","","image-keyboard-response","99","528059","0.0-74.0","605ff0746397c26c436b88af","665500ab8938657b03fbdba8","665792e72c1e99aa0a212090","703","stimuli/01111011.jpg"," ","","feedback_trial","0","","","","","","","","","","","","","","","","","","","","",""
"","","","","","image-keyboard-response","100","528835","0.0-75.0","605ff0746397c26c436b88af","665500ab8938657b03fbdba8","665792e72c1e99aa0a212090","774","stimuli/2000110.jpg","2","","prediction_trial","2","","true","","2","true","true","true","true","true","true","[2]","000","110","1","","","","","","",""
"","","","","","image-keyboard-response","101","529244","0.0-76.0","605ff0746397c26c436b88af","665500ab8938657b03fbdba8","665792e72c1e99aa0a212090","404","stimuli/20001102.jpg"," ","","feedback_trial","2","","","","","","","","","","","","","","","","","","","","",""
"","","","","","image-keyboard-response","102","530811","0.0-77.0","605ff0746397c26c436b88af","665500ab8938657b03fbdba8","665792e72c1e99aa0a212090","1565","stimuli/2011101.jpg","0","","prediction_trial","1","","false","","2","false","false","false","false","false","false","[2,1]","011","101","0","","","","","","",""
"","","","","","image-keyboard-response","103","531339","0.0-78.0","605ff0746397c26c436b88af","665500ab8938657b03fbdba8","665792e72c1e99aa0a212090","527","stimuli/20111011.jpg"," ","","feedback_trial","2","","","","","","","","","","","","","","","","","","","","",""
"","","","","","image-keyboard-response","104","533214","0.0-79.0","605ff0746397c26c436b88af","665500ab8938657b03fbdba8","665792e72c1e99aa0a212090","1874","stimuli/1000010.jpg","1","","prediction_trial","1","","true","","1","false","true","true","true","false","true","[1]","000","010","1","","","","","","",""
"","","","","","image-keyboard-response","105","533651","0.0-80.0","605ff0746397c26c436b88af","665500ab8938657b03fbdba8","665792e72c1e99aa0a212090","430","stimuli/10000101.jpg"," ","","feedback_trial","1","","","","","","","","","","","","","","","","","","","","",""
"","","","","","image-keyboard-response","106","534219","0.0-81.0","605ff0746397c26c436b88af","665500ab8938657b03fbdba8","665792e72c1e99aa0a212090","567","stimuli/0001000.jpg","0","","prediction_trial","0","","true","","0","true","true","true","true","true","true","[0]","001","000","1","","","","","","",""
"","","","","","image-keyboard-response","107","534699","0.0-82.0","605ff0746397c26c436b88af","665500ab8938657b03fbdba8","665792e72c1e99aa0a212090","478","stimuli/00010000.jpg"," ","","feedback_trial","0","","","","","","","","","","","","","","","","","","","","",""
"","","","","","image-keyboard-response","108","535235","0.0-83.0","605ff0746397c26c436b88af","665500ab8938657b03fbdba8","665792e72c1e99aa0a212090","534","stimuli/2010000.jpg","2","","prediction_trial","2","","true","","2","true","true","true","true","true","true","[2]","010","000","1","","","","","","",""
"","","","","","image-keyboard-response","109","535595","0.0-84.0","605ff0746397c26c436b88af","665500ab8938657b03fbdba8","665792e72c1e99aa0a212090","352","stimuli/20100002.jpg"," ","","feedback_trial","2","","","","","","","","","","","","","","","","","","","","",""
"","","","","","image-keyboard-response","110","536723","0.0-85.0","605ff0746397c26c436b88af","665500ab8938657b03fbdba8","665792e72c1e99aa0a212090","1126","stimuli/1011001.jpg","1","","prediction_trial","2","","false","","1","true","true","false","false","false","false","[2,1]","011","001","0","","","","","","",""
"","","","","","image-keyboard-response","111","537107","0.0-86.0","605ff0746397c26c436b88af","665500ab8938657b03fbdba8","665792e72c1e99aa0a212090","382","stimuli/10110012.jpg"," ","","feedback_trial","2","","","","","","","","","","","","","","","","","","","","",""
"","","","","","image-keyboard-response","112","537698","0.0-87.0","605ff0746397c26c436b88af","665500ab8938657b03fbdba8","665792e72c1e99aa0a212090","590","stimuli/0110100.jpg","0","","prediction_trial","0","","true","","0","false","true","false","false","false","false","[1,0]","110","100","1","","","","","","",""
"","","","","","image-keyboard-response","113","538211","0.0-88.0","605ff0746397c26c436b88af","665500ab8938657b03fbdba8","665792e72c1e99aa0a212090","505","stimuli/01101000.jpg"," ","","feedback_trial","1","","","","","","","","","","","","","","","","","","","","",""
"","","","","","image-keyboard-response","114","538851","0.0-89.0","605ff0746397c26c436b88af","665500ab8938657b03fbdba8","665792e72c1e99aa0a212090","639","stimuli/0000100.jpg","0","","prediction_trial","0","","true","","0","false","true","true","true","false","true","[0]","000","100","1","","","","","","",""
"","","","","","image-keyboard-response","115","539251","0.0-90.0","605ff0746397c26c436b88af","665500ab8938657b03fbdba8","665792e72c1e99aa0a212090","399","stimuli/00001000.jpg"," ","","feedback_trial","0","","","","","","","","","","","","","","","","","","","","",""
"","","","","","image-keyboard-response","116","541291","0.0-91.0","605ff0746397c26c436b88af","665500ab8938657b03fbdba8","665792e72c1e99aa0a212090","2039","stimuli/0101110.jpg","1","","prediction_trial","0","","false","","0","false","false","false","false","false","false","[2,0]","101","110","0","","","","","","",""
"","","","","","image-keyboard-response","117","541875","0.0-92.0","605ff0746397c26c436b88af","665500ab8938657b03fbdba8","665792e72c1e99aa0a212090","574","stimuli/01011100.jpg"," ","","feedback_trial","2","","","","","","","","","","","","","","","","","","","","",""
"","","","","","image-keyboard-response","118","542506","0.0-93.0","605ff0746397c26c436b88af","665500ab8938657b03fbdba8","665792e72c1e99aa0a212090","630","stimuli/0111011.jpg","0","","prediction_trial","1","","false","","0","true","true","false","false","false","false","[1,0,2]","111","011","0","","","","","","",""
"","","","","","image-keyboard-response","119","543067","0.0-94.0","605ff0746397c26c436b88af","665500ab8938657b03fbdba8","665792e72c1e99aa0a212090","559","stimuli/01110111.jpg"," ","","feedback_trial","1","","","","","","","","","","","","","","","","","","","","",""
"","","","","","image-keyboard-response","120","543671","0.0-95.0","605ff0746397c26c436b88af","665500ab8938657b03fbdba8","665792e72c1e99aa0a212090","602","stimuli/2000000.jpg","2","","prediction_trial","2","","true","","2","true","true","true","true","true","true","[2]","000","000","1","","","","","","",""
"","","","","","image-keyboard-response","121","544115","0.0-96.0","605ff0746397c26c436b88af","665500ab8938657b03fbdba8","665792e72c1e99aa0a212090","440","stimuli/20000002.jpg"," ","","feedback_trial","2","","","","","","","","","","","","","","","","","","","","",""
"","","","","","image-keyboard-response","122","544675","0.0-97.0","605ff0746397c26c436b88af","665500ab8938657b03fbdba8","665792e72c1e99aa0a212090","559","stimuli/0101100.jpg","0","","prediction_trial","2","","false","","0","false","true","false","false","false","false","[2,0]","101","100","0","","","","","","",""
"","","","","","image-keyboard-response","123","545771","0.0-98.0","605ff0746397c26c436b88af","665500ab8938657b03fbdba8","665792e72c1e99aa0a212090","1095","stimuli/01011002.jpg"," ","","feedback_trial","2","","","","","","","","","","","","","","","","","","","","",""
"","","","","","image-keyboard-response","124","546787","0.0-99.0","605ff0746397c26c436b88af","665500ab8938657b03fbdba8","665792e72c1e99aa0a212090","1014","stimuli/1001010.jpg","1","","prediction_trial","1","","true","","1","false","true","true","true","false","true","[1]","001","010","1","","","","","","",""
"","","","","","image-keyboard-response","125","547155","0.0-100.0","605ff0746397c26c436b88af","665500ab8938657b03fbdba8","665792e72c1e99aa0a212090","361","stimuli/10010101.jpg"," ","","feedback_trial","1","","","","","","","","","","","","","","","","","","","","",""
"","","","","","image-keyboard-response","126","548331","0.0-101.0","605ff0746397c26c436b88af","665500ab8938657b03fbdba8","665792e72c1e99aa0a212090","1174","stimuli/2011011.jpg","2","","prediction_trial","2","","true","","2","false","false","false","false","false","false","[1,2]","011","011","1","","","","","","",""
"","","","","","image-keyboard-response","127","548843","0.0-102.0","605ff0746397c26c436b88af","665500ab8938657b03fbdba8","665792e72c1e99aa0a212090","510","stimuli/20110112.jpg"," ","","feedback_trial","1","","","","","","","","","","","","","","","","","","","","",""
"","","","","","image-keyboard-response","128","549890","0.0-103.0","605ff0746397c26c436b88af","665500ab8938657b03fbdba8","665792e72c1e99aa0a212090","1046","stimuli/1110010.jpg","1","","prediction_trial","0","","false","","1","false","true","false","false","false","false","[0,1]","110","010","0","","","","","","",""
"","","","","","image-keyboard-response","129","550387","0.0-104.0","605ff0746397c26c436b88af","665500ab8938657b03fbdba8","665792e72c1e99aa0a212090","493","stimuli/11100100.jpg"," ","","feedback_trial","0","","","","","","","","","","","","","","","","","","","","",""
"","","","","","image-keyboard-response","130","551715","0.0-105.0","605ff0746397c26c436b88af","665500ab8938657b03fbdba8","665792e72c1e99aa0a212090","1327","stimuli/0010100.jpg","0","","prediction_trial","0","","true","","0","false","true","true","true","false","true","[0]","010","100","1","","","","","","",""
"","","","","","image-keyboard-response","131","552099","0.0-106.0","605ff0746397c26c436b88af","665500ab8938657b03fbdba8","665792e72c1e99aa0a212090","382","stimuli/00101000.jpg"," ","","feedback_trial","0","","","","","","","","","","","","","","","","","","","","",""
"","","","","","image-keyboard-response","132","553091","0.0-107.0","605ff0746397c26c436b88af","665500ab8938657b03fbdba8","665792e72c1e99aa0a212090","991","stimuli/1001110.jpg","0","","prediction_trial","1","","false","","1","false","false","true","true","false","false","[1]","001","110","0","","","","","","",""
"","","","","","image-keyboard-response","133","553579","0.0-108.0","605ff0746397c26c436b88af","665500ab8938657b03fbdba8","665792e72c1e99aa0a212090","481","stimuli/10011101.jpg"," ","","feedback_trial","1","","","","","","","","","","","","","","","","","","","","",""
"","","","","","image-keyboard-response","134","554390","0.0-109.0","605ff0746397c26c436b88af","665500ab8938657b03fbdba8","665792e72c1e99aa0a212090","810","stimuli/0111111.jpg","1","","prediction_trial","1","","true","","0","false","false","false","false","false","false","[1,2,0]","111","111","1","","","","","","",""
"","","","","","image-keyboard-response","135","554811","0.0-110.0","605ff0746397c26c436b88af","665500ab8938657b03fbdba8","665792e72c1e99aa0a212090","419","stimuli/01111111.jpg"," ","","feedback_trial","1","","","","","","","","","","","","","","","","","","","","",""
"","","","","","image-keyboard-response","136","555347","0.0-111.0","605ff0746397c26c436b88af","665500ab8938657b03fbdba8","665792e72c1e99aa0a212090","535","stimuli/1000001.jpg","1","","prediction_trial","1","","true","","1","true","true","true","true","true","true","[1]","000","001","1","","","","","","",""
"","","","","","image-keyboard-response","137","555747","0.0-112.0","605ff0746397c26c436b88af","665500ab8938657b03fbdba8","665792e72c1e99aa0a212090","394","stimuli/10000011.jpg"," ","","feedback_trial","1","","","","","","","","","","","","","","","","","","","","",""
"","","","","","image-keyboard-response","138","556195","0.0-113.0","605ff0746397c26c436b88af","665500ab8938657b03fbdba8","665792e72c1e99aa0a212090","447","stimuli/1001101.jpg","1","","prediction_trial","1","","true","","1","true","true","true","true","true","true","[1]","001","101","1","","","","","","",""
"","","","","","image-keyboard-response","139","556587","0.0-114.0","605ff0746397c26c436b88af","665500ab8938657b03fbdba8","665792e72c1e99aa0a212090","390","stimuli/10011011.jpg"," ","","feedback_trial","1","","","","","","","","","","","","","","","","","","","","",""
"","","","","","image-keyboard-response","140","557675","0.0-115.0","605ff0746397c26c436b88af","665500ab8938657b03fbdba8","665792e72c1e99aa0a212090","1086","stimuli/1111110.jpg","1","","prediction_trial","1","","true","","1","false","false","false","false","false","false","[0,1,2]","111","110","1","","","","","","",""
"","","","","","image-keyboard-response","141","558067","0.0-116.0","605ff0746397c26c436b88af","665500ab8938657b03fbdba8","665792e72c1e99aa0a212090","384","stimuli/11111101.jpg"," ","","feedback_trial","0","","","","","","","","","","","","","","","","","","","","",""
"","","","","","image-keyboard-response","142","559067","0.0-117.0","605ff0746397c26c436b88af","665500ab8938657b03fbdba8","665792e72c1e99aa0a212090","999","stimuli/1100011.jpg","1","","prediction_trial","1","","true","","1","false","false","true","true","false","false","[1]","100","011","1","","","","","","",""
"","","","","","image-keyboard-response","143","559627","0.0-118.0","605ff0746397c26c436b88af","665500ab8938657b03fbdba8","665792e72c1e99aa0a212090","558","stimuli/11000111.jpg"," ","","feedback_trial","1","","","","","","","","","","","","","","","","","","","","",""
"","","","","","image-keyboard-response","144","560987","0.0-119.0","605ff0746397c26c436b88af","665500ab8938657b03fbdba8","665792e72c1e99aa0a212090","1358","stimuli/2101101.jpg","0","","prediction_trial","2","","false","","2","false","false","false","false","false","false","[0,2]","101","101","0","","","","","","",""
"","","","","","image-keyboard-response","145","561467","0.0-120.0","605ff0746397c26c436b88af","665500ab8938657b03fbdba8","665792e72c1e99aa0a212090","472","stimuli/21011012.jpg"," ","","feedback_trial","0","","","","","","","","","","","","","","","","","","","","",""
"","","","","","image-keyboard-response","146","562131","0.0-121.0","605ff0746397c26c436b88af","665500ab8938657b03fbdba8","665792e72c1e99aa0a212090","662","stimuli/1101111.jpg","1","","prediction_trial","1","","true","","1","false","false","true","true","false","false","[1]","101","111","1","","","","","","",""
"","","","","","image-keyboard-response","147","562683","0.0-122.0","605ff0746397c26c436b88af","665500ab8938657b03fbdba8","665792e72c1e99aa0a212090","551","stimuli/11011111.jpg"," ","","feedback_trial","1","","","","","","","","","","","","","","","","","","","","",""
"","","","","","image-keyboard-response","148","563155","0.0-123.0","605ff0746397c26c436b88af","665500ab8938657b03fbdba8","665792e72c1e99aa0a212090","471","stimuli/1101001.jpg","1","","prediction_trial","1","","true","","1","true","true","true","true","true","true","[1]","101","001","1","","","","","","",""
"","","","","","image-keyboard-response","149","563539","0.0-124.0","605ff0746397c26c436b88af","665500ab8938657b03fbdba8","665792e72c1e99aa0a212090","377","stimuli/11010011.jpg"," ","","feedback_trial","1","","","","","","","","","","","","","","","","","","","","",""
"","","","","","image-keyboard-response","150","564115","0.0-125.0","605ff0746397c26c436b88af","665500ab8938657b03fbdba8","665792e72c1e99aa0a212090","575","stimuli/2101110.jpg","2","","prediction_trial","0","","false","","2","true","true","false","false","false","false","[2,0]","101","110","0","","","","","","",""
"","","","","","image-keyboard-response","151","564662","0.0-126.0","605ff0746397c26c436b88af","665500ab8938657b03fbdba8","665792e72c1e99aa0a212090","546","stimuli/21011100.jpg"," ","","feedback_trial","2","","","","","","","","","","","","","","","","","","","","",""
"","","","","","image-keyboard-response","152","565250","0.0-127.0","605ff0746397c26c436b88af","665500ab8938657b03fbdba8","665792e72c1e99aa0a212090","587","stimuli/0010010.jpg","0","","prediction_trial","0","","true","","0","true","true","true","true","true","true","[0]","010","010","1","","","","","","",""
"","","","","","image-keyboard-response","153","565507","0.0-128.0","605ff0746397c26c436b88af","665500ab8938657b03fbdba8","665792e72c1e99aa0a212090","250","stimuli/00100100.jpg"," ","","feedback_trial","0","","","","","","","","","","","","","","","","","","","","",""
"","","","","","image-keyboard-response","154","566155","0.0-129.0","605ff0746397c26c436b88af","665500ab8938657b03fbdba8","665792e72c1e99aa0a212090","647","stimuli/2110111.jpg","2","","prediction_trial","2","","true","","2","false","false","true","true","false","false","[2]","110","111","1","","","","","","",""
"","","","","","image-keyboard-response","155","566523","0.0-130.0","605ff0746397c26c436b88af","665500ab8938657b03fbdba8","665792e72c1e99aa0a212090","366","stimuli/21101112.jpg"," ","","feedback_trial","2","","","","","","","","","","","","","","","","","","","","",""
"","","","","","image-keyboard-response","156","567899","0.0-131.0","605ff0746397c26c436b88af","665500ab8938657b03fbdba8","665792e72c1e99aa0a212090","1375","stimuli/1000011.jpg","1","","prediction_trial","1","","true","","1","false","false","true","true","false","false","[1]","000","011","1","","","","","","",""
"","","","","","image-keyboard-response","157","568283","0.0-132.0","605ff0746397c26c436b88af","665500ab8938657b03fbdba8","665792e72c1e99aa0a212090","376","stimuli/10000111.jpg"," ","","feedback_trial","1","","","","","","","","","","","","","","","","","","","","",""
"","","","","","image-keyboard-response","158","568883","0.0-133.0","605ff0746397c26c436b88af","665500ab8938657b03fbdba8","665792e72c1e99aa0a212090","599","stimuli/1100110.jpg","1","","prediction_trial","1","","true","","1","false","false","true","true","false","false","[1]","100","110","1","","","","","","",""
"","","","","","image-keyboard-response","159","569403","0.0-134.0","605ff0746397c26c436b88af","665500ab8938657b03fbdba8","665792e72c1e99aa0a212090","518","stimuli/11001101.jpg"," ","","feedback_trial","1","","","","","","","","","","","","","","","","","","","","",""
"","","","","","image-keyboard-response","160","570659","0.0-135.0","605ff0746397c26c436b88af","665500ab8938657b03fbdba8","665792e72c1e99aa0a212090","1255","stimuli/1110011.jpg","1","","prediction_trial","1","","true","","1","false","false","false","false","false","false","[1,0]","110","011","1","","","","","","",""
"","","","","","image-keyboard-response","161","571323","0.0-136.0","605ff0746397c26c436b88af","665500ab8938657b03fbdba8","665792e72c1e99aa0a212090","656","stimuli/11100111.jpg"," ","","feedback_trial","1","","","","","","","","","","","","","","","","","","","","",""
"","","","","","image-keyboard-response","162","572675","0.0-137.0","605ff0746397c26c436b88af","665500ab8938657b03fbdba8","665792e72c1e99aa0a212090","1351","stimuli/1011110.jpg","1","","prediction_trial","2","","false","","1","false","false","false","false","false","false","[1,2]","011","110","0","","","","","","",""
"","","","","","image-keyboard-response","163","574627","0.0-138.0","605ff0746397c26c436b88af","665500ab8938657b03fbdba8","665792e72c1e99aa0a212090","1950","stimuli/10111102.jpg"," ","","feedback_trial","1","","","","","","","","","","","","","","","","","","","","",""
"","","","","","image-keyboard-response","164","575254","0.0-139.0","605ff0746397c26c436b88af","665500ab8938657b03fbdba8","665792e72c1e99aa0a212090","625","stimuli/1101000.jpg","1","","prediction_trial","1","","true","","1","true","true","true","true","true","true","[1]","101","000","1","","","","","","",""
"","","","","","image-keyboard-response","165","575619","0.0-140.0","605ff0746397c26c436b88af","665500ab8938657b03fbdba8","665792e72c1e99aa0a212090","361","stimuli/11010001.jpg"," ","","feedback_trial","1","","","","","","","","","","","","","","","","","","","","",""
"","","","","","image-keyboard-response","166","576403","0.0-141.0","605ff0746397c26c436b88af","665500ab8938657b03fbdba8","665792e72c1e99aa0a212090","783","stimuli/2001110.jpg","2","","prediction_trial","2","","true","","2","true","true","false","true","false","true","[2]","001","110","1","","","","","","",""
"","","","","","image-keyboard-response","167","576707","0.0-142.0","605ff0746397c26c436b88af","665500ab8938657b03fbdba8","665792e72c1e99aa0a212090","303","stimuli/20011102.jpg"," ","","feedback_trial","2","","","","","","","","","","","","","","","","","","","","",""
"","","","","","image-keyboard-response","168","577643","0.0-143.0","605ff0746397c26c436b88af","665500ab8938657b03fbdba8","665792e72c1e99aa0a212090","935","stimuli/0011110.jpg","1","","prediction_trial","0","","false","","0","false","false","true","true","false","false","[0]","011","110","0","","","","","","",""
"","","","","","image-keyboard-response","169","578747","0.0-144.0","605ff0746397c26c436b88af","665500ab8938657b03fbdba8","665792e72c1e99aa0a212090","1097","stimuli/00111100.jpg"," ","","feedback_trial","0","","","","","","","","","","","","","","","","","","","","",""
"","","","","","image-keyboard-response","170","579483","0.0-145.0","605ff0746397c26c436b88af","665500ab8938657b03fbdba8","665792e72c1e99aa0a212090","734","stimuli/1010001.jpg","1","","prediction_trial","1","","true","","1","true","true","false","true","false","true","[1]","010","001","1","","","","","","",""
"","","","","","image-keyboard-response","171","579875","0.0-146.0","605ff0746397c26c436b88af","665500ab8938657b03fbdba8","665792e72c1e99aa0a212090","390","stimuli/10100011.jpg"," ","","feedback_trial","1","","","","","","","","","","","","","","","","","","","","",""
"","","","","","image-keyboard-response","172","580379","0.0-147.0","605ff0746397c26c436b88af","665500ab8938657b03fbdba8","665792e72c1e99aa0a212090","503","stimuli/1111101.jpg","1","","prediction_trial","1","","true","","1","true","true","false","false","false","false","[1,0,2]","111","101","1","","","","","","",""
"","","","","","image-keyboard-response","173","580955","0.0-148.0","605ff0746397c26c436b88af","665500ab8938657b03fbdba8","665792e72c1e99aa0a212090","570","stimuli/11111011.jpg"," ","","feedback_trial","1","","","","","","","","","","","","","","","","","","","","",""
"","","","","","image-keyboard-response","174","583131","0.0-149.0","605ff0746397c26c436b88af","665500ab8938657b03fbdba8","665792e72c1e99aa0a212090","2175","stimuli/2110101.jpg","0","","prediction_trial","2","","false","","2","false","false","true","true","false","false","[2]","110","101","0","","","","","","",""
"","","","","","image-keyboard-response","175","583651","0.0-150.0","605ff0746397c26c436b88af","665500ab8938657b03fbdba8","665792e72c1e99aa0a212090","518","stimuli/21101012.jpg"," ","","feedback_trial","2","","","","","","","","","","","","","","","","","","","","",""
"","","","","","image-keyboard-response","176","584691","0.0-151.0","605ff0746397c26c436b88af","665500ab8938657b03fbdba8","665792e72c1e99aa0a212090","1039","stimuli/0101111.jpg","1","","prediction_trial","2","","false","","0","false","false","false","false","false","false","[0,2]","101","111","0","","","","","","",""
"","","","","","image-keyboard-response","177","585203","0.0-152.0","605ff0746397c26c436b88af","665500ab8938657b03fbdba8","665792e72c1e99aa0a212090","506","stimuli/01011112.jpg"," ","","feedback_trial","0","","","","","","","","","","","","","","","","","","","","",""
"","","","","","image-keyboard-response","178","586063","0.0-153.0","605ff0746397c26c436b88af","665500ab8938657b03fbdba8","665792e72c1e99aa0a212090","857","stimuli/0100110.jpg","0","","prediction_trial","0","","true","","0","false","false","false","true","false","false","[0]","100","110","1","","","","","","",""
"","","","","","image-keyboard-response","179","586611","0.0-154.0","605ff0746397c26c436b88af","665500ab8938657b03fbdba8","665792e72c1e99aa0a212090","546","stimuli/01001100.jpg"," ","","feedback_trial","0","","","","","","","","","","","","","","","","","","","","",""
"","","","","","image-keyboard-response","180","587211","0.0-155.0","605ff0746397c26c436b88af","665500ab8938657b03fbdba8","665792e72c1e99aa0a212090","598","stimuli/0000001.jpg","0","","prediction_trial","0","","true","","0","true","true","true","true","true","true","[0]","000","001","1","","","","","","",""
"","","","","","image-keyboard-response","181","587539","0.0-156.0","605ff0746397c26c436b88af","665500ab8938657b03fbdba8","665792e72c1e99aa0a212090","322","stimuli/00000010.jpg"," ","","feedback_trial","0","","","","","","","","","","","","","","","","","","","","",""
"","","","","","image-keyboard-response","182","589011","0.0-157.0","605ff0746397c26c436b88af","665500ab8938657b03fbdba8","665792e72c1e99aa0a212090","1471","stimuli/1111011.jpg","2","","prediction_trial","1","","false","","1","false","false","false","false","false","false","[0,1,2]","111","011","0","","","","","","",""
"","","","","","image-keyboard-response","183","589563","0.0-158.0","605ff0746397c26c436b88af","665500ab8938657b03fbdba8","665792e72c1e99aa0a212090","550","stimuli/11110111.jpg"," ","","feedback_trial","0","","","","","","","","","","","","","","","","","","","","",""
"","","","","","image-keyboard-response","184","590051","0.0-159.0","605ff0746397c26c436b88af","665500ab8938657b03fbdba8","665792e72c1e99aa0a212090","487","stimuli/1100100.jpg","1","","prediction_trial","1","","true","","1","true","true","true","true","true","true","[1]","100","100","1","","","","","","",""
"","","","","","image-keyboard-response","185","590467","0.0-160.0","605ff0746397c26c436b88af","665500ab8938657b03fbdba8","665792e72c1e99aa0a212090","410","stimuli/11001001.jpg"," ","","feedback_trial","1","","","","","","","","","","","","","","","","","","","","",""
"","","","","","image-keyboard-response","186","591066","0.0-161.0","605ff0746397c26c436b88af","665500ab8938657b03fbdba8","665792e72c1e99aa0a212090","599","stimuli/1011111.jpg","1","","prediction_trial","1","","true","","1","false","false","false","false","false","false","[2,1]","011","111","1","","","","","","",""
"","","","","","image-keyboard-response","187","591522","0.0-162.0","605ff0746397c26c436b88af","665500ab8938657b03fbdba8","665792e72c1e99aa0a212090","455","stimuli/10111111.jpg"," ","","feedback_trial","2","","","","","","","","","","","","","","","","","","","","",""
"","","","","","image-keyboard-response","188","592131","0.0-163.0","605ff0746397c26c436b88af","665500ab8938657b03fbdba8","665792e72c1e99aa0a212090","607","stimuli/0100100.jpg","0","","prediction_trial","0","","true","","0","false","true","false","true","false","true","[0]","100","100","1","","","","","","",""
"","","","","","image-keyboard-response","189","592459","0.0-164.0","605ff0746397c26c436b88af","665500ab8938657b03fbdba8","665792e72c1e99aa0a212090","321","stimuli/01001000.jpg"," ","","feedback_trial","0","","","","","","","","","","","","","","","","","","","","",""
"","","","","","image-keyboard-response","190","593019","0.0-165.0","605ff0746397c26c436b88af","665500ab8938657b03fbdba8","665792e72c1e99aa0a212090","559","stimuli/2100001.jpg","2","","prediction_trial","2","","true","","2","false","true","true","true","false","true","[2]","100","001","1","","","","","","",""
"","","","","","image-keyboard-response","191","593411","0.0-166.0","605ff0746397c26c436b88af","665500ab8938657b03fbdba8","665792e72c1e99aa0a212090","390","stimuli/21000012.jpg"," ","","feedback_trial","2","","","","","","","","","","","","","","","","","","","","",""
"","","","","","image-keyboard-response","192","593923","0.0-167.0","605ff0746397c26c436b88af","665500ab8938657b03fbdba8","665792e72c1e99aa0a212090","510","stimuli/1101100.jpg","1","","prediction_trial","1","","true","","1","true","true","true","true","true","true","[1]","101","100","1","","","","","","",""
"","","","","","image-keyboard-response","193","594219","0.0-168.0","605ff0746397c26c436b88af","665500ab8938657b03fbdba8","665792e72c1e99aa0a212090","290","stimuli/11011001.jpg"," ","","feedback_trial","1","","","","","","","","","","","","","","","","","","","","",""
"","","","","","image-keyboard-response","194","594747","0.0-169.0","605ff0746397c26c436b88af","665500ab8938657b03fbdba8","665792e72c1e99aa0a212090","527","stimuli/1000000.jpg","1","","prediction_trial","1","","true","","1","true","true","true","true","true","true","[1]","000","000","1","","","","","","",""
"","","","","","image-keyboard-response","195","595122","0.0-170.0","605ff0746397c26c436b88af","665500ab8938657b03fbdba8","665792e72c1e99aa0a212090","374","stimuli/10000001.jpg"," ","","feedback_trial","1","","","","","","","","","","","","","","","","","","","","",""
"","","","","","image-keyboard-response","196","596636","0.0-171.0","605ff0746397c26c436b88af","665500ab8938657b03fbdba8","665792e72c1e99aa0a212090","1514","stimuli/0001110.jpg","1","","prediction_trial","0","","false","","0","false","false","true","true","false","false","[0]","001","110","0","","","","","","",""
"","","","","","image-keyboard-response","197","597872","0.0-172.0","605ff0746397c26c436b88af","665500ab8938657b03fbdba8","665792e72c1e99aa0a212090","1233","stimuli/00011100.jpg"," ","","feedback_trial","0","","","","","","","","","","","","","","","","","","","","",""
"","","","","","image-keyboard-response","198","598392","0.0-173.0","605ff0746397c26c436b88af","665500ab8938657b03fbdba8","665792e72c1e99aa0a212090","518","stimuli/0101010.jpg","0","","prediction_trial","0","","true","","0","true","true","false","false","false","false","[2,0]","101","010","1","","","","","","",""
"","","","","","image-keyboard-response","199","598712","0.0-174.0","605ff0746397c26c436b88af","665500ab8938657b03fbdba8","665792e72c1e99aa0a212090","318","stimuli/01010100.jpg"," ","","feedback_trial","2","","","","","","","","","","","","","","","","","","","","",""
"","","","","","image-keyboard-response","200","599280","0.0-175.0","605ff0746397c26c436b88af","665500ab8938657b03fbdba8","665792e72c1e99aa0a212090","567","stimuli/2011111.jpg","1","","prediction_trial","1","","true","","2","false","false","false","false","false","false","[2,1]","011","111","1","","","","","","",""
"","","","","","image-keyboard-response","201","599760","0.0-176.0","605ff0746397c26c436b88af","665500ab8938657b03fbdba8","665792e72c1e99aa0a212090","472","stimuli/20111111.jpg"," ","","feedback_trial","2","","","","","","","","","","","","","","","","","","","","",""
"","","","","","image-keyboard-response","202","601561","0.0-177.0","605ff0746397c26c436b88af","665500ab8938657b03fbdba8","665792e72c1e99aa0a212090","1799","stimuli/0110101.jpg","0","","prediction_trial","1","","false","","0","false","false","false","false","false","false","[1,0]","110","101","0","","","","","","",""
"","","","","","image-keyboard-response","203","602440","0.0-178.0","605ff0746397c26c436b88af","665500ab8938657b03fbdba8","665792e72c1e99aa0a212090","878","stimuli/01101011.jpg"," ","","feedback_trial","1","","","","","","","","","","","","","","","","","","","","",""
"","","","","","image-keyboard-response","204","603489","0.0-179.0","605ff0746397c26c436b88af","665500ab8938657b03fbdba8","665792e72c1e99aa0a212090","1047","stimuli/0110110.jpg","1","","prediction_trial","0","","false","","0","false","false","false","false","false","false","[1,0]","110","110","0","","","","","","",""
"","","","","","image-keyboard-response","205","604024","0.0-180.0","605ff0746397c26c436b88af","665500ab8938657b03fbdba8","665792e72c1e99aa0a212090","529","stimuli/01101100.jpg"," ","","feedback_trial","1","","","","","","","","","","","","","","","","","","","","",""
"","","","","","image-keyboard-response","206","604600","0.0-181.0","605ff0746397c26c436b88af","665500ab8938657b03fbdba8","665792e72c1e99aa0a212090","575","stimuli/0001100.jpg","0","","prediction_trial","0","","true","","0","false","true","true","true","false","true","[0]","001","100","1","","","","","","",""
"","","","","","image-keyboard-response","207","605168","0.0-182.0","605ff0746397c26c436b88af","665500ab8938657b03fbdba8","665792e72c1e99aa0a212090","566","stimuli/00011000.jpg"," ","","feedback_trial","0","","","","","","","","","","","","","","","","","","","","",""
"","","","","","image-keyboard-response","208","605937","0.0-183.0","605ff0746397c26c436b88af","665500ab8938657b03fbdba8","665792e72c1e99aa0a212090","767","stimuli/2000011.jpg","1","","prediction_trial","2","","false","","2","false","false","true","true","false","false","[2]","000","011","0","","","","","","",""
"","","","","","image-keyboard-response","209","606608","0.0-184.0","605ff0746397c26c436b88af","665500ab8938657b03fbdba8","665792e72c1e99aa0a212090","664","stimuli/20000112.jpg"," ","","feedback_trial","2","","","","","","","","","","","","","","","","","","","","",""
"","","","","","image-keyboard-response","210","607212","0.0-185.0","605ff0746397c26c436b88af","665500ab8938657b03fbdba8","665792e72c1e99aa0a212090","602","stimuli/0000011.jpg","0","","prediction_trial","0","","true","","0","true","true","true","true","true","true","[0]","000","011","1","","","","","","",""
"","","","","","image-keyboard-response","211","607552","0.0-186.0","605ff0746397c26c436b88af","665500ab8938657b03fbdba8","665792e72c1e99aa0a212090","339","stimuli/00000110.jpg"," ","","feedback_trial","0","","","","","","","","","","","","","","","","","","","","",""
"","","","","","image-keyboard-response","212","608320","0.0-187.0","605ff0746397c26c436b88af","665500ab8938657b03fbdba8","665792e72c1e99aa0a212090","767","stimuli/1101010.jpg","1","","prediction_trial","1","","true","","1","false","true","true","true","false","true","[1]","101","010","1","","","","","","",""
"","","","","","image-keyboard-response","213","608936","0.0-188.0","605ff0746397c26c436b88af","665500ab8938657b03fbdba8","665792e72c1e99aa0a212090","609","stimuli/11010101.jpg"," ","","feedback_trial","1","","","","","","","","","","","","","","","","","","","","",""
"","","","","","image-keyboard-response","214","611889","0.0-189.0","605ff0746397c26c436b88af","665500ab8938657b03fbdba8","665792e72c1e99aa0a212090","2951","stimuli/2010111.jpg","1","","prediction_trial","2","","false","","2","false","false","true","true","false","false","[2]","010","111","0","","","","","","",""
"","","","","","image-keyboard-response","215","612408","0.0-190.0","605ff0746397c26c436b88af","665500ab8938657b03fbdba8","665792e72c1e99aa0a212090","518","stimuli/20101112.jpg"," ","","feedback_trial","2","","","","","","","","","","","","","","","","","","","","",""
"","","","","","image-keyboard-response","216","613816","0.0-191.0","605ff0746397c26c436b88af","665500ab8938657b03fbdba8","665792e72c1e99aa0a212090","1406","stimuli/0100111.jpg","1","","prediction_trial","0","","false","","0","false","false","false","true","false","false","[0]","100","111","0","","","","","","",""
"","","","","","image-keyboard-response","217","614304","0.0-192.0","605ff0746397c26c436b88af","665500ab8938657b03fbdba8","665792e72c1e99aa0a212090","485","stimuli/01001110.jpg"," ","","feedback_trial","0","","","","","","","","","","","","","","","","","","","","",""
"","","","","","image-keyboard-response","218","615577","0.0-193.0","605ff0746397c26c436b88af","665500ab8938657b03fbdba8","665792e72c1e99aa0a212090","1271","stimuli/2101111.jpg","1","","prediction_trial","0","","false","","2","false","false","false","false","false","false","[0,2]","101","111","0","","","","","","",""
"","","","","","image-keyboard-response","219","616041","0.0-194.0","605ff0746397c26c436b88af","665500ab8938657b03fbdba8","665792e72c1e99aa0a212090","462","stimuli/21011110.jpg"," ","","feedback_trial","0","","","","","","","","","","","","","","","","","","","","",""
"","","","","","image-keyboard-response","220","616729","0.0-195.0","605ff0746397c26c436b88af","665500ab8938657b03fbdba8","665792e72c1e99aa0a212090","686","stimuli/2001001.jpg","2","","prediction_trial","2","","true","","2","false","true","false","true","false","true","[2]","001","001","1","","","","","","",""
"","","","","","image-keyboard-response","221","617259","0.0-196.0","605ff0746397c26c436b88af","665500ab8938657b03fbdba8","665792e72c1e99aa0a212090","525","stimuli/20010012.jpg"," ","","feedback_trial","2","","","","","","","","","","","","","","","","","","","","",""
"","","","","","image-keyboard-response","222","617808","0.0-197.0","605ff0746397c26c436b88af","665500ab8938657b03fbdba8","665792e72c1e99aa0a212090","547","stimuli/2110000.jpg","2","","prediction_trial","2","","true","","2","true","true","true","true","true","true","[2]","110","000","1","","","","","","",""
"","","","","","image-keyboard-response","223","618200","0.0-198.0","605ff0746397c26c436b88af","665500ab8938657b03fbdba8","665792e72c1e99aa0a212090","391","stimuli/21100002.jpg"," ","","feedback_trial","2","","","","","","","","","","","","","","","","","","","","",""
"","","","","","image-keyboard-response","224","618736","0.0-199.0","605ff0746397c26c436b88af","665500ab8938657b03fbdba8","665792e72c1e99aa0a212090","534","stimuli/0001010.jpg","0","","prediction_trial","0","","true","","0","true","true","true","true","true","true","[0]","001","010","1","","","","","","",""
"","","","","","image-keyboard-response","225","619120","0.0-200.0","605ff0746397c26c436b88af","665500ab8938657b03fbdba8","665792e72c1e99aa0a212090","377","stimuli/00010100.jpg"," ","","feedback_trial","0","","","","","","","","","","","","","","","","","","","","",""
"","","","","","image-keyboard-response","226","619688","0.0-201.0","605ff0746397c26c436b88af","665500ab8938657b03fbdba8","665792e72c1e99aa0a212090","566","stimuli/1110100.jpg","1","","prediction_trial","0","","false","","1","true","true","false","false","false","false","[1,0]","110","100","0","","","","","","",""
"","","","","","image-keyboard-response","227","620064","0.0-202.0","605ff0746397c26c436b88af","665500ab8938657b03fbdba8","665792e72c1e99aa0a212090","374","stimuli/11101000.jpg"," ","","feedback_trial","1","","","","","","","","","","","","","","","","","","","","",""
"","","","","","image-keyboard-response","228","620680","0.0-203.0","605ff0746397c26c436b88af","665500ab8938657b03fbdba8","665792e72c1e99aa0a212090","615","stimuli/0110011.jpg","0","","prediction_trial","0","","true","","0","true","true","false","false","false","false","[1,0]","110","011","1","","","","","","",""
"","","","","","image-keyboard-response","229","621057","0.0-204.0","605ff0746397c26c436b88af","665500ab8938657b03fbdba8","665792e72c1e99aa0a212090","370","stimuli/01100110.jpg"," ","","feedback_trial","1","","","","","","","","","","","","","","","","","","","","",""
"","","","","","image-keyboard-response","230","621664","0.0-205.0","605ff0746397c26c436b88af","665500ab8938657b03fbdba8","665792e72c1e99aa0a212090","606","stimuli/2110001.jpg","2","","prediction_trial","2","","true","","2","false","true","true","true","false","true","[2]","110","001","1","","","","","","",""
"","","","","","image-keyboard-response","231","622112","0.0-206.0","605ff0746397c26c436b88af","665500ab8938657b03fbdba8","665792e72c1e99aa0a212090","446","stimuli/21100012.jpg"," ","","feedback_trial","2","","","","","","","","","","","","","","","","","","","","",""
"","","","","","image-keyboard-response","232","622640","0.0-207.0","605ff0746397c26c436b88af","665500ab8938657b03fbdba8","665792e72c1e99aa0a212090","526","stimuli/2101100.jpg","2","","prediction_trial","2","","true","","2","true","true","false","false","false","false","[2,0]","101","100","1","","","","","","",""
"","","","","","image-keyboard-response","233","623096","0.0-208.0","605ff0746397c26c436b88af","665500ab8938657b03fbdba8","665792e72c1e99aa0a212090","449","stimuli/21011002.jpg"," ","","feedback_trial","2","","","","","","","","","","","","","","","","","","","","",""
"","","","","","image-keyboard-response","234","623592","0.0-209.0","605ff0746397c26c436b88af","665500ab8938657b03fbdba8","665792e72c1e99aa0a212090","494","stimuli/0011000.jpg","0","","prediction_trial","0","","true","","0","true","true","true","true","true","true","[0]","011","000","1","","","","","","",""
"","","","","","image-keyboard-response","235","624024","0.0-210.0","605ff0746397c26c436b88af","665500ab8938657b03fbdba8","665792e72c1e99aa0a212090","431","stimuli/00110000.jpg"," ","","feedback_trial","0","","","","","","","","","","","","","","","","","","","","",""
"","","","","","image-keyboard-response","236","625312","0.0-211.0","605ff0746397c26c436b88af","665500ab8938657b03fbdba8","665792e72c1e99aa0a212090","1287","stimuli/0101011.jpg","0","","prediction_trial","0","","true","","0","true","true","false","false","false","false","[0,2]","101","011","1","","","","","","",""
"","","","","","image-keyboard-response","237","625728","0.0-212.0","605ff0746397c26c436b88af","665500ab8938657b03fbdba8","665792e72c1e99aa0a212090","409","stimuli/01010110.jpg"," ","","feedback_trial","0","","","","","","","","","","","","","","","","","","","","",""
"","","","","","image-keyboard-response","238","626280","0.0-213.0","605ff0746397c26c436b88af","665500ab8938657b03fbdba8","665792e72c1e99aa0a212090","550","stimuli/1010100.jpg","1","","prediction_trial","1","","true","","1","true","true","false","true","false","true","[1]","010","100","1","","","","","","",""
"","","","","","image-keyboard-response","239","626616","0.0-214.0","605ff0746397c26c436b88af","665500ab8938657b03fbdba8","665792e72c1e99aa0a212090","334","stimuli/10101001.jpg"," ","","feedback_trial","1","","","","","","","","","","","","","","","","","","","","",""
"","","","","","image-keyboard-response","240","627240","0.0-215.0","605ff0746397c26c436b88af","665500ab8938657b03fbdba8","665792e72c1e99aa0a212090","623","stimuli/1010110.jpg","1","","prediction_trial","1","","true","","1","false","false","false","true","false","false","[1]","010","110","1","","","","","","",""
"","","","","","image-keyboard-response","241","627667","0.0-216.0","605ff0746397c26c436b88af","665500ab8938657b03fbdba8","665792e72c1e99aa0a212090","420","stimuli/10101101.jpg"," ","","feedback_trial","1","","","","","","","","","","","","","","","","","","","","",""
"","","","","","image-keyboard-response","242","628137","0.0-217.0","605ff0746397c26c436b88af","665500ab8938657b03fbdba8","665792e72c1e99aa0a212090","468","stimuli/0110000.jpg","0","","prediction_trial","1","","false","","0","true","true","false","false","false","false","[1,0]","110","000","0","","","","","","",""
"","","","","","image-keyboard-response","243","628472","0.0-218.0","605ff0746397c26c436b88af","665500ab8938657b03fbdba8","665792e72c1e99aa0a212090","334","stimuli/01100001.jpg"," ","","feedback_trial","1","","","","","","","","","","","","","","","","","","","","",""
"","","","","","image-keyboard-response","244","629128","0.0-219.0","605ff0746397c26c436b88af","665500ab8938657b03fbdba8","665792e72c1e99aa0a212090","655","stimuli/1111010.jpg","1","","prediction_trial","0","","false","","1","false","true","false","false","false","false","[2,1,0]","111","010","0","","","","","","",""
"","","","","","image-keyboard-response","245","629720","0.0-220.0","605ff0746397c26c436b88af","665500ab8938657b03fbdba8","665792e72c1e99aa0a212090","584","stimuli/11110100.jpg"," ","","feedback_trial","2","","","","","","","","","","","","","","","","","","","","",""
"","","","","","image-keyboard-response","246","630465","0.0-221.0","605ff0746397c26c436b88af","665500ab8938657b03fbdba8","665792e72c1e99aa0a212090","743","stimuli/0010110.jpg","1","","prediction_trial","0","","false","","0","false","false","true","true","false","false","[0]","010","110","0","","","","","","",""
"","","","","","image-keyboard-response","247","631152","0.0-222.0","605ff0746397c26c436b88af","665500ab8938657b03fbdba8","665792e72c1e99aa0a212090","685","stimuli/00101100.jpg"," ","","feedback_trial","0","","","","","","","","","","","","","","","","","","","","",""
"","","","","","image-keyboard-response","248","631545","0.0-223.0","605ff0746397c26c436b88af","665500ab8938657b03fbdba8","665792e72c1e99aa0a212090","391","stimuli/1111100.jpg","1","","prediction_trial","1","","true","","1","true","true","false","false","false","false","[0,1,2]","111","100","1","","","","","","",""
"","","","","","image-keyboard-response","249","631928","0.0-224.0","605ff0746397c26c436b88af","665500ab8938657b03fbdba8","665792e72c1e99aa0a212090","378","stimuli/11111001.jpg"," ","","feedback_trial","0","","","","","","","","","","","","","","","","","","","","",""
"","","","","","image-keyboard-response","250","632416","0.0-225.0","605ff0746397c26c436b88af","665500ab8938657b03fbdba8","665792e72c1e99aa0a212090","487","stimuli/0110001.jpg","0","","prediction_trial","1","","false","","0","true","true","false","false","false","false","[1,0]","110","001","0","","","","","","",""
"","","","","","image-keyboard-response","251","632672","0.0-226.0","605ff0746397c26c436b88af","665500ab8938657b03fbdba8","665792e72c1e99aa0a212090","255","stimuli/01100011.jpg"," ","","feedback_trial","1","","","","","","","","","","","","","","","","","","","","",""
"","","","","","image-keyboard-response","252","633400","0.0-227.0","605ff0746397c26c436b88af","665500ab8938657b03fbdba8","665792e72c1e99aa0a212090","727","stimuli/2111001.jpg","2","","prediction_trial","2","","true","","2","false","true","false","false","false","false","[2,1,0]","111","001","1","","","","","","",""
"","","","","","image-keyboard-response","253","633648","0.0-228.0","605ff0746397c26c436b88af","665500ab8938657b03fbdba8","665792e72c1e99aa0a212090","241","stimuli/21110012.jpg"," ","","feedback_trial","2","","","","","","","","","","","","","","","","","","","","",""
"","","","","","image-keyboard-response","254","634713","0.0-229.0","605ff0746397c26c436b88af","665500ab8938657b03fbdba8","665792e72c1e99aa0a212090","1063","stimuli/2000111.jpg","1","","prediction_trial","2","","false","","2","false","false","true","true","false","false","[2]","000","111","0","","","","","","",""
"","","","","","image-keyboard-response","255","635240","0.0-230.0","605ff0746397c26c436b88af","665500ab8938657b03fbdba8","665792e72c1e99aa0a212090","527","stimuli/20001112.jpg"," ","","feedback_trial","2","","","","","","","","","","","","","","","","","","","","",""
"","","","","","image-keyboard-response","256","635841","0.0-231.0","605ff0746397c26c436b88af","665500ab8938657b03fbdba8","665792e72c1e99aa0a212090","599","stimuli/0111001.jpg","0","","prediction_trial","0","","true","","0","true","true","false","false","false","false","[1,2,0]","111","001","1","","","","","","",""
"","","","","","image-keyboard-response","257","636192","0.0-232.0","605ff0746397c26c436b88af","665500ab8938657b03fbdba8","665792e72c1e99aa0a212090","351","stimuli/01110010.jpg"," ","","feedback_trial","1","","","","","","","","","","","","","","","","","","","","",""
"","","","","","image-keyboard-response","258","637433","0.0-233.0","605ff0746397c26c436b88af","665500ab8938657b03fbdba8","665792e72c1e99aa0a212090","1240","stimuli/2001111.jpg","2","","prediction_trial","2","","true","","2","false","false","false","true","false","false","[2]","001","111","1","","","","","","",""
"","","","","","image-keyboard-response","259","638220","0.0-234.0","605ff0746397c26c436b88af","665500ab8938657b03fbdba8","665792e72c1e99aa0a212090","786","stimuli/20011112.jpg"," ","","feedback_trial","2","","","","","","","","","","","","","","","","","","","","",""
"","","","","","image-keyboard-response","260","639433","0.0-235.0","605ff0746397c26c436b88af","665500ab8938657b03fbdba8","665792e72c1e99aa0a212090","1212","stimuli/2010001.jpg","2","","prediction_trial","2","","true","","2","false","true","true","true","false","true","[2]","010","001","1","","","","","","",""
"","","","","","image-keyboard-response","261","639968","0.0-236.0","605ff0746397c26c436b88af","665500ab8938657b03fbdba8","665792e72c1e99aa0a212090","534","stimuli/20100012.jpg"," ","","feedback_trial","2","","","","","","","","","","","","","","","","","","","","",""
"","","","","","image-keyboard-response","262","640528","0.0-237.0","605ff0746397c26c436b88af","665500ab8938657b03fbdba8","665792e72c1e99aa0a212090","559","stimuli/2001000.jpg","2","","prediction_trial","2","","true","","2","true","true","false","true","false","true","[2]","001","000","1","","","","","","",""
"","","","","","image-keyboard-response","263","641008","0.0-238.0","605ff0746397c26c436b88af","665500ab8938657b03fbdba8","665792e72c1e99aa0a212090","479","stimuli/20010002.jpg"," ","","feedback_trial","2","","","","","","","","","","","","","","","","","","","","",""
"","","","","","image-keyboard-response","264","642249","0.0-239.0","605ff0746397c26c436b88af","665500ab8938657b03fbdba8","665792e72c1e99aa0a212090","1239","stimuli/2010011.jpg","1","","prediction_trial","2","","false","","2","false","false","true","true","false","false","[2]","010","011","0","","","","","","",""
"","","","","","image-keyboard-response","265","647801","0.0-240.0","605ff0746397c26c436b88af","665500ab8938657b03fbdba8","665792e72c1e99aa0a212090","5552","stimuli/20100112.jpg"," ","","feedback_trial","2","","","","","","","","","","","","","","","","","","","","",""
"","","","","","image-keyboard-response","266","648997","0.0-241.0","605ff0746397c26c436b88af","665500ab8938657b03fbdba8","665792e72c1e99aa0a212090","1195","stimuli/0001101.jpg","0","","prediction_trial","0","","true","","0","false","false","true","true","false","false","[0]","001","101","1","","","","","","",""
"","","","","","image-keyboard-response","267","649465","0.0-242.0","605ff0746397c26c436b88af","665500ab8938657b03fbdba8","665792e72c1e99aa0a212090","467","stimuli/00011010.jpg"," ","","feedback_trial","0","","","","","","","","","","","","","","","","","","","","",""
"","","","","","image-keyboard-response","268","650041","0.0-243.0","605ff0746397c26c436b88af","665500ab8938657b03fbdba8","665792e72c1e99aa0a212090","575","stimuli/2100000.jpg","2","","prediction_trial","2","","true","","2","true","true","true","true","true","true","[2]","100","000","1","","","","","","",""
"","","","","","image-keyboard-response","269","650377","0.0-244.0","605ff0746397c26c436b88af","665500ab8938657b03fbdba8","665792e72c1e99aa0a212090","335","stimuli/21000002.jpg"," ","","feedback_trial","2","","","","","","","","","","","","","","","","","","","","",""
"","","","","","image-keyboard-response","270","650945","0.0-245.0","605ff0746397c26c436b88af","665500ab8938657b03fbdba8","665792e72c1e99aa0a212090","567","stimuli/0001001.jpg","0","","prediction_trial","0","","true","","0","true","true","true","true","true","true","[0]","001","001","1","","","","","","",""
"","","","","","image-keyboard-response","271","651328","0.0-246.0","605ff0746397c26c436b88af","665500ab8938657b03fbdba8","665792e72c1e99aa0a212090","383","stimuli/00010010.jpg"," ","","feedback_trial","0","","","","","","","","","","","","","","","","","","","","",""
"","","","","","image-keyboard-response","272","651848","0.0-247.0","605ff0746397c26c436b88af","665500ab8938657b03fbdba8","665792e72c1e99aa0a212090","519","stimuli/1010111.jpg","1","","prediction_trial","1","","true","","1","false","false","false","true","false","false","[1]","010","111","1","","","","","","",""
"","","","","","image-keyboard-response","273","652296","0.0-248.0","605ff0746397c26c436b88af","665500ab8938657b03fbdba8","665792e72c1e99aa0a212090","447","stimuli/10101111.jpg"," ","","feedback_trial","1","","","","","","","","","","","","","","","","","","","","",""
"","","","","","image-keyboard-response","274","652865","0.0-249.0","605ff0746397c26c436b88af","665500ab8938657b03fbdba8","665792e72c1e99aa0a212090","567","stimuli/1000111.jpg","1","","prediction_trial","1","","true","","1","false","false","true","true","false","false","[1]","000","111","1","","","","","","",""
"","","","","","image-keyboard-response","275","653329","0.0-250.0","605ff0746397c26c436b88af","665500ab8938657b03fbdba8","665792e72c1e99aa0a212090","463","stimuli/10001111.jpg"," ","","feedback_trial","1","","","","","","","","","","","","","","","","","","","","",""
"","","","","","image-keyboard-response","276","653857","0.0-251.0","605ff0746397c26c436b88af","665500ab8938657b03fbdba8","665792e72c1e99aa0a212090","527","stimuli/2110100.jpg","2","","prediction_trial","2","","true","","2","true","true","true","true","true","true","[2]","110","100","1","","","","","","",""
"","","","","","image-keyboard-response","277","654240","0.0-252.0","605ff0746397c26c436b88af","665500ab8938657b03fbdba8","665792e72c1e99aa0a212090","382","stimuli/21101002.jpg"," ","","feedback_trial","2","","","","","","","","","","","","","","","","","","","","",""
"","","","","","image-keyboard-response","278","655097","0.0-253.0","605ff0746397c26c436b88af","665500ab8938657b03fbdba8","665792e72c1e99aa0a212090","855","stimuli/2111101.jpg","2","","prediction_trial","1","","false","","2","false","false","false","false","false","false","[2,0,1]","111","101","0","","","","","","",""
"","","","","","image-keyboard-response","279","655497","0.0-254.0","605ff0746397c26c436b88af","665500ab8938657b03fbdba8","665792e72c1e99aa0a212090","399","stimuli/21111011.jpg"," ","","feedback_trial","2","","","","","","","","","","","","","","","","","","","","",""
"","","","","","image-keyboard-response","280","656217","0.0-255.0","605ff0746397c26c436b88af","665500ab8938657b03fbdba8","665792e72c1e99aa0a212090","719","stimuli/1010011.jpg","1","","prediction_trial","1","","true","","1","false","false","false","true","false","false","[1]","010","011","1","","","","","","",""
"","","","","","image-keyboard-response","281","656699","0.0-256.0","605ff0746397c26c436b88af","665500ab8938657b03fbdba8","665792e72c1e99aa0a212090","479","stimuli/10100111.jpg"," ","","feedback_trial","1","","","","","","","","","","","","","","","","","","","","",""
"","","","","","image-keyboard-response","282","657218","0.0-257.0","605ff0746397c26c436b88af","665500ab8938657b03fbdba8","665792e72c1e99aa0a212090","519","stimuli/0101000.jpg","0","","prediction_trial","0","","true","","0","true","true","false","false","false","false","[2,0]","101","000","1","","","","","","",""
"","","","","","image-keyboard-response","283","657610","0.0-258.0","605ff0746397c26c436b88af","665500ab8938657b03fbdba8","665792e72c1e99aa0a212090","391","stimuli/01010000.jpg"," ","","feedback_trial","2","","","","","","","","","","","","","","","","","","","","",""
"","","","","","image-keyboard-response","284","658226","0.0-259.0","605ff0746397c26c436b88af","665500ab8938657b03fbdba8","665792e72c1e99aa0a212090","615","stimuli/2100111.jpg","1","","prediction_trial","2","","false","","2","false","false","true","true","false","false","[2]","100","111","0","","","","","","",""
"","","","","","image-keyboard-response","285","658658","0.0-260.0","605ff0746397c26c436b88af","665500ab8938657b03fbdba8","665792e72c1e99aa0a212090","431","stimuli/21001112.jpg"," ","","feedback_trial","2","","","","","","","","","","","","","","","","","","","","",""
"","","","","","image-keyboard-response","286","659150","0.0-261.0","605ff0746397c26c436b88af","665500ab8938657b03fbdba8","665792e72c1e99aa0a212090","490","stimuli/2101011.jpg","1","","prediction_trial","2","","false","","2","false","false","false","false","false","false","[2,0]","101","011","0","","","","","","",""
"","","","","","image-keyboard-response","287","660299","0.0-262.0","605ff0746397c26c436b88af","665500ab8938657b03fbdba8","665792e72c1e99aa0a212090","1148","stimuli/21010112.jpg"," ","","feedback_trial","2","","","","","","","","","","","","","","","","","","","","",""
"","","","","","image-keyboard-response","288","661378","0.0-263.0","605ff0746397c26c436b88af","665500ab8938657b03fbdba8","665792e72c1e99aa0a212090","1079","stimuli/0000111.jpg","1","","prediction_trial","0","","false","","0","false","false","true","true","false","false","[0]","000","111","0","","","","","","",""
"","","","","","image-keyboard-response","289","661914","0.0-264.0","605ff0746397c26c436b88af","665500ab8938657b03fbdba8","665792e72c1e99aa0a212090","534","stimuli/00001110.jpg"," ","","feedback_trial","0","","","","","","","","","","","","","","","","","","","","",""
"","","","","","image-keyboard-response","290","662986","0.0-265.0","605ff0746397c26c436b88af","665500ab8938657b03fbdba8","665792e72c1e99aa0a212090","1071","stimuli/1011000.jpg","1","","prediction_trial","1","","true","","1","true","true","false","false","false","false","[1,2]","011","000","1","","","","","","",""
"","","","","","image-keyboard-response","291","663314","0.0-266.0","605ff0746397c26c436b88af","665500ab8938657b03fbdba8","665792e72c1e99aa0a212090","327","stimuli/10110001.jpg"," ","","feedback_trial","1","","","","","","","","","","","","","","","","","","","","",""
"","","","","","image-keyboard-response","292","664186","0.0-267.0","605ff0746397c26c436b88af","665500ab8938657b03fbdba8","665792e72c1e99aa0a212090","871","stimuli/2011001.jpg","2","","prediction_trial","2","","true","","2","false","true","false","false","false","false","[2,1]","011","001","1","","","","","","",""
"","","","","","image-keyboard-response","293","664602","0.0-268.0","605ff0746397c26c436b88af","665500ab8938657b03fbdba8","665792e72c1e99aa0a212090","415","stimuli/20110012.jpg"," ","","feedback_trial","2","","","","","","","","","","","","","","","","","","","","",""
"","","","","","image-keyboard-response","294","665474","0.0-269.0","605ff0746397c26c436b88af","665500ab8938657b03fbdba8","665792e72c1e99aa0a212090","871","stimuli/2100010.jpg","2","","prediction_trial","2","","true","","2","true","true","true","true","true","true","[2]","100","010","1","","","","","","",""
"","","","","","image-keyboard-response","295","665762","0.0-270.0","605ff0746397c26c436b88af","665500ab8938657b03fbdba8","665792e72c1e99aa0a212090","287","stimuli/21000102.jpg"," ","","feedback_trial","2","","","","","","","","","","","","","","","","","","","","",""
"","","","","","image-keyboard-response","296","666266","0.0-271.0","605ff0746397c26c436b88af","665500ab8938657b03fbdba8","665792e72c1e99aa0a212090","503","stimuli/2010100.jpg","2","","prediction_trial","2","","true","","2","true","true","true","true","true","true","[2]","010","100","1","","","","","","",""
"","","","","","image-keyboard-response","297","666506","0.0-272.0","605ff0746397c26c436b88af","665500ab8938657b03fbdba8","665792e72c1e99aa0a212090","239","stimuli/20101002.jpg"," ","","feedback_trial","2","","","","","","","","","","","","","","","","","","","","",""
"","","","","","image-keyboard-response","298","667274","0.0-273.0","605ff0746397c26c436b88af","665500ab8938657b03fbdba8","665792e72c1e99aa0a212090","767","stimuli/1110111.jpg","2","","prediction_trial","1","","false","","1","false","false","false","false","false","false","[1,0]","110","111","0","","","","","","",""
"","","","","","image-keyboard-response","299","667778","0.0-274.0","605ff0746397c26c436b88af","665500ab8938657b03fbdba8","665792e72c1e99aa0a212090","503","stimuli/11101111.jpg"," ","","feedback_trial","1","","","","","","","","","","","","","","","","","","","","",""
"","","","","","image-keyboard-response","300","668258","0.0-275.0","605ff0746397c26c436b88af","665500ab8938657b03fbdba8","665792e72c1e99aa0a212090","479","stimuli/1100001.jpg","1","","prediction_trial","1","","true","","1","true","true","true","true","true","true","[1]","100","001","1","","","","","","",""
"","","","","","image-keyboard-response","301","668530","0.0-276.0","605ff0746397c26c436b88af","665500ab8938657b03fbdba8","665792e72c1e99aa0a212090","271","stimuli/11000011.jpg"," ","","feedback_trial","1","","","","","","","","","","","","","","","","","","","","",""
"","","","","","image-keyboard-response","302","669074","0.0-277.0","605ff0746397c26c436b88af","665500ab8938657b03fbdba8","665792e72c1e99aa0a212090","543","stimuli/2001010.jpg","2","","prediction_trial","2","","true","","2","true","true","false","true","false","true","[2]","001","010","1","","","","","","",""
"","","","","","image-keyboard-response","303","669421","0.0-278.0","605ff0746397c26c436b88af","665500ab8938657b03fbdba8","665792e72c1e99aa0a212090","346","stimuli/20010102.jpg"," ","","feedback_trial","2","","","","","","","","","","","","","","","","","","","","",""
"","","","","","image-keyboard-response","304","670050","0.0-279.0","605ff0746397c26c436b88af","665500ab8938657b03fbdba8","665792e72c1e99aa0a212090","628","stimuli/1010010.jpg","1","","prediction_trial","1","","true","","1","false","true","false","true","false","true","[1]","010","010","1","","","","","","",""
"","","","","","image-keyboard-response","305","670418","0.0-280.0","605ff0746397c26c436b88af","665500ab8938657b03fbdba8","665792e72c1e99aa0a212090","367","stimuli/10100101.jpg"," ","","feedback_trial","1","","","","","","","","","","","","","","","","","","","","",""
"","","","","","image-keyboard-response","306","671066","0.0-281.0","605ff0746397c26c436b88af","665500ab8938657b03fbdba8","665792e72c1e99aa0a212090","647","stimuli/2001100.jpg","2","","prediction_trial","2","","true","","2","true","true","false","true","false","true","[2]","001","100","1","","","","","","",""
"","","","","","image-keyboard-response","307","671514","0.0-282.0","605ff0746397c26c436b88af","665500ab8938657b03fbdba8","665792e72c1e99aa0a212090","447","stimuli/20011002.jpg"," ","","feedback_trial","2","","","","","","","","","","","","","","","","","","","","",""
"","","","","","image-keyboard-response","308","672154","0.0-283.0","605ff0746397c26c436b88af","665500ab8938657b03fbdba8","665792e72c1e99aa0a212090","639","stimuli/2010110.jpg","2","","prediction_trial","2","","true","","2","true","true","true","true","true","true","[2]","010","110","1","","","","","","",""
"","","","","","image-keyboard-response","309","672434","0.0-284.0","605ff0746397c26c436b88af","665500ab8938657b03fbdba8","665792e72c1e99aa0a212090","279","stimuli/20101102.jpg"," ","","feedback_trial","2","","","","","","","","","","","","","","","","","","","","",""
"","","","","","image-keyboard-response","310","672978","0.0-285.0","605ff0746397c26c436b88af","665500ab8938657b03fbdba8","665792e72c1e99aa0a212090","542","stimuli/0010011.jpg","0","","prediction_trial","0","","true","","0","true","true","true","true","true","true","[0]","010","011","1","","","","","","",""
"","","","","","image-keyboard-response","311","673434","0.0-286.0","605ff0746397c26c436b88af","665500ab8938657b03fbdba8","665792e72c1e99aa0a212090","455","stimuli/00100110.jpg"," ","","feedback_trial","0","","","","","","","","","","","","","","","","","","","","",""
"","","","","","image-keyboard-response","312","675306","0.0-287.0","605ff0746397c26c436b88af","665500ab8938657b03fbdba8","665792e72c1e99aa0a212090","1871","stimuli/2001101.jpg","2","","prediction_trial","2","","true","","2","false","false","false","true","false","false","[2]","001","101","1","","","","","","",""
"","","","","","image-keyboard-response","313","675722","0.0-288.0","605ff0746397c26c436b88af","665500ab8938657b03fbdba8","665792e72c1e99aa0a212090","415","stimuli/20011012.jpg"," ","","feedback_trial","2","","","","","","","","","","","","","","","","","","","","",""
"","","","","","image-keyboard-response","314","676250","0.0-289.0","605ff0746397c26c436b88af","665500ab8938657b03fbdba8","665792e72c1e99aa0a212090","527","stimuli/0010000.jpg","0","","prediction_trial","0","","true","","0","true","true","true","true","true","true","[0]","010","000","1","","","","","","",""
"","","","","","image-keyboard-response","315","676530","0.0-290.0","605ff0746397c26c436b88af","665500ab8938657b03fbdba8","665792e72c1e99aa0a212090","279","stimuli/00100000.jpg"," ","","feedback_trial","0","","","","","","","","","","","","","","","","","","","","",""
"","","","","","image-keyboard-response","316","677642","0.0-291.0","605ff0746397c26c436b88af","665500ab8938657b03fbdba8","665792e72c1e99aa0a212090","1112","stimuli/0111110.jpg","1","","prediction_trial","1","","true","","0","false","false","false","false","false","false","[0,2,1]","111","110","1","","","","","","",""
"","","","","","image-keyboard-response","317","677987","0.0-292.0","605ff0746397c26c436b88af","665500ab8938657b03fbdba8","665792e72c1e99aa0a212090","343","stimuli/01111101.jpg"," ","","feedback_trial","0","","","","","","","","","","","","","","","","","","","","",""
"","","","","","survey-html-form","318","703707","0.0-293.0","605ff0746397c26c436b88af","665500ab8938657b03fbdba8","665792e72c1e99aa0a212090","25718","","{""feedback"":""what sam can see and guess"",""age"":""34"",""gender"":""Female"",""other_gender"":"""",""race"":""Asian"",""other_race"":"""",""ethnicity"":""Non-Hispanic""}","","exit_survey","","","","","","","","","","","","","","","","what sam can see and guess","34","Non-Hispanic","Female","Asian","0.7083333333333334","0.7083333333333334"
