"success","timeout","failed_images","failed_audio","failed_video","trial_type","trial_index","time_elapsed","internal_node_id","prolific_id","prolific_study_id","prolific_session_id","rt","stimulus","response","view_history","trial","character_choice","stimulus_dict","accuracy","correct_response","ball_pos","ego_ball_visible","ego_can_infer","alter_ball_visible","alter_can_infer","collective_ball_visible","collective_can_infer","search_locations","alter_occluders","ego_occluders","accuracy_bool","feedback","age","ethnicity","gender","race","overall_accuracy","bonus"
"true","false","[]","[]","[]","preload","0","1469","0.0-0.0","60fcb7afde5ab78707e377d6","665500ab8938657b03fbdba8","665781e88ba415969ed7af44","","","","","","","","","","","","","","","","","","","","","","","","","","",""
"true","","","","","fullscreen","1","3552","0.0-1.0","60fcb7afde5ab78707e377d6","665500ab8938657b03fbdba8","665781e88ba415969ed7af44","","","","","","","","","","","","","","","","","","","","","","","","","","",""
"","","","","","html-button-response","2","29983","0.0-2.0","60fcb7afde5ab78707e377d6","665500ab8938657b03fbdba8","665781e88ba415969ed7af44","26429","<p><b>Consent Form</b></p> <div style=""text-align:left;background-color:lightgrey; padding:20px; max-width:900px;""><p>Please consider this information carefully before deciding whether to participate in this research.</p> <p>The purpose of this research is to examine which factors influence social judgment and decision-making. You will be asked to make judgements about individuals and actions in social scenarios. We are simply interested in your judgement. The study will take less than 1 hour to complete, and you will receive less than $20 on Prolific. Your compensation and time commitment are specified in the study description. There are no anticipated risks associated with participating in this study. The effects of participating should be comparable to those you would ordinarily experience from viewing a computer monitor and using a mouse or keyboard for a similar amount of time. At the end of the study, we will provide an explanation of the questions that motivate this line of research and will describe the potential implications. </p><p> Your participation in this study is completely voluntary and you may refuse to participate or you may choose to withdraw at any time without penalty or loss of benefits to you which are otherwise entitled. Your participation in this study will remain confidential. No personally identifiable information will be associated with your data. Also, all analyses of the data will be averaged across all the participants, so your individual responses will never be specifically analyzed. </p><p> If you have questions or concerns about your participation or payment, or want to request a summary of research findings, please contact Dr. Jonathan Phillips at Jonathan.S.Phillips@dartmouth.edu. </p><p> Please save a copy of this form for your records. </p><p><b>Agreement: </b>The nature and purpose of this research have been sufficiently explained and I agree to participate in this study. I understand that I am free to withdraw at any time without incurring any penalty. Please consent by clicking the button below to continue. Otherwise, please exit the study at any time. </p>","0","","","","","","","","","","","","","","","","","","","","","","","",""
"","","","","","instructions","3","71308","0.0-3.0-0.0","60fcb7afde5ab78707e377d6","665500ab8938657b03fbdba8","665781e88ba415969ed7af44","41323","","","[{""page_index"":0,""viewing_time"":1447},{""page_index"":1,""viewing_time"":1235},{""page_index"":2,""viewing_time"":1849},{""page_index"":3,""viewing_time"":3313},{""page_index"":4,""viewing_time"":2209},{""page_index"":5,""viewing_time"":3287},{""page_index"":6,""viewing_time"":3492},{""page_index"":7,""viewing_time"":2253},{""page_index"":8,""viewing_time"":3609},{""page_index"":9,""viewing_time"":2205},{""page_index"":10,""viewing_time"":5263},{""page_index"":11,""viewing_time"":4861},{""page_index"":12,""viewing_time"":5254},{""page_index"":13,""viewing_time"":1045}]","intro","","","","","","","","","","","","","","","","","","","","","",""
"","","","","","image-keyboard-response","4","74088","0.0-3.0-1.0","60fcb7afde5ab78707e377d6","665500ab8938657b03fbdba8","665781e88ba415969ed7af44","2771","stimuli/2001110.jpg","2","","prediction_practice","2","{""filepath"":""stimuli/2001110.jpg"",""ball_pos"":2,""ego_ball_visible"":true,""ego_can_infer"":true,""alter_ball_visible"":false,""alter_can_infer"":true,""collective_ball_visible"":false,""collective_can_infer"":true,""search_locations"":[2],""alter_occluders"":""001"",""ego_occluders"":""110""}","true","","","","","","","","","","","","","","","","","","",""
"","","","","","image-keyboard-response","5","75484","0.0-3.0-2.0","60fcb7afde5ab78707e377d6","665500ab8938657b03fbdba8","665781e88ba415969ed7af44","1395","stimuli/20011102.jpg"," ","","practrice_feedback","2","","","","","","","","","","","","","","","","","","","","",""
"","","","","","image-keyboard-response","6","76804","0.0-3.0-3.0","60fcb7afde5ab78707e377d6","665500ab8938657b03fbdba8","665781e88ba415969ed7af44","1319","stimuli/1001101.jpg","1","","prediction_practice","1","{""filepath"":""stimuli/1001101.jpg"",""ball_pos"":1,""ego_ball_visible"":true,""ego_can_infer"":true,""alter_ball_visible"":true,""alter_can_infer"":true,""collective_ball_visible"":true,""collective_can_infer"":true,""search_locations"":[1],""alter_occluders"":""001"",""ego_occluders"":""101""}","true","","","","","","","","","","","","","","","","","","",""
"","","","","","image-keyboard-response","7","77384","0.0-3.0-4.0","60fcb7afde5ab78707e377d6","665500ab8938657b03fbdba8","665781e88ba415969ed7af44","579","stimuli/10011011.jpg"," ","","practrice_feedback","1","","","","","","","","","","","","","","","","","","","","",""
"","","","","","image-keyboard-response","8","78203","0.0-3.0-5.0","60fcb7afde5ab78707e377d6","665500ab8938657b03fbdba8","665781e88ba415969ed7af44","818","stimuli/1001000.jpg","1","","prediction_practice","1","{""filepath"":""stimuli/1001000.jpg"",""ball_pos"":1,""ego_ball_visible"":true,""ego_can_infer"":true,""alter_ball_visible"":true,""alter_can_infer"":true,""collective_ball_visible"":true,""collective_can_infer"":true,""search_locations"":[1],""alter_occluders"":""001"",""ego_occluders"":""000""}","true","","","","","","","","","","","","","","","","","","",""
"","","","","","image-keyboard-response","9","78611","0.0-3.0-6.0","60fcb7afde5ab78707e377d6","665500ab8938657b03fbdba8","665781e88ba415969ed7af44","407","stimuli/10010001.jpg"," ","","practrice_feedback","1","","","","","","","","","","","","","","","","","","","","",""
"","","","","","image-keyboard-response","10","83651","0.0-3.0-7.0","60fcb7afde5ab78707e377d6","665500ab8938657b03fbdba8","665781e88ba415969ed7af44","5039","stimuli/0100101.jpg","2","","prediction_practice","0","{""filepath"":""stimuli/0100101.jpg"",""ball_pos"":0,""ego_ball_visible"":false,""ego_can_infer"":false,""alter_ball_visible"":false,""alter_can_infer"":true,""collective_ball_visible"":false,""collective_can_infer"":false,""search_locations"":[0],""alter_occluders"":""100"",""ego_occluders"":""101""}","false","","","","","","","","","","","","","","","","","","",""
"","","","","","image-keyboard-response","11","84556","0.0-3.0-8.0","60fcb7afde5ab78707e377d6","665500ab8938657b03fbdba8","665781e88ba415969ed7af44","904","stimuli/01001010.jpg"," ","","practrice_feedback","0","","","","","","","","","","","","","","","","","","","","",""
"","","","","","image-keyboard-response","12","85900","0.0-3.0-9.0","60fcb7afde5ab78707e377d6","665500ab8938657b03fbdba8","665781e88ba415969ed7af44","1343","stimuli/0110100.jpg","0","","prediction_practice","0","{""filepath"":""stimuli/0110100.jpg"",""ball_pos"":0,""ego_ball_visible"":false,""ego_can_infer"":true,""alter_ball_visible"":false,""alter_can_infer"":false,""collective_ball_visible"":false,""collective_can_infer"":false,""search_locations"":[0,1],""alter_occluders"":""110"",""ego_occluders"":""100""}","true","","","","","","","","","","","","","","","","","","",""
"","","","","","image-keyboard-response","13","87303","0.0-3.0-10.0","60fcb7afde5ab78707e377d6","665500ab8938657b03fbdba8","665781e88ba415969ed7af44","1403","stimuli/01101000.jpg"," ","","practrice_feedback","0","","","","","","","","","","","","","","","","","","","","",""
"","","","","","image-keyboard-response","14","89244","0.0-3.0-11.0","60fcb7afde5ab78707e377d6","665500ab8938657b03fbdba8","665781e88ba415969ed7af44","1940","stimuli/1000110.jpg","1","","prediction_practice","1","{""filepath"":""stimuli/1000110.jpg"",""ball_pos"":1,""ego_ball_visible"":false,""ego_can_infer"":false,""alter_ball_visible"":true,""alter_can_infer"":true,""collective_ball_visible"":false,""collective_can_infer"":false,""search_locations"":[1],""alter_occluders"":""000"",""ego_occluders"":""110""}","true","","","","","","","","","","","","","","","","","","",""
"","","","","","image-keyboard-response","15","90005","0.0-3.0-12.0","60fcb7afde5ab78707e377d6","665500ab8938657b03fbdba8","665781e88ba415969ed7af44","760","stimuli/10001101.jpg"," ","","practrice_feedback","1","","","","","","","","","","","","","","","","","","","","",""
"","","","","","image-keyboard-response","16","92165","0.0-3.0-13.0","60fcb7afde5ab78707e377d6","665500ab8938657b03fbdba8","665781e88ba415969ed7af44","2160","stimuli/1011100.jpg","1","","prediction_practice","2","{""filepath"":""stimuli/1011100.jpg"",""ball_pos"":1,""ego_ball_visible"":true,""ego_can_infer"":true,""alter_ball_visible"":false,""alter_can_infer"":false,""collective_ball_visible"":false,""collective_can_infer"":false,""search_locations"":[2,1],""alter_occluders"":""011"",""ego_occluders"":""100""}","false","","","","","","","","","","","","","","","","","","",""
"","","","","","image-keyboard-response","17","92778","0.0-3.0-14.0","60fcb7afde5ab78707e377d6","665500ab8938657b03fbdba8","665781e88ba415969ed7af44","612","stimuli/10111002.jpg"," ","","practrice_feedback","2","","","","","","","","","","","","","","","","","","","","",""
"","","","","","image-keyboard-response","18","94775","0.0-3.0-15.0","60fcb7afde5ab78707e377d6","665500ab8938657b03fbdba8","665781e88ba415969ed7af44","1996","stimuli/2010001.jpg","2","","prediction_practice","2","{""filepath"":""stimuli/2010001.jpg"",""ball_pos"":2,""ego_ball_visible"":false,""ego_can_infer"":true,""alter_ball_visible"":true,""alter_can_infer"":true,""collective_ball_visible"":false,""collective_can_infer"":true,""search_locations"":[2],""alter_occluders"":""010"",""ego_occluders"":""001""}","true","","","","","","","","","","","","","","","","","","",""
"","","","","","image-keyboard-response","19","95371","0.0-3.0-16.0","60fcb7afde5ab78707e377d6","665500ab8938657b03fbdba8","665781e88ba415969ed7af44","596","stimuli/20100012.jpg"," ","","practrice_feedback","2","","","","","","","","","","","","","","","","","","","","",""
"","","","","","image-keyboard-response","20","97488","0.0-3.0-17.0","60fcb7afde5ab78707e377d6","665500ab8938657b03fbdba8","665781e88ba415969ed7af44","2116","stimuli/0100100.jpg","0","","prediction_practice","0","{""filepath"":""stimuli/0100100.jpg"",""ball_pos"":0,""ego_ball_visible"":false,""ego_can_infer"":true,""alter_ball_visible"":false,""alter_can_infer"":true,""collective_ball_visible"":false,""collective_can_infer"":true,""search_locations"":[0],""alter_occluders"":""100"",""ego_occluders"":""100""}","true","","","","","","","","","","","","","","","","","","",""
"","","","","","image-keyboard-response","21","97968","0.0-3.0-18.0","60fcb7afde5ab78707e377d6","665500ab8938657b03fbdba8","665781e88ba415969ed7af44","479","stimuli/01001000.jpg"," ","","practrice_feedback","0","","","","","","","","","","","","","","","","","","","","",""
"","","","","","image-keyboard-response","22","99420","0.0-3.0-19.0","60fcb7afde5ab78707e377d6","665500ab8938657b03fbdba8","665781e88ba415969ed7af44","1451","stimuli/2010101.jpg","0","","prediction_practice","2","{""filepath"":""stimuli/2010101.jpg"",""ball_pos"":2,""ego_ball_visible"":false,""ego_can_infer"":false,""alter_ball_visible"":true,""alter_can_infer"":true,""collective_ball_visible"":false,""collective_can_infer"":false,""search_locations"":[2],""alter_occluders"":""010"",""ego_occluders"":""101""}","false","","","","","","","","","","","","","","","","","","",""
"","","","","","image-keyboard-response","23","100055","0.0-3.0-20.0","60fcb7afde5ab78707e377d6","665500ab8938657b03fbdba8","665781e88ba415969ed7af44","635","stimuli/20101012.jpg"," ","","practrice_feedback","2","","","","","","","","","","","","","","","","","","","","",""
"","","","","","html-button-response","24","102957","0.0-3.0-21.0","60fcb7afde5ab78707e377d6","665500ab8938657b03fbdba8","665781e88ba415969ed7af44","2901","Now that you've had some practice, you'll be tested with a couple of easy trials. If you correctly predict Sam's choice, you'll move on to complete the experiment!","0","","","","","","","","","","","","","","","","","","","","","","","",""
"","","","","","image-keyboard-response","25","104213","0.0-3.0-22.0-0.0","60fcb7afde5ab78707e377d6","665500ab8938657b03fbdba8","665781e88ba415969ed7af44","1255","stimuli/0000011.jpg","arrowleft","","comprehension_quiz","","","true","arrowleft","","","","","","","","","","","","","","","","","",""
"","","","","","image-keyboard-response","26","105051","0.0-3.0-22.0-1.0","60fcb7afde5ab78707e377d6","665500ab8938657b03fbdba8","665781e88ba415969ed7af44","837","stimuli/00000110.jpg"," ","","comprehension_quiz","","","true"," ","","","","","","","","","","","","","","","","","",""
"","","","","","image-keyboard-response","27","106292","0.0-3.0-22.0-2.0","60fcb7afde5ab78707e377d6","665500ab8938657b03fbdba8","665781e88ba415969ed7af44","1240","stimuli/1010010.jpg","arrowdown","","comprehension_quiz","","","true","arrowdown","","","","","","","","","","","","","","","","","",""
"","","","","","image-keyboard-response","28","106773","0.0-3.0-22.0-3.0","60fcb7afde5ab78707e377d6","665500ab8938657b03fbdba8","665781e88ba415969ed7af44","480","stimuli/10100101.jpg"," ","","comprehension_quiz","","","true"," ","","","","","","","","","","","","","","","","","",""
"","","","","","html-button-response","29","107845","0.0-4.0","60fcb7afde5ab78707e377d6","665500ab8938657b03fbdba8","665781e88ba415969ed7af44","1071","The experiment will now begin.","0","","","","","","","","","","","","","","","","","","","","","","","",""
"","","","","","image-keyboard-response","30","109147","0.0-5.0","60fcb7afde5ab78707e377d6","665500ab8938657b03fbdba8","665781e88ba415969ed7af44","1301","stimuli/2010100.jpg","2","","prediction_trial","2","","true","","2","true","true","true","true","true","true","[2]","010","100","1","","","","","","",""
"","","","","","image-keyboard-response","31","109861","0.0-6.0","60fcb7afde5ab78707e377d6","665500ab8938657b03fbdba8","665781e88ba415969ed7af44","714","stimuli/20101002.jpg"," ","","feedback_trial","2","","","","","","","","","","","","","","","","","","","","",""
"","","","","","image-keyboard-response","32","111000","0.0-7.0","60fcb7afde5ab78707e377d6","665500ab8938657b03fbdba8","665781e88ba415969ed7af44","1137","stimuli/2001000.jpg","2","","prediction_trial","2","","true","","2","true","true","false","true","false","true","[2]","001","000","1","","","","","","",""
"","","","","","image-keyboard-response","33","111414","0.0-8.0","60fcb7afde5ab78707e377d6","665500ab8938657b03fbdba8","665781e88ba415969ed7af44","414","stimuli/20010002.jpg"," ","","feedback_trial","2","","","","","","","","","","","","","","","","","","","","",""
"","","","","","image-keyboard-response","34","112138","0.0-9.0","60fcb7afde5ab78707e377d6","665500ab8938657b03fbdba8","665781e88ba415969ed7af44","723","stimuli/2000010.jpg","2","","prediction_trial","2","","true","","2","true","true","true","true","true","true","[2]","000","010","1","","","","","","",""
"","","","","","image-keyboard-response","35","112598","0.0-10.0","60fcb7afde5ab78707e377d6","665500ab8938657b03fbdba8","665781e88ba415969ed7af44","459","stimuli/20000102.jpg"," ","","feedback_trial","2","","","","","","","","","","","","","","","","","","","","",""
"","","","","","image-keyboard-response","36","113344","0.0-11.0","60fcb7afde5ab78707e377d6","665500ab8938657b03fbdba8","665781e88ba415969ed7af44","746","stimuli/1000000.jpg","1","","prediction_trial","1","","true","","1","true","true","true","true","true","true","[1]","000","000","1","","","","","","",""
"","","","","","image-keyboard-response","37","113723","0.0-12.0","60fcb7afde5ab78707e377d6","665500ab8938657b03fbdba8","665781e88ba415969ed7af44","378","stimuli/10000001.jpg"," ","","feedback_trial","1","","","","","","","","","","","","","","","","","","","","",""
"","","","","","image-keyboard-response","38","114358","0.0-13.0","60fcb7afde5ab78707e377d6","665500ab8938657b03fbdba8","665781e88ba415969ed7af44","635","stimuli/0001000.jpg","0","","prediction_trial","0","","true","","0","true","true","true","true","true","true","[0]","001","000","1","","","","","","",""
"","","","","","image-keyboard-response","39","114739","0.0-14.0","60fcb7afde5ab78707e377d6","665500ab8938657b03fbdba8","665781e88ba415969ed7af44","380","stimuli/00010000.jpg"," ","","feedback_trial","0","","","","","","","","","","","","","","","","","","","","",""
"","","","","","image-keyboard-response","40","115628","0.0-15.0","60fcb7afde5ab78707e377d6","665500ab8938657b03fbdba8","665781e88ba415969ed7af44","888","stimuli/1000010.jpg","1","","prediction_trial","1","","true","","1","false","true","true","true","false","true","[1]","000","010","1","","","","","","",""
"","","","","","image-keyboard-response","41","116038","0.0-16.0","60fcb7afde5ab78707e377d6","665500ab8938657b03fbdba8","665781e88ba415969ed7af44","410","stimuli/10000101.jpg"," ","","feedback_trial","1","","","","","","","","","","","","","","","","","","","","",""
"","","","","","image-keyboard-response","42","116856","0.0-17.0","60fcb7afde5ab78707e377d6","665500ab8938657b03fbdba8","665781e88ba415969ed7af44","818","stimuli/2011111.jpg","0","","prediction_trial","1","","false","","2","false","false","false","false","false","false","[1,2]","011","111","0","","","","","","",""
"","","","","","image-keyboard-response","43","119870","0.0-18.0","60fcb7afde5ab78707e377d6","665500ab8938657b03fbdba8","665781e88ba415969ed7af44","3013","stimuli/20111111.jpg"," ","","feedback_trial","1","","","","","","","","","","","","","","","","","","","","",""
"","","","","","image-keyboard-response","44","122618","0.0-19.0","60fcb7afde5ab78707e377d6","665500ab8938657b03fbdba8","665781e88ba415969ed7af44","2747","stimuli/2001011.jpg","1","","prediction_trial","2","","false","","2","false","false","false","true","false","false","[2]","001","011","0","","","","","","",""
"","","","","","image-keyboard-response","45","123499","0.0-20.0","60fcb7afde5ab78707e377d6","665500ab8938657b03fbdba8","665781e88ba415969ed7af44","881","stimuli/20010112.jpg"," ","","feedback_trial","2","","","","","","","","","","","","","","","","","","","","",""
"","","","","","image-keyboard-response","46","124316","0.0-21.0","60fcb7afde5ab78707e377d6","665500ab8938657b03fbdba8","665781e88ba415969ed7af44","816","stimuli/2111110.jpg","2","","prediction_trial","2","","true","","2","true","true","false","false","false","false","[0,1,2]","111","110","1","","","","","","",""
"","","","","","image-keyboard-response","47","124839","0.0-22.0","60fcb7afde5ab78707e377d6","665500ab8938657b03fbdba8","665781e88ba415969ed7af44","522","stimuli/21111102.jpg"," ","","feedback_trial","0","","","","","","","","","","","","","","","","","","","","",""
"","","","","","image-keyboard-response","48","125419","0.0-23.0","60fcb7afde5ab78707e377d6","665500ab8938657b03fbdba8","665781e88ba415969ed7af44","580","stimuli/0100011.jpg","0","","prediction_trial","0","","true","","0","true","true","false","true","false","true","[0]","100","011","1","","","","","","",""
"","","","","","image-keyboard-response","49","126018","0.0-24.0","60fcb7afde5ab78707e377d6","665500ab8938657b03fbdba8","665781e88ba415969ed7af44","597","stimuli/01000110.jpg"," ","","feedback_trial","0","","","","","","","","","","","","","","","","","","","","",""
"","","","","","image-keyboard-response","50","127723","0.0-25.0","60fcb7afde5ab78707e377d6","665500ab8938657b03fbdba8","665781e88ba415969ed7af44","1705","stimuli/2111011.jpg","2","","prediction_trial","0","","false","","2","false","false","false","false","false","false","[0,2,1]","111","011","0","","","","","","",""
"","","","","","image-keyboard-response","51","128806","0.0-26.0","60fcb7afde5ab78707e377d6","665500ab8938657b03fbdba8","665781e88ba415969ed7af44","1083","stimuli/21110110.jpg"," ","","feedback_trial","0","","","","","","","","","","","","","","","","","","","","",""
"","","","","","image-keyboard-response","52","129824","0.0-27.0","60fcb7afde5ab78707e377d6","665500ab8938657b03fbdba8","665781e88ba415969ed7af44","1017","stimuli/0100000.jpg","0","","prediction_trial","0","","true","","0","true","true","false","true","false","true","[0]","100","000","1","","","","","","",""
"","","","","","image-keyboard-response","53","130303","0.0-28.0","60fcb7afde5ab78707e377d6","665500ab8938657b03fbdba8","665781e88ba415969ed7af44","477","stimuli/01000000.jpg"," ","","feedback_trial","0","","","","","","","","","","","","","","","","","","","","",""
"","","","","","image-keyboard-response","54","131304","0.0-29.0","60fcb7afde5ab78707e377d6","665500ab8938657b03fbdba8","665781e88ba415969ed7af44","1000","stimuli/2111000.jpg","2","","prediction_trial","0","","false","","2","true","true","false","false","false","false","[1,0,2]","111","000","0","","","","","","",""
"","","","","","image-keyboard-response","55","132325","0.0-30.0","60fcb7afde5ab78707e377d6","665500ab8938657b03fbdba8","665781e88ba415969ed7af44","1020","stimuli/21110000.jpg"," ","","feedback_trial","1","","","","","","","","","","","","","","","","","","","","",""
"","","","","","image-keyboard-response","56","133358","0.0-31.0","60fcb7afde5ab78707e377d6","665500ab8938657b03fbdba8","665781e88ba415969ed7af44","1032","stimuli/1110101.jpg","1","","prediction_trial","0","","false","","1","true","true","false","false","false","false","[1,0]","110","101","0","","","","","","",""
"","","","","","image-keyboard-response","57","134354","0.0-32.0","60fcb7afde5ab78707e377d6","665500ab8938657b03fbdba8","665781e88ba415969ed7af44","995","stimuli/11101010.jpg"," ","","feedback_trial","1","","","","","","","","","","","","","","","","","","","","",""
"","","","","","image-keyboard-response","58","135581","0.0-33.0","60fcb7afde5ab78707e377d6","665500ab8938657b03fbdba8","665781e88ba415969ed7af44","1227","stimuli/0101000.jpg","0","","prediction_trial","2","","false","","0","true","true","false","false","false","false","[2,0]","101","000","0","","","","","","",""
"","","","","","image-keyboard-response","59","136364","0.0-34.0","60fcb7afde5ab78707e377d6","665500ab8938657b03fbdba8","665781e88ba415969ed7af44","782","stimuli/01010002.jpg"," ","","feedback_trial","2","","","","","","","","","","","","","","","","","","","","",""
"","","","","","image-keyboard-response","60","137861","0.0-35.0","60fcb7afde5ab78707e377d6","665500ab8938657b03fbdba8","665781e88ba415969ed7af44","1497","stimuli/0100111.jpg","0","","prediction_trial","0","","true","","0","false","false","false","true","false","false","[0]","100","111","1","","","","","","",""
"","","","","","image-keyboard-response","61","138518","0.0-36.0","60fcb7afde5ab78707e377d6","665500ab8938657b03fbdba8","665781e88ba415969ed7af44","656","stimuli/01001110.jpg"," ","","feedback_trial","0","","","","","","","","","","","","","","","","","","","","",""
"","","","","","image-keyboard-response","62","139976","0.0-37.0","60fcb7afde5ab78707e377d6","665500ab8938657b03fbdba8","665781e88ba415969ed7af44","1458","stimuli/0111100.jpg","0","","prediction_trial","0","","true","","0","false","true","false","false","false","false","[1,0,2]","111","100","1","","","","","","",""
"","","","","","image-keyboard-response","63","140600","0.0-38.0","60fcb7afde5ab78707e377d6","665500ab8938657b03fbdba8","665781e88ba415969ed7af44","623","stimuli/01111000.jpg"," ","","feedback_trial","1","","","","","","","","","","","","","","","","","","","","",""
"","","","","","image-keyboard-response","64","141911","0.0-39.0","60fcb7afde5ab78707e377d6","665500ab8938657b03fbdba8","665781e88ba415969ed7af44","1311","stimuli/0001111.jpg","2","","prediction_trial","0","","false","","0","false","false","true","true","false","false","[0]","001","111","0","","","","","","",""
"","","","","","image-keyboard-response","65","142639","0.0-40.0","60fcb7afde5ab78707e377d6","665500ab8938657b03fbdba8","665781e88ba415969ed7af44","727","stimuli/00011110.jpg"," ","","feedback_trial","0","","","","","","","","","","","","","","","","","","","","",""
"","","","","","image-keyboard-response","66","143470","0.0-41.0","60fcb7afde5ab78707e377d6","665500ab8938657b03fbdba8","665781e88ba415969ed7af44","830","stimuli/1001100.jpg","1","","prediction_trial","1","","true","","1","true","true","true","true","true","true","[1]","001","100","1","","","","","","",""
"","","","","","image-keyboard-response","67","143900","0.0-42.0","60fcb7afde5ab78707e377d6","665500ab8938657b03fbdba8","665781e88ba415969ed7af44","429","stimuli/10011001.jpg"," ","","feedback_trial","1","","","","","","","","","","","","","","","","","","","","",""
"","","","","","image-keyboard-response","68","148092","0.0-43.0","60fcb7afde5ab78707e377d6","665500ab8938657b03fbdba8","665781e88ba415969ed7af44","4192","stimuli/2001101.jpg","0","","prediction_trial","2","","false","","2","false","false","false","true","false","false","[2]","001","101","0","","","","","","",""
"","","","","","image-keyboard-response","69","148696","0.0-44.0","60fcb7afde5ab78707e377d6","665500ab8938657b03fbdba8","665781e88ba415969ed7af44","603","stimuli/20011012.jpg"," ","","feedback_trial","2","","","","","","","","","","","","","","","","","","","","",""
"","","","","","image-keyboard-response","70","149304","0.0-45.0","60fcb7afde5ab78707e377d6","665500ab8938657b03fbdba8","665781e88ba415969ed7af44","607","stimuli/0000011.jpg","0","","prediction_trial","0","","true","","0","true","true","true","true","true","true","[0]","000","011","1","","","","","","",""
"","","","","","image-keyboard-response","71","149670","0.0-46.0","60fcb7afde5ab78707e377d6","665500ab8938657b03fbdba8","665781e88ba415969ed7af44","365","stimuli/00000110.jpg"," ","","feedback_trial","0","","","","","","","","","","","","","","","","","","","","",""
"","","","","","image-keyboard-response","72","151144","0.0-47.0","60fcb7afde5ab78707e377d6","665500ab8938657b03fbdba8","665781e88ba415969ed7af44","1474","stimuli/1110011.jpg","2","","prediction_trial","1","","false","","1","false","false","false","false","false","false","[0,1]","110","011","0","","","","","","",""
"","","","","","image-keyboard-response","73","151731","0.0-48.0","60fcb7afde5ab78707e377d6","665500ab8938657b03fbdba8","665781e88ba415969ed7af44","585","stimuli/11100111.jpg"," ","","feedback_trial","0","","","","","","","","","","","","","","","","","","","","",""
"","","","","","image-keyboard-response","74","154572","0.0-49.0","60fcb7afde5ab78707e377d6","665500ab8938657b03fbdba8","665781e88ba415969ed7af44","2840","stimuli/0011110.jpg","2","","prediction_trial","0","","false","","0","false","false","true","true","false","false","[0]","011","110","0","","","","","","",""
"","","","","","image-keyboard-response","75","155173","0.0-50.0","60fcb7afde5ab78707e377d6","665500ab8938657b03fbdba8","665781e88ba415969ed7af44","600","stimuli/00111100.jpg"," ","","feedback_trial","0","","","","","","","","","","","","","","","","","","","","",""
"","","","","","image-keyboard-response","76","157869","0.0-51.0","60fcb7afde5ab78707e377d6","665500ab8938657b03fbdba8","665781e88ba415969ed7af44","2696","stimuli/1010110.jpg","0","","prediction_trial","1","","false","","1","false","false","false","true","false","false","[1]","010","110","0","","","","","","",""
"","","","","","image-keyboard-response","77","158402","0.0-52.0","60fcb7afde5ab78707e377d6","665500ab8938657b03fbdba8","665781e88ba415969ed7af44","533","stimuli/10101101.jpg"," ","","feedback_trial","1","","","","","","","","","","","","","","","","","","","","",""
"","","","","","image-keyboard-response","78","159259","0.0-53.0","60fcb7afde5ab78707e377d6","665500ab8938657b03fbdba8","665781e88ba415969ed7af44","857","stimuli/1001001.jpg","1","","prediction_trial","1","","true","","1","true","true","true","true","true","true","[1]","001","001","1","","","","","","",""
"","","","","","image-keyboard-response","79","159764","0.0-54.0","60fcb7afde5ab78707e377d6","665500ab8938657b03fbdba8","665781e88ba415969ed7af44","504","stimuli/10010011.jpg"," ","","feedback_trial","1","","","","","","","","","","","","","","","","","","","","",""
"","","","","","image-keyboard-response","80","161195","0.0-55.0","60fcb7afde5ab78707e377d6","665500ab8938657b03fbdba8","665781e88ba415969ed7af44","1430","stimuli/1111010.jpg","1","","prediction_trial","0","","false","","1","false","true","false","false","false","false","[0,2,1]","111","010","0","","","","","","",""
"","","","","","image-keyboard-response","81","161672","0.0-56.0","60fcb7afde5ab78707e377d6","665500ab8938657b03fbdba8","665781e88ba415969ed7af44","476","stimuli/11110100.jpg"," ","","feedback_trial","0","","","","","","","","","","","","","","","","","","","","",""
"","","","","","image-keyboard-response","82","162429","0.0-57.0","60fcb7afde5ab78707e377d6","665500ab8938657b03fbdba8","665781e88ba415969ed7af44","757","stimuli/0011010.jpg","0","","prediction_trial","0","","true","","0","true","true","true","true","true","true","[0]","011","010","1","","","","","","",""
"","","","","","image-keyboard-response","83","162815","0.0-58.0","60fcb7afde5ab78707e377d6","665500ab8938657b03fbdba8","665781e88ba415969ed7af44","385","stimuli/00110100.jpg"," ","","feedback_trial","0","","","","","","","","","","","","","","","","","","","","",""
"","","","","","image-keyboard-response","84","164790","0.0-59.0","60fcb7afde5ab78707e377d6","665500ab8938657b03fbdba8","665781e88ba415969ed7af44","1975","stimuli/2000111.jpg","2","","prediction_trial","2","","true","","2","false","false","true","true","false","false","[2]","000","111","1","","","","","","",""
"","","","","","image-keyboard-response","85","165327","0.0-60.0","60fcb7afde5ab78707e377d6","665500ab8938657b03fbdba8","665781e88ba415969ed7af44","536","stimuli/20001112.jpg"," ","","feedback_trial","2","","","","","","","","","","","","","","","","","","","","",""
"","","","","","image-keyboard-response","86","167249","0.0-61.0","60fcb7afde5ab78707e377d6","665500ab8938657b03fbdba8","665781e88ba415969ed7af44","1921","stimuli/1010111.jpg","0","","prediction_trial","1","","false","","1","false","false","false","true","false","false","[1]","010","111","0","","","","","","",""
"","","","","","image-keyboard-response","87","167936","0.0-62.0","60fcb7afde5ab78707e377d6","665500ab8938657b03fbdba8","665781e88ba415969ed7af44","686","stimuli/10101111.jpg"," ","","feedback_trial","1","","","","","","","","","","","","","","","","","","","","",""
"","","","","","image-keyboard-response","88","169953","0.0-63.0","60fcb7afde5ab78707e377d6","665500ab8938657b03fbdba8","665781e88ba415969ed7af44","2016","stimuli/0110001.jpg","0","","prediction_trial","0","","true","","0","true","true","false","false","false","false","[0,1]","110","001","1","","","","","","",""
"","","","","","image-keyboard-response","89","170351","0.0-64.0","60fcb7afde5ab78707e377d6","665500ab8938657b03fbdba8","665781e88ba415969ed7af44","397","stimuli/01100010.jpg"," ","","feedback_trial","0","","","","","","","","","","","","","","","","","","","","",""
"","","","","","image-keyboard-response","90","171561","0.0-65.0","60fcb7afde5ab78707e377d6","665500ab8938657b03fbdba8","665781e88ba415969ed7af44","1210","stimuli/2001001.jpg","1","","prediction_trial","2","","false","","2","false","true","false","true","false","true","[2]","001","001","0","","","","","","",""
"","","","","","image-keyboard-response","91","172006","0.0-66.0","60fcb7afde5ab78707e377d6","665500ab8938657b03fbdba8","665781e88ba415969ed7af44","444","stimuli/20010012.jpg"," ","","feedback_trial","2","","","","","","","","","","","","","","","","","","","","",""
"","","","","","image-keyboard-response","92","174116","0.0-67.0","60fcb7afde5ab78707e377d6","665500ab8938657b03fbdba8","665781e88ba415969ed7af44","2110","stimuli/0101011.jpg","0","","prediction_trial","2","","false","","0","true","true","false","false","false","false","[0,2]","101","011","0","","","","","","",""
"","","","","","image-keyboard-response","93","174606","0.0-68.0","60fcb7afde5ab78707e377d6","665500ab8938657b03fbdba8","665781e88ba415969ed7af44","489","stimuli/01010112.jpg"," ","","feedback_trial","0","","","","","","","","","","","","","","","","","","","","",""
"","","","","","image-keyboard-response","94","176217","0.0-69.0","60fcb7afde5ab78707e377d6","665500ab8938657b03fbdba8","665781e88ba415969ed7af44","1610","stimuli/1001011.jpg","2","","prediction_trial","1","","false","","1","false","false","true","true","false","false","[1]","001","011","0","","","","","","",""
"","","","","","image-keyboard-response","95","176722","0.0-70.0","60fcb7afde5ab78707e377d6","665500ab8938657b03fbdba8","665781e88ba415969ed7af44","504","stimuli/10010111.jpg"," ","","feedback_trial","1","","","","","","","","","","","","","","","","","","","","",""
"","","","","","image-keyboard-response","96","177858","0.0-71.0","60fcb7afde5ab78707e377d6","665500ab8938657b03fbdba8","665781e88ba415969ed7af44","1135","stimuli/2011010.jpg","2","","prediction_trial","2","","true","","2","true","true","false","false","false","false","[1,2]","011","010","1","","","","","","",""
"","","","","","image-keyboard-response","97","178345","0.0-72.0","60fcb7afde5ab78707e377d6","665500ab8938657b03fbdba8","665781e88ba415969ed7af44","486","stimuli/20110102.jpg"," ","","feedback_trial","1","","","","","","","","","","","","","","","","","","","","",""
"","","","","","image-keyboard-response","98","179656","0.0-73.0","60fcb7afde5ab78707e377d6","665500ab8938657b03fbdba8","665781e88ba415969ed7af44","1310","stimuli/1110110.jpg","0","","prediction_trial","1","","false","","1","false","false","false","false","false","false","[0,1]","110","110","0","","","","","","",""
"","","","","","image-keyboard-response","99","180115","0.0-74.0","60fcb7afde5ab78707e377d6","665500ab8938657b03fbdba8","665781e88ba415969ed7af44","459","stimuli/11101101.jpg"," ","","feedback_trial","0","","","","","","","","","","","","","","","","","","","","",""
"","","","","","image-keyboard-response","100","182162","0.0-75.0","60fcb7afde5ab78707e377d6","665500ab8938657b03fbdba8","665781e88ba415969ed7af44","2046","stimuli/0011100.jpg","0","","prediction_trial","0","","true","","0","false","true","true","true","false","true","[0]","011","100","1","","","","","","",""
"","","","","","image-keyboard-response","101","182478","0.0-76.0","60fcb7afde5ab78707e377d6","665500ab8938657b03fbdba8","665781e88ba415969ed7af44","315","stimuli/00111000.jpg"," ","","feedback_trial","0","","","","","","","","","","","","","","","","","","","","",""
"","","","","","image-keyboard-response","102","184301","0.0-77.0","60fcb7afde5ab78707e377d6","665500ab8938657b03fbdba8","665781e88ba415969ed7af44","1822","stimuli/2011001.jpg","1","","prediction_trial","1","","true","","2","false","true","false","false","false","false","[1,2]","011","001","1","","","","","","",""
"","","","","","image-keyboard-response","103","184780","0.0-78.0","60fcb7afde5ab78707e377d6","665500ab8938657b03fbdba8","665781e88ba415969ed7af44","478","stimuli/20110011.jpg"," ","","feedback_trial","1","","","","","","","","","","","","","","","","","","","","",""
"","","","","","image-keyboard-response","104","185824","0.0-79.0","60fcb7afde5ab78707e377d6","665500ab8938657b03fbdba8","665781e88ba415969ed7af44","1044","stimuli/2001110.jpg","2","","prediction_trial","2","","true","","2","true","true","false","true","false","true","[2]","001","110","1","","","","","","",""
"","","","","","image-keyboard-response","105","186189","0.0-80.0","60fcb7afde5ab78707e377d6","665500ab8938657b03fbdba8","665781e88ba415969ed7af44","365","stimuli/20011102.jpg"," ","","feedback_trial","2","","","","","","","","","","","","","","","","","","","","",""
"","","","","","image-keyboard-response","106","187628","0.0-81.0","60fcb7afde5ab78707e377d6","665500ab8938657b03fbdba8","665781e88ba415969ed7af44","1438","stimuli/0010000.jpg","0","","prediction_trial","0","","true","","0","true","true","true","true","true","true","[0]","010","000","1","","","","","","",""
"","","","","","image-keyboard-response","107","187981","0.0-82.0","60fcb7afde5ab78707e377d6","665500ab8938657b03fbdba8","665781e88ba415969ed7af44","353","stimuli/00100000.jpg"," ","","feedback_trial","0","","","","","","","","","","","","","","","","","","","","",""
"","","","","","image-keyboard-response","108","189732","0.0-83.0","60fcb7afde5ab78707e377d6","665500ab8938657b03fbdba8","665781e88ba415969ed7af44","1750","stimuli/0101101.jpg","2","","prediction_trial","2","","true","","0","false","false","false","false","false","false","[0,2]","101","101","1","","","","","","",""
"","","","","","image-keyboard-response","109","190149","0.0-84.0","60fcb7afde5ab78707e377d6","665500ab8938657b03fbdba8","665781e88ba415969ed7af44","416","stimuli/01011012.jpg"," ","","feedback_trial","0","","","","","","","","","","","","","","","","","","","","",""
"","","","","","image-keyboard-response","110","190875","0.0-85.0","60fcb7afde5ab78707e377d6","665500ab8938657b03fbdba8","665781e88ba415969ed7af44","725","stimuli/1010100.jpg","1","","prediction_trial","1","","true","","1","true","true","false","true","false","true","[1]","010","100","1","","","","","","",""
"","","","","","image-keyboard-response","111","191397","0.0-86.0","60fcb7afde5ab78707e377d6","665500ab8938657b03fbdba8","665781e88ba415969ed7af44","521","stimuli/10101001.jpg"," ","","feedback_trial","1","","","","","","","","","","","","","","","","","","","","",""
"","","","","","image-keyboard-response","112","192073","0.0-87.0","60fcb7afde5ab78707e377d6","665500ab8938657b03fbdba8","665781e88ba415969ed7af44","675","stimuli/0111011.jpg","0","","prediction_trial","0","","true","","0","true","true","false","false","false","false","[0,2,1]","111","011","1","","","","","","",""
"","","","","","image-keyboard-response","113","192445","0.0-88.0","60fcb7afde5ab78707e377d6","665500ab8938657b03fbdba8","665781e88ba415969ed7af44","372","stimuli/01110110.jpg"," ","","feedback_trial","0","","","","","","","","","","","","","","","","","","","","",""
"","","","","","image-keyboard-response","114","193141","0.0-89.0","60fcb7afde5ab78707e377d6","665500ab8938657b03fbdba8","665781e88ba415969ed7af44","694","stimuli/2101000.jpg","2","","prediction_trial","0","","false","","2","true","true","false","false","false","false","[0,2]","101","000","0","","","","","","",""
"","","","","","image-keyboard-response","115","193782","0.0-90.0","60fcb7afde5ab78707e377d6","665500ab8938657b03fbdba8","665781e88ba415969ed7af44","641","stimuli/21010000.jpg"," ","","feedback_trial","0","","","","","","","","","","","","","","","","","","","","",""
"","","","","","image-keyboard-response","116","194837","0.0-91.0","60fcb7afde5ab78707e377d6","665500ab8938657b03fbdba8","665781e88ba415969ed7af44","1054","stimuli/0111110.jpg","1","","prediction_trial","1","","true","","0","false","false","false","false","false","false","[0,2,1]","111","110","1","","","","","","",""
"","","","","","image-keyboard-response","117","195274","0.0-92.0","60fcb7afde5ab78707e377d6","665500ab8938657b03fbdba8","665781e88ba415969ed7af44","437","stimuli/01111101.jpg"," ","","feedback_trial","0","","","","","","","","","","","","","","","","","","","","",""
"","","","","","image-keyboard-response","118","196035","0.0-93.0","60fcb7afde5ab78707e377d6","665500ab8938657b03fbdba8","665781e88ba415969ed7af44","760","stimuli/2000000.jpg","2","","prediction_trial","2","","true","","2","true","true","true","true","true","true","[2]","000","000","1","","","","","","",""
"","","","","","image-keyboard-response","119","196497","0.0-94.0","60fcb7afde5ab78707e377d6","665500ab8938657b03fbdba8","665781e88ba415969ed7af44","461","stimuli/20000002.jpg"," ","","feedback_trial","2","","","","","","","","","","","","","","","","","","","","",""
"","","","","","image-keyboard-response","120","197931","0.0-95.0","60fcb7afde5ab78707e377d6","665500ab8938657b03fbdba8","665781e88ba415969ed7af44","1433","stimuli/1100111.jpg","0","","prediction_trial","1","","false","","1","false","false","true","true","false","false","[1]","100","111","0","","","","","","",""
"","","","","","image-keyboard-response","121","198516","0.0-96.0","60fcb7afde5ab78707e377d6","665500ab8938657b03fbdba8","665781e88ba415969ed7af44","584","stimuli/11001111.jpg"," ","","feedback_trial","1","","","","","","","","","","","","","","","","","","","","",""
"","","","","","image-keyboard-response","122","199768","0.0-97.0","60fcb7afde5ab78707e377d6","665500ab8938657b03fbdba8","665781e88ba415969ed7af44","1251","stimuli/0000101.jpg","2","","prediction_trial","0","","false","","0","false","false","true","true","false","false","[0]","000","101","0","","","","","","",""
"","","","","","image-keyboard-response","123","200277","0.0-98.0","60fcb7afde5ab78707e377d6","665500ab8938657b03fbdba8","665781e88ba415969ed7af44","508","stimuli/00001010.jpg"," ","","feedback_trial","0","","","","","","","","","","","","","","","","","","","","",""
"","","","","","image-keyboard-response","124","201196","0.0-99.0","60fcb7afde5ab78707e377d6","665500ab8938657b03fbdba8","665781e88ba415969ed7af44","919","stimuli/1110001.jpg","1","","prediction_trial","0","","false","","1","true","true","false","false","false","false","[1,0]","110","001","0","","","","","","",""
"","","","","","image-keyboard-response","125","201790","0.0-100.0","60fcb7afde5ab78707e377d6","665500ab8938657b03fbdba8","665781e88ba415969ed7af44","594","stimuli/11100010.jpg"," ","","feedback_trial","1","","","","","","","","","","","","","","","","","","","","",""
"","","","","","image-keyboard-response","126","202836","0.0-101.0","60fcb7afde5ab78707e377d6","665500ab8938657b03fbdba8","665781e88ba415969ed7af44","1045","stimuli/1011101.jpg","1","","prediction_trial","2","","false","","1","true","true","false","false","false","false","[1,2]","011","101","0","","","","","","",""
"","","","","","image-keyboard-response","127","203338","0.0-102.0","60fcb7afde5ab78707e377d6","665500ab8938657b03fbdba8","665781e88ba415969ed7af44","501","stimuli/10111012.jpg"," ","","feedback_trial","1","","","","","","","","","","","","","","","","","","","","",""
"","","","","","image-keyboard-response","128","204209","0.0-103.0","60fcb7afde5ab78707e377d6","665500ab8938657b03fbdba8","665781e88ba415969ed7af44","871","stimuli/0010001.jpg","0","","prediction_trial","0","","true","","0","true","true","true","true","true","true","[0]","010","001","1","","","","","","",""
"","","","","","image-keyboard-response","129","204521","0.0-104.0","60fcb7afde5ab78707e377d6","665500ab8938657b03fbdba8","665781e88ba415969ed7af44","312","stimuli/00100010.jpg"," ","","feedback_trial","0","","","","","","","","","","","","","","","","","","","","",""
"","","","","","image-keyboard-response","130","205613","0.0-105.0","60fcb7afde5ab78707e377d6","665500ab8938657b03fbdba8","665781e88ba415969ed7af44","1091","stimuli/2000011.jpg","1","","prediction_trial","2","","false","","2","false","false","true","true","false","false","[2]","000","011","0","","","","","","",""
"","","","","","image-keyboard-response","131","206101","0.0-106.0","60fcb7afde5ab78707e377d6","665500ab8938657b03fbdba8","665781e88ba415969ed7af44","487","stimuli/20000112.jpg"," ","","feedback_trial","2","","","","","","","","","","","","","","","","","","","","",""
"","","","","","image-keyboard-response","132","207300","0.0-107.0","60fcb7afde5ab78707e377d6","665500ab8938657b03fbdba8","665781e88ba415969ed7af44","1198","stimuli/2110001.jpg","2","","prediction_trial","2","","true","","2","false","true","true","true","false","true","[2]","110","001","1","","","","","","",""
"","","","","","image-keyboard-response","133","207646","0.0-108.0","60fcb7afde5ab78707e377d6","665500ab8938657b03fbdba8","665781e88ba415969ed7af44","346","stimuli/21100012.jpg"," ","","feedback_trial","2","","","","","","","","","","","","","","","","","","","","",""
"","","","","","image-keyboard-response","134","208604","0.0-109.0","60fcb7afde5ab78707e377d6","665500ab8938657b03fbdba8","665781e88ba415969ed7af44","957","stimuli/1010010.jpg","1","","prediction_trial","1","","true","","1","false","true","false","true","false","true","[1]","010","010","1","","","","","","",""
"","","","","","image-keyboard-response","135","208922","0.0-110.0","60fcb7afde5ab78707e377d6","665500ab8938657b03fbdba8","665781e88ba415969ed7af44","318","stimuli/10100101.jpg"," ","","feedback_trial","1","","","","","","","","","","","","","","","","","","","","",""
"","","","","","image-keyboard-response","136","209698","0.0-111.0","60fcb7afde5ab78707e377d6","665500ab8938657b03fbdba8","665781e88ba415969ed7af44","775","stimuli/1100001.jpg","1","","prediction_trial","1","","true","","1","true","true","true","true","true","true","[1]","100","001","1","","","","","","",""
"","","","","","image-keyboard-response","137","209979","0.0-112.0","60fcb7afde5ab78707e377d6","665500ab8938657b03fbdba8","665781e88ba415969ed7af44","280","stimuli/11000011.jpg"," ","","feedback_trial","1","","","","","","","","","","","","","","","","","","","","",""
"","","","","","image-keyboard-response","138","211028","0.0-113.0","60fcb7afde5ab78707e377d6","665500ab8938657b03fbdba8","665781e88ba415969ed7af44","1049","stimuli/2101101.jpg","2","","prediction_trial","2","","true","","2","false","false","false","false","false","false","[0,2]","101","101","1","","","","","","",""
"","","","","","image-keyboard-response","139","211434","0.0-114.0","60fcb7afde5ab78707e377d6","665500ab8938657b03fbdba8","665781e88ba415969ed7af44","405","stimuli/21011012.jpg"," ","","feedback_trial","0","","","","","","","","","","","","","","","","","","","","",""
"","","","","","image-keyboard-response","140","212730","0.0-115.0","60fcb7afde5ab78707e377d6","665500ab8938657b03fbdba8","665781e88ba415969ed7af44","1295","stimuli/1000110.jpg","0","","prediction_trial","1","","false","","1","false","false","true","true","false","false","[1]","000","110","0","","","","","","",""
"","","","","","image-keyboard-response","141","213325","0.0-116.0","60fcb7afde5ab78707e377d6","665500ab8938657b03fbdba8","665781e88ba415969ed7af44","594","stimuli/10001101.jpg"," ","","feedback_trial","1","","","","","","","","","","","","","","","","","","","","",""
"","","","","","image-keyboard-response","142","215049","0.0-117.0","60fcb7afde5ab78707e377d6","665500ab8938657b03fbdba8","665781e88ba415969ed7af44","1723","stimuli/0110011.jpg","0","","prediction_trial","1","","false","","0","true","true","false","false","false","false","[0,1]","110","011","0","","","","","","",""
"","","","","","image-keyboard-response","143","215475","0.0-118.0","60fcb7afde5ab78707e377d6","665500ab8938657b03fbdba8","665781e88ba415969ed7af44","425","stimuli/01100111.jpg"," ","","feedback_trial","0","","","","","","","","","","","","","","","","","","","","",""
"","","","","","image-keyboard-response","144","216568","0.0-119.0","60fcb7afde5ab78707e377d6","665500ab8938657b03fbdba8","665781e88ba415969ed7af44","1092","stimuli/1111111.jpg","1","","prediction_trial","0","","false","","1","false","false","false","false","false","false","[1,2,0]","111","111","0","","","","","","",""
"","","","","","image-keyboard-response","145","217213","0.0-120.0","60fcb7afde5ab78707e377d6","665500ab8938657b03fbdba8","665781e88ba415969ed7af44","644","stimuli/11111110.jpg"," ","","feedback_trial","1","","","","","","","","","","","","","","","","","","","","",""
"","","","","","image-keyboard-response","146","219816","0.0-121.0","60fcb7afde5ab78707e377d6","665500ab8938657b03fbdba8","665781e88ba415969ed7af44","2603","stimuli/0001101.jpg","2","","prediction_trial","0","","false","","0","false","false","true","true","false","false","[0]","001","101","0","","","","","","",""
"","","","","","image-keyboard-response","147","220314","0.0-122.0","60fcb7afde5ab78707e377d6","665500ab8938657b03fbdba8","665781e88ba415969ed7af44","497","stimuli/00011010.jpg"," ","","feedback_trial","0","","","","","","","","","","","","","","","","","","","","",""
"","","","","","image-keyboard-response","148","221951","0.0-123.0","60fcb7afde5ab78707e377d6","665500ab8938657b03fbdba8","665781e88ba415969ed7af44","1637","stimuli/2010011.jpg","2","","prediction_trial","2","","true","","2","false","false","true","true","false","false","[2]","010","011","1","","","","","","",""
"","","","","","image-keyboard-response","149","222481","0.0-124.0","60fcb7afde5ab78707e377d6","665500ab8938657b03fbdba8","665781e88ba415969ed7af44","529","stimuli/20100112.jpg"," ","","feedback_trial","2","","","","","","","","","","","","","","","","","","","","",""
"","","","","","image-keyboard-response","150","223251","0.0-125.0","60fcb7afde5ab78707e377d6","665500ab8938657b03fbdba8","665781e88ba415969ed7af44","769","stimuli/0100010.jpg","0","","prediction_trial","0","","true","","0","true","true","false","true","false","true","[0]","100","010","1","","","","","","",""
"","","","","","image-keyboard-response","151","223758","0.0-126.0","60fcb7afde5ab78707e377d6","665500ab8938657b03fbdba8","665781e88ba415969ed7af44","507","stimuli/01000100.jpg"," ","","feedback_trial","0","","","","","","","","","","","","","","","","","","","","",""
"","","","","","image-keyboard-response","152","225571","0.0-127.0","60fcb7afde5ab78707e377d6","665500ab8938657b03fbdba8","665781e88ba415969ed7af44","1812","stimuli/2101110.jpg","2","","prediction_trial","2","","true","","2","true","true","false","false","false","false","[2,0]","101","110","1","","","","","","",""
"","","","","","image-keyboard-response","153","226073","0.0-128.0","60fcb7afde5ab78707e377d6","665500ab8938657b03fbdba8","665781e88ba415969ed7af44","501","stimuli/21011102.jpg"," ","","feedback_trial","2","","","","","","","","","","","","","","","","","","","","",""
"","","","","","image-keyboard-response","154","226831","0.0-129.0","60fcb7afde5ab78707e377d6","665500ab8938657b03fbdba8","665781e88ba415969ed7af44","756","stimuli/1001101.jpg","1","","prediction_trial","1","","true","","1","true","true","true","true","true","true","[1]","001","101","1","","","","","","",""
"","","","","","image-keyboard-response","155","227153","0.0-130.0","60fcb7afde5ab78707e377d6","665500ab8938657b03fbdba8","665781e88ba415969ed7af44","322","stimuli/10011011.jpg"," ","","feedback_trial","1","","","","","","","","","","","","","","","","","","","","",""
"","","","","","image-keyboard-response","156","228049","0.0-131.0","60fcb7afde5ab78707e377d6","665500ab8938657b03fbdba8","665781e88ba415969ed7af44","896","stimuli/0010101.jpg","2","","prediction_trial","0","","false","","0","false","false","true","true","false","false","[0]","010","101","0","","","","","","",""
"","","","","","image-keyboard-response","157","228520","0.0-132.0","60fcb7afde5ab78707e377d6","665500ab8938657b03fbdba8","665781e88ba415969ed7af44","470","stimuli/00101010.jpg"," ","","feedback_trial","0","","","","","","","","","","","","","","","","","","","","",""
"","","","","","image-keyboard-response","158","229344","0.0-133.0","60fcb7afde5ab78707e377d6","665500ab8938657b03fbdba8","665781e88ba415969ed7af44","823","stimuli/1001000.jpg","1","","prediction_trial","1","","true","","1","true","true","true","true","true","true","[1]","001","000","1","","","","","","",""
"","","","","","image-keyboard-response","159","229636","0.0-134.0","60fcb7afde5ab78707e377d6","665500ab8938657b03fbdba8","665781e88ba415969ed7af44","291","stimuli/10010001.jpg"," ","","feedback_trial","1","","","","","","","","","","","","","","","","","","","","",""
"","","","","","image-keyboard-response","160","230962","0.0-135.0","60fcb7afde5ab78707e377d6","665500ab8938657b03fbdba8","665781e88ba415969ed7af44","1325","stimuli/1100010.jpg","1","","prediction_trial","1","","true","","1","false","true","true","true","false","true","[1]","100","010","1","","","","","","",""
"","","","","","image-keyboard-response","161","231301","0.0-136.0","60fcb7afde5ab78707e377d6","665500ab8938657b03fbdba8","665781e88ba415969ed7af44","338","stimuli/11000101.jpg"," ","","feedback_trial","1","","","","","","","","","","","","","","","","","","","","",""
"","","","","","image-keyboard-response","162","233084","0.0-137.0","60fcb7afde5ab78707e377d6","665500ab8938657b03fbdba8","665781e88ba415969ed7af44","1782","stimuli/1011010.jpg","1","","prediction_trial","1","","true","","1","false","true","false","false","false","false","[1,2]","011","010","1","","","","","","",""
"","","","","","image-keyboard-response","163","233437","0.0-138.0","60fcb7afde5ab78707e377d6","665500ab8938657b03fbdba8","665781e88ba415969ed7af44","352","stimuli/10110101.jpg"," ","","feedback_trial","1","","","","","","","","","","","","","","","","","","","","",""
"","","","","","image-keyboard-response","164","234626","0.0-139.0","60fcb7afde5ab78707e377d6","665500ab8938657b03fbdba8","665781e88ba415969ed7af44","1188","stimuli/2011100.jpg","2","","prediction_trial","2","","true","","2","true","true","false","false","false","false","[1,2]","011","100","1","","","","","","",""
"","","","","","image-keyboard-response","165","234997","0.0-140.0","60fcb7afde5ab78707e377d6","665500ab8938657b03fbdba8","665781e88ba415969ed7af44","370","stimuli/20111002.jpg"," ","","feedback_trial","1","","","","","","","","","","","","","","","","","","","","",""
"","","","","","image-keyboard-response","166","236266","0.0-141.0","60fcb7afde5ab78707e377d6","665500ab8938657b03fbdba8","665781e88ba415969ed7af44","1268","stimuli/0101100.jpg","0","","prediction_trial","0","","true","","0","false","true","false","false","false","false","[2,0]","101","100","1","","","","","","",""
"","","","","","image-keyboard-response","167","236747","0.0-142.0","60fcb7afde5ab78707e377d6","665500ab8938657b03fbdba8","665781e88ba415969ed7af44","480","stimuli/01011000.jpg"," ","","feedback_trial","2","","","","","","","","","","","","","","","","","","","","",""
"","","","","","image-keyboard-response","168","237515","0.0-143.0","60fcb7afde5ab78707e377d6","665500ab8938657b03fbdba8","665781e88ba415969ed7af44","767","stimuli/2100010.jpg","2","","prediction_trial","2","","true","","2","true","true","true","true","true","true","[2]","100","010","1","","","","","","",""
"","","","","","image-keyboard-response","169","237807","0.0-144.0","60fcb7afde5ab78707e377d6","665500ab8938657b03fbdba8","665781e88ba415969ed7af44","292","stimuli/21000102.jpg"," ","","feedback_trial","2","","","","","","","","","","","","","","","","","","","","",""
"","","","","","image-keyboard-response","170","238535","0.0-145.0","60fcb7afde5ab78707e377d6","665500ab8938657b03fbdba8","665781e88ba415969ed7af44","726","stimuli/0000010.jpg","0","","prediction_trial","0","","true","","0","true","true","true","true","true","true","[0]","000","010","1","","","","","","",""
"","","","","","image-keyboard-response","171","238839","0.0-146.0","60fcb7afde5ab78707e377d6","665500ab8938657b03fbdba8","665781e88ba415969ed7af44","303","stimuli/00000100.jpg"," ","","feedback_trial","0","","","","","","","","","","","","","","","","","","","","",""
"","","","","","image-keyboard-response","172","239562","0.0-147.0","60fcb7afde5ab78707e377d6","665500ab8938657b03fbdba8","665781e88ba415969ed7af44","723","stimuli/0101010.jpg","0","","prediction_trial","0","","true","","0","true","true","false","false","false","false","[2,0]","101","010","1","","","","","","",""
"","","","","","image-keyboard-response","173","239853","0.0-148.0","60fcb7afde5ab78707e377d6","665500ab8938657b03fbdba8","665781e88ba415969ed7af44","290","stimuli/01010100.jpg"," ","","feedback_trial","2","","","","","","","","","","","","","","","","","","","","",""
"","","","","","image-keyboard-response","174","241393","0.0-149.0","60fcb7afde5ab78707e377d6","665500ab8938657b03fbdba8","665781e88ba415969ed7af44","1539","stimuli/2100011.jpg","2","","prediction_trial","2","","true","","2","false","false","true","true","false","false","[2]","100","011","1","","","","","","",""
"","","","","","image-keyboard-response","175","241760","0.0-150.0","60fcb7afde5ab78707e377d6","665500ab8938657b03fbdba8","665781e88ba415969ed7af44","366","stimuli/21000112.jpg"," ","","feedback_trial","2","","","","","","","","","","","","","","","","","","","","",""
"","","","","","image-keyboard-response","176","242773","0.0-151.0","60fcb7afde5ab78707e377d6","665500ab8938657b03fbdba8","665781e88ba415969ed7af44","1011","stimuli/2000101.jpg","2","","prediction_trial","2","","true","","2","false","false","true","true","false","false","[2]","000","101","1","","","","","","",""
"","","","","","image-keyboard-response","177","243134","0.0-152.0","60fcb7afde5ab78707e377d6","665500ab8938657b03fbdba8","665781e88ba415969ed7af44","361","stimuli/20001012.jpg"," ","","feedback_trial","2","","","","","","","","","","","","","","","","","","","","",""
"","","","","","image-keyboard-response","178","244891","0.0-153.0","60fcb7afde5ab78707e377d6","665500ab8938657b03fbdba8","665781e88ba415969ed7af44","1756","stimuli/1110111.jpg","2","","prediction_trial","0","","false","","1","false","false","false","false","false","false","[1,0]","110","111","0","","","","","","",""
"","","","","","image-keyboard-response","179","245503","0.0-154.0","60fcb7afde5ab78707e377d6","665500ab8938657b03fbdba8","665781e88ba415969ed7af44","611","stimuli/11101110.jpg"," ","","feedback_trial","1","","","","","","","","","","","","","","","","","","","","",""
"","","","","","image-keyboard-response","180","247777","0.0-155.0","60fcb7afde5ab78707e377d6","665500ab8938657b03fbdba8","665781e88ba415969ed7af44","2273","stimuli/1100110.jpg","1","","prediction_trial","1","","true","","1","false","false","true","true","false","false","[1]","100","110","1","","","","","","",""
"","","","","","image-keyboard-response","181","248315","0.0-156.0","60fcb7afde5ab78707e377d6","665500ab8938657b03fbdba8","665781e88ba415969ed7af44","537","stimuli/11001101.jpg"," ","","feedback_trial","1","","","","","","","","","","","","","","","","","","","","",""
"","","","","","image-keyboard-response","182","249397","0.0-157.0","60fcb7afde5ab78707e377d6","665500ab8938657b03fbdba8","665781e88ba415969ed7af44","1081","stimuli/2111111.jpg","0","","prediction_trial","1","","false","","2","false","false","false","false","false","false","[2,1,0]","111","111","0","","","","","","",""
"","","","","","image-keyboard-response","183","249904","0.0-158.0","60fcb7afde5ab78707e377d6","665500ab8938657b03fbdba8","665781e88ba415969ed7af44","507","stimuli/21111111.jpg"," ","","feedback_trial","2","","","","","","","","","","","","","","","","","","","","",""
"","","","","","image-keyboard-response","184","250802","0.0-159.0","60fcb7afde5ab78707e377d6","665500ab8938657b03fbdba8","665781e88ba415969ed7af44","897","stimuli/1111100.jpg","1","","prediction_trial","1","","true","","1","true","true","false","false","false","false","[0,2,1]","111","100","1","","","","","","",""
"","","","","","image-keyboard-response","185","251273","0.0-160.0","60fcb7afde5ab78707e377d6","665500ab8938657b03fbdba8","665781e88ba415969ed7af44","470","stimuli/11111001.jpg"," ","","feedback_trial","0","","","","","","","","","","","","","","","","","","","","",""
"","","","","","image-keyboard-response","186","252042","0.0-161.0","60fcb7afde5ab78707e377d6","665500ab8938657b03fbdba8","665781e88ba415969ed7af44","768","stimuli/0101001.jpg","0","","prediction_trial","0","","true","","0","true","true","false","false","false","false","[0,2]","101","001","1","","","","","","",""
"","","","","","image-keyboard-response","187","252530","0.0-162.0","60fcb7afde5ab78707e377d6","665500ab8938657b03fbdba8","665781e88ba415969ed7af44","488","stimuli/01010010.jpg"," ","","feedback_trial","0","","","","","","","","","","","","","","","","","","","","",""
"","","","","","image-keyboard-response","188","253805","0.0-163.0","60fcb7afde5ab78707e377d6","665500ab8938657b03fbdba8","665781e88ba415969ed7af44","1274","stimuli/1001110.jpg","1","","prediction_trial","1","","true","","1","false","false","true","true","false","false","[1]","001","110","1","","","","","","",""
"","","","","","image-keyboard-response","189","254251","0.0-164.0","60fcb7afde5ab78707e377d6","665500ab8938657b03fbdba8","665781e88ba415969ed7af44","445","stimuli/10011101.jpg"," ","","feedback_trial","1","","","","","","","","","","","","","","","","","","","","",""
"","","","","","image-keyboard-response","190","255197","0.0-165.0","60fcb7afde5ab78707e377d6","665500ab8938657b03fbdba8","665781e88ba415969ed7af44","945","stimuli/0010100.jpg","0","","prediction_trial","0","","true","","0","false","true","true","true","false","true","[0]","010","100","1","","","","","","",""
"","","","","","image-keyboard-response","191","255536","0.0-166.0","60fcb7afde5ab78707e377d6","665500ab8938657b03fbdba8","665781e88ba415969ed7af44","338","stimuli/00101000.jpg"," ","","feedback_trial","0","","","","","","","","","","","","","","","","","","","","",""
"","","","","","image-keyboard-response","192","256806","0.0-167.0","60fcb7afde5ab78707e377d6","665500ab8938657b03fbdba8","665781e88ba415969ed7af44","1270","stimuli/2100101.jpg","2","","prediction_trial","2","","true","","2","false","false","true","true","false","false","[2]","100","101","1","","","","","","",""
"","","","","","image-keyboard-response","193","257216","0.0-168.0","60fcb7afde5ab78707e377d6","665500ab8938657b03fbdba8","665781e88ba415969ed7af44","409","stimuli/21001012.jpg"," ","","feedback_trial","2","","","","","","","","","","","","","","","","","","","","",""
"","","","","","image-keyboard-response","194","257852","0.0-169.0","60fcb7afde5ab78707e377d6","665500ab8938657b03fbdba8","665781e88ba415969ed7af44","635","stimuli/0110010.jpg","0","","prediction_trial","1","","false","","0","true","true","false","false","false","false","[0,1]","110","010","0","","","","","","",""
"","","","","","image-keyboard-response","195","258587","0.0-170.0","60fcb7afde5ab78707e377d6","665500ab8938657b03fbdba8","665781e88ba415969ed7af44","734","stimuli/01100101.jpg"," ","","feedback_trial","0","","","","","","","","","","","","","","","","","","","","",""
"","","","","","image-keyboard-response","196","259228","0.0-171.0","60fcb7afde5ab78707e377d6","665500ab8938657b03fbdba8","665781e88ba415969ed7af44","640","stimuli/0010011.jpg","0","","prediction_trial","0","","true","","0","true","true","true","true","true","true","[0]","010","011","1","","","","","","",""
"","","","","","image-keyboard-response","197","259576","0.0-172.0","60fcb7afde5ab78707e377d6","665500ab8938657b03fbdba8","665781e88ba415969ed7af44","348","stimuli/00100110.jpg"," ","","feedback_trial","0","","","","","","","","","","","","","","","","","","","","",""
"","","","","","image-keyboard-response","198","260191","0.0-173.0","60fcb7afde5ab78707e377d6","665500ab8938657b03fbdba8","665781e88ba415969ed7af44","613","stimuli/2010110.jpg","2","","prediction_trial","2","","true","","2","true","true","true","true","true","true","[2]","010","110","1","","","","","","",""
"","","","","","image-keyboard-response","199","260527","0.0-174.0","60fcb7afde5ab78707e377d6","665500ab8938657b03fbdba8","665781e88ba415969ed7af44","335","stimuli/20101102.jpg"," ","","feedback_trial","2","","","","","","","","","","","","","","","","","","","","",""
"","","","","","image-keyboard-response","200","261788","0.0-175.0","60fcb7afde5ab78707e377d6","665500ab8938657b03fbdba8","665781e88ba415969ed7af44","1261","stimuli/1101111.jpg","1","","prediction_trial","1","","true","","1","false","false","true","true","false","false","[1]","101","111","1","","","","","","",""
"","","","","","image-keyboard-response","201","262193","0.0-176.0","60fcb7afde5ab78707e377d6","665500ab8938657b03fbdba8","665781e88ba415969ed7af44","405","stimuli/11011111.jpg"," ","","feedback_trial","1","","","","","","","","","","","","","","","","","","","","",""
"","","","","","image-keyboard-response","202","262930","0.0-177.0","60fcb7afde5ab78707e377d6","665500ab8938657b03fbdba8","665781e88ba415969ed7af44","735","stimuli/1100000.jpg","1","","prediction_trial","1","","true","","1","true","true","true","true","true","true","[1]","100","000","1","","","","","","",""
"","","","","","image-keyboard-response","203","263244","0.0-178.0","60fcb7afde5ab78707e377d6","665500ab8938657b03fbdba8","665781e88ba415969ed7af44","313","stimuli/11000001.jpg"," ","","feedback_trial","1","","","","","","","","","","","","","","","","","","","","",""
"","","","","","image-keyboard-response","204","263884","0.0-179.0","60fcb7afde5ab78707e377d6","665500ab8938657b03fbdba8","665781e88ba415969ed7af44","639","stimuli/0101111.jpg","1","","prediction_trial","0","","false","","0","false","false","false","false","false","false","[2,0]","101","111","0","","","","","","",""
"","","","","","image-keyboard-response","205","264506","0.0-180.0","60fcb7afde5ab78707e377d6","665500ab8938657b03fbdba8","665781e88ba415969ed7af44","621","stimuli/01011110.jpg"," ","","feedback_trial","2","","","","","","","","","","","","","","","","","","","","",""
"","","","","","image-keyboard-response","206","265424","0.0-181.0","60fcb7afde5ab78707e377d6","665500ab8938657b03fbdba8","665781e88ba415969ed7af44","917","stimuli/0000110.jpg","0","","prediction_trial","0","","true","","0","false","false","true","true","false","false","[0]","000","110","1","","","","","","",""
"","","","","","image-keyboard-response","207","265959","0.0-182.0","60fcb7afde5ab78707e377d6","665500ab8938657b03fbdba8","665781e88ba415969ed7af44","534","stimuli/00001100.jpg"," ","","feedback_trial","0","","","","","","","","","","","","","","","","","","","","",""
"","","","","","image-keyboard-response","208","267643","0.0-183.0","60fcb7afde5ab78707e377d6","665500ab8938657b03fbdba8","665781e88ba415969ed7af44","1683","stimuli/2100111.jpg","2","","prediction_trial","2","","true","","2","false","false","true","true","false","false","[2]","100","111","1","","","","","","",""
"","","","","","image-keyboard-response","209","268115","0.0-184.0","60fcb7afde5ab78707e377d6","665500ab8938657b03fbdba8","665781e88ba415969ed7af44","471","stimuli/21001112.jpg"," ","","feedback_trial","2","","","","","","","","","","","","","","","","","","","","",""
"","","","","","image-keyboard-response","210","269510","0.0-185.0","60fcb7afde5ab78707e377d6","665500ab8938657b03fbdba8","665781e88ba415969ed7af44","1394","stimuli/2110101.jpg","0","","prediction_trial","2","","false","","2","false","false","true","true","false","false","[2]","110","101","0","","","","","","",""
"","","","","","image-keyboard-response","211","270185","0.0-186.0","60fcb7afde5ab78707e377d6","665500ab8938657b03fbdba8","665781e88ba415969ed7af44","675","stimuli/21101012.jpg"," ","","feedback_trial","2","","","","","","","","","","","","","","","","","","","","",""
"","","","","","image-keyboard-response","212","270968","0.0-187.0","60fcb7afde5ab78707e377d6","665500ab8938657b03fbdba8","665781e88ba415969ed7af44","782","stimuli/0000000.jpg","0","","prediction_trial","0","","true","","0","true","true","true","true","true","true","[0]","000","000","1","","","","","","",""
"","","","","","image-keyboard-response","213","271268","0.0-188.0","60fcb7afde5ab78707e377d6","665500ab8938657b03fbdba8","665781e88ba415969ed7af44","299","stimuli/00000000.jpg"," ","","feedback_trial","0","","","","","","","","","","","","","","","","","","","","",""
"","","","","","image-keyboard-response","214","273193","0.0-189.0","60fcb7afde5ab78707e377d6","665500ab8938657b03fbdba8","665781e88ba415969ed7af44","1924","stimuli/2001111.jpg","1","","prediction_trial","2","","false","","2","false","false","false","true","false","false","[2]","001","111","0","","","","","","",""
"","","","","","image-keyboard-response","215","273715","0.0-190.0","60fcb7afde5ab78707e377d6","665500ab8938657b03fbdba8","665781e88ba415969ed7af44","521","stimuli/20011112.jpg"," ","","feedback_trial","2","","","","","","","","","","","","","","","","","","","","",""
"","","","","","image-keyboard-response","216","274615","0.0-191.0","60fcb7afde5ab78707e377d6","665500ab8938657b03fbdba8","665781e88ba415969ed7af44","899","stimuli/0001100.jpg","0","","prediction_trial","0","","true","","0","false","true","true","true","false","true","[0]","001","100","1","","","","","","",""
"","","","","","image-keyboard-response","217","275029","0.0-192.0","60fcb7afde5ab78707e377d6","665500ab8938657b03fbdba8","665781e88ba415969ed7af44","413","stimuli/00011000.jpg"," ","","feedback_trial","0","","","","","","","","","","","","","","","","","","","","",""
"","","","","","image-keyboard-response","218","276403","0.0-193.0","60fcb7afde5ab78707e377d6","665500ab8938657b03fbdba8","665781e88ba415969ed7af44","1373","stimuli/0001011.jpg","0","","prediction_trial","0","","true","","0","true","true","true","true","true","true","[0]","001","011","1","","","","","","",""
"","","","","","image-keyboard-response","219","276730","0.0-194.0","60fcb7afde5ab78707e377d6","665500ab8938657b03fbdba8","665781e88ba415969ed7af44","327","stimuli/00010110.jpg"," ","","feedback_trial","0","","","","","","","","","","","","","","","","","","","","",""
"","","","","","image-keyboard-response","220","277498","0.0-195.0","60fcb7afde5ab78707e377d6","665500ab8938657b03fbdba8","665781e88ba415969ed7af44","766","stimuli/2010000.jpg","2","","prediction_trial","2","","true","","2","true","true","true","true","true","true","[2]","010","000","1","","","","","","",""
"","","","","","image-keyboard-response","221","277820","0.0-196.0","60fcb7afde5ab78707e377d6","665500ab8938657b03fbdba8","665781e88ba415969ed7af44","322","stimuli/20100002.jpg"," ","","feedback_trial","2","","","","","","","","","","","","","","","","","","","","",""
"","","","","","image-keyboard-response","222","278740","0.0-197.0","60fcb7afde5ab78707e377d6","665500ab8938657b03fbdba8","665781e88ba415969ed7af44","919","stimuli/2010111.jpg","2","","prediction_trial","2","","true","","2","false","false","true","true","false","false","[2]","010","111","1","","","","","","",""
"","","","","","image-keyboard-response","223","279071","0.0-198.0","60fcb7afde5ab78707e377d6","665500ab8938657b03fbdba8","665781e88ba415969ed7af44","330","stimuli/20101112.jpg"," ","","feedback_trial","2","","","","","","","","","","","","","","","","","","","","",""
"","","","","","image-keyboard-response","224","280225","0.0-199.0","60fcb7afde5ab78707e377d6","665500ab8938657b03fbdba8","665781e88ba415969ed7af44","1153","stimuli/1010101.jpg","1","","prediction_trial","1","","true","","1","true","true","false","true","false","true","[1]","010","101","1","","","","","","",""
"","","","","","image-keyboard-response","225","280535","0.0-200.0","60fcb7afde5ab78707e377d6","665500ab8938657b03fbdba8","665781e88ba415969ed7af44","309","stimuli/10101011.jpg"," ","","feedback_trial","1","","","","","","","","","","","","","","","","","","","","",""
"","","","","","image-keyboard-response","226","281767","0.0-201.0","60fcb7afde5ab78707e377d6","665500ab8938657b03fbdba8","665781e88ba415969ed7af44","1231","stimuli/0111101.jpg","0","","prediction_trial","0","","true","","0","false","false","false","false","false","false","[1,2,0]","111","101","1","","","","","","",""
"","","","","","image-keyboard-response","227","282165","0.0-202.0","60fcb7afde5ab78707e377d6","665500ab8938657b03fbdba8","665781e88ba415969ed7af44","397","stimuli/01111010.jpg"," ","","feedback_trial","1","","","","","","","","","","","","","","","","","","","","",""
"","","","","","image-keyboard-response","228","282910","0.0-203.0","60fcb7afde5ab78707e377d6","665500ab8938657b03fbdba8","665781e88ba415969ed7af44","744","stimuli/1101000.jpg","1","","prediction_trial","1","","true","","1","true","true","true","true","true","true","[1]","101","000","1","","","","","","",""
"","","","","","image-keyboard-response","229","283205","0.0-204.0","60fcb7afde5ab78707e377d6","665500ab8938657b03fbdba8","665781e88ba415969ed7af44","295","stimuli/11010001.jpg"," ","","feedback_trial","1","","","","","","","","","","","","","","","","","","","","",""
"","","","","","image-keyboard-response","230","284012","0.0-205.0","60fcb7afde5ab78707e377d6","665500ab8938657b03fbdba8","665781e88ba415969ed7af44","806","stimuli/0011111.jpg","0","","prediction_trial","0","","true","","0","false","false","true","true","false","false","[0]","011","111","1","","","","","","",""
"","","","","","image-keyboard-response","231","284381","0.0-206.0","60fcb7afde5ab78707e377d6","665500ab8938657b03fbdba8","665781e88ba415969ed7af44","368","stimuli/00111110.jpg"," ","","feedback_trial","0","","","","","","","","","","","","","","","","","","","","",""
"","","","","","image-keyboard-response","232","285097","0.0-207.0","60fcb7afde5ab78707e377d6","665500ab8938657b03fbdba8","665781e88ba415969ed7af44","715","stimuli/2110100.jpg","2","","prediction_trial","2","","true","","2","true","true","true","true","true","true","[2]","110","100","1","","","","","","",""
"","","","","","image-keyboard-response","233","285381","0.0-208.0","60fcb7afde5ab78707e377d6","665500ab8938657b03fbdba8","665781e88ba415969ed7af44","283","stimuli/21101002.jpg"," ","","feedback_trial","2","","","","","","","","","","","","","","","","","","","","",""
"","","","","","image-keyboard-response","234","291779","0.0-209.0","60fcb7afde5ab78707e377d6","665500ab8938657b03fbdba8","665781e88ba415969ed7af44","6397","stimuli/0101110.jpg","1","","prediction_trial","2","","false","","0","false","false","false","false","false","false","[0,2]","101","110","0","","","","","","",""
"","","","","","image-keyboard-response","235","292195","0.0-210.0","60fcb7afde5ab78707e377d6","665500ab8938657b03fbdba8","665781e88ba415969ed7af44","415","stimuli/01011102.jpg"," ","","feedback_trial","0","","","","","","","","","","","","","","","","","","","","",""
"","","","","","image-keyboard-response","236","293375","0.0-211.0","60fcb7afde5ab78707e377d6","665500ab8938657b03fbdba8","665781e88ba415969ed7af44","1180","stimuli/1001010.jpg","1","","prediction_trial","1","","true","","1","false","true","true","true","false","true","[1]","001","010","1","","","","","","",""
"","","","","","image-keyboard-response","237","293763","0.0-212.0","60fcb7afde5ab78707e377d6","665500ab8938657b03fbdba8","665781e88ba415969ed7af44","387","stimuli/10010101.jpg"," ","","feedback_trial","1","","","","","","","","","","","","","","","","","","","","",""
"","","","","","image-keyboard-response","238","295114","0.0-213.0","60fcb7afde5ab78707e377d6","665500ab8938657b03fbdba8","665781e88ba415969ed7af44","1350","stimuli/1001111.jpg","0","","prediction_trial","1","","false","","1","false","false","true","true","false","false","[1]","001","111","0","","","","","","",""
"","","","","","image-keyboard-response","239","295596","0.0-214.0","60fcb7afde5ab78707e377d6","665500ab8938657b03fbdba8","665781e88ba415969ed7af44","481","stimuli/10011111.jpg"," ","","feedback_trial","1","","","","","","","","","","","","","","","","","","","","",""
"","","","","","image-keyboard-response","240","296266","0.0-215.0","60fcb7afde5ab78707e377d6","665500ab8938657b03fbdba8","665781e88ba415969ed7af44","670","stimuli/1101100.jpg","1","","prediction_trial","1","","true","","1","true","true","true","true","true","true","[1]","101","100","1","","","","","","",""
"","","","","","image-keyboard-response","241","296493","0.0-216.0","60fcb7afde5ab78707e377d6","665500ab8938657b03fbdba8","665781e88ba415969ed7af44","226","stimuli/11011001.jpg"," ","","feedback_trial","1","","","","","","","","","","","","","","","","","","","","",""
"","","","","","image-keyboard-response","242","297612","0.0-217.0","60fcb7afde5ab78707e377d6","665500ab8938657b03fbdba8","665781e88ba415969ed7af44","1118","stimuli/1101010.jpg","1","","prediction_trial","1","","true","","1","false","true","true","true","false","true","[1]","101","010","1","","","","","","",""
"","","","","","image-keyboard-response","243","297804","0.0-218.0","60fcb7afde5ab78707e377d6","665500ab8938657b03fbdba8","665781e88ba415969ed7af44","191","stimuli/11010101.jpg"," ","","feedback_trial","1","","","","","","","","","","","","","","","","","","","","",""
"","","","","","image-keyboard-response","244","298835","0.0-219.0","60fcb7afde5ab78707e377d6","665500ab8938657b03fbdba8","665781e88ba415969ed7af44","1031","stimuli/1101110.jpg","1","","prediction_trial","1","","true","","1","false","false","true","true","false","false","[1]","101","110","1","","","","","","",""
"","","","","","image-keyboard-response","245","299009","0.0-220.0","60fcb7afde5ab78707e377d6","665500ab8938657b03fbdba8","665781e88ba415969ed7af44","174","stimuli/11011101.jpg"," ","","feedback_trial","1","","","","","","","","","","","","","","","","","","","","",""
"","","","","","image-keyboard-response","246","300039","0.0-221.0","60fcb7afde5ab78707e377d6","665500ab8938657b03fbdba8","665781e88ba415969ed7af44","1028","stimuli/2000001.jpg","2","","prediction_trial","2","","true","","2","false","true","true","true","false","true","[2]","000","001","1","","","","","","",""
"","","","","","image-keyboard-response","247","300326","0.0-222.0","60fcb7afde5ab78707e377d6","665500ab8938657b03fbdba8","665781e88ba415969ed7af44","286","stimuli/20000012.jpg"," ","","feedback_trial","2","","","","","","","","","","","","","","","","","","","","",""
"","","","","","image-keyboard-response","248","300955","0.0-223.0","60fcb7afde5ab78707e377d6","665500ab8938657b03fbdba8","665781e88ba415969ed7af44","629","stimuli/2000100.jpg","2","","prediction_trial","2","","true","","2","true","true","true","true","true","true","[2]","000","100","1","","","","","","",""
"","","","","","image-keyboard-response","249","301154","0.0-224.0","60fcb7afde5ab78707e377d6","665500ab8938657b03fbdba8","665781e88ba415969ed7af44","198","stimuli/20001002.jpg"," ","","feedback_trial","2","","","","","","","","","","","","","","","","","","","","",""
"","","","","","image-keyboard-response","250","302079","0.0-225.0","60fcb7afde5ab78707e377d6","665500ab8938657b03fbdba8","665781e88ba415969ed7af44","924","stimuli/2100001.jpg","2","","prediction_trial","2","","true","","2","false","true","true","true","false","true","[2]","100","001","1","","","","","","",""
"","","","","","image-keyboard-response","251","302296","0.0-226.0","60fcb7afde5ab78707e377d6","665500ab8938657b03fbdba8","665781e88ba415969ed7af44","216","stimuli/21000012.jpg"," ","","feedback_trial","2","","","","","","","","","","","","","","","","","","","","",""
"","","","","","image-keyboard-response","252","303123","0.0-227.0","60fcb7afde5ab78707e377d6","665500ab8938657b03fbdba8","665781e88ba415969ed7af44","826","stimuli/1101001.jpg","1","","prediction_trial","1","","true","","1","true","true","true","true","true","true","[1]","101","001","1","","","","","","",""
"","","","","","image-keyboard-response","253","303299","0.0-228.0","60fcb7afde5ab78707e377d6","665500ab8938657b03fbdba8","665781e88ba415969ed7af44","175","stimuli/11010011.jpg"," ","","feedback_trial","1","","","","","","","","","","","","","","","","","","","","",""
"","","","","","image-keyboard-response","254","304379","0.0-229.0","60fcb7afde5ab78707e377d6","665500ab8938657b03fbdba8","665781e88ba415969ed7af44","1079","stimuli/0110100.jpg","0","","prediction_trial","1","","false","","0","false","true","false","false","false","false","[0,1]","110","100","0","","","","","","",""
"","","","","","image-keyboard-response","255","304614","0.0-230.0","60fcb7afde5ab78707e377d6","665500ab8938657b03fbdba8","665781e88ba415969ed7af44","235","stimuli/01101001.jpg"," ","","feedback_trial","0","","","","","","","","","","","","","","","","","","","","",""
"","","","","","image-keyboard-response","256","305298","0.0-231.0","60fcb7afde5ab78707e377d6","665500ab8938657b03fbdba8","665781e88ba415969ed7af44","683","stimuli/2110000.jpg","2","","prediction_trial","2","","true","","2","true","true","true","true","true","true","[2]","110","000","1","","","","","","",""
"","","","","","image-keyboard-response","257","305556","0.0-232.0","60fcb7afde5ab78707e377d6","665500ab8938657b03fbdba8","665781e88ba415969ed7af44","257","stimuli/21100002.jpg"," ","","feedback_trial","2","","","","","","","","","","","","","","","","","","","","",""
"","","","","","image-keyboard-response","258","306488","0.0-233.0","60fcb7afde5ab78707e377d6","665500ab8938657b03fbdba8","665781e88ba415969ed7af44","932","stimuli/2110011.jpg","2","","prediction_trial","2","","true","","2","false","false","true","true","false","false","[2]","110","011","1","","","","","","",""
"","","","","","image-keyboard-response","259","306843","0.0-234.0","60fcb7afde5ab78707e377d6","665500ab8938657b03fbdba8","665781e88ba415969ed7af44","354","stimuli/21100112.jpg"," ","","feedback_trial","2","","","","","","","","","","","","","","","","","","","","",""
"","","","","","image-keyboard-response","260","308454","0.0-235.0","60fcb7afde5ab78707e377d6","665500ab8938657b03fbdba8","665781e88ba415969ed7af44","1610","stimuli/2011011.jpg","1","","prediction_trial","2","","false","","2","false","false","false","false","false","false","[2,1]","011","011","0","","","","","","",""
"","","","","","image-keyboard-response","261","308910","0.0-236.0","60fcb7afde5ab78707e377d6","665500ab8938657b03fbdba8","665781e88ba415969ed7af44","456","stimuli/20110112.jpg"," ","","feedback_trial","2","","","","","","","","","","","","","","","","","","","","",""
"","","","","","image-keyboard-response","262","310185","0.0-237.0","60fcb7afde5ab78707e377d6","665500ab8938657b03fbdba8","665781e88ba415969ed7af44","1274","stimuli/2010001.jpg","2","","prediction_trial","2","","true","","2","false","true","true","true","false","true","[2]","010","001","1","","","","","","",""
"","","","","","image-keyboard-response","263","310489","0.0-238.0","60fcb7afde5ab78707e377d6","665500ab8938657b03fbdba8","665781e88ba415969ed7af44","304","stimuli/20100012.jpg"," ","","feedback_trial","2","","","","","","","","","","","","","","","","","","","","",""
"","","","","","image-keyboard-response","264","311070","0.0-239.0","60fcb7afde5ab78707e377d6","665500ab8938657b03fbdba8","665781e88ba415969ed7af44","580","stimuli/2100000.jpg","2","","prediction_trial","2","","true","","2","true","true","true","true","true","true","[2]","100","000","1","","","","","","",""
"","","","","","image-keyboard-response","265","311235","0.0-240.0","60fcb7afde5ab78707e377d6","665500ab8938657b03fbdba8","665781e88ba415969ed7af44","164","stimuli/21000002.jpg"," ","","feedback_trial","2","","","","","","","","","","","","","","","","","","","","",""
"","","","","","image-keyboard-response","266","312108","0.0-241.0","60fcb7afde5ab78707e377d6","665500ab8938657b03fbdba8","665781e88ba415969ed7af44","872","stimuli/0111111.jpg","1","","prediction_trial","0","","false","","0","false","false","false","false","false","false","[1,0,2]","111","111","0","","","","","","",""
"","","","","","image-keyboard-response","267","312395","0.0-242.0","60fcb7afde5ab78707e377d6","665500ab8938657b03fbdba8","665781e88ba415969ed7af44","286","stimuli/01111110.jpg"," ","","feedback_trial","1","","","","","","","","","","","","","","","","","","","","",""
"","","","","","image-keyboard-response","268","313470","0.0-243.0","60fcb7afde5ab78707e377d6","665500ab8938657b03fbdba8","665781e88ba415969ed7af44","1074","stimuli/2011101.jpg","0","","prediction_trial","2","","false","","2","false","false","false","false","false","false","[1,2]","011","101","0","","","","","","",""
"","","","","","image-keyboard-response","269","313938","0.0-244.0","60fcb7afde5ab78707e377d6","665500ab8938657b03fbdba8","665781e88ba415969ed7af44","467","stimuli/20111012.jpg"," ","","feedback_trial","1","","","","","","","","","","","","","","","","","","","","",""
"","","","","","image-keyboard-response","270","314690","0.0-245.0","60fcb7afde5ab78707e377d6","665500ab8938657b03fbdba8","665781e88ba415969ed7af44","751","stimuli/1110010.jpg","1","","prediction_trial","0","","false","","1","false","true","false","false","false","false","[1,0]","110","010","0","","","","","","",""
"","","","","","image-keyboard-response","271","315145","0.0-246.0","60fcb7afde5ab78707e377d6","665500ab8938657b03fbdba8","665781e88ba415969ed7af44","455","stimuli/11100100.jpg"," ","","feedback_trial","1","","","","","","","","","","","","","","","","","","","","",""
"","","","","","image-keyboard-response","272","316306","0.0-247.0","60fcb7afde5ab78707e377d6","665500ab8938657b03fbdba8","665781e88ba415969ed7af44","1160","stimuli/1011100.jpg","1","","prediction_trial","2","","false","","1","true","true","false","false","false","false","[2,1]","011","100","0","","","","","","",""
"","","","","","image-keyboard-response","273","316726","0.0-248.0","60fcb7afde5ab78707e377d6","665500ab8938657b03fbdba8","665781e88ba415969ed7af44","420","stimuli/10111002.jpg"," ","","feedback_trial","2","","","","","","","","","","","","","","","","","","","","",""
"","","","","","image-keyboard-response","274","317432","0.0-249.0","60fcb7afde5ab78707e377d6","665500ab8938657b03fbdba8","665781e88ba415969ed7af44","705","stimuli/0111000.jpg","0","","prediction_trial","1","","false","","0","true","true","false","false","false","false","[1,2,0]","111","000","0","","","","","","",""
"","","","","","image-keyboard-response","275","317873","0.0-250.0","60fcb7afde5ab78707e377d6","665500ab8938657b03fbdba8","665781e88ba415969ed7af44","440","stimuli/01110001.jpg"," ","","feedback_trial","1","","","","","","","","","","","","","","","","","","","","",""
"","","","","","image-keyboard-response","276","318537","0.0-251.0","60fcb7afde5ab78707e377d6","665500ab8938657b03fbdba8","665781e88ba415969ed7af44","664","stimuli/0110000.jpg","0","","prediction_trial","0","","true","","0","true","true","false","false","false","false","[1,0]","110","000","1","","","","","","",""
"","","","","","image-keyboard-response","277","318932","0.0-252.0","60fcb7afde5ab78707e377d6","665500ab8938657b03fbdba8","665781e88ba415969ed7af44","394","stimuli/01100000.jpg"," ","","feedback_trial","1","","","","","","","","","","","","","","","","","","","","",""
"","","","","","image-keyboard-response","278","320618","0.0-253.0","60fcb7afde5ab78707e377d6","665500ab8938657b03fbdba8","665781e88ba415969ed7af44","1685","stimuli/1011110.jpg","1","","prediction_trial","2","","false","","1","false","false","false","false","false","false","[2,1]","011","110","0","","","","","","",""
"","","","","","image-keyboard-response","279","321059","0.0-254.0","60fcb7afde5ab78707e377d6","665500ab8938657b03fbdba8","665781e88ba415969ed7af44","440","stimuli/10111102.jpg"," ","","feedback_trial","2","","","","","","","","","","","","","","","","","","","","",""
"","","","","","image-keyboard-response","280","323056","0.0-255.0","60fcb7afde5ab78707e377d6","665500ab8938657b03fbdba8","665781e88ba415969ed7af44","1996","stimuli/0010110.jpg","1","","prediction_trial","0","","false","","0","false","false","true","true","false","false","[0]","010","110","0","","","","","","",""
"","","","","","image-keyboard-response","281","323318","0.0-256.0","60fcb7afde5ab78707e377d6","665500ab8938657b03fbdba8","665781e88ba415969ed7af44","261","stimuli/00101100.jpg"," ","","feedback_trial","0","","","","","","","","","","","","","","","","","","","","",""
"","","","","","image-keyboard-response","282","324028","0.0-257.0","60fcb7afde5ab78707e377d6","665500ab8938657b03fbdba8","665781e88ba415969ed7af44","709","stimuli/2011110.jpg","2","","prediction_trial","1","","false","","2","true","true","false","false","false","false","[2,1]","011","110","0","","","","","","",""
"","","","","","image-keyboard-response","283","324473","0.0-258.0","60fcb7afde5ab78707e377d6","665500ab8938657b03fbdba8","665781e88ba415969ed7af44","444","stimuli/20111101.jpg"," ","","feedback_trial","2","","","","","","","","","","","","","","","","","","","","",""
"","","","","","image-keyboard-response","284","325112","0.0-259.0","60fcb7afde5ab78707e377d6","665500ab8938657b03fbdba8","665781e88ba415969ed7af44","638","stimuli/0100001.jpg","0","","prediction_trial","0","","true","","0","true","true","false","true","false","true","[0]","100","001","1","","","","","","",""
"","","","","","image-keyboard-response","285","325540","0.0-260.0","60fcb7afde5ab78707e377d6","665500ab8938657b03fbdba8","665781e88ba415969ed7af44","427","stimuli/01000010.jpg"," ","","feedback_trial","0","","","","","","","","","","","","","","","","","","","","",""
"","","","","","image-keyboard-response","286","326079","0.0-261.0","60fcb7afde5ab78707e377d6","665500ab8938657b03fbdba8","665781e88ba415969ed7af44","538","stimuli/2100100.jpg","2","","prediction_trial","2","","true","","2","true","true","true","true","true","true","[2]","100","100","1","","","","","","",""
"","","","","","image-keyboard-response","287","326519","0.0-262.0","60fcb7afde5ab78707e377d6","665500ab8938657b03fbdba8","665781e88ba415969ed7af44","440","stimuli/21001002.jpg"," ","","feedback_trial","2","","","","","","","","","","","","","","","","","","","","",""
"","","","","","image-keyboard-response","288","327430","0.0-263.0","60fcb7afde5ab78707e377d6","665500ab8938657b03fbdba8","665781e88ba415969ed7af44","910","stimuli/1101011.jpg","1","","prediction_trial","1","","true","","1","false","false","true","true","false","false","[1]","101","011","1","","","","","","",""
"","","","","","image-keyboard-response","289","327732","0.0-264.0","60fcb7afde5ab78707e377d6","665500ab8938657b03fbdba8","665781e88ba415969ed7af44","301","stimuli/11010111.jpg"," ","","feedback_trial","1","","","","","","","","","","","","","","","","","","","","",""
"","","","","","image-keyboard-response","290","328570","0.0-265.0","60fcb7afde5ab78707e377d6","665500ab8938657b03fbdba8","665781e88ba415969ed7af44","838","stimuli/1000100.jpg","1","","prediction_trial","1","","true","","1","true","true","true","true","true","true","[1]","000","100","1","","","","","","",""
"","","","","","image-keyboard-response","291","328871","0.0-266.0","60fcb7afde5ab78707e377d6","665500ab8938657b03fbdba8","665781e88ba415969ed7af44","300","stimuli/10001001.jpg"," ","","feedback_trial","1","","","","","","","","","","","","","","","","","","","","",""
"","","","","","image-keyboard-response","292","329714","0.0-267.0","60fcb7afde5ab78707e377d6","665500ab8938657b03fbdba8","665781e88ba415969ed7af44","842","stimuli/2111100.jpg","2","","prediction_trial","0","","false","","2","true","true","false","false","false","false","[0,2,1]","111","100","0","","","","","","",""
"","","","","","image-keyboard-response","293","330411","0.0-268.0","60fcb7afde5ab78707e377d6","665500ab8938657b03fbdba8","665781e88ba415969ed7af44","696","stimuli/21111000.jpg"," ","","feedback_trial","0","","","","","","","","","","","","","","","","","","","","",""
"","","","","","image-keyboard-response","294","331412","0.0-269.0","60fcb7afde5ab78707e377d6","665500ab8938657b03fbdba8","665781e88ba415969ed7af44","1000","stimuli/1011001.jpg","1","","prediction_trial","1","","true","","1","true","true","false","false","false","false","[1,2]","011","001","1","","","","","","",""
"","","","","","image-keyboard-response","295","334248","0.0-270.0","60fcb7afde5ab78707e377d6","665500ab8938657b03fbdba8","665781e88ba415969ed7af44","2835","stimuli/10110011.jpg"," ","","feedback_trial","1","","","","","","","","","","","","","","","","","","","","",""
"","","","","","image-keyboard-response","296","335252","0.0-271.0","60fcb7afde5ab78707e377d6","665500ab8938657b03fbdba8","665781e88ba415969ed7af44","1004","stimuli/0111001.jpg","0","","prediction_trial","0","","true","","0","true","true","false","false","false","false","[2,1,0]","111","001","1","","","","","","",""
"","","","","","image-keyboard-response","297","335696","0.0-272.0","60fcb7afde5ab78707e377d6","665500ab8938657b03fbdba8","665781e88ba415969ed7af44","443","stimuli/01110010.jpg"," ","","feedback_trial","2","","","","","","","","","","","","","","","","","","","","",""
"","","","","","image-keyboard-response","298","336650","0.0-273.0","60fcb7afde5ab78707e377d6","665500ab8938657b03fbdba8","665781e88ba415969ed7af44","953","stimuli/0000111.jpg","0","","prediction_trial","0","","true","","0","false","false","true","true","false","false","[0]","000","111","1","","","","","","",""
"","","","","","image-keyboard-response","299","337005","0.0-274.0","60fcb7afde5ab78707e377d6","665500ab8938657b03fbdba8","665781e88ba415969ed7af44","355","stimuli/00001110.jpg"," ","","feedback_trial","0","","","","","","","","","","","","","","","","","","","","",""
"","","","","","image-keyboard-response","300","338206","0.0-275.0","60fcb7afde5ab78707e377d6","665500ab8938657b03fbdba8","665781e88ba415969ed7af44","1200","stimuli/0110111.jpg","0","","prediction_trial","0","","true","","0","false","false","false","false","false","false","[1,0]","110","111","1","","","","","","",""
"","","","","","image-keyboard-response","301","338608","0.0-276.0","60fcb7afde5ab78707e377d6","665500ab8938657b03fbdba8","665781e88ba415969ed7af44","401","stimuli/01101110.jpg"," ","","feedback_trial","1","","","","","","","","","","","","","","","","","","","","",""
"","","","","","image-keyboard-response","302","339976","0.0-277.0","60fcb7afde5ab78707e377d6","665500ab8938657b03fbdba8","665781e88ba415969ed7af44","1367","stimuli/1010011.jpg","2","","prediction_trial","1","","false","","1","false","false","false","true","false","false","[1]","010","011","0","","","","","","",""
"","","","","","image-keyboard-response","303","340461","0.0-278.0","60fcb7afde5ab78707e377d6","665500ab8938657b03fbdba8","665781e88ba415969ed7af44","484","stimuli/10100111.jpg"," ","","feedback_trial","1","","","","","","","","","","","","","","","","","","","","",""
"","","","","","image-keyboard-response","304","341286","0.0-279.0","60fcb7afde5ab78707e377d6","665500ab8938657b03fbdba8","665781e88ba415969ed7af44","824","stimuli/0001110.jpg","1","","prediction_trial","0","","false","","0","false","false","true","true","false","false","[0]","001","110","0","","","","","","",""
"","","","","","image-keyboard-response","305","341709","0.0-280.0","60fcb7afde5ab78707e377d6","665500ab8938657b03fbdba8","665781e88ba415969ed7af44","423","stimuli/00011100.jpg"," ","","feedback_trial","0","","","","","","","","","","","","","","","","","","","","",""
"","","","","","image-keyboard-response","306","342611","0.0-281.0","60fcb7afde5ab78707e377d6","665500ab8938657b03fbdba8","665781e88ba415969ed7af44","900","stimuli/1000111.jpg","0","","prediction_trial","1","","false","","1","false","false","true","true","false","false","[1]","000","111","0","","","","","","",""
"","","","","","image-keyboard-response","307","343019","0.0-282.0","60fcb7afde5ab78707e377d6","665500ab8938657b03fbdba8","665781e88ba415969ed7af44","407","stimuli/10001111.jpg"," ","","feedback_trial","1","","","","","","","","","","","","","","","","","","","","",""
"","","","","","image-keyboard-response","308","343724","0.0-283.0","60fcb7afde5ab78707e377d6","665500ab8938657b03fbdba8","665781e88ba415969ed7af44","704","stimuli/2110110.jpg","2","","prediction_trial","2","","true","","2","true","true","true","true","true","true","[2]","110","110","1","","","","","","",""
"","","","","","image-keyboard-response","309","343918","0.0-284.0","60fcb7afde5ab78707e377d6","665500ab8938657b03fbdba8","665781e88ba415969ed7af44","193","stimuli/21101102.jpg"," ","","feedback_trial","2","","","","","","","","","","","","","","","","","","","","",""
"","","","","","image-keyboard-response","310","344730","0.0-285.0","60fcb7afde5ab78707e377d6","665500ab8938657b03fbdba8","665781e88ba415969ed7af44","811","stimuli/0000100.jpg","0","","prediction_trial","0","","true","","0","false","true","true","true","false","true","[0]","000","100","1","","","","","","",""
"","","","","","image-keyboard-response","311","344941","0.0-286.0","60fcb7afde5ab78707e377d6","665500ab8938657b03fbdba8","665781e88ba415969ed7af44","210","stimuli/00001000.jpg"," ","","feedback_trial","0","","","","","","","","","","","","","","","","","","","","",""
"","","","","","image-keyboard-response","312","345629","0.0-287.0","60fcb7afde5ab78707e377d6","665500ab8938657b03fbdba8","665781e88ba415969ed7af44","688","stimuli/0010010.jpg","0","","prediction_trial","0","","true","","0","true","true","true","true","true","true","[0]","010","010","1","","","","","","",""
"","","","","","image-keyboard-response","313","345977","0.0-288.0","60fcb7afde5ab78707e377d6","665500ab8938657b03fbdba8","665781e88ba415969ed7af44","347","stimuli/00100100.jpg"," ","","feedback_trial","0","","","","","","","","","","","","","","","","","","","","",""
"","","","","","image-keyboard-response","314","346847","0.0-289.0","60fcb7afde5ab78707e377d6","665500ab8938657b03fbdba8","665781e88ba415969ed7af44","869","stimuli/0110110.jpg","1","","prediction_trial","1","","true","","0","false","false","false","false","false","false","[1,0]","110","110","1","","","","","","",""
"","","","","","image-keyboard-response","315","347239","0.0-290.0","60fcb7afde5ab78707e377d6","665500ab8938657b03fbdba8","665781e88ba415969ed7af44","392","stimuli/01101101.jpg"," ","","feedback_trial","1","","","","","","","","","","","","","","","","","","","","",""
"","","","","","image-keyboard-response","316","348704","0.0-291.0","60fcb7afde5ab78707e377d6","665500ab8938657b03fbdba8","665781e88ba415969ed7af44","1463","stimuli/1010001.jpg","1","","prediction_trial","1","","true","","1","true","true","false","true","false","true","[1]","010","001","1","","","","","","",""
"","","","","","image-keyboard-response","317","349003","0.0-292.0","60fcb7afde5ab78707e377d6","665500ab8938657b03fbdba8","665781e88ba415969ed7af44","299","stimuli/10100011.jpg"," ","","feedback_trial","1","","","","","","","","","","","","","","","","","","","","",""
"","","","","","survey-html-form","318","368382","0.0-293.0","60fcb7afde5ab78707e377d6","665500ab8938657b03fbdba8","665781e88ba415969ed7af44","19377","","{""feedback"":""Whether or not Sam could see the ball"",""age"":""25"",""gender"":""Female"",""other_gender"":"""",""race"":""White"",""other_race"":"""",""ethnicity"":""Non-Hispanic""}","","exit_survey","","","","","","","","","","","","","","","","Whether or not Sam could see the ball","25","Non-Hispanic","Female","White","0.6527777777777778","0.6527777777777778"
