"success","timeout","failed_images","failed_audio","failed_video","trial_type","trial_index","time_elapsed","internal_node_id","prolific_id","prolific_study_id","prolific_session_id","rt","stimulus","response","view_history","trial","character_choice","stimulus_dict","accuracy","correct_response","ball_pos","ego_ball_visible","ego_can_infer","alter_ball_visible","alter_can_infer","collective_ball_visible","collective_can_infer","search_locations","alter_occluders","ego_occluders","accuracy_bool","feedback","age","ethnicity","gender","race","overall_accuracy","bonus"
"true","false","[]","[]","[]","preload","0","1477","0.0-0.0","5c92aa671ce0cd00128c6c86","665500ab8938657b03fbdba8","665792ac3431f6ebb88869f4","","","","","","","","","","","","","","","","","","","","","","","","","","",""
"true","","","","","fullscreen","1","5877","0.0-1.0","5c92aa671ce0cd00128c6c86","665500ab8938657b03fbdba8","665792ac3431f6ebb88869f4","","","","","","","","","","","","","","","","","","","","","","","","","","",""
"","","","","","html-button-response","2","7309","0.0-2.0","5c92aa671ce0cd00128c6c86","665500ab8938657b03fbdba8","665792ac3431f6ebb88869f4","1431","<p><b>Consent Form</b></p> <div style=""text-align:left;background-color:lightgrey; padding:20px; max-width:900px;""><p>Please consider this information carefully before deciding whether to participate in this research.</p> <p>The purpose of this research is to examine which factors influence social judgment and decision-making. You will be asked to make judgements about individuals and actions in social scenarios. We are simply interested in your judgement. The study will take less than 1 hour to complete, and you will receive less than $20 on Prolific. Your compensation and time commitment are specified in the study description. There are no anticipated risks associated with participating in this study. The effects of participating should be comparable to those you would ordinarily experience from viewing a computer monitor and using a mouse or keyboard for a similar amount of time. At the end of the study, we will provide an explanation of the questions that motivate this line of research and will describe the potential implications. </p><p> Your participation in this study is completely voluntary and you may refuse to participate or you may choose to withdraw at any time without penalty or loss of benefits to you which are otherwise entitled. Your participation in this study will remain confidential. No personally identifiable information will be associated with your data. Also, all analyses of the data will be averaged across all the participants, so your individual responses will never be specifically analyzed. </p><p> If you have questions or concerns about your participation or payment, or want to request a summary of research findings, please contact Dr. Jonathan Phillips at Jonathan.S.Phillips@dartmouth.edu. </p><p> Please save a copy of this form for your records. </p><p><b>Agreement: </b>The nature and purpose of this research have been sufficiently explained and I agree to participate in this study. I understand that I am free to withdraw at any time without incurring any penalty. Please consent by clicking the button below to continue. Otherwise, please exit the study at any time. </p>","0","","","","","","","","","","","","","","","","","","","","","","","",""
"","","","","","instructions","3","44195","0.0-3.0-0.0","5c92aa671ce0cd00128c6c86","665500ab8938657b03fbdba8","665792ac3431f6ebb88869f4","36885","","","[{""page_index"":0,""viewing_time"":1050},{""page_index"":1,""viewing_time"":1303},{""page_index"":2,""viewing_time"":1020},{""page_index"":3,""viewing_time"":2680},{""page_index"":4,""viewing_time"":2565},{""page_index"":5,""viewing_time"":3665},{""page_index"":6,""viewing_time"":3898},{""page_index"":7,""viewing_time"":1237},{""page_index"":8,""viewing_time"":3067},{""page_index"":9,""viewing_time"":3631},{""page_index"":10,""viewing_time"":4074},{""page_index"":11,""viewing_time"":4191},{""page_index"":12,""viewing_time"":3802},{""page_index"":13,""viewing_time"":702}]","intro","","","","","","","","","","","","","","","","","","","","","",""
"","","","","","image-keyboard-response","4","45972","0.0-3.0-1.0","5c92aa671ce0cd00128c6c86","665500ab8938657b03fbdba8","665792ac3431f6ebb88869f4","1775","stimuli/1100001.jpg","1","","prediction_practice","1","{""filepath"":""stimuli/1100001.jpg"",""ball_pos"":1,""ego_ball_visible"":true,""ego_can_infer"":true,""alter_ball_visible"":true,""alter_can_infer"":true,""collective_ball_visible"":true,""collective_can_infer"":true,""search_locations"":[1],""alter_occluders"":""100"",""ego_occluders"":""001""}","true","","","","","","","","","","","","","","","","","","",""
"","","","","","image-keyboard-response","5","47038","0.0-3.0-2.0","5c92aa671ce0cd00128c6c86","665500ab8938657b03fbdba8","665792ac3431f6ebb88869f4","1056","stimuli/11000011.jpg"," ","","practrice_feedback","1","","","","","","","","","","","","","","","","","","","","",""
"","","","","","image-keyboard-response","6","52925","0.0-3.0-3.0","5c92aa671ce0cd00128c6c86","665500ab8938657b03fbdba8","665792ac3431f6ebb88869f4","5886","stimuli/0110001.jpg","0","","prediction_practice","0","{""filepath"":""stimuli/0110001.jpg"",""ball_pos"":0,""ego_ball_visible"":true,""ego_can_infer"":true,""alter_ball_visible"":false,""alter_can_infer"":false,""collective_ball_visible"":false,""collective_can_infer"":false,""search_locations"":[1,0],""alter_occluders"":""110"",""ego_occluders"":""001""}","true","","","","","","","","","","","","","","","","","","",""
"","","","","","image-keyboard-response","7","53755","0.0-3.0-4.0","5c92aa671ce0cd00128c6c86","665500ab8938657b03fbdba8","665792ac3431f6ebb88869f4","829","stimuli/01100010.jpg"," ","","practrice_feedback","1","","","","","","","","","","","","","","","","","","","","",""
"","","","","","image-keyboard-response","8","55037","0.0-3.0-5.0","5c92aa671ce0cd00128c6c86","665500ab8938657b03fbdba8","665792ac3431f6ebb88869f4","1280","stimuli/2100110.jpg","2","","prediction_practice","2","{""filepath"":""stimuli/2100110.jpg"",""ball_pos"":2,""ego_ball_visible"":true,""ego_can_infer"":true,""alter_ball_visible"":true,""alter_can_infer"":true,""collective_ball_visible"":true,""collective_can_infer"":true,""search_locations"":[2],""alter_occluders"":""100"",""ego_occluders"":""110""}","true","","","","","","","","","","","","","","","","","","",""
"","","","","","image-keyboard-response","9","55444","0.0-3.0-6.0","5c92aa671ce0cd00128c6c86","665500ab8938657b03fbdba8","665792ac3431f6ebb88869f4","406","stimuli/21001102.jpg"," ","","practrice_feedback","2","","","","","","","","","","","","","","","","","","","","",""
"","","","","","image-keyboard-response","10","56286","0.0-3.0-7.0","5c92aa671ce0cd00128c6c86","665500ab8938657b03fbdba8","665792ac3431f6ebb88869f4","835","stimuli/0001011.jpg","0","","prediction_practice","0","{""filepath"":""stimuli/0001011.jpg"",""ball_pos"":0,""ego_ball_visible"":true,""ego_can_infer"":true,""alter_ball_visible"":true,""alter_can_infer"":true,""collective_ball_visible"":true,""collective_can_infer"":true,""search_locations"":[0],""alter_occluders"":""001"",""ego_occluders"":""011""}","true","","","","","","","","","","","","","","","","","","",""
"","","","","","image-keyboard-response","11","56479","0.0-3.0-8.0","5c92aa671ce0cd00128c6c86","665500ab8938657b03fbdba8","665792ac3431f6ebb88869f4","192","stimuli/00010110.jpg"," ","","practrice_feedback","0","","","","","","","","","","","","","","","","","","","","",""
"","","","","","image-keyboard-response","12","59463","0.0-3.0-9.0","5c92aa671ce0cd00128c6c86","665500ab8938657b03fbdba8","665792ac3431f6ebb88869f4","2983","stimuli/0011100.jpg","0","","prediction_practice","0","{""filepath"":""stimuli/0011100.jpg"",""ball_pos"":0,""ego_ball_visible"":false,""ego_can_infer"":true,""alter_ball_visible"":true,""alter_can_infer"":true,""collective_ball_visible"":false,""collective_can_infer"":true,""search_locations"":[0],""alter_occluders"":""011"",""ego_occluders"":""100""}","true","","","","","","","","","","","","","","","","","","",""
"","","","","","image-keyboard-response","13","59932","0.0-3.0-10.0","5c92aa671ce0cd00128c6c86","665500ab8938657b03fbdba8","665792ac3431f6ebb88869f4","468","stimuli/00111000.jpg"," ","","practrice_feedback","0","","","","","","","","","","","","","","","","","","","","",""
"","","","","","image-keyboard-response","14","66302","0.0-3.0-11.0","5c92aa671ce0cd00128c6c86","665500ab8938657b03fbdba8","665792ac3431f6ebb88869f4","6370","stimuli/2010101.jpg","2","","prediction_practice","2","{""filepath"":""stimuli/2010101.jpg"",""ball_pos"":2,""ego_ball_visible"":false,""ego_can_infer"":false,""alter_ball_visible"":true,""alter_can_infer"":true,""collective_ball_visible"":false,""collective_can_infer"":false,""search_locations"":[2],""alter_occluders"":""010"",""ego_occluders"":""101""}","true","","","","","","","","","","","","","","","","","","",""
"","","","","","image-keyboard-response","15","67042","0.0-3.0-12.0","5c92aa671ce0cd00128c6c86","665500ab8938657b03fbdba8","665792ac3431f6ebb88869f4","739","stimuli/20101012.jpg"," ","","practrice_feedback","2","","","","","","","","","","","","","","","","","","","","",""
"","","","","","image-keyboard-response","16","70220","0.0-3.0-13.0","5c92aa671ce0cd00128c6c86","665500ab8938657b03fbdba8","665792ac3431f6ebb88869f4","3169","stimuli/2001111.jpg","1","","prediction_practice","2","{""filepath"":""stimuli/2001111.jpg"",""ball_pos"":2,""ego_ball_visible"":false,""ego_can_infer"":false,""alter_ball_visible"":false,""alter_can_infer"":true,""collective_ball_visible"":false,""collective_can_infer"":false,""search_locations"":[2],""alter_occluders"":""001"",""ego_occluders"":""111""}","false","","","","","","","","","","","","","","","","","","",""
"","","","","","image-keyboard-response","17","70923","0.0-3.0-14.0","5c92aa671ce0cd00128c6c86","665500ab8938657b03fbdba8","665792ac3431f6ebb88869f4","702","stimuli/20011112.jpg"," ","","practrice_feedback","2","","","","","","","","","","","","","","","","","","","","",""
"","","","","","image-keyboard-response","18","82586","0.0-3.0-15.0","5c92aa671ce0cd00128c6c86","665500ab8938657b03fbdba8","665792ac3431f6ebb88869f4","11662","stimuli/1001011.jpg","1","","prediction_practice","1","{""filepath"":""stimuli/1001011.jpg"",""ball_pos"":1,""ego_ball_visible"":false,""ego_can_infer"":false,""alter_ball_visible"":true,""alter_can_infer"":true,""collective_ball_visible"":false,""collective_can_infer"":false,""search_locations"":[1],""alter_occluders"":""001"",""ego_occluders"":""011""}","true","","","","","","","","","","","","","","","","","","",""
"","","","","","image-keyboard-response","19","83123","0.0-3.0-16.0","5c92aa671ce0cd00128c6c86","665500ab8938657b03fbdba8","665792ac3431f6ebb88869f4","536","stimuli/10010111.jpg"," ","","practrice_feedback","1","","","","","","","","","","","","","","","","","","","","",""
"","","","","","image-keyboard-response","20","84698","0.0-3.0-17.0","5c92aa671ce0cd00128c6c86","665500ab8938657b03fbdba8","665792ac3431f6ebb88869f4","1574","stimuli/0110110.jpg","1","","prediction_practice","0","{""filepath"":""stimuli/0110110.jpg"",""ball_pos"":0,""ego_ball_visible"":false,""ego_can_infer"":false,""alter_ball_visible"":false,""alter_can_infer"":false,""collective_ball_visible"":false,""collective_can_infer"":false,""search_locations"":[0,1],""alter_occluders"":""110"",""ego_occluders"":""110""}","false","","","","","","","","","","","","","","","","","","",""
"","","","","","image-keyboard-response","21","85093","0.0-3.0-18.0","5c92aa671ce0cd00128c6c86","665500ab8938657b03fbdba8","665792ac3431f6ebb88869f4","394","stimuli/01101100.jpg"," ","","practrice_feedback","0","","","","","","","","","","","","","","","","","","","","",""
"","","","","","image-keyboard-response","22","86740","0.0-3.0-19.0","5c92aa671ce0cd00128c6c86","665500ab8938657b03fbdba8","665792ac3431f6ebb88869f4","1640","stimuli/1011011.jpg","1","","prediction_practice","2","{""filepath"":""stimuli/1011011.jpg"",""ball_pos"":1,""ego_ball_visible"":false,""ego_can_infer"":false,""alter_ball_visible"":false,""alter_can_infer"":false,""collective_ball_visible"":false,""collective_can_infer"":false,""search_locations"":[2,1],""alter_occluders"":""011"",""ego_occluders"":""011""}","false","","","","","","","","","","","","","","","","","","",""
"","","","","","image-keyboard-response","23","87167","0.0-3.0-20.0","5c92aa671ce0cd00128c6c86","665500ab8938657b03fbdba8","665792ac3431f6ebb88869f4","426","stimuli/10110112.jpg"," ","","practrice_feedback","2","","","","","","","","","","","","","","","","","","","","",""
"","","","","","html-button-response","24","92271","0.0-3.0-21.0","5c92aa671ce0cd00128c6c86","665500ab8938657b03fbdba8","665792ac3431f6ebb88869f4","5103","Now that you've had some practice, you'll be tested with a couple of easy trials. If you correctly predict Sam's choice, you'll move on to complete the experiment!","0","","","","","","","","","","","","","","","","","","","","","","","",""
"","","","","","image-keyboard-response","25","93765","0.0-3.0-22.0-0.0","5c92aa671ce0cd00128c6c86","665500ab8938657b03fbdba8","665792ac3431f6ebb88869f4","1493","stimuli/0000011.jpg","arrowleft","","comprehension_quiz","","","true","arrowleft","","","","","","","","","","","","","","","","","",""
"","","","","","image-keyboard-response","26","94389","0.0-3.0-22.0-1.0","5c92aa671ce0cd00128c6c86","665500ab8938657b03fbdba8","665792ac3431f6ebb88869f4","623","stimuli/00000110.jpg"," ","","comprehension_quiz","","","true"," ","","","","","","","","","","","","","","","","","",""
"","","","","","image-keyboard-response","27","96110","0.0-3.0-22.0-2.0","5c92aa671ce0cd00128c6c86","665500ab8938657b03fbdba8","665792ac3431f6ebb88869f4","1720","stimuli/1010010.jpg","arrowdown","","comprehension_quiz","","","true","arrowdown","","","","","","","","","","","","","","","","","",""
"","","","","","image-keyboard-response","28","96391","0.0-3.0-22.0-3.0","5c92aa671ce0cd00128c6c86","665500ab8938657b03fbdba8","665792ac3431f6ebb88869f4","280","stimuli/10100101.jpg"," ","","comprehension_quiz","","","true"," ","","","","","","","","","","","","","","","","","",""
"","","","","","html-button-response","29","98613","0.0-4.0","5c92aa671ce0cd00128c6c86","665500ab8938657b03fbdba8","665792ac3431f6ebb88869f4","2221","The experiment will now begin.","0","","","","","","","","","","","","","","","","","","","","","","","",""
"","","","","","image-keyboard-response","30","106950","0.0-5.0","5c92aa671ce0cd00128c6c86","665500ab8938657b03fbdba8","665792ac3431f6ebb88869f4","8330","stimuli/2010111.jpg","0","","prediction_trial","2","","false","","2","false","false","true","true","false","false","[2]","010","111","0","","","","","","",""
"","","","","","image-keyboard-response","31","107595","0.0-6.0","5c92aa671ce0cd00128c6c86","665500ab8938657b03fbdba8","665792ac3431f6ebb88869f4","643","stimuli/20101112.jpg"," ","","feedback_trial","2","","","","","","","","","","","","","","","","","","","","",""
"","","","","","image-keyboard-response","32","110565","0.0-7.0","5c92aa671ce0cd00128c6c86","665500ab8938657b03fbdba8","665792ac3431f6ebb88869f4","2969","stimuli/1100010.jpg","1","","prediction_trial","1","","true","","1","false","true","true","true","false","true","[1]","100","010","1","","","","","","",""
"","","","","","image-keyboard-response","33","110921","0.0-8.0","5c92aa671ce0cd00128c6c86","665500ab8938657b03fbdba8","665792ac3431f6ebb88869f4","356","stimuli/11000101.jpg"," ","","feedback_trial","1","","","","","","","","","","","","","","","","","","","","",""
"","","","","","image-keyboard-response","34","112470","0.0-9.0","5c92aa671ce0cd00128c6c86","665500ab8938657b03fbdba8","665792ac3431f6ebb88869f4","1548","stimuli/1001111.jpg","1","","prediction_trial","1","","true","","1","false","false","true","true","false","false","[1]","001","111","1","","","","","","",""
"","","","","","image-keyboard-response","35","113000","0.0-10.0","5c92aa671ce0cd00128c6c86","665500ab8938657b03fbdba8","665792ac3431f6ebb88869f4","529","stimuli/10011111.jpg"," ","","feedback_trial","1","","","","","","","","","","","","","","","","","","","","",""
"","","","","","image-keyboard-response","36","117479","0.0-11.0","5c92aa671ce0cd00128c6c86","665500ab8938657b03fbdba8","665792ac3431f6ebb88869f4","4472","stimuli/0111001.jpg","0","","prediction_trial","1","","false","","0","true","true","false","false","false","false","[1,0,2]","111","001","0","","","","","","",""
"","","","","","image-keyboard-response","37","117861","0.0-12.0","5c92aa671ce0cd00128c6c86","665500ab8938657b03fbdba8","665792ac3431f6ebb88869f4","381","stimuli/01110011.jpg"," ","","feedback_trial","1","","","","","","","","","","","","","","","","","","","","",""
"","","","","","image-keyboard-response","38","120433","0.0-13.0","5c92aa671ce0cd00128c6c86","665500ab8938657b03fbdba8","665792ac3431f6ebb88869f4","2571","stimuli/0000111.jpg","1","","prediction_trial","0","","false","","0","false","false","true","true","false","false","[0]","000","111","0","","","","","","",""
"","","","","","image-keyboard-response","39","120799","0.0-14.0","5c92aa671ce0cd00128c6c86","665500ab8938657b03fbdba8","665792ac3431f6ebb88869f4","366","stimuli/00001110.jpg"," ","","feedback_trial","0","","","","","","","","","","","","","","","","","","","","",""
"","","","","","image-keyboard-response","40","122628","0.0-15.0","5c92aa671ce0cd00128c6c86","665500ab8938657b03fbdba8","665792ac3431f6ebb88869f4","1828","stimuli/2100111.jpg","1","","prediction_trial","2","","false","","2","false","false","true","true","false","false","[2]","100","111","0","","","","","","",""
"","","","","","image-keyboard-response","41","122959","0.0-16.0","5c92aa671ce0cd00128c6c86","665500ab8938657b03fbdba8","665792ac3431f6ebb88869f4","330","stimuli/21001112.jpg"," ","","feedback_trial","2","","","","","","","","","","","","","","","","","","","","",""
"","","","","","image-keyboard-response","42","125158","0.0-17.0","5c92aa671ce0cd00128c6c86","665500ab8938657b03fbdba8","665792ac3431f6ebb88869f4","2190","stimuli/0101010.jpg","0","","prediction_trial","2","","false","","0","true","true","false","false","false","false","[0,2]","101","010","0","","","","","","",""
"","","","","","image-keyboard-response","43","125533","0.0-18.0","5c92aa671ce0cd00128c6c86","665500ab8938657b03fbdba8","665792ac3431f6ebb88869f4","375","stimuli/01010102.jpg"," ","","feedback_trial","0","","","","","","","","","","","","","","","","","","","","",""
"","","","","","image-keyboard-response","44","126459","0.0-19.0","5c92aa671ce0cd00128c6c86","665500ab8938657b03fbdba8","665792ac3431f6ebb88869f4","924","stimuli/0011010.jpg","0","","prediction_trial","0","","true","","0","true","true","true","true","true","true","[0]","011","010","1","","","","","","",""
"","","","","","image-keyboard-response","45","126665","0.0-20.0","5c92aa671ce0cd00128c6c86","665500ab8938657b03fbdba8","665792ac3431f6ebb88869f4","205","stimuli/00110100.jpg"," ","","feedback_trial","0","","","","","","","","","","","","","","","","","","","","",""
"","","","","","image-keyboard-response","46","128880","0.0-21.0","5c92aa671ce0cd00128c6c86","665500ab8938657b03fbdba8","665792ac3431f6ebb88869f4","2214","stimuli/1100110.jpg","0","","prediction_trial","1","","false","","1","false","false","true","true","false","false","[1]","100","110","0","","","","","","",""
"","","","","","image-keyboard-response","47","129282","0.0-22.0","5c92aa671ce0cd00128c6c86","665500ab8938657b03fbdba8","665792ac3431f6ebb88869f4","401","stimuli/11001101.jpg"," ","","feedback_trial","1","","","","","","","","","","","","","","","","","","","","",""
"","","","","","image-keyboard-response","48","130142","0.0-23.0","5c92aa671ce0cd00128c6c86","665500ab8938657b03fbdba8","665792ac3431f6ebb88869f4","854","stimuli/1100001.jpg","1","","prediction_trial","1","","true","","1","true","true","true","true","true","true","[1]","100","001","1","","","","","","",""
"","","","","","image-keyboard-response","49","130277","0.0-24.0","5c92aa671ce0cd00128c6c86","665500ab8938657b03fbdba8","665792ac3431f6ebb88869f4","134","stimuli/11000011.jpg"," ","","feedback_trial","1","","","","","","","","","","","","","","","","","","","","",""
"","","","","","image-keyboard-response","50","132749","0.0-25.0","5c92aa671ce0cd00128c6c86","665500ab8938657b03fbdba8","665792ac3431f6ebb88869f4","2471","stimuli/2111001.jpg","2","","prediction_trial","1","","false","","2","false","true","false","false","false","false","[1,2,0]","111","001","0","","","","","","",""
"","","","","","image-keyboard-response","51","133053","0.0-26.0","5c92aa671ce0cd00128c6c86","665500ab8938657b03fbdba8","665792ac3431f6ebb88869f4","303","stimuli/21110011.jpg"," ","","feedback_trial","1","","","","","","","","","","","","","","","","","","","","",""
"","","","","","image-keyboard-response","52","133897","0.0-27.0","5c92aa671ce0cd00128c6c86","665500ab8938657b03fbdba8","665792ac3431f6ebb88869f4","844","stimuli/2010010.jpg","2","","prediction_trial","2","","true","","2","true","true","true","true","true","true","[2]","010","010","1","","","","","","",""
"","","","","","image-keyboard-response","53","134108","0.0-28.0","5c92aa671ce0cd00128c6c86","665500ab8938657b03fbdba8","665792ac3431f6ebb88869f4","209","stimuli/20100102.jpg"," ","","feedback_trial","2","","","","","","","","","","","","","","","","","","","","",""
"","","","","","image-keyboard-response","54","136234","0.0-29.0","5c92aa671ce0cd00128c6c86","665500ab8938657b03fbdba8","665792ac3431f6ebb88869f4","2117","stimuli/2111100.jpg","1","","prediction_trial","1","","true","","2","true","true","false","false","false","false","[1,2,0]","111","100","1","","","","","","",""
"","","","","","image-keyboard-response","55","136558","0.0-30.0","5c92aa671ce0cd00128c6c86","665500ab8938657b03fbdba8","665792ac3431f6ebb88869f4","323","stimuli/21111001.jpg"," ","","feedback_trial","1","","","","","","","","","","","","","","","","","","","","",""
"","","","","","image-keyboard-response","56","138311","0.0-31.0","5c92aa671ce0cd00128c6c86","665500ab8938657b03fbdba8","665792ac3431f6ebb88869f4","1752","stimuli/2010011.jpg","1","","prediction_trial","2","","false","","2","false","false","true","true","false","false","[2]","010","011","0","","","","","","",""
"","","","","","image-keyboard-response","57","138684","0.0-32.0","5c92aa671ce0cd00128c6c86","665500ab8938657b03fbdba8","665792ac3431f6ebb88869f4","372","stimuli/20100112.jpg"," ","","feedback_trial","2","","","","","","","","","","","","","","","","","","","","",""
"","","","","","image-keyboard-response","58","142928","0.0-33.0","5c92aa671ce0cd00128c6c86","665500ab8938657b03fbdba8","665792ac3431f6ebb88869f4","4243","stimuli/2011111.jpg","1","","prediction_trial","1","","true","","2","false","false","false","false","false","false","[1,2]","011","111","1","","","","","","",""
"","","","","","image-keyboard-response","59","143244","0.0-34.0","5c92aa671ce0cd00128c6c86","665500ab8938657b03fbdba8","665792ac3431f6ebb88869f4","315","stimuli/20111111.jpg"," ","","feedback_trial","1","","","","","","","","","","","","","","","","","","","","",""
"","","","","","image-keyboard-response","60","145128","0.0-35.0","5c92aa671ce0cd00128c6c86","665500ab8938657b03fbdba8","665792ac3431f6ebb88869f4","1875","stimuli/1001011.jpg","1","","prediction_trial","1","","true","","1","false","false","true","true","false","false","[1]","001","011","1","","","","","","",""
"","","","","","image-keyboard-response","61","145439","0.0-36.0","5c92aa671ce0cd00128c6c86","665500ab8938657b03fbdba8","665792ac3431f6ebb88869f4","310","stimuli/10010111.jpg"," ","","feedback_trial","1","","","","","","","","","","","","","","","","","","","","",""
"","","","","","image-keyboard-response","62","147528","0.0-37.0","5c92aa671ce0cd00128c6c86","665500ab8938657b03fbdba8","665792ac3431f6ebb88869f4","2088","stimuli/0111101.jpg","2","","prediction_trial","1","","false","","0","false","false","false","false","false","false","[2,1,0]","111","101","0","","","","","","",""
"","","","","","image-keyboard-response","63","147877","0.0-38.0","5c92aa671ce0cd00128c6c86","665500ab8938657b03fbdba8","665792ac3431f6ebb88869f4","348","stimuli/01111011.jpg"," ","","feedback_trial","2","","","","","","","","","","","","","","","","","","","","",""
"","","","","","image-keyboard-response","64","148668","0.0-39.0","5c92aa671ce0cd00128c6c86","665500ab8938657b03fbdba8","665792ac3431f6ebb88869f4","790","stimuli/2010000.jpg","2","","prediction_trial","2","","true","","2","true","true","true","true","true","true","[2]","010","000","1","","","","","","",""
"","","","","","image-keyboard-response","65","148848","0.0-40.0","5c92aa671ce0cd00128c6c86","665500ab8938657b03fbdba8","665792ac3431f6ebb88869f4","179","stimuli/20100002.jpg"," ","","feedback_trial","2","","","","","","","","","","","","","","","","","","","","",""
"","","","","","image-keyboard-response","66","150635","0.0-41.0","5c92aa671ce0cd00128c6c86","665500ab8938657b03fbdba8","665792ac3431f6ebb88869f4","1780","stimuli/2011001.jpg","2","","prediction_trial","2","","true","","2","false","true","false","false","false","false","[1,2]","011","001","1","","","","","","",""
"","","","","","image-keyboard-response","67","150779","0.0-42.0","5c92aa671ce0cd00128c6c86","665500ab8938657b03fbdba8","665792ac3431f6ebb88869f4","143","stimuli/20110012.jpg"," ","","feedback_trial","1","","","","","","","","","","","","","","","","","","","","",""
"","","","","","image-keyboard-response","68","151658","0.0-43.0","5c92aa671ce0cd00128c6c86","665500ab8938657b03fbdba8","665792ac3431f6ebb88869f4","878","stimuli/1000101.jpg","1","","prediction_trial","1","","true","","1","true","true","true","true","true","true","[1]","000","101","1","","","","","","",""
"","","","","","image-keyboard-response","69","151787","0.0-44.0","5c92aa671ce0cd00128c6c86","665500ab8938657b03fbdba8","665792ac3431f6ebb88869f4","129","stimuli/10001011.jpg"," ","","feedback_trial","1","","","","","","","","","","","","","","","","","","","","",""
"","","","","","image-keyboard-response","70","153495","0.0-45.0","5c92aa671ce0cd00128c6c86","665500ab8938657b03fbdba8","665792ac3431f6ebb88869f4","1707","stimuli/1001110.jpg","0","","prediction_trial","1","","false","","1","false","false","true","true","false","false","[1]","001","110","0","","","","","","",""
"","","","","","image-keyboard-response","71","153630","0.0-46.0","5c92aa671ce0cd00128c6c86","665500ab8938657b03fbdba8","665792ac3431f6ebb88869f4","134","stimuli/10011101.jpg"," ","","feedback_trial","1","","","","","","","","","","","","","","","","","","","","",""
"","","","","","image-keyboard-response","72","156440","0.0-47.0","5c92aa671ce0cd00128c6c86","665500ab8938657b03fbdba8","665792ac3431f6ebb88869f4","2803","stimuli/2001101.jpg","0","","prediction_trial","2","","false","","2","false","false","false","true","false","false","[2]","001","101","0","","","","","","",""
"","","","","","image-keyboard-response","73","156672","0.0-48.0","5c92aa671ce0cd00128c6c86","665500ab8938657b03fbdba8","665792ac3431f6ebb88869f4","231","stimuli/20011012.jpg"," ","","feedback_trial","2","","","","","","","","","","","","","","","","","","","","",""
"","","","","","image-keyboard-response","74","159297","0.0-49.0","5c92aa671ce0cd00128c6c86","665500ab8938657b03fbdba8","665792ac3431f6ebb88869f4","2624","stimuli/1101110.jpg","0","","prediction_trial","1","","false","","1","false","false","true","true","false","false","[1]","101","110","0","","","","","","",""
"","","","","","image-keyboard-response","75","159514","0.0-50.0","5c92aa671ce0cd00128c6c86","665500ab8938657b03fbdba8","665792ac3431f6ebb88869f4","216","stimuli/11011101.jpg"," ","","feedback_trial","1","","","","","","","","","","","","","","","","","","","","",""
"","","","","","image-keyboard-response","76","162238","0.0-51.0","5c92aa671ce0cd00128c6c86","665500ab8938657b03fbdba8","665792ac3431f6ebb88869f4","2723","stimuli/2011011.jpg","1","","prediction_trial","2","","false","","2","false","false","false","false","false","false","[2,1]","011","011","0","","","","","","",""
"","","","","","image-keyboard-response","77","162592","0.0-52.0","5c92aa671ce0cd00128c6c86","665500ab8938657b03fbdba8","665792ac3431f6ebb88869f4","354","stimuli/20110112.jpg"," ","","feedback_trial","2","","","","","","","","","","","","","","","","","","","","",""
"","","","","","image-keyboard-response","78","164499","0.0-53.0","5c92aa671ce0cd00128c6c86","665500ab8938657b03fbdba8","665792ac3431f6ebb88869f4","1898","stimuli/2100101.jpg","2","","prediction_trial","2","","true","","2","false","false","true","true","false","false","[2]","100","101","1","","","","","","",""
"","","","","","image-keyboard-response","79","164779","0.0-54.0","5c92aa671ce0cd00128c6c86","665500ab8938657b03fbdba8","665792ac3431f6ebb88869f4","279","stimuli/21001012.jpg"," ","","feedback_trial","2","","","","","","","","","","","","","","","","","","","","",""
"","","","","","image-keyboard-response","80","166160","0.0-55.0","5c92aa671ce0cd00128c6c86","665500ab8938657b03fbdba8","665792ac3431f6ebb88869f4","1380","stimuli/1101011.jpg","1","","prediction_trial","1","","true","","1","false","false","true","true","false","false","[1]","101","011","1","","","","","","",""
"","","","","","image-keyboard-response","81","166417","0.0-56.0","5c92aa671ce0cd00128c6c86","665500ab8938657b03fbdba8","665792ac3431f6ebb88869f4","256","stimuli/11010111.jpg"," ","","feedback_trial","1","","","","","","","","","","","","","","","","","","","","",""
"","","","","","image-keyboard-response","82","167291","0.0-57.0","5c92aa671ce0cd00128c6c86","665500ab8938657b03fbdba8","665792ac3431f6ebb88869f4","872","stimuli/1100111.jpg","1","","prediction_trial","1","","true","","1","false","false","true","true","false","false","[1]","100","111","1","","","","","","",""
"","","","","","image-keyboard-response","83","167512","0.0-58.0","5c92aa671ce0cd00128c6c86","665500ab8938657b03fbdba8","665792ac3431f6ebb88869f4","220","stimuli/11001111.jpg"," ","","feedback_trial","1","","","","","","","","","","","","","","","","","","","","",""
"","","","","","image-keyboard-response","84","169356","0.0-59.0","5c92aa671ce0cd00128c6c86","665500ab8938657b03fbdba8","665792ac3431f6ebb88869f4","1838","stimuli/1011110.jpg","1","","prediction_trial","1","","true","","1","false","false","false","false","false","false","[2,1]","011","110","1","","","","","","",""
"","","","","","image-keyboard-response","85","169538","0.0-60.0","5c92aa671ce0cd00128c6c86","665500ab8938657b03fbdba8","665792ac3431f6ebb88869f4","181","stimuli/10111101.jpg"," ","","feedback_trial","2","","","","","","","","","","","","","","","","","","","","",""
"","","","","","image-keyboard-response","86","170703","0.0-61.0","5c92aa671ce0cd00128c6c86","665500ab8938657b03fbdba8","665792ac3431f6ebb88869f4","1164","stimuli/2111111.jpg","1","","prediction_trial","2","","false","","2","false","false","false","false","false","false","[1,2,0]","111","111","0","","","","","","",""
"","","","","","image-keyboard-response","87","170920","0.0-62.0","5c92aa671ce0cd00128c6c86","665500ab8938657b03fbdba8","665792ac3431f6ebb88869f4","216","stimuli/21111112.jpg"," ","","feedback_trial","1","","","","","","","","","","","","","","","","","","","","",""
"","","","","","image-keyboard-response","88","172966","0.0-63.0","5c92aa671ce0cd00128c6c86","665500ab8938657b03fbdba8","665792ac3431f6ebb88869f4","2045","stimuli/2000011.jpg","1","","prediction_trial","2","","false","","2","false","false","true","true","false","false","[2]","000","011","0","","","","","","",""
"","","","","","image-keyboard-response","89","173282","0.0-64.0","5c92aa671ce0cd00128c6c86","665500ab8938657b03fbdba8","665792ac3431f6ebb88869f4","315","stimuli/20000112.jpg"," ","","feedback_trial","2","","","","","","","","","","","","","","","","","","","","",""
"","","","","","image-keyboard-response","90","174198","0.0-65.0","5c92aa671ce0cd00128c6c86","665500ab8938657b03fbdba8","665792ac3431f6ebb88869f4","909","stimuli/2100011.jpg","1","","prediction_trial","2","","false","","2","false","false","true","true","false","false","[2]","100","011","0","","","","","","",""
"","","","","","image-keyboard-response","91","174441","0.0-66.0","5c92aa671ce0cd00128c6c86","665500ab8938657b03fbdba8","665792ac3431f6ebb88869f4","242","stimuli/21000112.jpg"," ","","feedback_trial","2","","","","","","","","","","","","","","","","","","","","",""
"","","","","","image-keyboard-response","92","175637","0.0-67.0","5c92aa671ce0cd00128c6c86","665500ab8938657b03fbdba8","665792ac3431f6ebb88869f4","1196","stimuli/0010011.jpg","0","","prediction_trial","0","","true","","0","true","true","true","true","true","true","[0]","010","011","1","","","","","","",""
"","","","","","image-keyboard-response","93","175813","0.0-68.0","5c92aa671ce0cd00128c6c86","665500ab8938657b03fbdba8","665792ac3431f6ebb88869f4","175","stimuli/00100110.jpg"," ","","feedback_trial","0","","","","","","","","","","","","","","","","","","","","",""
"","","","","","image-keyboard-response","94","176316","0.0-69.0","5c92aa671ce0cd00128c6c86","665500ab8938657b03fbdba8","665792ac3431f6ebb88869f4","502","stimuli/0010000.jpg","0","","prediction_trial","0","","true","","0","true","true","true","true","true","true","[0]","010","000","1","","","","","","",""
"","","","","","image-keyboard-response","95","176429","0.0-70.0","5c92aa671ce0cd00128c6c86","665500ab8938657b03fbdba8","665792ac3431f6ebb88869f4","112","stimuli/00100000.jpg"," ","","feedback_trial","0","","","","","","","","","","","","","","","","","","","","",""
"","","","","","image-keyboard-response","96","177852","0.0-71.0","5c92aa671ce0cd00128c6c86","665500ab8938657b03fbdba8","665792ac3431f6ebb88869f4","1417","stimuli/2001110.jpg","2","","prediction_trial","2","","true","","2","true","true","false","true","false","true","[2]","001","110","1","","","","","","",""
"","","","","","image-keyboard-response","97","177988","0.0-72.0","5c92aa671ce0cd00128c6c86","665500ab8938657b03fbdba8","665792ac3431f6ebb88869f4","135","stimuli/20011102.jpg"," ","","feedback_trial","2","","","","","","","","","","","","","","","","","","","","",""
"","","","","","image-keyboard-response","98","179428","0.0-73.0","5c92aa671ce0cd00128c6c86","665500ab8938657b03fbdba8","665792ac3431f6ebb88869f4","1439","stimuli/2111000.jpg","2","","prediction_trial","2","","true","","2","true","true","false","false","false","false","[1,0,2]","111","000","1","","","","","","",""
"","","","","","image-keyboard-response","99","179561","0.0-74.0","5c92aa671ce0cd00128c6c86","665500ab8938657b03fbdba8","665792ac3431f6ebb88869f4","132","stimuli/21110002.jpg"," ","","feedback_trial","1","","","","","","","","","","","","","","","","","","","","",""
"","","","","","image-keyboard-response","100","182728","0.0-75.0","5c92aa671ce0cd00128c6c86","665500ab8938657b03fbdba8","665792ac3431f6ebb88869f4","3166","stimuli/2011100.jpg","1","","prediction_trial","1","","true","","2","true","true","false","false","false","false","[1,2]","011","100","1","","","","","","",""
"","","","","","image-keyboard-response","101","182881","0.0-76.0","5c92aa671ce0cd00128c6c86","665500ab8938657b03fbdba8","665792ac3431f6ebb88869f4","152","stimuli/20111001.jpg"," ","","feedback_trial","1","","","","","","","","","","","","","","","","","","","","",""
"","","","","","image-keyboard-response","102","184139","0.0-77.0","5c92aa671ce0cd00128c6c86","665500ab8938657b03fbdba8","665792ac3431f6ebb88869f4","1251","stimuli/2111110.jpg","1","","prediction_trial","1","","true","","2","true","true","false","false","false","false","[0,1,2]","111","110","1","","","","","","",""
"","","","","","image-keyboard-response","103","184280","0.0-78.0","5c92aa671ce0cd00128c6c86","665500ab8938657b03fbdba8","665792ac3431f6ebb88869f4","140","stimuli/21111101.jpg"," ","","feedback_trial","0","","","","","","","","","","","","","","","","","","","","",""
"","","","","","image-keyboard-response","104","185778","0.0-79.0","5c92aa671ce0cd00128c6c86","665500ab8938657b03fbdba8","665792ac3431f6ebb88869f4","1497","stimuli/1110100.jpg","1","","prediction_trial","0","","false","","1","true","true","false","false","false","false","[0,1]","110","100","0","","","","","","",""
"","","","","","image-keyboard-response","105","185892","0.0-80.0","5c92aa671ce0cd00128c6c86","665500ab8938657b03fbdba8","665792ac3431f6ebb88869f4","113","stimuli/11101000.jpg"," ","","feedback_trial","0","","","","","","","","","","","","","","","","","","","","",""
"","","","","","image-keyboard-response","106","187250","0.0-81.0","5c92aa671ce0cd00128c6c86","665500ab8938657b03fbdba8","665792ac3431f6ebb88869f4","1357","stimuli/0110010.jpg","1","","prediction_trial","1","","true","","0","true","true","false","false","false","false","[1,0]","110","010","1","","","","","","",""
"","","","","","image-keyboard-response","107","187388","0.0-82.0","5c92aa671ce0cd00128c6c86","665500ab8938657b03fbdba8","665792ac3431f6ebb88869f4","138","stimuli/01100101.jpg"," ","","feedback_trial","1","","","","","","","","","","","","","","","","","","","","",""
"","","","","","image-keyboard-response","108","188624","0.0-83.0","5c92aa671ce0cd00128c6c86","665500ab8938657b03fbdba8","665792ac3431f6ebb88869f4","1226","stimuli/2000110.jpg","2","","prediction_trial","2","","true","","2","true","true","true","true","true","true","[2]","000","110","1","","","","","","",""
"","","","","","image-keyboard-response","109","188748","0.0-84.0","5c92aa671ce0cd00128c6c86","665500ab8938657b03fbdba8","665792ac3431f6ebb88869f4","123","stimuli/20001102.jpg"," ","","feedback_trial","2","","","","","","","","","","","","","","","","","","","","",""
"","","","","","image-keyboard-response","110","190080","0.0-85.0","5c92aa671ce0cd00128c6c86","665500ab8938657b03fbdba8","665792ac3431f6ebb88869f4","1331","stimuli/1010011.jpg","1","","prediction_trial","1","","true","","1","false","false","false","true","false","false","[1]","010","011","1","","","","","","",""
"","","","","","image-keyboard-response","111","190221","0.0-86.0","5c92aa671ce0cd00128c6c86","665500ab8938657b03fbdba8","665792ac3431f6ebb88869f4","140","stimuli/10100111.jpg"," ","","feedback_trial","1","","","","","","","","","","","","","","","","","","","","",""
"","","","","","image-keyboard-response","112","191070","0.0-87.0","5c92aa671ce0cd00128c6c86","665500ab8938657b03fbdba8","665792ac3431f6ebb88869f4","848","stimuli/2100110.jpg","2","","prediction_trial","2","","true","","2","true","true","true","true","true","true","[2]","100","110","1","","","","","","",""
"","","","","","image-keyboard-response","113","191179","0.0-88.0","5c92aa671ce0cd00128c6c86","665500ab8938657b03fbdba8","665792ac3431f6ebb88869f4","108","stimuli/21001102.jpg"," ","","feedback_trial","2","","","","","","","","","","","","","","","","","","","","",""
"","","","","","image-keyboard-response","114","192310","0.0-89.0","5c92aa671ce0cd00128c6c86","665500ab8938657b03fbdba8","665792ac3431f6ebb88869f4","1122","stimuli/2001011.jpg","1","","prediction_trial","2","","false","","2","false","false","false","true","false","false","[2]","001","011","0","","","","","","",""
"","","","","","image-keyboard-response","115","192418","0.0-90.0","5c92aa671ce0cd00128c6c86","665500ab8938657b03fbdba8","665792ac3431f6ebb88869f4","107","stimuli/20010112.jpg"," ","","feedback_trial","2","","","","","","","","","","","","","","","","","","","","",""
"","","","","","image-keyboard-response","116","193720","0.0-91.0","5c92aa671ce0cd00128c6c86","665500ab8938657b03fbdba8","665792ac3431f6ebb88869f4","1301","stimuli/1001101.jpg","1","","prediction_trial","1","","true","","1","true","true","true","true","true","true","[1]","001","101","1","","","","","","",""
"","","","","","image-keyboard-response","117","193814","0.0-92.0","5c92aa671ce0cd00128c6c86","665500ab8938657b03fbdba8","665792ac3431f6ebb88869f4","93","stimuli/10011011.jpg"," ","","feedback_trial","1","","","","","","","","","","","","","","","","","","","","",""
"","","","","","image-keyboard-response","118","195277","0.0-93.0","5c92aa671ce0cd00128c6c86","665500ab8938657b03fbdba8","665792ac3431f6ebb88869f4","1462","stimuli/0111100.jpg","0","","prediction_trial","0","","true","","0","false","true","false","false","false","false","[1,2,0]","111","100","1","","","","","","",""
"","","","","","image-keyboard-response","119","195382","0.0-94.0","5c92aa671ce0cd00128c6c86","665500ab8938657b03fbdba8","665792ac3431f6ebb88869f4","104","stimuli/01111000.jpg"," ","","feedback_trial","1","","","","","","","","","","","","","","","","","","","","",""
"","","","","","image-keyboard-response","120","196201","0.0-95.0","5c92aa671ce0cd00128c6c86","665500ab8938657b03fbdba8","665792ac3431f6ebb88869f4","811","stimuli/1000001.jpg","1","","prediction_trial","1","","true","","1","true","true","true","true","true","true","[1]","000","001","1","","","","","","",""
"","","","","","image-keyboard-response","121","196299","0.0-96.0","5c92aa671ce0cd00128c6c86","665500ab8938657b03fbdba8","665792ac3431f6ebb88869f4","97","stimuli/10000011.jpg"," ","","feedback_trial","1","","","","","","","","","","","","","","","","","","","","",""
"","","","","","image-keyboard-response","122","196860","0.0-97.0","5c92aa671ce0cd00128c6c86","665500ab8938657b03fbdba8","665792ac3431f6ebb88869f4","560","stimuli/2100000.jpg","2","","prediction_trial","2","","true","","2","true","true","true","true","true","true","[2]","100","000","1","","","","","","",""
"","","","","","image-keyboard-response","123","196956","0.0-98.0","5c92aa671ce0cd00128c6c86","665500ab8938657b03fbdba8","665792ac3431f6ebb88869f4","95","stimuli/21000002.jpg"," ","","feedback_trial","2","","","","","","","","","","","","","","","","","","","","",""
"","","","","","image-keyboard-response","124","197529","0.0-99.0","5c92aa671ce0cd00128c6c86","665500ab8938657b03fbdba8","665792ac3431f6ebb88869f4","572","stimuli/2110010.jpg","2","","prediction_trial","2","","true","","2","true","true","true","true","true","true","[2]","110","010","1","","","","","","",""
"","","","","","image-keyboard-response","125","197614","0.0-100.0","5c92aa671ce0cd00128c6c86","665500ab8938657b03fbdba8","665792ac3431f6ebb88869f4","84","stimuli/21100102.jpg"," ","","feedback_trial","2","","","","","","","","","","","","","","","","","","","","",""
"","","","","","image-keyboard-response","126","200788","0.0-101.0","5c92aa671ce0cd00128c6c86","665500ab8938657b03fbdba8","665792ac3431f6ebb88869f4","3165","stimuli/0101001.jpg","0","","prediction_trial","2","","false","","0","true","true","false","false","false","false","[0,2]","101","001","0","","","","","","",""
"","","","","","image-keyboard-response","127","200921","0.0-102.0","5c92aa671ce0cd00128c6c86","665500ab8938657b03fbdba8","665792ac3431f6ebb88869f4","132","stimuli/01010012.jpg"," ","","feedback_trial","0","","","","","","","","","","","","","","","","","","","","",""
"","","","","","image-keyboard-response","128","202488","0.0-103.0","5c92aa671ce0cd00128c6c86","665500ab8938657b03fbdba8","665792ac3431f6ebb88869f4","1566","stimuli/1011100.jpg","1","","prediction_trial","1","","true","","1","true","true","false","false","false","false","[1,2]","011","100","1","","","","","","",""
"","","","","","image-keyboard-response","129","202585","0.0-104.0","5c92aa671ce0cd00128c6c86","665500ab8938657b03fbdba8","665792ac3431f6ebb88869f4","96","stimuli/10111001.jpg"," ","","feedback_trial","1","","","","","","","","","","","","","","","","","","","","",""
"","","","","","image-keyboard-response","130","204133","0.0-105.0","5c92aa671ce0cd00128c6c86","665500ab8938657b03fbdba8","665792ac3431f6ebb88869f4","1548","stimuli/2001111.jpg","1","","prediction_trial","2","","false","","2","false","false","false","true","false","false","[2]","001","111","0","","","","","","",""
"","","","","","image-keyboard-response","131","204273","0.0-106.0","5c92aa671ce0cd00128c6c86","665500ab8938657b03fbdba8","665792ac3431f6ebb88869f4","139","stimuli/20011112.jpg"," ","","feedback_trial","2","","","","","","","","","","","","","","","","","","","","",""
"","","","","","image-keyboard-response","132","204996","0.0-107.0","5c92aa671ce0cd00128c6c86","665500ab8938657b03fbdba8","665792ac3431f6ebb88869f4","717","stimuli/0001011.jpg","0","","prediction_trial","0","","true","","0","true","true","true","true","true","true","[0]","001","011","1","","","","","","",""
"","","","","","image-keyboard-response","133","205080","0.0-108.0","5c92aa671ce0cd00128c6c86","665500ab8938657b03fbdba8","665792ac3431f6ebb88869f4","83","stimuli/00010110.jpg"," ","","feedback_trial","0","","","","","","","","","","","","","","","","","","","","",""
"","","","","","image-keyboard-response","134","206247","0.0-109.0","5c92aa671ce0cd00128c6c86","665500ab8938657b03fbdba8","665792ac3431f6ebb88869f4","1166","stimuli/2000101.jpg","2","","prediction_trial","2","","true","","2","false","false","true","true","false","false","[2]","000","101","1","","","","","","",""
"","","","","","image-keyboard-response","135","206491","0.0-110.0","5c92aa671ce0cd00128c6c86","665500ab8938657b03fbdba8","665792ac3431f6ebb88869f4","243","stimuli/20001012.jpg"," ","","feedback_trial","2","","","","","","","","","","","","","","","","","","","","",""
"","","","","","image-keyboard-response","136","207179","0.0-111.0","5c92aa671ce0cd00128c6c86","665500ab8938657b03fbdba8","665792ac3431f6ebb88869f4","687","stimuli/1001000.jpg","1","","prediction_trial","1","","true","","1","true","true","true","true","true","true","[1]","001","000","1","","","","","","",""
"","","","","","image-keyboard-response","137","207285","0.0-112.0","5c92aa671ce0cd00128c6c86","665500ab8938657b03fbdba8","665792ac3431f6ebb88869f4","105","stimuli/10010001.jpg"," ","","feedback_trial","1","","","","","","","","","","","","","","","","","","","","",""
"","","","","","image-keyboard-response","138","209672","0.0-113.0","5c92aa671ce0cd00128c6c86","665500ab8938657b03fbdba8","665792ac3431f6ebb88869f4","2381","stimuli/0010110.jpg","1","","prediction_trial","0","","false","","0","false","false","true","true","false","false","[0]","010","110","0","","","","","","",""
"","","","","","image-keyboard-response","139","209828","0.0-114.0","5c92aa671ce0cd00128c6c86","665500ab8938657b03fbdba8","665792ac3431f6ebb88869f4","155","stimuli/00101100.jpg"," ","","feedback_trial","0","","","","","","","","","","","","","","","","","","","","",""
"","","","","","image-keyboard-response","140","210886","0.0-115.0","5c92aa671ce0cd00128c6c86","665500ab8938657b03fbdba8","665792ac3431f6ebb88869f4","1057","stimuli/1111110.jpg","1","","prediction_trial","2","","false","","1","false","false","false","false","false","false","[0,1,2]","111","110","0","","","","","","",""
"","","","","","image-keyboard-response","141","210973","0.0-116.0","5c92aa671ce0cd00128c6c86","665500ab8938657b03fbdba8","665792ac3431f6ebb88869f4","86","stimuli/11111102.jpg"," ","","feedback_trial","0","","","","","","","","","","","","","","","","","","","","",""
"","","","","","image-keyboard-response","142","212563","0.0-117.0","5c92aa671ce0cd00128c6c86","665500ab8938657b03fbdba8","665792ac3431f6ebb88869f4","1589","stimuli/1110110.jpg","1","","prediction_trial","1","","true","","1","false","false","false","false","false","false","[1,0]","110","110","1","","","","","","",""
"","","","","","image-keyboard-response","143","212680","0.0-118.0","5c92aa671ce0cd00128c6c86","665500ab8938657b03fbdba8","665792ac3431f6ebb88869f4","116","stimuli/11101101.jpg"," ","","feedback_trial","1","","","","","","","","","","","","","","","","","","","","",""
"","","","","","image-keyboard-response","144","214228","0.0-119.0","5c92aa671ce0cd00128c6c86","665500ab8938657b03fbdba8","665792ac3431f6ebb88869f4","1541","stimuli/2011101.jpg","2","","prediction_trial","2","","true","","2","false","false","false","false","false","false","[2,1]","011","101","1","","","","","","",""
"","","","","","image-keyboard-response","145","214399","0.0-120.0","5c92aa671ce0cd00128c6c86","665500ab8938657b03fbdba8","665792ac3431f6ebb88869f4","170","stimuli/20111012.jpg"," ","","feedback_trial","2","","","","","","","","","","","","","","","","","","","","",""
"","","","","","image-keyboard-response","146","215551","0.0-121.0","5c92aa671ce0cd00128c6c86","665500ab8938657b03fbdba8","665792ac3431f6ebb88869f4","1151","stimuli/2011110.jpg","2","","prediction_trial","2","","true","","2","true","true","false","false","false","false","[2,1]","011","110","1","","","","","","",""
"","","","","","image-keyboard-response","147","215733","0.0-122.0","5c92aa671ce0cd00128c6c86","665500ab8938657b03fbdba8","665792ac3431f6ebb88869f4","181","stimuli/20111102.jpg"," ","","feedback_trial","2","","","","","","","","","","","","","","","","","","","","",""
"","","","","","image-keyboard-response","148","216810","0.0-123.0","5c92aa671ce0cd00128c6c86","665500ab8938657b03fbdba8","665792ac3431f6ebb88869f4","1076","stimuli/0011100.jpg","0","","prediction_trial","0","","true","","0","false","true","true","true","false","true","[0]","011","100","1","","","","","","",""
"","","","","","image-keyboard-response","149","216979","0.0-124.0","5c92aa671ce0cd00128c6c86","665500ab8938657b03fbdba8","665792ac3431f6ebb88869f4","168","stimuli/00111000.jpg"," ","","feedback_trial","0","","","","","","","","","","","","","","","","","","","","",""
"","","","","","image-keyboard-response","150","219931","0.0-125.0","5c92aa671ce0cd00128c6c86","665500ab8938657b03fbdba8","665792ac3431f6ebb88869f4","2944","stimuli/0100011.jpg","0","","prediction_trial","0","","true","","0","true","true","false","true","false","true","[0]","100","011","1","","","","","","",""
"","","","","","image-keyboard-response","151","220058","0.0-126.0","5c92aa671ce0cd00128c6c86","665500ab8938657b03fbdba8","665792ac3431f6ebb88869f4","127","stimuli/01000110.jpg"," ","","feedback_trial","0","","","","","","","","","","","","","","","","","","","","",""
"","","","","","image-keyboard-response","152","221226","0.0-127.0","5c92aa671ce0cd00128c6c86","665500ab8938657b03fbdba8","665792ac3431f6ebb88869f4","1167","stimuli/0101000.jpg","0","","prediction_trial","0","","true","","0","true","true","false","false","false","false","[0,2]","101","000","1","","","","","","",""
"","","","","","image-keyboard-response","153","221326","0.0-128.0","5c92aa671ce0cd00128c6c86","665500ab8938657b03fbdba8","665792ac3431f6ebb88869f4","99","stimuli/01010000.jpg"," ","","feedback_trial","0","","","","","","","","","","","","","","","","","","","","",""
"","","","","","image-keyboard-response","154","222413","0.0-129.0","5c92aa671ce0cd00128c6c86","665500ab8938657b03fbdba8","665792ac3431f6ebb88869f4","1086","stimuli/2101000.jpg","2","","prediction_trial","0","","false","","2","true","true","false","false","false","false","[0,2]","101","000","0","","","","","","",""
"","","","","","image-keyboard-response","155","222536","0.0-130.0","5c92aa671ce0cd00128c6c86","665500ab8938657b03fbdba8","665792ac3431f6ebb88869f4","122","stimuli/21010000.jpg"," ","","feedback_trial","0","","","","","","","","","","","","","","","","","","","","",""
"","","","","","image-keyboard-response","156","223529","0.0-131.0","5c92aa671ce0cd00128c6c86","665500ab8938657b03fbdba8","665792ac3431f6ebb88869f4","985","stimuli/1101101.jpg","1","","prediction_trial","1","","true","","1","true","true","true","true","true","true","[1]","101","101","1","","","","","","",""
"","","","","","image-keyboard-response","157","223627","0.0-132.0","5c92aa671ce0cd00128c6c86","665500ab8938657b03fbdba8","665792ac3431f6ebb88869f4","97","stimuli/11011011.jpg"," ","","feedback_trial","1","","","","","","","","","","","","","","","","","","","","",""
"","","","","","image-keyboard-response","158","224884","0.0-133.0","5c92aa671ce0cd00128c6c86","665500ab8938657b03fbdba8","665792ac3431f6ebb88869f4","1257","stimuli/1010010.jpg","1","","prediction_trial","1","","true","","1","false","true","false","true","false","true","[1]","010","010","1","","","","","","",""
"","","","","","image-keyboard-response","159","225020","0.0-134.0","5c92aa671ce0cd00128c6c86","665500ab8938657b03fbdba8","665792ac3431f6ebb88869f4","135","stimuli/10100101.jpg"," ","","feedback_trial","1","","","","","","","","","","","","","","","","","","","","",""
"","","","","","image-keyboard-response","160","226308","0.0-135.0","5c92aa671ce0cd00128c6c86","665500ab8938657b03fbdba8","665792ac3431f6ebb88869f4","1287","stimuli/1110000.jpg","1","","prediction_trial","1","","true","","1","true","true","false","false","false","false","[1,0]","110","000","1","","","","","","",""
"","","","","","image-keyboard-response","161","226658","0.0-136.0","5c92aa671ce0cd00128c6c86","665500ab8938657b03fbdba8","665792ac3431f6ebb88869f4","350","stimuli/11100001.jpg"," ","","feedback_trial","1","","","","","","","","","","","","","","","","","","","","",""
"","","","","","image-keyboard-response","162","227368","0.0-137.0","5c92aa671ce0cd00128c6c86","665500ab8938657b03fbdba8","665792ac3431f6ebb88869f4","702","stimuli/1000000.jpg","1","","prediction_trial","1","","true","","1","true","true","true","true","true","true","[1]","000","000","1","","","","","","",""
"","","","","","image-keyboard-response","163","227522","0.0-138.0","5c92aa671ce0cd00128c6c86","665500ab8938657b03fbdba8","665792ac3431f6ebb88869f4","153","stimuli/10000001.jpg"," ","","feedback_trial","1","","","","","","","","","","","","","","","","","","","","",""
"","","","","","image-keyboard-response","164","228380","0.0-139.0","5c92aa671ce0cd00128c6c86","665500ab8938657b03fbdba8","665792ac3431f6ebb88869f4","857","stimuli/0000100.jpg","0","","prediction_trial","0","","true","","0","false","true","true","true","false","true","[0]","000","100","1","","","","","","",""
"","","","","","image-keyboard-response","165","228550","0.0-140.0","5c92aa671ce0cd00128c6c86","665500ab8938657b03fbdba8","665792ac3431f6ebb88869f4","169","stimuli/00001000.jpg"," ","","feedback_trial","0","","","","","","","","","","","","","","","","","","","","",""
"","","","","","image-keyboard-response","166","229378","0.0-141.0","5c92aa671ce0cd00128c6c86","665500ab8938657b03fbdba8","665792ac3431f6ebb88869f4","827","stimuli/0001001.jpg","0","","prediction_trial","0","","true","","0","true","true","true","true","true","true","[0]","001","001","1","","","","","","",""
"","","","","","image-keyboard-response","167","229508","0.0-142.0","5c92aa671ce0cd00128c6c86","665500ab8938657b03fbdba8","665792ac3431f6ebb88869f4","129","stimuli/00010010.jpg"," ","","feedback_trial","0","","","","","","","","","","","","","","","","","","","","",""
"","","","","","image-keyboard-response","168","230295","0.0-143.0","5c92aa671ce0cd00128c6c86","665500ab8938657b03fbdba8","665792ac3431f6ebb88869f4","786","stimuli/0011000.jpg","0","","prediction_trial","0","","true","","0","true","true","true","true","true","true","[0]","011","000","1","","","","","","",""
"","","","","","image-keyboard-response","169","230455","0.0-144.0","5c92aa671ce0cd00128c6c86","665500ab8938657b03fbdba8","665792ac3431f6ebb88869f4","159","stimuli/00110000.jpg"," ","","feedback_trial","0","","","","","","","","","","","","","","","","","","","","",""
"","","","","","image-keyboard-response","170","231032","0.0-145.0","5c92aa671ce0cd00128c6c86","665500ab8938657b03fbdba8","665792ac3431f6ebb88869f4","577","stimuli/1100100.jpg","1","","prediction_trial","1","","true","","1","true","true","true","true","true","true","[1]","100","100","1","","","","","","",""
"","","","","","image-keyboard-response","171","231148","0.0-146.0","5c92aa671ce0cd00128c6c86","665500ab8938657b03fbdba8","665792ac3431f6ebb88869f4","115","stimuli/11001001.jpg"," ","","feedback_trial","1","","","","","","","","","","","","","","","","","","","","",""
"","","","","","image-keyboard-response","172","232492","0.0-147.0","5c92aa671ce0cd00128c6c86","665500ab8938657b03fbdba8","665792ac3431f6ebb88869f4","1343","stimuli/1011010.jpg","1","","prediction_trial","1","","true","","1","false","true","false","false","false","false","[2,1]","011","010","1","","","","","","",""
"","","","","","image-keyboard-response","173","232661","0.0-148.0","5c92aa671ce0cd00128c6c86","665500ab8938657b03fbdba8","665792ac3431f6ebb88869f4","168","stimuli/10110101.jpg"," ","","feedback_trial","2","","","","","","","","","","","","","","","","","","","","",""
"","","","","","image-keyboard-response","174","234453","0.0-149.0","5c92aa671ce0cd00128c6c86","665500ab8938657b03fbdba8","665792ac3431f6ebb88869f4","1791","stimuli/0100010.jpg","0","","prediction_trial","0","","true","","0","true","true","false","true","false","true","[0]","100","010","1","","","","","","",""
"","","","","","image-keyboard-response","175","234573","0.0-150.0","5c92aa671ce0cd00128c6c86","665500ab8938657b03fbdba8","665792ac3431f6ebb88869f4","119","stimuli/01000100.jpg"," ","","feedback_trial","0","","","","","","","","","","","","","","","","","","","","",""
"","","","","","image-keyboard-response","176","235881","0.0-151.0","5c92aa671ce0cd00128c6c86","665500ab8938657b03fbdba8","665792ac3431f6ebb88869f4","1307","stimuli/1110101.jpg","1","","prediction_trial","0","","false","","1","true","true","false","false","false","false","[1,0]","110","101","0","","","","","","",""
"","","","","","image-keyboard-response","177","236086","0.0-152.0","5c92aa671ce0cd00128c6c86","665500ab8938657b03fbdba8","665792ac3431f6ebb88869f4","204","stimuli/11101010.jpg"," ","","feedback_trial","1","","","","","","","","","","","","","","","","","","","","",""
"","","","","","image-keyboard-response","178","237728","0.0-153.0","5c92aa671ce0cd00128c6c86","665500ab8938657b03fbdba8","665792ac3431f6ebb88869f4","1641","stimuli/2001010.jpg","2","","prediction_trial","2","","true","","2","true","true","false","true","false","true","[2]","001","010","1","","","","","","",""
"","","","","","image-keyboard-response","179","237881","0.0-154.0","5c92aa671ce0cd00128c6c86","665500ab8938657b03fbdba8","665792ac3431f6ebb88869f4","152","stimuli/20010102.jpg"," ","","feedback_trial","2","","","","","","","","","","","","","","","","","","","","",""
"","","","","","image-keyboard-response","180","239231","0.0-155.0","5c92aa671ce0cd00128c6c86","665500ab8938657b03fbdba8","665792ac3431f6ebb88869f4","1349","stimuli/0101101.jpg","0","","prediction_trial","0","","true","","0","false","false","false","false","false","false","[2,0]","101","101","1","","","","","","",""
"","","","","","image-keyboard-response","181","239416","0.0-156.0","5c92aa671ce0cd00128c6c86","665500ab8938657b03fbdba8","665792ac3431f6ebb88869f4","184","stimuli/01011010.jpg"," ","","feedback_trial","2","","","","","","","","","","","","","","","","","","","","",""
"","","","","","image-keyboard-response","182","240812","0.0-157.0","5c92aa671ce0cd00128c6c86","665500ab8938657b03fbdba8","665792ac3431f6ebb88869f4","1395","stimuli/1000111.jpg","1","","prediction_trial","1","","true","","1","false","false","true","true","false","false","[1]","000","111","1","","","","","","",""
"","","","","","image-keyboard-response","183","240964","0.0-158.0","5c92aa671ce0cd00128c6c86","665500ab8938657b03fbdba8","665792ac3431f6ebb88869f4","151","stimuli/10001111.jpg"," ","","feedback_trial","1","","","","","","","","","","","","","","","","","","","","",""
"","","","","","image-keyboard-response","184","241964","0.0-159.0","5c92aa671ce0cd00128c6c86","665500ab8938657b03fbdba8","665792ac3431f6ebb88869f4","999","stimuli/2001001.jpg","2","","prediction_trial","2","","true","","2","false","true","false","true","false","true","[2]","001","001","1","","","","","","",""
"","","","","","image-keyboard-response","185","242120","0.0-160.0","5c92aa671ce0cd00128c6c86","665500ab8938657b03fbdba8","665792ac3431f6ebb88869f4","155","stimuli/20010012.jpg"," ","","feedback_trial","2","","","","","","","","","","","","","","","","","","","","",""
"","","","","","image-keyboard-response","186","244728","0.0-161.0","5c92aa671ce0cd00128c6c86","665500ab8938657b03fbdba8","665792ac3431f6ebb88869f4","2607","stimuli/2010101.jpg","2","","prediction_trial","2","","true","","2","false","false","true","true","false","false","[2]","010","101","1","","","","","","",""
"","","","","","image-keyboard-response","187","244916","0.0-162.0","5c92aa671ce0cd00128c6c86","665500ab8938657b03fbdba8","665792ac3431f6ebb88869f4","186","stimuli/20101012.jpg"," ","","feedback_trial","2","","","","","","","","","","","","","","","","","","","","",""
"","","","","","image-keyboard-response","188","248868","0.0-163.0","5c92aa671ce0cd00128c6c86","665500ab8938657b03fbdba8","665792ac3431f6ebb88869f4","3951","stimuli/0100101.jpg","0","","prediction_trial","0","","true","","0","false","false","false","true","false","false","[0]","100","101","1","","","","","","",""
"","","","","","image-keyboard-response","189","249079","0.0-164.0","5c92aa671ce0cd00128c6c86","665500ab8938657b03fbdba8","665792ac3431f6ebb88869f4","210","stimuli/01001010.jpg"," ","","feedback_trial","0","","","","","","","","","","","","","","","","","","","","",""
"","","","","","image-keyboard-response","190","249811","0.0-165.0","5c92aa671ce0cd00128c6c86","665500ab8938657b03fbdba8","665792ac3431f6ebb88869f4","731","stimuli/1101000.jpg","1","","prediction_trial","1","","true","","1","true","true","true","true","true","true","[1]","101","000","1","","","","","","",""
"","","","","","image-keyboard-response","191","249922","0.0-166.0","5c92aa671ce0cd00128c6c86","665500ab8938657b03fbdba8","665792ac3431f6ebb88869f4","110","stimuli/11010001.jpg"," ","","feedback_trial","1","","","","","","","","","","","","","","","","","","","","",""
"","","","","","image-keyboard-response","192","253414","0.0-167.0","5c92aa671ce0cd00128c6c86","665500ab8938657b03fbdba8","665792ac3431f6ebb88869f4","3483","stimuli/2011010.jpg","1","","prediction_trial","1","","true","","2","true","true","false","false","false","false","[2,1]","011","010","1","","","","","","",""
"","","","","","image-keyboard-response","193","253575","0.0-168.0","5c92aa671ce0cd00128c6c86","665500ab8938657b03fbdba8","665792ac3431f6ebb88869f4","160","stimuli/20110101.jpg"," ","","feedback_trial","2","","","","","","","","","","","","","","","","","","","","",""
"","","","","","image-keyboard-response","194","254247","0.0-169.0","5c92aa671ce0cd00128c6c86","665500ab8938657b03fbdba8","665792ac3431f6ebb88869f4","671","stimuli/0011011.jpg","0","","prediction_trial","0","","true","","0","true","true","true","true","true","true","[0]","011","011","1","","","","","","",""
"","","","","","image-keyboard-response","195","254356","0.0-170.0","5c92aa671ce0cd00128c6c86","665500ab8938657b03fbdba8","665792ac3431f6ebb88869f4","107","stimuli/00110110.jpg"," ","","feedback_trial","0","","","","","","","","","","","","","","","","","","","","",""
"","","","","","image-keyboard-response","196","255043","0.0-171.0","5c92aa671ce0cd00128c6c86","665500ab8938657b03fbdba8","665792ac3431f6ebb88869f4","686","stimuli/2000000.jpg","2","","prediction_trial","2","","true","","2","true","true","true","true","true","true","[2]","000","000","1","","","","","","",""
"","","","","","image-keyboard-response","197","255166","0.0-172.0","5c92aa671ce0cd00128c6c86","665500ab8938657b03fbdba8","665792ac3431f6ebb88869f4","122","stimuli/20000002.jpg"," ","","feedback_trial","2","","","","","","","","","","","","","","","","","","","","",""
"","","","","","image-keyboard-response","198","255829","0.0-173.0","5c92aa671ce0cd00128c6c86","665500ab8938657b03fbdba8","665792ac3431f6ebb88869f4","655","stimuli/1001001.jpg","1","","prediction_trial","1","","true","","1","true","true","true","true","true","true","[1]","001","001","1","","","","","","",""
"","","","","","image-keyboard-response","199","255924","0.0-174.0","5c92aa671ce0cd00128c6c86","665500ab8938657b03fbdba8","665792ac3431f6ebb88869f4","94","stimuli/10010011.jpg"," ","","feedback_trial","1","","","","","","","","","","","","","","","","","","","","",""
"","","","","","image-keyboard-response","200","256435","0.0-175.0","5c92aa671ce0cd00128c6c86","665500ab8938657b03fbdba8","665792ac3431f6ebb88869f4","510","stimuli/2110100.jpg","2","","prediction_trial","2","","true","","2","true","true","true","true","true","true","[2]","110","100","1","","","","","","",""
"","","","","","image-keyboard-response","201","256557","0.0-176.0","5c92aa671ce0cd00128c6c86","665500ab8938657b03fbdba8","665792ac3431f6ebb88869f4","121","stimuli/21101002.jpg"," ","","feedback_trial","2","","","","","","","","","","","","","","","","","","","","",""
"","","","","","image-keyboard-response","202","258869","0.0-177.0","5c92aa671ce0cd00128c6c86","665500ab8938657b03fbdba8","665792ac3431f6ebb88869f4","2311","stimuli/0101011.jpg","0","","prediction_trial","2","","false","","0","true","true","false","false","false","false","[2,0]","101","011","0","","","","","","",""
"","","","","","image-keyboard-response","203","259253","0.0-178.0","5c92aa671ce0cd00128c6c86","665500ab8938657b03fbdba8","665792ac3431f6ebb88869f4","383","stimuli/01010112.jpg"," ","","feedback_trial","2","","","","","","","","","","","","","","","","","","","","",""
"","","","","","image-keyboard-response","204","260510","0.0-179.0","5c92aa671ce0cd00128c6c86","665500ab8938657b03fbdba8","665792ac3431f6ebb88869f4","1256","stimuli/0011111.jpg","1","","prediction_trial","0","","false","","0","false","false","true","true","false","false","[0]","011","111","0","","","","","","",""
"","","","","","image-keyboard-response","205","260740","0.0-180.0","5c92aa671ce0cd00128c6c86","665500ab8938657b03fbdba8","665792ac3431f6ebb88869f4","229","stimuli/00111110.jpg"," ","","feedback_trial","0","","","","","","","","","","","","","","","","","","","","",""
"","","","","","image-keyboard-response","206","261655","0.0-181.0","5c92aa671ce0cd00128c6c86","665500ab8938657b03fbdba8","665792ac3431f6ebb88869f4","914","stimuli/2101010.jpg","2","","prediction_trial","0","","false","","2","true","true","false","false","false","false","[0,2]","101","010","0","","","","","","",""
"","","","","","image-keyboard-response","207","261818","0.0-182.0","5c92aa671ce0cd00128c6c86","665500ab8938657b03fbdba8","665792ac3431f6ebb88869f4","162","stimuli/21010100.jpg"," ","","feedback_trial","0","","","","","","","","","","","","","","","","","","","","",""
"","","","","","image-keyboard-response","208","263039","0.0-183.0","5c92aa671ce0cd00128c6c86","665500ab8938657b03fbdba8","665792ac3431f6ebb88869f4","1221","stimuli/1111001.jpg","1","","prediction_trial","0","","false","","1","true","true","false","false","false","false","[0,2,1]","111","001","0","","","","","","",""
"","","","","","image-keyboard-response","209","263235","0.0-184.0","5c92aa671ce0cd00128c6c86","665500ab8938657b03fbdba8","665792ac3431f6ebb88869f4","195","stimuli/11110010.jpg"," ","","feedback_trial","0","","","","","","","","","","","","","","","","","","","","",""
"","","","","","image-keyboard-response","210","264628","0.0-185.0","5c92aa671ce0cd00128c6c86","665500ab8938657b03fbdba8","665792ac3431f6ebb88869f4","1386","stimuli/0111011.jpg","0","","prediction_trial","0","","true","","0","true","true","false","false","false","false","[2,0,1]","111","011","1","","","","","","",""
"","","","","","image-keyboard-response","211","264976","0.0-186.0","5c92aa671ce0cd00128c6c86","665500ab8938657b03fbdba8","665792ac3431f6ebb88869f4","347","stimuli/01110110.jpg"," ","","feedback_trial","2","","","","","","","","","","","","","","","","","","","","",""
"","","","","","image-keyboard-response","212","265919","0.0-187.0","5c92aa671ce0cd00128c6c86","665500ab8938657b03fbdba8","665792ac3431f6ebb88869f4","942","stimuli/2101001.jpg","2","","prediction_trial","0","","false","","2","false","true","false","false","false","false","[2,0]","101","001","0","","","","","","",""
"","","","","","image-keyboard-response","213","266096","0.0-188.0","5c92aa671ce0cd00128c6c86","665500ab8938657b03fbdba8","665792ac3431f6ebb88869f4","176","stimuli/21010010.jpg"," ","","feedback_trial","2","","","","","","","","","","","","","","","","","","","","",""
"","","","","","image-keyboard-response","214","267098","0.0-189.0","5c92aa671ce0cd00128c6c86","665500ab8938657b03fbdba8","665792ac3431f6ebb88869f4","1001","stimuli/1000100.jpg","1","","prediction_trial","1","","true","","1","true","true","true","true","true","true","[1]","000","100","1","","","","","","",""
"","","","","","image-keyboard-response","215","267236","0.0-190.0","5c92aa671ce0cd00128c6c86","665500ab8938657b03fbdba8","665792ac3431f6ebb88869f4","137","stimuli/10001001.jpg"," ","","feedback_trial","1","","","","","","","","","","","","","","","","","","","","",""
"","","","","","image-keyboard-response","216","267800","0.0-191.0","5c92aa671ce0cd00128c6c86","665500ab8938657b03fbdba8","665792ac3431f6ebb88869f4","555","stimuli/2100010.jpg","2","","prediction_trial","2","","true","","2","true","true","true","true","true","true","[2]","100","010","1","","","","","","",""
"","","","","","image-keyboard-response","217","267953","0.0-192.0","5c92aa671ce0cd00128c6c86","665500ab8938657b03fbdba8","665792ac3431f6ebb88869f4","152","stimuli/21000102.jpg"," ","","feedback_trial","2","","","","","","","","","","","","","","","","","","","","",""
"","","","","","image-keyboard-response","218","269074","0.0-193.0","5c92aa671ce0cd00128c6c86","665500ab8938657b03fbdba8","665792ac3431f6ebb88869f4","1120","stimuli/1010101.jpg","1","","prediction_trial","1","","true","","1","true","true","false","true","false","true","[1]","010","101","1","","","","","","",""
"","","","","","image-keyboard-response","219","269197","0.0-194.0","5c92aa671ce0cd00128c6c86","665500ab8938657b03fbdba8","665792ac3431f6ebb88869f4","122","stimuli/10101011.jpg"," ","","feedback_trial","1","","","","","","","","","","","","","","","","","","","","",""
"","","","","","image-keyboard-response","220","270684","0.0-195.0","5c92aa671ce0cd00128c6c86","665500ab8938657b03fbdba8","665792ac3431f6ebb88869f4","1486","stimuli/0010111.jpg","1","","prediction_trial","0","","false","","0","false","false","true","true","false","false","[0]","010","111","0","","","","","","",""
"","","","","","image-keyboard-response","221","270759","0.0-196.0","5c92aa671ce0cd00128c6c86","665500ab8938657b03fbdba8","665792ac3431f6ebb88869f4","75","stimuli/00101110.jpg"," ","","feedback_trial","0","","","","","","","","","","","","","","","","","","","","",""
"","","","","","image-keyboard-response","222","271668","0.0-197.0","5c92aa671ce0cd00128c6c86","665500ab8938657b03fbdba8","665792ac3431f6ebb88869f4","899","stimuli/1111000.jpg","1","","prediction_trial","1","","true","","1","true","true","false","false","false","false","[2,0,1]","111","000","1","","","","","","",""
"","","","","","image-keyboard-response","223","271779","0.0-198.0","5c92aa671ce0cd00128c6c86","665500ab8938657b03fbdba8","665792ac3431f6ebb88869f4","110","stimuli/11110001.jpg"," ","","feedback_trial","2","","","","","","","","","","","","","","","","","","","","",""
"","","","","","image-keyboard-response","224","273359","0.0-199.0","5c92aa671ce0cd00128c6c86","665500ab8938657b03fbdba8","665792ac3431f6ebb88869f4","1579","stimuli/0010001.jpg","0","","prediction_trial","0","","true","","0","true","true","true","true","true","true","[0]","010","001","1","","","","","","",""
"","","","","","image-keyboard-response","225","273451","0.0-200.0","5c92aa671ce0cd00128c6c86","665500ab8938657b03fbdba8","665792ac3431f6ebb88869f4","92","stimuli/00100010.jpg"," ","","feedback_trial","0","","","","","","","","","","","","","","","","","","","","",""
"","","","","","image-keyboard-response","226","274958","0.0-201.0","5c92aa671ce0cd00128c6c86","665500ab8938657b03fbdba8","665792ac3431f6ebb88869f4","1506","stimuli/1001010.jpg","1","","prediction_trial","1","","true","","1","false","true","true","true","false","true","[1]","001","010","1","","","","","","",""
"","","","","","image-keyboard-response","227","275073","0.0-202.0","5c92aa671ce0cd00128c6c86","665500ab8938657b03fbdba8","665792ac3431f6ebb88869f4","114","stimuli/10010101.jpg"," ","","feedback_trial","1","","","","","","","","","","","","","","","","","","","","",""
"","","","","","image-keyboard-response","228","276628","0.0-203.0","5c92aa671ce0cd00128c6c86","665500ab8938657b03fbdba8","665792ac3431f6ebb88869f4","1547","stimuli/2110111.jpg","2","","prediction_trial","2","","true","","2","false","false","true","true","false","false","[2]","110","111","1","","","","","","",""
"","","","","","image-keyboard-response","229","276859","0.0-204.0","5c92aa671ce0cd00128c6c86","665500ab8938657b03fbdba8","665792ac3431f6ebb88869f4","230","stimuli/21101112.jpg"," ","","feedback_trial","2","","","","","","","","","","","","","","","","","","","","",""
"","","","","","image-keyboard-response","230","278846","0.0-205.0","5c92aa671ce0cd00128c6c86","665500ab8938657b03fbdba8","665792ac3431f6ebb88869f4","1986","stimuli/2111101.jpg","1","","prediction_trial","2","","false","","2","false","false","false","false","false","false","[2,0,1]","111","101","0","","","","","","",""
"","","","","","image-keyboard-response","231","279227","0.0-206.0","5c92aa671ce0cd00128c6c86","665500ab8938657b03fbdba8","665792ac3431f6ebb88869f4","380","stimuli/21111012.jpg"," ","","feedback_trial","2","","","","","","","","","","","","","","","","","","","","",""
"","","","","","image-keyboard-response","232","282791","0.0-207.0","5c92aa671ce0cd00128c6c86","665500ab8938657b03fbdba8","665792ac3431f6ebb88869f4","3562","stimuli/2101011.jpg","1","","prediction_trial","0","","false","","2","false","false","false","false","false","false","[0,2]","101","011","0","","","","","","",""
"","","","","","image-keyboard-response","233","283019","0.0-208.0","5c92aa671ce0cd00128c6c86","665500ab8938657b03fbdba8","665792ac3431f6ebb88869f4","227","stimuli/21010110.jpg"," ","","feedback_trial","0","","","","","","","","","","","","","","","","","","","","",""
"","","","","","image-keyboard-response","234","285263","0.0-209.0","5c92aa671ce0cd00128c6c86","665500ab8938657b03fbdba8","665792ac3431f6ebb88869f4","2236","stimuli/0010101.jpg","2","","prediction_trial","0","","false","","0","false","false","true","true","false","false","[0]","010","101","0","","","","","","",""
"","","","","","image-keyboard-response","235","285619","0.0-210.0","5c92aa671ce0cd00128c6c86","665500ab8938657b03fbdba8","665792ac3431f6ebb88869f4","355","stimuli/00101010.jpg"," ","","feedback_trial","0","","","","","","","","","","","","","","","","","","","","",""
"","","","","","image-keyboard-response","236","286234","0.0-211.0","5c92aa671ce0cd00128c6c86","665500ab8938657b03fbdba8","665792ac3431f6ebb88869f4","614","stimuli/0000000.jpg","0","","prediction_trial","0","","true","","0","true","true","true","true","true","true","[0]","000","000","1","","","","","","",""
"","","","","","image-keyboard-response","237","286386","0.0-212.0","5c92aa671ce0cd00128c6c86","665500ab8938657b03fbdba8","665792ac3431f6ebb88869f4","151","stimuli/00000000.jpg"," ","","feedback_trial","0","","","","","","","","","","","","","","","","","","","","",""
"","","","","","image-keyboard-response","238","289298","0.0-213.0","5c92aa671ce0cd00128c6c86","665500ab8938657b03fbdba8","665792ac3431f6ebb88869f4","2911","stimuli/0110001.jpg","1","","prediction_trial","0","","false","","0","true","true","false","false","false","false","[1,0]","110","001","0","","","","","","",""
"","","","","","image-keyboard-response","239","289611","0.0-214.0","5c92aa671ce0cd00128c6c86","665500ab8938657b03fbdba8","665792ac3431f6ebb88869f4","312","stimuli/01100010.jpg"," ","","feedback_trial","1","","","","","","","","","","","","","","","","","","","","",""
"","","","","","image-keyboard-response","240","290900","0.0-215.0","5c92aa671ce0cd00128c6c86","665500ab8938657b03fbdba8","665792ac3431f6ebb88869f4","1280","stimuli/1010000.jpg","1","","prediction_trial","1","","true","","1","true","true","false","true","false","true","[1]","010","000","1","","","","","","",""
"","","","","","image-keyboard-response","241","291090","0.0-216.0","5c92aa671ce0cd00128c6c86","665500ab8938657b03fbdba8","665792ac3431f6ebb88869f4","189","stimuli/10100001.jpg"," ","","feedback_trial","1","","","","","","","","","","","","","","","","","","","","",""
"","","","","","image-keyboard-response","242","291802","0.0-217.0","5c92aa671ce0cd00128c6c86","665500ab8938657b03fbdba8","665792ac3431f6ebb88869f4","711","stimuli/2000111.jpg","1","","prediction_trial","2","","false","","2","false","false","true","true","false","false","[2]","000","111","0","","","","","","",""
"","","","","","image-keyboard-response","243","291994","0.0-218.0","5c92aa671ce0cd00128c6c86","665500ab8938657b03fbdba8","665792ac3431f6ebb88869f4","192","stimuli/20001112.jpg"," ","","feedback_trial","2","","","","","","","","","","","","","","","","","","","","",""
"","","","","","image-keyboard-response","244","293951","0.0-219.0","5c92aa671ce0cd00128c6c86","665500ab8938657b03fbdba8","665792ac3431f6ebb88869f4","1955","stimuli/0100001.jpg","0","","prediction_trial","0","","true","","0","true","true","false","true","false","true","[0]","100","001","1","","","","","","",""
"","","","","","image-keyboard-response","245","294095","0.0-220.0","5c92aa671ce0cd00128c6c86","665500ab8938657b03fbdba8","665792ac3431f6ebb88869f4","144","stimuli/01000010.jpg"," ","","feedback_trial","0","","","","","","","","","","","","","","","","","","","","",""
"","","","","","image-keyboard-response","246","294811","0.0-221.0","5c92aa671ce0cd00128c6c86","665500ab8938657b03fbdba8","665792ac3431f6ebb88869f4","707","stimuli/0100000.jpg","0","","prediction_trial","0","","true","","0","true","true","false","true","false","true","[0]","100","000","1","","","","","","",""
"","","","","","image-keyboard-response","247","294905","0.0-222.0","5c92aa671ce0cd00128c6c86","665500ab8938657b03fbdba8","665792ac3431f6ebb88869f4","93","stimuli/01000000.jpg"," ","","feedback_trial","0","","","","","","","","","","","","","","","","","","","","",""
"","","","","","image-keyboard-response","248","296286","0.0-223.0","5c92aa671ce0cd00128c6c86","665500ab8938657b03fbdba8","665792ac3431f6ebb88869f4","1380","stimuli/0101110.jpg","1","","prediction_trial","0","","false","","0","false","false","false","false","false","false","[2,0]","101","110","0","","","","","","",""
"","","","","","image-keyboard-response","249","296522","0.0-224.0","5c92aa671ce0cd00128c6c86","665500ab8938657b03fbdba8","665792ac3431f6ebb88869f4","235","stimuli/01011100.jpg"," ","","feedback_trial","2","","","","","","","","","","","","","","","","","","","","",""
"","","","","","image-keyboard-response","250","298614","0.0-225.0","5c92aa671ce0cd00128c6c86","665500ab8938657b03fbdba8","665792ac3431f6ebb88869f4","2091","stimuli/0011101.jpg","2","","prediction_trial","0","","false","","0","false","false","true","true","false","false","[0]","011","101","0","","","","","","",""
"","","","","","image-keyboard-response","251","298918","0.0-226.0","5c92aa671ce0cd00128c6c86","665500ab8938657b03fbdba8","665792ac3431f6ebb88869f4","303","stimuli/00111010.jpg"," ","","feedback_trial","0","","","","","","","","","","","","","","","","","","","","",""
"","","","","","image-keyboard-response","252","301052","0.0-227.0","5c92aa671ce0cd00128c6c86","665500ab8938657b03fbdba8","665792ac3431f6ebb88869f4","2125","stimuli/0001111.jpg","1","","prediction_trial","0","","false","","0","false","false","true","true","false","false","[0]","001","111","0","","","","","","",""
"","","","","","image-keyboard-response","253","301379","0.0-228.0","5c92aa671ce0cd00128c6c86","665500ab8938657b03fbdba8","665792ac3431f6ebb88869f4","326","stimuli/00011110.jpg"," ","","feedback_trial","0","","","","","","","","","","","","","","","","","","","","",""
"","","","","","image-keyboard-response","254","302551","0.0-229.0","5c92aa671ce0cd00128c6c86","665500ab8938657b03fbdba8","665792ac3431f6ebb88869f4","1171","stimuli/0000110.jpg","1","","prediction_trial","0","","false","","0","false","false","true","true","false","false","[0]","000","110","0","","","","","","",""
"","","","","","image-keyboard-response","255","302830","0.0-230.0","5c92aa671ce0cd00128c6c86","665500ab8938657b03fbdba8","665792ac3431f6ebb88869f4","278","stimuli/00001100.jpg"," ","","feedback_trial","0","","","","","","","","","","","","","","","","","","","","",""
"","","","","","image-keyboard-response","256","304260","0.0-231.0","5c92aa671ce0cd00128c6c86","665500ab8938657b03fbdba8","665792ac3431f6ebb88869f4","1428","stimuli/0110011.jpg","0","","prediction_trial","1","","false","","0","true","true","false","false","false","false","[0,1]","110","011","0","","","","","","",""
"","","","","","image-keyboard-response","257","304607","0.0-232.0","5c92aa671ce0cd00128c6c86","665500ab8938657b03fbdba8","665792ac3431f6ebb88869f4","347","stimuli/01100111.jpg"," ","","feedback_trial","0","","","","","","","","","","","","","","","","","","","","",""
"","","","","","image-keyboard-response","258","305452","0.0-233.0","5c92aa671ce0cd00128c6c86","665500ab8938657b03fbdba8","665792ac3431f6ebb88869f4","836","stimuli/0110111.jpg","1","","prediction_trial","0","","false","","0","false","false","false","false","false","false","[0,1]","110","111","0","","","","","","",""
"","","","","","image-keyboard-response","259","305748","0.0-234.0","5c92aa671ce0cd00128c6c86","665500ab8938657b03fbdba8","665792ac3431f6ebb88869f4","295","stimuli/01101110.jpg"," ","","feedback_trial","0","","","","","","","","","","","","","","","","","","","","",""
"","","","","","image-keyboard-response","260","307041","0.0-235.0","5c92aa671ce0cd00128c6c86","665500ab8938657b03fbdba8","665792ac3431f6ebb88869f4","1292","stimuli/1000010.jpg","1","","prediction_trial","1","","true","","1","false","true","true","true","false","true","[1]","000","010","1","","","","","","",""
"","","","","","image-keyboard-response","261","307179","0.0-236.0","5c92aa671ce0cd00128c6c86","665500ab8938657b03fbdba8","665792ac3431f6ebb88869f4","137","stimuli/10000101.jpg"," ","","feedback_trial","1","","","","","","","","","","","","","","","","","","","","",""
"","","","","","image-keyboard-response","262","307697","0.0-237.0","5c92aa671ce0cd00128c6c86","665500ab8938657b03fbdba8","665792ac3431f6ebb88869f4","517","stimuli/1100000.jpg","1","","prediction_trial","1","","true","","1","true","true","true","true","true","true","[1]","100","000","1","","","","","","",""
"","","","","","image-keyboard-response","263","307828","0.0-238.0","5c92aa671ce0cd00128c6c86","665500ab8938657b03fbdba8","665792ac3431f6ebb88869f4","130","stimuli/11000001.jpg"," ","","feedback_trial","1","","","","","","","","","","","","","","","","","","","","",""
"","","","","","image-keyboard-response","264","309388","0.0-239.0","5c92aa671ce0cd00128c6c86","665500ab8938657b03fbdba8","665792ac3431f6ebb88869f4","1559","stimuli/1101111.jpg","2","","prediction_trial","1","","false","","1","false","false","true","true","false","false","[1]","101","111","0","","","","","","",""
"","","","","","image-keyboard-response","265","309730","0.0-240.0","5c92aa671ce0cd00128c6c86","665500ab8938657b03fbdba8","665792ac3431f6ebb88869f4","341","stimuli/11011111.jpg"," ","","feedback_trial","1","","","","","","","","","","","","","","","","","","","","",""
"","","","","","image-keyboard-response","266","310558","0.0-241.0","5c92aa671ce0cd00128c6c86","665500ab8938657b03fbdba8","665792ac3431f6ebb88869f4","826","stimuli/0100111.jpg","1","","prediction_trial","0","","false","","0","false","false","false","true","false","false","[0]","100","111","0","","","","","","",""
"","","","","","image-keyboard-response","267","310883","0.0-242.0","5c92aa671ce0cd00128c6c86","665500ab8938657b03fbdba8","665792ac3431f6ebb88869f4","324","stimuli/01001110.jpg"," ","","feedback_trial","0","","","","","","","","","","","","","","","","","","","","",""
"","","","","","image-keyboard-response","268","311534","0.0-243.0","5c92aa671ce0cd00128c6c86","665500ab8938657b03fbdba8","665792ac3431f6ebb88869f4","650","stimuli/2010110.jpg","2","","prediction_trial","2","","true","","2","true","true","true","true","true","true","[2]","010","110","1","","","","","","",""
"","","","","","image-keyboard-response","269","311696","0.0-244.0","5c92aa671ce0cd00128c6c86","665500ab8938657b03fbdba8","665792ac3431f6ebb88869f4","161","stimuli/20101102.jpg"," ","","feedback_trial","2","","","","","","","","","","","","","","","","","","","","",""
"","","","","","image-keyboard-response","270","312212","0.0-245.0","5c92aa671ce0cd00128c6c86","665500ab8938657b03fbdba8","665792ac3431f6ebb88869f4","508","stimuli/0001000.jpg","0","","prediction_trial","0","","true","","0","true","true","true","true","true","true","[0]","001","000","1","","","","","","",""
"","","","","","image-keyboard-response","271","312340","0.0-246.0","5c92aa671ce0cd00128c6c86","665500ab8938657b03fbdba8","665792ac3431f6ebb88869f4","127","stimuli/00010000.jpg"," ","","feedback_trial","0","","","","","","","","","","","","","","","","","","","","",""
"","","","","","image-keyboard-response","272","313487","0.0-247.0","5c92aa671ce0cd00128c6c86","665500ab8938657b03fbdba8","665792ac3431f6ebb88869f4","1146","stimuli/1011101.jpg","1","","prediction_trial","2","","false","","1","true","true","false","false","false","false","[1,2]","011","101","0","","","","","","",""
"","","","","","image-keyboard-response","273","313798","0.0-248.0","5c92aa671ce0cd00128c6c86","665500ab8938657b03fbdba8","665792ac3431f6ebb88869f4","310","stimuli/10111012.jpg"," ","","feedback_trial","1","","","","","","","","","","","","","","","","","","","","",""
"","","","","","image-keyboard-response","274","314631","0.0-249.0","5c92aa671ce0cd00128c6c86","665500ab8938657b03fbdba8","665792ac3431f6ebb88869f4","832","stimuli/2110001.jpg","2","","prediction_trial","2","","true","","2","false","true","true","true","false","true","[2]","110","001","1","","","","","","",""
"","","","","","image-keyboard-response","275","314762","0.0-250.0","5c92aa671ce0cd00128c6c86","665500ab8938657b03fbdba8","665792ac3431f6ebb88869f4","130","stimuli/21100012.jpg"," ","","feedback_trial","2","","","","","","","","","","","","","","","","","","","","",""
"","","","","","image-keyboard-response","276","315918","0.0-251.0","5c92aa671ce0cd00128c6c86","665500ab8938657b03fbdba8","665792ac3431f6ebb88869f4","1148","stimuli/0001110.jpg","1","","prediction_trial","0","","false","","0","false","false","true","true","false","false","[0]","001","110","0","","","","","","",""
"","","","","","image-keyboard-response","277","316047","0.0-252.0","5c92aa671ce0cd00128c6c86","665500ab8938657b03fbdba8","665792ac3431f6ebb88869f4","128","stimuli/00011100.jpg"," ","","feedback_trial","0","","","","","","","","","","","","","","","","","","","","",""
"","","","","","image-keyboard-response","278","317608","0.0-253.0","5c92aa671ce0cd00128c6c86","665500ab8938657b03fbdba8","665792ac3431f6ebb88869f4","1560","stimuli/1010111.jpg","0","","prediction_trial","1","","false","","1","false","false","false","true","false","false","[1]","010","111","0","","","","","","",""
"","","","","","image-keyboard-response","279","317712","0.0-254.0","5c92aa671ce0cd00128c6c86","665500ab8938657b03fbdba8","665792ac3431f6ebb88869f4","103","stimuli/10101111.jpg"," ","","feedback_trial","1","","","","","","","","","","","","","","","","","","","","",""
"","","","","","image-keyboard-response","280","320706","0.0-255.0","5c92aa671ce0cd00128c6c86","665500ab8938657b03fbdba8","665792ac3431f6ebb88869f4","2993","stimuli/2000001.jpg","2","","prediction_trial","2","","true","","2","false","true","true","true","false","true","[2]","000","001","1","","","","","","",""
"","","","","","image-keyboard-response","281","320812","0.0-256.0","5c92aa671ce0cd00128c6c86","665500ab8938657b03fbdba8","665792ac3431f6ebb88869f4","105","stimuli/20000012.jpg"," ","","feedback_trial","2","","","","","","","","","","","","","","","","","","","","",""
"","","","","","image-keyboard-response","282","321597","0.0-257.0","5c92aa671ce0cd00128c6c86","665500ab8938657b03fbdba8","665792ac3431f6ebb88869f4","777","stimuli/2100001.jpg","2","","prediction_trial","2","","true","","2","false","true","true","true","false","true","[2]","100","001","1","","","","","","",""
"","","","","","image-keyboard-response","283","321715","0.0-258.0","5c92aa671ce0cd00128c6c86","665500ab8938657b03fbdba8","665792ac3431f6ebb88869f4","117","stimuli/21000012.jpg"," ","","feedback_trial","2","","","","","","","","","","","","","","","","","","","","",""
"","","","","","image-keyboard-response","284","324931","0.0-259.0","5c92aa671ce0cd00128c6c86","665500ab8938657b03fbdba8","665792ac3431f6ebb88869f4","3215","stimuli/1111101.jpg","1","","prediction_trial","2","","false","","1","true","true","false","false","false","false","[1,2,0]","111","101","0","","","","","","",""
"","","","","","image-keyboard-response","285","325386","0.0-260.0","5c92aa671ce0cd00128c6c86","665500ab8938657b03fbdba8","665792ac3431f6ebb88869f4","454","stimuli/11111012.jpg"," ","","feedback_trial","1","","","","","","","","","","","","","","","","","","","","",""
"","","","","","image-keyboard-response","286","326468","0.0-261.0","5c92aa671ce0cd00128c6c86","665500ab8938657b03fbdba8","665792ac3431f6ebb88869f4","1081","stimuli/1000110.jpg","0","","prediction_trial","1","","false","","1","false","false","true","true","false","false","[1]","000","110","0","","","","","","",""
"","","","","","image-keyboard-response","287","326795","0.0-262.0","5c92aa671ce0cd00128c6c86","665500ab8938657b03fbdba8","665792ac3431f6ebb88869f4","326","stimuli/10001101.jpg"," ","","feedback_trial","1","","","","","","","","","","","","","","","","","","","","",""
"","","","","","image-keyboard-response","288","327508","0.0-263.0","5c92aa671ce0cd00128c6c86","665500ab8938657b03fbdba8","665792ac3431f6ebb88869f4","711","stimuli/0111111.jpg","1","","prediction_trial","2","","false","","0","false","false","false","false","false","false","[1,0,2]","111","111","0","","","","","","",""
"","","","","","image-keyboard-response","289","327748","0.0-264.0","5c92aa671ce0cd00128c6c86","665500ab8938657b03fbdba8","665792ac3431f6ebb88869f4","239","stimuli/01111112.jpg"," ","","feedback_trial","1","","","","","","","","","","","","","","","","","","","","",""
"","","","","","image-keyboard-response","290","328729","0.0-265.0","5c92aa671ce0cd00128c6c86","665500ab8938657b03fbdba8","665792ac3431f6ebb88869f4","980","stimuli/2101100.jpg","2","","prediction_trial","2","","true","","2","true","true","false","false","false","false","[2,0]","101","100","1","","","","","","",""
"","","","","","image-keyboard-response","291","328966","0.0-266.0","5c92aa671ce0cd00128c6c86","665500ab8938657b03fbdba8","665792ac3431f6ebb88869f4","236","stimuli/21011002.jpg"," ","","feedback_trial","2","","","","","","","","","","","","","","","","","","","","",""
"","","","","","image-keyboard-response","292","329708","0.0-267.0","5c92aa671ce0cd00128c6c86","665500ab8938657b03fbdba8","665792ac3431f6ebb88869f4","741","stimuli/1101001.jpg","1","","prediction_trial","1","","true","","1","true","true","true","true","true","true","[1]","101","001","1","","","","","","",""
"","","","","","image-keyboard-response","293","329863","0.0-268.0","5c92aa671ce0cd00128c6c86","665500ab8938657b03fbdba8","665792ac3431f6ebb88869f4","155","stimuli/11010011.jpg"," ","","feedback_trial","1","","","","","","","","","","","","","","","","","","","","",""
"","","","","","image-keyboard-response","294","331085","0.0-269.0","5c92aa671ce0cd00128c6c86","665500ab8938657b03fbdba8","665792ac3431f6ebb88869f4","1221","stimuli/0001100.jpg","0","","prediction_trial","0","","true","","0","false","true","true","true","false","true","[0]","001","100","1","","","","","","",""
"","","","","","image-keyboard-response","295","331200","0.0-270.0","5c92aa671ce0cd00128c6c86","665500ab8938657b03fbdba8","665792ac3431f6ebb88869f4","114","stimuli/00011000.jpg"," ","","feedback_trial","0","","","","","","","","","","","","","","","","","","","","",""
"","","","","","image-keyboard-response","296","332356","0.0-271.0","5c92aa671ce0cd00128c6c86","665500ab8938657b03fbdba8","665792ac3431f6ebb88869f4","1156","stimuli/1100011.jpg","2","","prediction_trial","1","","false","","1","false","false","true","true","false","false","[1]","100","011","0","","","","","","",""
"","","","","","image-keyboard-response","297","332496","0.0-272.0","5c92aa671ce0cd00128c6c86","665500ab8938657b03fbdba8","665792ac3431f6ebb88869f4","139","stimuli/11000111.jpg"," ","","feedback_trial","1","","","","","","","","","","","","","","","","","","","","",""
"","","","","","image-keyboard-response","298","334019","0.0-273.0","5c92aa671ce0cd00128c6c86","665500ab8938657b03fbdba8","665792ac3431f6ebb88869f4","1522","stimuli/0100110.jpg","1","","prediction_trial","0","","false","","0","false","false","false","true","false","false","[0]","100","110","0","","","","","","",""
"","","","","","image-keyboard-response","299","334315","0.0-274.0","5c92aa671ce0cd00128c6c86","665500ab8938657b03fbdba8","665792ac3431f6ebb88869f4","295","stimuli/01001100.jpg"," ","","feedback_trial","0","","","","","","","","","","","","","","","","","","","","",""
"","","","","","image-keyboard-response","300","334908","0.0-275.0","5c92aa671ce0cd00128c6c86","665500ab8938657b03fbdba8","665792ac3431f6ebb88869f4","586","stimuli/2000100.jpg","2","","prediction_trial","2","","true","","2","true","true","true","true","true","true","[2]","000","100","1","","","","","","",""
"","","","","","image-keyboard-response","301","335034","0.0-276.0","5c92aa671ce0cd00128c6c86","665500ab8938657b03fbdba8","665792ac3431f6ebb88869f4","125","stimuli/20001002.jpg"," ","","feedback_trial","2","","","","","","","","","","","","","","","","","","","","",""
"","","","","","image-keyboard-response","302","335670","0.0-277.0","5c92aa671ce0cd00128c6c86","665500ab8938657b03fbdba8","665792ac3431f6ebb88869f4","635","stimuli/0000011.jpg","0","","prediction_trial","0","","true","","0","true","true","true","true","true","true","[0]","000","011","1","","","","","","",""
"","","","","","image-keyboard-response","303","335794","0.0-278.0","5c92aa671ce0cd00128c6c86","665500ab8938657b03fbdba8","665792ac3431f6ebb88869f4","123","stimuli/00000110.jpg"," ","","feedback_trial","0","","","","","","","","","","","","","","","","","","","","",""
"","","","","","image-keyboard-response","304","338116","0.0-279.0","5c92aa671ce0cd00128c6c86","665500ab8938657b03fbdba8","665792ac3431f6ebb88869f4","2321","stimuli/2011000.jpg","1","","prediction_trial","2","","false","","2","true","true","false","false","false","false","[1,2]","011","000","0","","","","","","",""
"","","","","","image-keyboard-response","305","338479","0.0-280.0","5c92aa671ce0cd00128c6c86","665500ab8938657b03fbdba8","665792ac3431f6ebb88869f4","362","stimuli/20110002.jpg"," ","","feedback_trial","1","","","","","","","","","","","","","","","","","","","","",""
"","","","","","image-keyboard-response","306","340108","0.0-281.0","5c92aa671ce0cd00128c6c86","665500ab8938657b03fbdba8","665792ac3431f6ebb88869f4","1628","stimuli/1111111.jpg","1","","prediction_trial","2","","false","","1","false","false","false","false","false","false","[0,1,2]","111","111","0","","","","","","",""
"","","","","","image-keyboard-response","307","340348","0.0-282.0","5c92aa671ce0cd00128c6c86","665500ab8938657b03fbdba8","665792ac3431f6ebb88869f4","239","stimuli/11111112.jpg"," ","","feedback_trial","0","","","","","","","","","","","","","","","","","","","","",""
"","","","","","image-keyboard-response","308","341180","0.0-283.0","5c92aa671ce0cd00128c6c86","665500ab8938657b03fbdba8","665792ac3431f6ebb88869f4","831","stimuli/1110001.jpg","1","","prediction_trial","0","","false","","1","true","true","false","false","false","false","[1,0]","110","001","0","","","","","","",""
"","","","","","image-keyboard-response","309","341388","0.0-284.0","5c92aa671ce0cd00128c6c86","665500ab8938657b03fbdba8","665792ac3431f6ebb88869f4","207","stimuli/11100010.jpg"," ","","feedback_trial","1","","","","","","","","","","","","","","","","","","","","",""
"","","","","","image-keyboard-response","310","342896","0.0-285.0","5c92aa671ce0cd00128c6c86","665500ab8938657b03fbdba8","665792ac3431f6ebb88869f4","1507","stimuli/2101110.jpg","2","","prediction_trial","0","","false","","2","true","true","false","false","false","false","[2,0]","101","110","0","","","","","","",""
"","","","","","image-keyboard-response","311","343079","0.0-286.0","5c92aa671ce0cd00128c6c86","665500ab8938657b03fbdba8","665792ac3431f6ebb88869f4","182","stimuli/21011100.jpg"," ","","feedback_trial","2","","","","","","","","","","","","","","","","","","","","",""
"","","","","","image-keyboard-response","312","344287","0.0-287.0","5c92aa671ce0cd00128c6c86","665500ab8938657b03fbdba8","665792ac3431f6ebb88869f4","1207","stimuli/1000011.jpg","1","","prediction_trial","1","","true","","1","false","false","true","true","false","false","[1]","000","011","1","","","","","","",""
"","","","","","image-keyboard-response","313","344579","0.0-288.0","5c92aa671ce0cd00128c6c86","665500ab8938657b03fbdba8","665792ac3431f6ebb88869f4","291","stimuli/10000111.jpg"," ","","feedback_trial","1","","","","","","","","","","","","","","","","","","","","",""
"","","","","","image-keyboard-response","314","345587","0.0-289.0","5c92aa671ce0cd00128c6c86","665500ab8938657b03fbdba8","665792ac3431f6ebb88869f4","1007","stimuli/2101101.jpg","0","","prediction_trial","0","","true","","2","false","false","false","false","false","false","[2,0]","101","101","1","","","","","","",""
"","","","","","image-keyboard-response","315","345798","0.0-290.0","5c92aa671ce0cd00128c6c86","665500ab8938657b03fbdba8","665792ac3431f6ebb88869f4","210","stimuli/21011010.jpg"," ","","feedback_trial","2","","","","","","","","","","","","","","","","","","","","",""
"","","","","","image-keyboard-response","316","346460","0.0-291.0","5c92aa671ce0cd00128c6c86","665500ab8938657b03fbdba8","665792ac3431f6ebb88869f4","661","stimuli/0000010.jpg","0","","prediction_trial","0","","true","","0","true","true","true","true","true","true","[0]","000","010","1","","","","","","",""
"","","","","","image-keyboard-response","317","346604","0.0-292.0","5c92aa671ce0cd00128c6c86","665500ab8938657b03fbdba8","665792ac3431f6ebb88869f4","142","stimuli/00000100.jpg"," ","","feedback_trial","0","","","","","","","","","","","","","","","","","","","","",""
"","","","","","survey-html-form","318","370534","0.0-293.0","5c92aa671ce0cd00128c6c86","665500ab8938657b03fbdba8","665792ac3431f6ebb88869f4","23928","","{""feedback"":""I looked at what sam and I could both see and then made a decision based on that. "",""age"":""34"",""gender"":""Male"",""other_gender"":"""",""race"":""White"",""other_race"":"""",""ethnicity"":""Non-Hispanic""}","","exit_survey","","","","","","","","","","","","","","","","I looked at what sam and I could both see and then made a decision based on that. ","34","Non-Hispanic","Male","White","0.6180555555555556","0.6180555555555556"
