"success","timeout","failed_images","failed_audio","failed_video","trial_type","trial_index","time_elapsed","internal_node_id","prolific_id","prolific_study_id","prolific_session_id","rt","stimulus","response","view_history","trial","character_choice","stimulus_dict","accuracy","correct_response","ball_pos","ego_ball_visible","ego_can_infer","alter_ball_visible","alter_can_infer","collective_ball_visible","collective_can_infer","search_locations","alter_occluders","ego_occluders","accuracy_bool","feedback","age","ethnicity","gender","race","overall_accuracy","bonus"
"true","false","[]","[]","[]","preload","0","3216","0.0-0.0","5f4849042648171ef6c2cdf8","665500ab8938657b03fbdba8","66577b9bee3c561ea2f98543","","","","","","","","","","","","","","","","","","","","","","","","","","",""
"true","","","","","fullscreen","1","9466","0.0-1.0","5f4849042648171ef6c2cdf8","665500ab8938657b03fbdba8","66577b9bee3c561ea2f98543","","","","","","","","","","","","","","","","","","","","","","","","","","",""
"","","","","","html-button-response","2","23783","0.0-2.0","5f4849042648171ef6c2cdf8","665500ab8938657b03fbdba8","66577b9bee3c561ea2f98543","14316","<p><b>Consent Form</b></p> <div style=""text-align:left;background-color:lightgrey; padding:20px; max-width:900px;""><p>Please consider this information carefully before deciding whether to participate in this research.</p> <p>The purpose of this research is to examine which factors influence social judgment and decision-making. You will be asked to make judgements about individuals and actions in social scenarios. We are simply interested in your judgement. The study will take less than 1 hour to complete, and you will receive less than $20 on Prolific. Your compensation and time commitment are specified in the study description. There are no anticipated risks associated with participating in this study. The effects of participating should be comparable to those you would ordinarily experience from viewing a computer monitor and using a mouse or keyboard for a similar amount of time. At the end of the study, we will provide an explanation of the questions that motivate this line of research and will describe the potential implications. </p><p> Your participation in this study is completely voluntary and you may refuse to participate or you may choose to withdraw at any time without penalty or loss of benefits to you which are otherwise entitled. Your participation in this study will remain confidential. No personally identifiable information will be associated with your data. Also, all analyses of the data will be averaged across all the participants, so your individual responses will never be specifically analyzed. </p><p> If you have questions or concerns about your participation or payment, or want to request a summary of research findings, please contact Dr. Jonathan Phillips at Jonathan.S.Phillips@dartmouth.edu. </p><p> Please save a copy of this form for your records. </p><p><b>Agreement: </b>The nature and purpose of this research have been sufficiently explained and I agree to participate in this study. I understand that I am free to withdraw at any time without incurring any penalty. Please consent by clicking the button below to continue. Otherwise, please exit the study at any time. </p>","0","","","","","","","","","","","","","","","","","","","","","","","",""
"","","","","","instructions","3","149992","0.0-3.0-0.0","5f4849042648171ef6c2cdf8","665500ab8938657b03fbdba8","66577b9bee3c561ea2f98543","126206","","","[{""page_index"":0,""viewing_time"":2017},{""page_index"":1,""viewing_time"":3825},{""page_index"":2,""viewing_time"":1528},{""page_index"":3,""viewing_time"":19681},{""page_index"":4,""viewing_time"":2661},{""page_index"":5,""viewing_time"":3199},{""page_index"":6,""viewing_time"":5123},{""page_index"":7,""viewing_time"":3804},{""page_index"":8,""viewing_time"":2864},{""page_index"":9,""viewing_time"":1640},{""page_index"":10,""viewing_time"":71079},{""page_index"":11,""viewing_time"":4479},{""page_index"":12,""viewing_time"":3175},{""page_index"":13,""viewing_time"":1131}]","intro","","","","","","","","","","","","","","","","","","","","","",""
"","","","","","image-keyboard-response","4","152248","0.0-3.0-1.0","5f4849042648171ef6c2cdf8","665500ab8938657b03fbdba8","66577b9bee3c561ea2f98543","2253","stimuli/0011000.jpg","0","","prediction_practice","0","{""filepath"":""stimuli/0011000.jpg"",""ball_pos"":0,""ego_ball_visible"":true,""ego_can_infer"":true,""alter_ball_visible"":true,""alter_can_infer"":true,""collective_ball_visible"":true,""collective_can_infer"":true,""search_locations"":[0],""alter_occluders"":""011"",""ego_occluders"":""000""}","true","","","","","","","","","","","","","","","","","","",""
"","","","","","image-keyboard-response","5","154509","0.0-3.0-2.0","5f4849042648171ef6c2cdf8","665500ab8938657b03fbdba8","66577b9bee3c561ea2f98543","2259","stimuli/00110000.jpg"," ","","practrice_feedback","0","","","","","","","","","","","","","","","","","","","","",""
"","","","","","image-keyboard-response","6","155407","0.0-3.0-3.0","5f4849042648171ef6c2cdf8","665500ab8938657b03fbdba8","66577b9bee3c561ea2f98543","896","stimuli/2110000.jpg","2","","prediction_practice","2","{""filepath"":""stimuli/2110000.jpg"",""ball_pos"":2,""ego_ball_visible"":true,""ego_can_infer"":true,""alter_ball_visible"":true,""alter_can_infer"":true,""collective_ball_visible"":true,""collective_can_infer"":true,""search_locations"":[2],""alter_occluders"":""110"",""ego_occluders"":""000""}","true","","","","","","","","","","","","","","","","","","",""
"","","","","","image-keyboard-response","7","156228","0.0-3.0-4.0","5f4849042648171ef6c2cdf8","665500ab8938657b03fbdba8","66577b9bee3c561ea2f98543","818","stimuli/21100002.jpg"," ","","practrice_feedback","2","","","","","","","","","","","","","","","","","","","","",""
"","","","","","image-keyboard-response","8","158571","0.0-3.0-5.0","5f4849042648171ef6c2cdf8","665500ab8938657b03fbdba8","66577b9bee3c561ea2f98543","2340","stimuli/0000100.jpg","0","","prediction_practice","0","{""filepath"":""stimuli/0000100.jpg"",""ball_pos"":0,""ego_ball_visible"":false,""ego_can_infer"":true,""alter_ball_visible"":true,""alter_can_infer"":true,""collective_ball_visible"":false,""collective_can_infer"":true,""search_locations"":[0],""alter_occluders"":""000"",""ego_occluders"":""100""}","true","","","","","","","","","","","","","","","","","","",""
"","","","","","image-keyboard-response","9","159265","0.0-3.0-6.0","5f4849042648171ef6c2cdf8","665500ab8938657b03fbdba8","66577b9bee3c561ea2f98543","691","stimuli/00001000.jpg"," ","","practrice_feedback","0","","","","","","","","","","","","","","","","","","","","",""
"","","","","","image-keyboard-response","10","160295","0.0-3.0-7.0","5f4849042648171ef6c2cdf8","665500ab8938657b03fbdba8","66577b9bee3c561ea2f98543","1029","stimuli/1001101.jpg","1","","prediction_practice","1","{""filepath"":""stimuli/1001101.jpg"",""ball_pos"":1,""ego_ball_visible"":true,""ego_can_infer"":true,""alter_ball_visible"":true,""alter_can_infer"":true,""collective_ball_visible"":true,""collective_can_infer"":true,""search_locations"":[1],""alter_occluders"":""001"",""ego_occluders"":""101""}","true","","","","","","","","","","","","","","","","","","",""
"","","","","","image-keyboard-response","11","160745","0.0-3.0-8.0","5f4849042648171ef6c2cdf8","665500ab8938657b03fbdba8","66577b9bee3c561ea2f98543","447","stimuli/10011011.jpg"," ","","practrice_feedback","1","","","","","","","","","","","","","","","","","","","","",""
"","","","","","image-keyboard-response","12","163538","0.0-3.0-9.0","5f4849042648171ef6c2cdf8","665500ab8938657b03fbdba8","66577b9bee3c561ea2f98543","2792","stimuli/2110101.jpg","2","","prediction_practice","2","{""filepath"":""stimuli/2110101.jpg"",""ball_pos"":2,""ego_ball_visible"":false,""ego_can_infer"":false,""alter_ball_visible"":true,""alter_can_infer"":true,""collective_ball_visible"":false,""collective_can_infer"":false,""search_locations"":[2],""alter_occluders"":""110"",""ego_occluders"":""101""}","true","","","","","","","","","","","","","","","","","","",""
"","","","","","image-keyboard-response","13","164425","0.0-3.0-10.0","5f4849042648171ef6c2cdf8","665500ab8938657b03fbdba8","66577b9bee3c561ea2f98543","885","stimuli/21101012.jpg"," ","","practrice_feedback","2","","","","","","","","","","","","","","","","","","","","",""
"","","","","","image-keyboard-response","14","169204","0.0-3.0-11.0","5f4849042648171ef6c2cdf8","665500ab8938657b03fbdba8","66577b9bee3c561ea2f98543","4777","stimuli/1011010.jpg","1","","prediction_practice","2","{""filepath"":""stimuli/1011010.jpg"",""ball_pos"":1,""ego_ball_visible"":false,""ego_can_infer"":true,""alter_ball_visible"":false,""alter_can_infer"":false,""collective_ball_visible"":false,""collective_can_infer"":false,""search_locations"":[1,2],""alter_occluders"":""011"",""ego_occluders"":""010""}","false","","","","","","","","","","","","","","","","","","",""
"","","","","","image-keyboard-response","15","171447","0.0-3.0-12.0","5f4849042648171ef6c2cdf8","665500ab8938657b03fbdba8","66577b9bee3c561ea2f98543","2241","stimuli/10110102.jpg"," ","","practrice_feedback","1","","","","","","","","","","","","","","","","","","","","",""
"","","","","","image-keyboard-response","16","175330","0.0-3.0-13.0","5f4849042648171ef6c2cdf8","665500ab8938657b03fbdba8","66577b9bee3c561ea2f98543","3881","stimuli/2001101.jpg","2","","prediction_practice","2","{""filepath"":""stimuli/2001101.jpg"",""ball_pos"":2,""ego_ball_visible"":false,""ego_can_infer"":false,""alter_ball_visible"":false,""alter_can_infer"":true,""collective_ball_visible"":false,""collective_can_infer"":false,""search_locations"":[2],""alter_occluders"":""001"",""ego_occluders"":""101""}","true","","","","","","","","","","","","","","","","","","",""
"","","","","","image-keyboard-response","17","175992","0.0-3.0-14.0","5f4849042648171ef6c2cdf8","665500ab8938657b03fbdba8","66577b9bee3c561ea2f98543","660","stimuli/20011012.jpg"," ","","practrice_feedback","2","","","","","","","","","","","","","","","","","","","","",""
"","","","","","image-keyboard-response","18","178235","0.0-3.0-15.0","5f4849042648171ef6c2cdf8","665500ab8938657b03fbdba8","66577b9bee3c561ea2f98543","2241","stimuli/1100110.jpg","0","","prediction_practice","1","{""filepath"":""stimuli/1100110.jpg"",""ball_pos"":1,""ego_ball_visible"":false,""ego_can_infer"":false,""alter_ball_visible"":true,""alter_can_infer"":true,""collective_ball_visible"":false,""collective_can_infer"":false,""search_locations"":[1],""alter_occluders"":""100"",""ego_occluders"":""110""}","false","","","","","","","","","","","","","","","","","","",""
"","","","","","image-keyboard-response","19","179042","0.0-3.0-16.0","5f4849042648171ef6c2cdf8","665500ab8938657b03fbdba8","66577b9bee3c561ea2f98543","803","stimuli/11001101.jpg"," ","","practrice_feedback","1","","","","","","","","","","","","","","","","","","","","",""
"","","","","","image-keyboard-response","20","180973","0.0-3.0-17.0","5f4849042648171ef6c2cdf8","665500ab8938657b03fbdba8","66577b9bee3c561ea2f98543","1928","stimuli/1011101.jpg","1","","prediction_practice","2","{""filepath"":""stimuli/1011101.jpg"",""ball_pos"":1,""ego_ball_visible"":true,""ego_can_infer"":true,""alter_ball_visible"":false,""alter_can_infer"":false,""collective_ball_visible"":false,""collective_can_infer"":false,""search_locations"":[1,2],""alter_occluders"":""011"",""ego_occluders"":""101""}","false","","","","","","","","","","","","","","","","","","",""
"","","","","","image-keyboard-response","21","181642","0.0-3.0-18.0","5f4849042648171ef6c2cdf8","665500ab8938657b03fbdba8","66577b9bee3c561ea2f98543","666","stimuli/10111012.jpg"," ","","practrice_feedback","1","","","","","","","","","","","","","","","","","","","","",""
"","","","","","image-keyboard-response","22","185369","0.0-3.0-19.0","5f4849042648171ef6c2cdf8","665500ab8938657b03fbdba8","66577b9bee3c561ea2f98543","3725","stimuli/1010001.jpg","1","","prediction_practice","1","{""filepath"":""stimuli/1010001.jpg"",""ball_pos"":1,""ego_ball_visible"":true,""ego_can_infer"":true,""alter_ball_visible"":false,""alter_can_infer"":true,""collective_ball_visible"":false,""collective_can_infer"":true,""search_locations"":[1],""alter_occluders"":""010"",""ego_occluders"":""001""}","true","","","","","","","","","","","","","","","","","","",""
"","","","","","image-keyboard-response","23","185912","0.0-3.0-20.0","5f4849042648171ef6c2cdf8","665500ab8938657b03fbdba8","66577b9bee3c561ea2f98543","541","stimuli/10100011.jpg"," ","","practrice_feedback","1","","","","","","","","","","","","","","","","","","","","",""
"","","","","","html-button-response","24","188384","0.0-3.0-21.0","5f4849042648171ef6c2cdf8","665500ab8938657b03fbdba8","66577b9bee3c561ea2f98543","2472","Now that you've had some practice, you'll be tested with a couple of easy trials. If you correctly predict Sam's choice, you'll move on to complete the experiment!","0","","","","","","","","","","","","","","","","","","","","","","","",""
"","","","","","image-keyboard-response","25","189817","0.0-3.0-22.0-0.0","5f4849042648171ef6c2cdf8","665500ab8938657b03fbdba8","66577b9bee3c561ea2f98543","1430","stimuli/0000011.jpg","arrowleft","","comprehension_quiz","","","true","arrowleft","","","","","","","","","","","","","","","","","",""
"","","","","","image-keyboard-response","26","190474","0.0-3.0-22.0-1.0","5f4849042648171ef6c2cdf8","665500ab8938657b03fbdba8","66577b9bee3c561ea2f98543","654","stimuli/00000110.jpg"," ","","comprehension_quiz","","","true"," ","","","","","","","","","","","","","","","","","",""
"","","","","","image-keyboard-response","27","192228","0.0-3.0-22.0-2.0","5f4849042648171ef6c2cdf8","665500ab8938657b03fbdba8","66577b9bee3c561ea2f98543","1752","stimuli/1010010.jpg","arrowdown","","comprehension_quiz","","","true","arrowdown","","","","","","","","","","","","","","","","","",""
"","","","","","image-keyboard-response","28","193013","0.0-3.0-22.0-3.0","5f4849042648171ef6c2cdf8","665500ab8938657b03fbdba8","66577b9bee3c561ea2f98543","783","stimuli/10100101.jpg"," ","","comprehension_quiz","","","true"," ","","","","","","","","","","","","","","","","","",""
"","","","","","html-button-response","29","194743","0.0-4.0","5f4849042648171ef6c2cdf8","665500ab8938657b03fbdba8","66577b9bee3c561ea2f98543","1730","The experiment will now begin.","0","","","","","","","","","","","","","","","","","","","","","","","",""
"","","","","","image-keyboard-response","30","197741","0.0-5.0","5f4849042648171ef6c2cdf8","665500ab8938657b03fbdba8","66577b9bee3c561ea2f98543","2994","stimuli/2001111.jpg","2","","prediction_trial","2","","true","","2","false","false","false","true","false","false","[2]","001","111","1","","","","","","",""
"","","","","","image-keyboard-response","31","198452","0.0-6.0","5f4849042648171ef6c2cdf8","665500ab8938657b03fbdba8","66577b9bee3c561ea2f98543","709","stimuli/20011112.jpg"," ","","feedback_trial","2","","","","","","","","","","","","","","","","","","","","",""
"","","","","","image-keyboard-response","32","200072","0.0-7.0","5f4849042648171ef6c2cdf8","665500ab8938657b03fbdba8","66577b9bee3c561ea2f98543","1618","stimuli/0000111.jpg","1","","prediction_trial","0","","false","","0","false","false","true","true","false","false","[0]","000","111","0","","","","","","",""
"","","","","","image-keyboard-response","33","200670","0.0-8.0","5f4849042648171ef6c2cdf8","665500ab8938657b03fbdba8","66577b9bee3c561ea2f98543","595","stimuli/00001110.jpg"," ","","feedback_trial","0","","","","","","","","","","","","","","","","","","","","",""
"","","","","","image-keyboard-response","34","203157","0.0-9.0","5f4849042648171ef6c2cdf8","665500ab8938657b03fbdba8","66577b9bee3c561ea2f98543","2486","stimuli/2111100.jpg","2","","prediction_trial","1","","false","","2","true","true","false","false","false","false","[1,2,0]","111","100","0","","","","","","",""
"","","","","","image-keyboard-response","35","203763","0.0-10.0","5f4849042648171ef6c2cdf8","665500ab8938657b03fbdba8","66577b9bee3c561ea2f98543","603","stimuli/21111001.jpg"," ","","feedback_trial","1","","","","","","","","","","","","","","","","","","","","",""
"","","","","","image-keyboard-response","36","207364","0.0-11.0","5f4849042648171ef6c2cdf8","665500ab8938657b03fbdba8","66577b9bee3c561ea2f98543","3599","stimuli/2101011.jpg","2","","prediction_trial","0","","false","","2","false","false","false","false","false","false","[0,2]","101","011","0","","","","","","",""
"","","","","","image-keyboard-response","37","207970","0.0-12.0","5f4849042648171ef6c2cdf8","665500ab8938657b03fbdba8","66577b9bee3c561ea2f98543","601","stimuli/21010110.jpg"," ","","feedback_trial","0","","","","","","","","","","","","","","","","","","","","",""
"","","","","","image-keyboard-response","38","210895","0.0-13.0","5f4849042648171ef6c2cdf8","665500ab8938657b03fbdba8","66577b9bee3c561ea2f98543","2922","stimuli/1010110.jpg","1","","prediction_trial","1","","true","","1","false","false","false","true","false","false","[1]","010","110","1","","","","","","",""
"","","","","","image-keyboard-response","39","211458","0.0-14.0","5f4849042648171ef6c2cdf8","665500ab8938657b03fbdba8","66577b9bee3c561ea2f98543","558","stimuli/10101101.jpg"," ","","feedback_trial","1","","","","","","","","","","","","","","","","","","","","",""
"","","","","","image-keyboard-response","40","213306","0.0-15.0","5f4849042648171ef6c2cdf8","665500ab8938657b03fbdba8","66577b9bee3c561ea2f98543","1846","stimuli/0101111.jpg","2","","prediction_trial","2","","true","","0","false","false","false","false","false","false","[0,2]","101","111","1","","","","","","",""
"","","","","","image-keyboard-response","41","213976","0.0-16.0","5f4849042648171ef6c2cdf8","665500ab8938657b03fbdba8","66577b9bee3c561ea2f98543","666","stimuli/01011112.jpg"," ","","feedback_trial","0","","","","","","","","","","","","","","","","","","","","",""
"","","","","","image-keyboard-response","42","217335","0.0-17.0","5f4849042648171ef6c2cdf8","665500ab8938657b03fbdba8","66577b9bee3c561ea2f98543","3357","stimuli/1101110.jpg","2","","prediction_trial","1","","false","","1","false","false","true","true","false","false","[1]","101","110","0","","","","","","",""
"","","","","","image-keyboard-response","43","217974","0.0-18.0","5f4849042648171ef6c2cdf8","665500ab8938657b03fbdba8","66577b9bee3c561ea2f98543","636","stimuli/11011101.jpg"," ","","feedback_trial","1","","","","","","","","","","","","","","","","","","","","",""
"","","","","","image-keyboard-response","44","219205","0.0-19.0","5f4849042648171ef6c2cdf8","665500ab8938657b03fbdba8","66577b9bee3c561ea2f98543","1228","stimuli/2100100.jpg","2","","prediction_trial","2","","true","","2","true","true","true","true","true","true","[2]","100","100","1","","","","","","",""
"","","","","","image-keyboard-response","45","219696","0.0-20.0","5f4849042648171ef6c2cdf8","665500ab8938657b03fbdba8","66577b9bee3c561ea2f98543","488","stimuli/21001002.jpg"," ","","feedback_trial","2","","","","","","","","","","","","","","","","","","","","",""
"","","","","","image-keyboard-response","46","222280","0.0-21.0","5f4849042648171ef6c2cdf8","665500ab8938657b03fbdba8","66577b9bee3c561ea2f98543","2581","stimuli/1000011.jpg","1","","prediction_trial","1","","true","","1","false","false","true","true","false","false","[1]","000","011","1","","","","","","",""
"","","","","","image-keyboard-response","47","222920","0.0-22.0","5f4849042648171ef6c2cdf8","665500ab8938657b03fbdba8","66577b9bee3c561ea2f98543","638","stimuli/10000111.jpg"," ","","feedback_trial","1","","","","","","","","","","","","","","","","","","","","",""
"","","","","","image-keyboard-response","48","225960","0.0-23.0","5f4849042648171ef6c2cdf8","665500ab8938657b03fbdba8","66577b9bee3c561ea2f98543","3038","stimuli/0101110.jpg","1","","prediction_trial","0","","false","","0","false","false","false","false","false","false","[2,0]","101","110","0","","","","","","",""
"","","","","","image-keyboard-response","49","226590","0.0-24.0","5f4849042648171ef6c2cdf8","665500ab8938657b03fbdba8","66577b9bee3c561ea2f98543","627","stimuli/01011100.jpg"," ","","feedback_trial","2","","","","","","","","","","","","","","","","","","","","",""
"","","","","","image-keyboard-response","50","229635","0.0-25.0","5f4849042648171ef6c2cdf8","665500ab8938657b03fbdba8","66577b9bee3c561ea2f98543","3044","stimuli/2011100.jpg","2","","prediction_trial","1","","false","","2","true","true","false","false","false","false","[2,1]","011","100","0","","","","","","",""
"","","","","","image-keyboard-response","51","230227","0.0-26.0","5f4849042648171ef6c2cdf8","665500ab8938657b03fbdba8","66577b9bee3c561ea2f98543","589","stimuli/20111001.jpg"," ","","feedback_trial","2","","","","","","","","","","","","","","","","","","","","",""
"","","","","","image-keyboard-response","52","233682","0.0-27.0","5f4849042648171ef6c2cdf8","665500ab8938657b03fbdba8","66577b9bee3c561ea2f98543","3452","stimuli/1001010.jpg","1","","prediction_trial","1","","true","","1","false","true","true","true","false","true","[1]","001","010","1","","","","","","",""
"","","","","","image-keyboard-response","53","234242","0.0-28.0","5f4849042648171ef6c2cdf8","665500ab8938657b03fbdba8","66577b9bee3c561ea2f98543","558","stimuli/10010101.jpg"," ","","feedback_trial","1","","","","","","","","","","","","","","","","","","","","",""
"","","","","","image-keyboard-response","54","235122","0.0-29.0","5f4849042648171ef6c2cdf8","665500ab8938657b03fbdba8","66577b9bee3c561ea2f98543","878","stimuli/1100100.jpg","1","","prediction_trial","1","","true","","1","true","true","true","true","true","true","[1]","100","100","1","","","","","","",""
"","","","","","image-keyboard-response","55","235487","0.0-30.0","5f4849042648171ef6c2cdf8","665500ab8938657b03fbdba8","66577b9bee3c561ea2f98543","361","stimuli/11001001.jpg"," ","","feedback_trial","1","","","","","","","","","","","","","","","","","","","","",""
"","","","","","image-keyboard-response","56","236190","0.0-31.0","5f4849042648171ef6c2cdf8","665500ab8938657b03fbdba8","66577b9bee3c561ea2f98543","701","stimuli/1000000.jpg","1","","prediction_trial","1","","true","","1","true","true","true","true","true","true","[1]","000","000","1","","","","","","",""
"","","","","","image-keyboard-response","57","236615","0.0-32.0","5f4849042648171ef6c2cdf8","665500ab8938657b03fbdba8","66577b9bee3c561ea2f98543","423","stimuli/10000001.jpg"," ","","feedback_trial","1","","","","","","","","","","","","","","","","","","","","",""
"","","","","","image-keyboard-response","58","238648","0.0-33.0","5f4849042648171ef6c2cdf8","665500ab8938657b03fbdba8","66577b9bee3c561ea2f98543","2030","stimuli/1101011.jpg","1","","prediction_trial","1","","true","","1","false","false","true","true","false","false","[1]","101","011","1","","","","","","",""
"","","","","","image-keyboard-response","59","239245","0.0-34.0","5f4849042648171ef6c2cdf8","665500ab8938657b03fbdba8","66577b9bee3c561ea2f98543","596","stimuli/11010111.jpg"," ","","feedback_trial","1","","","","","","","","","","","","","","","","","","","","",""
"","","","","","image-keyboard-response","60","241085","0.0-35.0","5f4849042648171ef6c2cdf8","665500ab8938657b03fbdba8","66577b9bee3c561ea2f98543","1837","stimuli/0100001.jpg","0","","prediction_trial","0","","true","","0","true","true","false","true","false","true","[0]","100","001","1","","","","","","",""
"","","","","","image-keyboard-response","61","241637","0.0-36.0","5f4849042648171ef6c2cdf8","665500ab8938657b03fbdba8","66577b9bee3c561ea2f98543","549","stimuli/01000010.jpg"," ","","feedback_trial","0","","","","","","","","","","","","","","","","","","","","",""
"","","","","","image-keyboard-response","62","243289","0.0-37.0","5f4849042648171ef6c2cdf8","665500ab8938657b03fbdba8","66577b9bee3c561ea2f98543","1648","stimuli/0011110.jpg","1","","prediction_trial","0","","false","","0","false","false","true","true","false","false","[0]","011","110","0","","","","","","",""
"","","","","","image-keyboard-response","63","243827","0.0-38.0","5f4849042648171ef6c2cdf8","665500ab8938657b03fbdba8","66577b9bee3c561ea2f98543","536","stimuli/00111100.jpg"," ","","feedback_trial","0","","","","","","","","","","","","","","","","","","","","",""
"","","","","","image-keyboard-response","64","245566","0.0-39.0","5f4849042648171ef6c2cdf8","665500ab8938657b03fbdba8","66577b9bee3c561ea2f98543","1737","stimuli/1010001.jpg","1","","prediction_trial","1","","true","","1","true","true","false","true","false","true","[1]","010","001","1","","","","","","",""
"","","","","","image-keyboard-response","65","245955","0.0-40.0","5f4849042648171ef6c2cdf8","665500ab8938657b03fbdba8","66577b9bee3c561ea2f98543","386","stimuli/10100011.jpg"," ","","feedback_trial","1","","","","","","","","","","","","","","","","","","","","",""
"","","","","","image-keyboard-response","66","247231","0.0-41.0","5f4849042648171ef6c2cdf8","665500ab8938657b03fbdba8","66577b9bee3c561ea2f98543","1274","stimuli/0111000.jpg","0","","prediction_trial","0","","true","","0","true","true","false","false","false","false","[1,0,2]","111","000","1","","","","","","",""
"","","","","","image-keyboard-response","67","247924","0.0-42.0","5f4849042648171ef6c2cdf8","665500ab8938657b03fbdba8","66577b9bee3c561ea2f98543","690","stimuli/01110000.jpg"," ","","feedback_trial","1","","","","","","","","","","","","","","","","","","","","",""
"","","","","","image-keyboard-response","68","248761","0.0-43.0","5f4849042648171ef6c2cdf8","665500ab8938657b03fbdba8","66577b9bee3c561ea2f98543","834","stimuli/0010011.jpg","0","","prediction_trial","0","","true","","0","true","true","true","true","true","true","[0]","010","011","1","","","","","","",""
"","","","","","image-keyboard-response","69","249262","0.0-44.0","5f4849042648171ef6c2cdf8","665500ab8938657b03fbdba8","66577b9bee3c561ea2f98543","499","stimuli/00100110.jpg"," ","","feedback_trial","0","","","","","","","","","","","","","","","","","","","","",""
"","","","","","image-keyboard-response","70","251068","0.0-45.0","5f4849042648171ef6c2cdf8","665500ab8938657b03fbdba8","66577b9bee3c561ea2f98543","1802","stimuli/1110110.jpg","1","","prediction_trial","1","","true","","1","false","false","false","false","false","false","[1,0]","110","110","1","","","","","","",""
"","","","","","image-keyboard-response","71","251678","0.0-46.0","5f4849042648171ef6c2cdf8","665500ab8938657b03fbdba8","66577b9bee3c561ea2f98543","608","stimuli/11101101.jpg"," ","","feedback_trial","1","","","","","","","","","","","","","","","","","","","","",""
"","","","","","image-keyboard-response","72","253132","0.0-47.0","5f4849042648171ef6c2cdf8","665500ab8938657b03fbdba8","66577b9bee3c561ea2f98543","1452","stimuli/2101001.jpg","2","","prediction_trial","0","","false","","2","false","true","false","false","false","false","[0,2]","101","001","0","","","","","","",""
"","","","","","image-keyboard-response","73","253658","0.0-48.0","5f4849042648171ef6c2cdf8","665500ab8938657b03fbdba8","66577b9bee3c561ea2f98543","523","stimuli/21010010.jpg"," ","","feedback_trial","0","","","","","","","","","","","","","","","","","","","","",""
"","","","","","image-keyboard-response","74","254345","0.0-49.0","5f4849042648171ef6c2cdf8","665500ab8938657b03fbdba8","66577b9bee3c561ea2f98543","684","stimuli/0011011.jpg","0","","prediction_trial","0","","true","","0","true","true","true","true","true","true","[0]","011","011","1","","","","","","",""
"","","","","","image-keyboard-response","75","254760","0.0-50.0","5f4849042648171ef6c2cdf8","665500ab8938657b03fbdba8","66577b9bee3c561ea2f98543","413","stimuli/00110110.jpg"," ","","feedback_trial","0","","","","","","","","","","","","","","","","","","","","",""
"","","","","","image-keyboard-response","76","255900","0.0-51.0","5f4849042648171ef6c2cdf8","665500ab8938657b03fbdba8","66577b9bee3c561ea2f98543","1136","stimuli/1010000.jpg","1","","prediction_trial","1","","true","","1","true","true","false","true","false","true","[1]","010","000","1","","","","","","",""
"","","","","","image-keyboard-response","77","256396","0.0-52.0","5f4849042648171ef6c2cdf8","665500ab8938657b03fbdba8","66577b9bee3c561ea2f98543","493","stimuli/10100001.jpg"," ","","feedback_trial","1","","","","","","","","","","","","","","","","","","","","",""
"","","","","","image-keyboard-response","78","258241","0.0-53.0","5f4849042648171ef6c2cdf8","665500ab8938657b03fbdba8","66577b9bee3c561ea2f98543","1842","stimuli/0110111.jpg","2","","prediction_trial","0","","false","","0","false","false","false","false","false","false","[0,1]","110","111","0","","","","","","",""
"","","","","","image-keyboard-response","79","258822","0.0-54.0","5f4849042648171ef6c2cdf8","665500ab8938657b03fbdba8","66577b9bee3c561ea2f98543","579","stimuli/01101110.jpg"," ","","feedback_trial","0","","","","","","","","","","","","","","","","","","","","",""
"","","","","","image-keyboard-response","80","260640","0.0-55.0","5f4849042648171ef6c2cdf8","665500ab8938657b03fbdba8","66577b9bee3c561ea2f98543","1815","stimuli/1110011.jpg","1","","prediction_trial","0","","false","","1","false","false","false","false","false","false","[1,0]","110","011","0","","","","","","",""
"","","","","","image-keyboard-response","81","261228","0.0-56.0","5f4849042648171ef6c2cdf8","665500ab8938657b03fbdba8","66577b9bee3c561ea2f98543","585","stimuli/11100110.jpg"," ","","feedback_trial","1","","","","","","","","","","","","","","","","","","","","",""
"","","","","","image-keyboard-response","82","262556","0.0-57.0","5f4849042648171ef6c2cdf8","665500ab8938657b03fbdba8","66577b9bee3c561ea2f98543","1325","stimuli/2110111.jpg","1","","prediction_trial","2","","false","","2","false","false","true","true","false","false","[2]","110","111","0","","","","","","",""
"","","","","","image-keyboard-response","83","263191","0.0-58.0","5f4849042648171ef6c2cdf8","665500ab8938657b03fbdba8","66577b9bee3c561ea2f98543","632","stimuli/21101112.jpg"," ","","feedback_trial","2","","","","","","","","","","","","","","","","","","","","",""
"","","","","","image-keyboard-response","84","264988","0.0-59.0","5f4849042648171ef6c2cdf8","665500ab8938657b03fbdba8","66577b9bee3c561ea2f98543","1794","stimuli/2010001.jpg","2","","prediction_trial","2","","true","","2","false","true","true","true","false","true","[2]","010","001","1","","","","","","",""
"","","","","","image-keyboard-response","85","265599","0.0-60.0","5f4849042648171ef6c2cdf8","665500ab8938657b03fbdba8","66577b9bee3c561ea2f98543","606","stimuli/20100012.jpg"," ","","feedback_trial","2","","","","","","","","","","","","","","","","","","","","",""
"","","","","","image-keyboard-response","86","266821","0.0-61.0","5f4849042648171ef6c2cdf8","665500ab8938657b03fbdba8","66577b9bee3c561ea2f98543","1220","stimuli/2011010.jpg","2","","prediction_trial","1","","false","","2","true","true","false","false","false","false","[1,2]","011","010","0","","","","","","",""
"","","","","","image-keyboard-response","87","267304","0.0-62.0","5f4849042648171ef6c2cdf8","665500ab8938657b03fbdba8","66577b9bee3c561ea2f98543","481","stimuli/20110101.jpg"," ","","feedback_trial","1","","","","","","","","","","","","","","","","","","","","",""
"","","","","","image-keyboard-response","88","268031","0.0-63.0","5f4849042648171ef6c2cdf8","665500ab8938657b03fbdba8","66577b9bee3c561ea2f98543","724","stimuli/1100001.jpg","1","","prediction_trial","1","","true","","1","true","true","true","true","true","true","[1]","100","001","1","","","","","","",""
"","","","","","image-keyboard-response","89","268593","0.0-64.0","5f4849042648171ef6c2cdf8","665500ab8938657b03fbdba8","66577b9bee3c561ea2f98543","560","stimuli/11000011.jpg"," ","","feedback_trial","1","","","","","","","","","","","","","","","","","","","","",""
"","","","","","image-keyboard-response","90","269368","0.0-65.0","5f4849042648171ef6c2cdf8","665500ab8938657b03fbdba8","66577b9bee3c561ea2f98543","773","stimuli/0000000.jpg","0","","prediction_trial","0","","true","","0","true","true","true","true","true","true","[0]","000","000","1","","","","","","",""
"","","","","","image-keyboard-response","91","269893","0.0-66.0","5f4849042648171ef6c2cdf8","665500ab8938657b03fbdba8","66577b9bee3c561ea2f98543","522","stimuli/00000000.jpg"," ","","feedback_trial","0","","","","","","","","","","","","","","","","","","","","",""
"","","","","","image-keyboard-response","92","271470","0.0-67.0","5f4849042648171ef6c2cdf8","665500ab8938657b03fbdba8","66577b9bee3c561ea2f98543","1574","stimuli/1101111.jpg","1","","prediction_trial","1","","true","","1","false","false","true","true","false","false","[1]","101","111","1","","","","","","",""
"","","","","","image-keyboard-response","93","272059","0.0-68.0","5f4849042648171ef6c2cdf8","665500ab8938657b03fbdba8","66577b9bee3c561ea2f98543","588","stimuli/11011111.jpg"," ","","feedback_trial","1","","","","","","","","","","","","","","","","","","","","",""
"","","","","","image-keyboard-response","94","272677","0.0-69.0","5f4849042648171ef6c2cdf8","665500ab8938657b03fbdba8","66577b9bee3c561ea2f98543","615","stimuli/2000000.jpg","2","","prediction_trial","2","","true","","2","true","true","true","true","true","true","[2]","000","000","1","","","","","","",""
"","","","","","image-keyboard-response","95","273190","0.0-70.0","5f4849042648171ef6c2cdf8","665500ab8938657b03fbdba8","66577b9bee3c561ea2f98543","510","stimuli/20000002.jpg"," ","","feedback_trial","2","","","","","","","","","","","","","","","","","","","","",""
"","","","","","image-keyboard-response","96","274125","0.0-71.0","5f4849042648171ef6c2cdf8","665500ab8938657b03fbdba8","66577b9bee3c561ea2f98543","931","stimuli/1011100.jpg","1","","prediction_trial","1","","true","","1","true","true","false","false","false","false","[1,2]","011","100","1","","","","","","",""
"","","","","","image-keyboard-response","97","274794","0.0-72.0","5f4849042648171ef6c2cdf8","665500ab8938657b03fbdba8","66577b9bee3c561ea2f98543","667","stimuli/10111001.jpg"," ","","feedback_trial","1","","","","","","","","","","","","","","","","","","","","",""
"","","","","","image-keyboard-response","98","276111","0.0-73.0","5f4849042648171ef6c2cdf8","665500ab8938657b03fbdba8","66577b9bee3c561ea2f98543","1315","stimuli/0010111.jpg","1","","prediction_trial","0","","false","","0","false","false","true","true","false","false","[0]","010","111","0","","","","","","",""
"","","","","","image-keyboard-response","99","276745","0.0-74.0","5f4849042648171ef6c2cdf8","665500ab8938657b03fbdba8","66577b9bee3c561ea2f98543","631","stimuli/00101110.jpg"," ","","feedback_trial","0","","","","","","","","","","","","","","","","","","","","",""
"","","","","","image-keyboard-response","100","278318","0.0-75.0","5f4849042648171ef6c2cdf8","665500ab8938657b03fbdba8","66577b9bee3c561ea2f98543","1571","stimuli/1110111.jpg","2","","prediction_trial","1","","false","","1","false","false","false","false","false","false","[0,1]","110","111","0","","","","","","",""
"","","","","","image-keyboard-response","101","278932","0.0-76.0","5f4849042648171ef6c2cdf8","665500ab8938657b03fbdba8","66577b9bee3c561ea2f98543","611","stimuli/11101111.jpg"," ","","feedback_trial","0","","","","","","","","","","","","","","","","","","","","",""
"","","","","","image-keyboard-response","102","281087","0.0-77.0","5f4849042648171ef6c2cdf8","665500ab8938657b03fbdba8","66577b9bee3c561ea2f98543","2151","stimuli/0101101.jpg","2","","prediction_trial","0","","false","","0","false","false","false","false","false","false","[2,0]","101","101","0","","","","","","",""
"","","","","","image-keyboard-response","103","281722","0.0-78.0","5f4849042648171ef6c2cdf8","665500ab8938657b03fbdba8","66577b9bee3c561ea2f98543","634","stimuli/01011010.jpg"," ","","feedback_trial","2","","","","","","","","","","","","","","","","","","","","",""
"","","","","","image-keyboard-response","104","283427","0.0-79.0","5f4849042648171ef6c2cdf8","665500ab8938657b03fbdba8","66577b9bee3c561ea2f98543","1702","stimuli/2000101.jpg","0","","prediction_trial","2","","false","","2","false","false","true","true","false","false","[2]","000","101","0","","","","","","",""
"","","","","","image-keyboard-response","105","284018","0.0-80.0","5f4849042648171ef6c2cdf8","665500ab8938657b03fbdba8","66577b9bee3c561ea2f98543","588","stimuli/20001012.jpg"," ","","feedback_trial","2","","","","","","","","","","","","","","","","","","","","",""
"","","","","","image-keyboard-response","106","284600","0.0-81.0","5f4849042648171ef6c2cdf8","665500ab8938657b03fbdba8","66577b9bee3c561ea2f98543","578","stimuli/2101000.jpg","2","","prediction_trial","0","","false","","2","true","true","false","false","false","false","[2,0]","101","000","0","","","","","","",""
"","","","","","image-keyboard-response","107","286230","0.0-82.0","5f4849042648171ef6c2cdf8","665500ab8938657b03fbdba8","66577b9bee3c561ea2f98543","1627","stimuli/21010000.jpg"," ","","feedback_trial","2","","","","","","","","","","","","","","","","","","","","",""
"","","","","","image-keyboard-response","108","288013","0.0-83.0","5f4849042648171ef6c2cdf8","665500ab8938657b03fbdba8","66577b9bee3c561ea2f98543","1780","stimuli/1110010.jpg","1","","prediction_trial","0","","false","","1","false","true","false","false","false","false","[0,1]","110","010","0","","","","","","",""
"","","","","","image-keyboard-response","109","288719","0.0-84.0","5f4849042648171ef6c2cdf8","665500ab8938657b03fbdba8","66577b9bee3c561ea2f98543","705","stimuli/11100100.jpg"," ","","feedback_trial","0","","","","","","","","","","","","","","","","","","","","",""
"","","","","","image-keyboard-response","110","289311","0.0-85.0","5f4849042648171ef6c2cdf8","665500ab8938657b03fbdba8","66577b9bee3c561ea2f98543","590","stimuli/1001000.jpg","1","","prediction_trial","1","","true","","1","true","true","true","true","true","true","[1]","001","000","1","","","","","","",""
"","","","","","image-keyboard-response","111","289853","0.0-86.0","5f4849042648171ef6c2cdf8","665500ab8938657b03fbdba8","66577b9bee3c561ea2f98543","539","stimuli/10010001.jpg"," ","","feedback_trial","1","","","","","","","","","","","","","","","","","","","","",""
"","","","","","image-keyboard-response","112","290799","0.0-87.0","5f4849042648171ef6c2cdf8","665500ab8938657b03fbdba8","66577b9bee3c561ea2f98543","943","stimuli/0000101.jpg","2","","prediction_trial","0","","false","","0","false","false","true","true","false","false","[0]","000","101","0","","","","","","",""
"","","","","","image-keyboard-response","113","291290","0.0-88.0","5f4849042648171ef6c2cdf8","665500ab8938657b03fbdba8","66577b9bee3c561ea2f98543","489","stimuli/00001010.jpg"," ","","feedback_trial","0","","","","","","","","","","","","","","","","","","","","",""
"","","","","","image-keyboard-response","114","292223","0.0-89.0","5f4849042648171ef6c2cdf8","665500ab8938657b03fbdba8","66577b9bee3c561ea2f98543","929","stimuli/2010101.jpg","2","","prediction_trial","2","","true","","2","false","false","true","true","false","false","[2]","010","101","1","","","","","","",""
"","","","","","image-keyboard-response","115","293054","0.0-90.0","5f4849042648171ef6c2cdf8","665500ab8938657b03fbdba8","66577b9bee3c561ea2f98543","829","stimuli/20101012.jpg"," ","","feedback_trial","2","","","","","","","","","","","","","","","","","","","","",""
"","","","","","image-keyboard-response","116","294899","0.0-91.0","5f4849042648171ef6c2cdf8","665500ab8938657b03fbdba8","66577b9bee3c561ea2f98543","1841","stimuli/1100011.jpg","2","","prediction_trial","1","","false","","1","false","false","true","true","false","false","[1]","100","011","0","","","","","","",""
"","","","","","image-keyboard-response","117","295485","0.0-92.0","5f4849042648171ef6c2cdf8","665500ab8938657b03fbdba8","66577b9bee3c561ea2f98543","585","stimuli/11000111.jpg"," ","","feedback_trial","1","","","","","","","","","","","","","","","","","","","","",""
"","","","","","image-keyboard-response","118","296745","0.0-93.0","5f4849042648171ef6c2cdf8","665500ab8938657b03fbdba8","66577b9bee3c561ea2f98543","1257","stimuli/0111111.jpg","1","","prediction_trial","0","","false","","0","false","false","false","false","false","false","[1,0,2]","111","111","0","","","","","","",""
"","","","","","image-keyboard-response","119","297301","0.0-94.0","5f4849042648171ef6c2cdf8","665500ab8938657b03fbdba8","66577b9bee3c561ea2f98543","554","stimuli/01111110.jpg"," ","","feedback_trial","1","","","","","","","","","","","","","","","","","","","","",""
"","","","","","image-keyboard-response","120","298404","0.0-95.0","5f4849042648171ef6c2cdf8","665500ab8938657b03fbdba8","66577b9bee3c561ea2f98543","1102","stimuli/0100100.jpg","0","","prediction_trial","0","","true","","0","false","true","false","true","false","true","[0]","100","100","1","","","","","","",""
"","","","","","image-keyboard-response","121","298975","0.0-96.0","5f4849042648171ef6c2cdf8","665500ab8938657b03fbdba8","66577b9bee3c561ea2f98543","568","stimuli/01001000.jpg"," ","","feedback_trial","0","","","","","","","","","","","","","","","","","","","","",""
"","","","","","image-keyboard-response","122","299661","0.0-97.0","5f4849042648171ef6c2cdf8","665500ab8938657b03fbdba8","66577b9bee3c561ea2f98543","684","stimuli/0010010.jpg","0","","prediction_trial","0","","true","","0","true","true","true","true","true","true","[0]","010","010","1","","","","","","",""
"","","","","","image-keyboard-response","123","300006","0.0-98.0","5f4849042648171ef6c2cdf8","665500ab8938657b03fbdba8","66577b9bee3c561ea2f98543","343","stimuli/00100100.jpg"," ","","feedback_trial","0","","","","","","","","","","","","","","","","","","","","",""
"","","","","","image-keyboard-response","124","300608","0.0-99.0","5f4849042648171ef6c2cdf8","665500ab8938657b03fbdba8","66577b9bee3c561ea2f98543","599","stimuli/2101010.jpg","2","","prediction_trial","2","","true","","2","true","true","false","false","false","false","[0,2]","101","010","1","","","","","","",""
"","","","","","image-keyboard-response","125","301328","0.0-100.0","5f4849042648171ef6c2cdf8","665500ab8938657b03fbdba8","66577b9bee3c561ea2f98543","717","stimuli/21010102.jpg"," ","","feedback_trial","0","","","","","","","","","","","","","","","","","","","","",""
"","","","","","image-keyboard-response","126","302093","0.0-101.0","5f4849042648171ef6c2cdf8","665500ab8938657b03fbdba8","66577b9bee3c561ea2f98543","760","stimuli/2010000.jpg","2","","prediction_trial","2","","true","","2","true","true","true","true","true","true","[2]","010","000","1","","","","","","",""
"","","","","","image-keyboard-response","127","302479","0.0-102.0","5f4849042648171ef6c2cdf8","665500ab8938657b03fbdba8","66577b9bee3c561ea2f98543","384","stimuli/20100002.jpg"," ","","feedback_trial","2","","","","","","","","","","","","","","","","","","","","",""
"","","","","","image-keyboard-response","128","304461","0.0-103.0","5f4849042648171ef6c2cdf8","665500ab8938657b03fbdba8","66577b9bee3c561ea2f98543","1979","stimuli/0101011.jpg","0","","prediction_trial","2","","false","","0","true","true","false","false","false","false","[0,2]","101","011","0","","","","","","",""
"","","","","","image-keyboard-response","129","305057","0.0-104.0","5f4849042648171ef6c2cdf8","665500ab8938657b03fbdba8","66577b9bee3c561ea2f98543","594","stimuli/01010112.jpg"," ","","feedback_trial","0","","","","","","","","","","","","","","","","","","","","",""
"","","","","","image-keyboard-response","130","307426","0.0-105.0","5f4849042648171ef6c2cdf8","665500ab8938657b03fbdba8","66577b9bee3c561ea2f98543","2366","stimuli/1111100.jpg","1","","prediction_trial","2","","false","","1","true","true","false","false","false","false","[2,1,0]","111","100","0","","","","","","",""
"","","","","","image-keyboard-response","131","308100","0.0-106.0","5f4849042648171ef6c2cdf8","665500ab8938657b03fbdba8","66577b9bee3c561ea2f98543","671","stimuli/11111002.jpg"," ","","feedback_trial","2","","","","","","","","","","","","","","","","","","","","",""
"","","","","","image-keyboard-response","132","310788","0.0-107.0","5f4849042648171ef6c2cdf8","665500ab8938657b03fbdba8","66577b9bee3c561ea2f98543","2686","stimuli/2011101.jpg","0","","prediction_trial","2","","false","","2","false","false","false","false","false","false","[1,2]","011","101","0","","","","","","",""
"","","","","","image-keyboard-response","133","311520","0.0-108.0","5f4849042648171ef6c2cdf8","665500ab8938657b03fbdba8","66577b9bee3c561ea2f98543","729","stimuli/20111012.jpg"," ","","feedback_trial","1","","","","","","","","","","","","","","","","","","","","",""
"","","","","","image-keyboard-response","134","313117","0.0-109.0","5f4849042648171ef6c2cdf8","665500ab8938657b03fbdba8","66577b9bee3c561ea2f98543","1595","stimuli/1010101.jpg","1","","prediction_trial","1","","true","","1","true","true","false","true","false","true","[1]","010","101","1","","","","","","",""
"","","","","","image-keyboard-response","135","313594","0.0-110.0","5f4849042648171ef6c2cdf8","665500ab8938657b03fbdba8","66577b9bee3c561ea2f98543","475","stimuli/10101011.jpg"," ","","feedback_trial","1","","","","","","","","","","","","","","","","","","","","",""
"","","","","","image-keyboard-response","136","315402","0.0-111.0","5f4849042648171ef6c2cdf8","665500ab8938657b03fbdba8","66577b9bee3c561ea2f98543","1806","stimuli/1010011.jpg","2","","prediction_trial","1","","false","","1","false","false","false","true","false","false","[1]","010","011","0","","","","","","",""
"","","","","","image-keyboard-response","137","316031","0.0-112.0","5f4849042648171ef6c2cdf8","665500ab8938657b03fbdba8","66577b9bee3c561ea2f98543","626","stimuli/10100111.jpg"," ","","feedback_trial","1","","","","","","","","","","","","","","","","","","","","",""
"","","","","","image-keyboard-response","138","317529","0.0-113.0","5f4849042648171ef6c2cdf8","665500ab8938657b03fbdba8","66577b9bee3c561ea2f98543","1495","stimuli/1001110.jpg","1","","prediction_trial","1","","true","","1","false","false","true","true","false","false","[1]","001","110","1","","","","","","",""
"","","","","","image-keyboard-response","139","318091","0.0-114.0","5f4849042648171ef6c2cdf8","665500ab8938657b03fbdba8","66577b9bee3c561ea2f98543","560","stimuli/10011101.jpg"," ","","feedback_trial","1","","","","","","","","","","","","","","","","","","","","",""
"","","","","","image-keyboard-response","140","319051","0.0-115.0","5f4849042648171ef6c2cdf8","665500ab8938657b03fbdba8","66577b9bee3c561ea2f98543","957","stimuli/2000111.jpg","1","","prediction_trial","2","","false","","2","false","false","true","true","false","false","[2]","000","111","0","","","","","","",""
"","","","","","image-keyboard-response","141","319648","0.0-116.0","5f4849042648171ef6c2cdf8","665500ab8938657b03fbdba8","66577b9bee3c561ea2f98543","595","stimuli/20001112.jpg"," ","","feedback_trial","2","","","","","","","","","","","","","","","","","","","","",""
"","","","","","image-keyboard-response","142","320986","0.0-117.0","5f4849042648171ef6c2cdf8","665500ab8938657b03fbdba8","66577b9bee3c561ea2f98543","1335","stimuli/2001100.jpg","2","","prediction_trial","2","","true","","2","true","true","false","true","false","true","[2]","001","100","1","","","","","","",""
"","","","","","image-keyboard-response","143","321410","0.0-118.0","5f4849042648171ef6c2cdf8","665500ab8938657b03fbdba8","66577b9bee3c561ea2f98543","422","stimuli/20011002.jpg"," ","","feedback_trial","2","","","","","","","","","","","","","","","","","","","","",""
"","","","","","image-keyboard-response","144","322058","0.0-119.0","5f4849042648171ef6c2cdf8","665500ab8938657b03fbdba8","66577b9bee3c561ea2f98543","646","stimuli/0001011.jpg","0","","prediction_trial","0","","true","","0","true","true","true","true","true","true","[0]","001","011","1","","","","","","",""
"","","","","","image-keyboard-response","145","322464","0.0-120.0","5f4849042648171ef6c2cdf8","665500ab8938657b03fbdba8","66577b9bee3c561ea2f98543","404","stimuli/00010110.jpg"," ","","feedback_trial","0","","","","","","","","","","","","","","","","","","","","",""
"","","","","","image-keyboard-response","146","323142","0.0-121.0","5f4849042648171ef6c2cdf8","665500ab8938657b03fbdba8","66577b9bee3c561ea2f98543","677","stimuli/0001000.jpg","0","","prediction_trial","0","","true","","0","true","true","true","true","true","true","[0]","001","000","1","","","","","","",""
"","","","","","image-keyboard-response","147","323636","0.0-122.0","5f4849042648171ef6c2cdf8","665500ab8938657b03fbdba8","66577b9bee3c561ea2f98543","491","stimuli/00010000.jpg"," ","","feedback_trial","0","","","","","","","","","","","","","","","","","","","","",""
"","","","","","image-keyboard-response","148","324792","0.0-123.0","5f4849042648171ef6c2cdf8","665500ab8938657b03fbdba8","66577b9bee3c561ea2f98543","1155","stimuli/1110100.jpg","1","","prediction_trial","1","","true","","1","true","true","false","false","false","false","[1,0]","110","100","1","","","","","","",""
"","","","","","image-keyboard-response","149","325316","0.0-124.0","5f4849042648171ef6c2cdf8","665500ab8938657b03fbdba8","66577b9bee3c561ea2f98543","521","stimuli/11101001.jpg"," ","","feedback_trial","1","","","","","","","","","","","","","","","","","","","","",""
"","","","","","image-keyboard-response","150","325893","0.0-125.0","5f4849042648171ef6c2cdf8","665500ab8938657b03fbdba8","66577b9bee3c561ea2f98543","575","stimuli/0010001.jpg","0","","prediction_trial","0","","true","","0","true","true","true","true","true","true","[0]","010","001","1","","","","","","",""
"","","","","","image-keyboard-response","151","326431","0.0-126.0","5f4849042648171ef6c2cdf8","665500ab8938657b03fbdba8","66577b9bee3c561ea2f98543","535","stimuli/00100010.jpg"," ","","feedback_trial","0","","","","","","","","","","","","","","","","","","","","",""
"","","","","","image-keyboard-response","152","327812","0.0-127.0","5f4849042648171ef6c2cdf8","665500ab8938657b03fbdba8","66577b9bee3c561ea2f98543","1379","stimuli/0110001.jpg","0","","prediction_trial","1","","false","","0","true","true","false","false","false","false","[1,0]","110","001","0","","","","","","",""
"","","","","","image-keyboard-response","153","328357","0.0-128.0","5f4849042648171ef6c2cdf8","665500ab8938657b03fbdba8","66577b9bee3c561ea2f98543","542","stimuli/01100011.jpg"," ","","feedback_trial","1","","","","","","","","","","","","","","","","","","","","",""
"","","","","","image-keyboard-response","154","328957","0.0-129.0","5f4849042648171ef6c2cdf8","665500ab8938657b03fbdba8","66577b9bee3c561ea2f98543","597","stimuli/2010010.jpg","2","","prediction_trial","2","","true","","2","true","true","true","true","true","true","[2]","010","010","1","","","","","","",""
"","","","","","image-keyboard-response","155","329480","0.0-130.0","5f4849042648171ef6c2cdf8","665500ab8938657b03fbdba8","66577b9bee3c561ea2f98543","521","stimuli/20100102.jpg"," ","","feedback_trial","2","","","","","","","","","","","","","","","","","","","","",""
"","","","","","image-keyboard-response","156","330834","0.0-131.0","5f4849042648171ef6c2cdf8","665500ab8938657b03fbdba8","66577b9bee3c561ea2f98543","1350","stimuli/1111011.jpg","1","","prediction_trial","0","","false","","1","false","false","false","false","false","false","[2,0,1]","111","011","0","","","","","","",""
"","","","","","image-keyboard-response","157","331426","0.0-132.0","5f4849042648171ef6c2cdf8","665500ab8938657b03fbdba8","66577b9bee3c561ea2f98543","591","stimuli/11110110.jpg"," ","","feedback_trial","2","","","","","","","","","","","","","","","","","","","","",""
"","","","","","image-keyboard-response","158","332040","0.0-133.0","5f4849042648171ef6c2cdf8","665500ab8938657b03fbdba8","66577b9bee3c561ea2f98543","612","stimuli/1001001.jpg","1","","prediction_trial","1","","true","","1","true","true","true","true","true","true","[1]","001","001","1","","","","","","",""
"","","","","","image-keyboard-response","159","332606","0.0-134.0","5f4849042648171ef6c2cdf8","665500ab8938657b03fbdba8","66577b9bee3c561ea2f98543","565","stimuli/10010011.jpg"," ","","feedback_trial","1","","","","","","","","","","","","","","","","","","","","",""
"","","","","","image-keyboard-response","160","333228","0.0-135.0","5f4849042648171ef6c2cdf8","665500ab8938657b03fbdba8","66577b9bee3c561ea2f98543","620","stimuli/0101010.jpg","0","","prediction_trial","0","","true","","0","true","true","false","false","false","false","[0,2]","101","010","1","","","","","","",""
"","","","","","image-keyboard-response","161","334115","0.0-136.0","5f4849042648171ef6c2cdf8","665500ab8938657b03fbdba8","66577b9bee3c561ea2f98543","883","stimuli/01010100.jpg"," ","","feedback_trial","0","","","","","","","","","","","","","","","","","","","","",""
"","","","","","image-keyboard-response","162","335293","0.0-137.0","5f4849042648171ef6c2cdf8","665500ab8938657b03fbdba8","66577b9bee3c561ea2f98543","1175","stimuli/2101111.jpg","1","","prediction_trial","0","","false","","2","false","false","false","false","false","false","[2,0]","101","111","0","","","","","","",""
"","","","","","image-keyboard-response","163","335839","0.0-138.0","5f4849042648171ef6c2cdf8","665500ab8938657b03fbdba8","66577b9bee3c561ea2f98543","544","stimuli/21011110.jpg"," ","","feedback_trial","2","","","","","","","","","","","","","","","","","","","","",""
"","","","","","image-keyboard-response","164","337047","0.0-139.0","5f4849042648171ef6c2cdf8","665500ab8938657b03fbdba8","66577b9bee3c561ea2f98543","1206","stimuli/1101010.jpg","1","","prediction_trial","1","","true","","1","false","true","true","true","false","true","[1]","101","010","1","","","","","","",""
"","","","","","image-keyboard-response","165","337585","0.0-140.0","5f4849042648171ef6c2cdf8","665500ab8938657b03fbdba8","66577b9bee3c561ea2f98543","534","stimuli/11010101.jpg"," ","","feedback_trial","1","","","","","","","","","","","","","","","","","","","","",""
"","","","","","image-keyboard-response","166","338141","0.0-141.0","5f4849042648171ef6c2cdf8","665500ab8938657b03fbdba8","66577b9bee3c561ea2f98543","553","stimuli/1101100.jpg","1","","prediction_trial","1","","true","","1","true","true","true","true","true","true","[1]","101","100","1","","","","","","",""
"","","","","","image-keyboard-response","167","338645","0.0-142.0","5f4849042648171ef6c2cdf8","665500ab8938657b03fbdba8","66577b9bee3c561ea2f98543","502","stimuli/11011001.jpg"," ","","feedback_trial","1","","","","","","","","","","","","","","","","","","","","",""
"","","","","","image-keyboard-response","168","340090","0.0-143.0","5f4849042648171ef6c2cdf8","665500ab8938657b03fbdba8","66577b9bee3c561ea2f98543","1441","stimuli/0001101.jpg","2","","prediction_trial","0","","false","","0","false","false","true","true","false","false","[0]","001","101","0","","","","","","",""
"","","","","","image-keyboard-response","169","340671","0.0-144.0","5f4849042648171ef6c2cdf8","665500ab8938657b03fbdba8","66577b9bee3c561ea2f98543","579","stimuli/00011010.jpg"," ","","feedback_trial","0","","","","","","","","","","","","","","","","","","","","",""
"","","","","","image-keyboard-response","170","341355","0.0-145.0","5f4849042648171ef6c2cdf8","665500ab8938657b03fbdba8","66577b9bee3c561ea2f98543","683","stimuli/1011001.jpg","1","","prediction_trial","2","","false","","1","true","true","false","false","false","false","[1,2]","011","001","0","","","","","","",""
"","","","","","image-keyboard-response","171","341902","0.0-146.0","5f4849042648171ef6c2cdf8","665500ab8938657b03fbdba8","66577b9bee3c561ea2f98543","544","stimuli/10110012.jpg"," ","","feedback_trial","1","","","","","","","","","","","","","","","","","","","","",""
"","","","","","image-keyboard-response","172","342471","0.0-147.0","5f4849042648171ef6c2cdf8","665500ab8938657b03fbdba8","66577b9bee3c561ea2f98543","568","stimuli/2110010.jpg","2","","prediction_trial","2","","true","","2","true","true","true","true","true","true","[2]","110","010","1","","","","","","",""
"","","","","","image-keyboard-response","173","342821","0.0-148.0","5f4849042648171ef6c2cdf8","665500ab8938657b03fbdba8","66577b9bee3c561ea2f98543","346","stimuli/21100102.jpg"," ","","feedback_trial","2","","","","","","","","","","","","","","","","","","","","",""
"","","","","","image-keyboard-response","174","344161","0.0-149.0","5f4849042648171ef6c2cdf8","665500ab8938657b03fbdba8","66577b9bee3c561ea2f98543","1338","stimuli/2000001.jpg","2","","prediction_trial","2","","true","","2","false","true","true","true","false","true","[2]","000","001","1","","","","","","",""
"","","","","","image-keyboard-response","175","344655","0.0-150.0","5f4849042648171ef6c2cdf8","665500ab8938657b03fbdba8","66577b9bee3c561ea2f98543","492","stimuli/20000012.jpg"," ","","feedback_trial","2","","","","","","","","","","","","","","","","","","","","",""
"","","","","","image-keyboard-response","176","345415","0.0-151.0","5f4849042648171ef6c2cdf8","665500ab8938657b03fbdba8","66577b9bee3c561ea2f98543","758","stimuli/1101001.jpg","1","","prediction_trial","1","","true","","1","true","true","true","true","true","true","[1]","101","001","1","","","","","","",""
"","","","","","image-keyboard-response","177","345862","0.0-152.0","5f4849042648171ef6c2cdf8","665500ab8938657b03fbdba8","66577b9bee3c561ea2f98543","443","stimuli/11010011.jpg"," ","","feedback_trial","1","","","","","","","","","","","","","","","","","","","","",""
"","","","","","image-keyboard-response","178","346978","0.0-153.0","5f4849042648171ef6c2cdf8","665500ab8938657b03fbdba8","66577b9bee3c561ea2f98543","1113","stimuli/2001000.jpg","2","","prediction_trial","2","","true","","2","true","true","false","true","false","true","[2]","001","000","1","","","","","","",""
"","","","","","image-keyboard-response","179","347496","0.0-154.0","5f4849042648171ef6c2cdf8","665500ab8938657b03fbdba8","66577b9bee3c561ea2f98543","515","stimuli/20010002.jpg"," ","","feedback_trial","2","","","","","","","","","","","","","","","","","","","","",""
"","","","","","image-keyboard-response","180","349010","0.0-155.0","5f4849042648171ef6c2cdf8","665500ab8938657b03fbdba8","66577b9bee3c561ea2f98543","1512","stimuli/1111111.jpg","1","","prediction_trial","0","","false","","1","false","false","false","false","false","false","[2,0,1]","111","111","0","","","","","","",""
"","","","","","image-keyboard-response","181","349565","0.0-156.0","5f4849042648171ef6c2cdf8","665500ab8938657b03fbdba8","66577b9bee3c561ea2f98543","553","stimuli/11111110.jpg"," ","","feedback_trial","2","","","","","","","","","","","","","","","","","","","","",""
"","","","","","image-keyboard-response","182","350099","0.0-157.0","5f4849042648171ef6c2cdf8","665500ab8938657b03fbdba8","66577b9bee3c561ea2f98543","530","stimuli/2110100.jpg","2","","prediction_trial","2","","true","","2","true","true","true","true","true","true","[2]","110","100","1","","","","","","",""
"","","","","","image-keyboard-response","183","350560","0.0-158.0","5f4849042648171ef6c2cdf8","665500ab8938657b03fbdba8","66577b9bee3c561ea2f98543","459","stimuli/21101002.jpg"," ","","feedback_trial","2","","","","","","","","","","","","","","","","","","","","",""
"","","","","","image-keyboard-response","184","351790","0.0-159.0","5f4849042648171ef6c2cdf8","665500ab8938657b03fbdba8","66577b9bee3c561ea2f98543","1228","stimuli/0010101.jpg","2","","prediction_trial","0","","false","","0","false","false","true","true","false","false","[0]","010","101","0","","","","","","",""
"","","","","","image-keyboard-response","185","352342","0.0-160.0","5f4849042648171ef6c2cdf8","665500ab8938657b03fbdba8","66577b9bee3c561ea2f98543","549","stimuli/00101010.jpg"," ","","feedback_trial","0","","","","","","","","","","","","","","","","","","","","",""
"","","","","","image-keyboard-response","186","354031","0.0-161.0","5f4849042648171ef6c2cdf8","665500ab8938657b03fbdba8","66577b9bee3c561ea2f98543","1687","stimuli/0001110.jpg","1","","prediction_trial","0","","false","","0","false","false","true","true","false","false","[0]","001","110","0","","","","","","",""
"","","","","","image-keyboard-response","187","354552","0.0-162.0","5f4849042648171ef6c2cdf8","665500ab8938657b03fbdba8","66577b9bee3c561ea2f98543","519","stimuli/00011100.jpg"," ","","feedback_trial","0","","","","","","","","","","","","","","","","","","","","",""
"","","","","","image-keyboard-response","188","355676","0.0-163.0","5f4849042648171ef6c2cdf8","665500ab8938657b03fbdba8","66577b9bee3c561ea2f98543","1123","stimuli/1011011.jpg","1","","prediction_trial","1","","true","","1","false","false","false","false","false","false","[2,1]","011","011","1","","","","","","",""
"","","","","","image-keyboard-response","189","356229","0.0-164.0","5f4849042648171ef6c2cdf8","665500ab8938657b03fbdba8","66577b9bee3c561ea2f98543","551","stimuli/10110111.jpg"," ","","feedback_trial","2","","","","","","","","","","","","","","","","","","","","",""
"","","","","","image-keyboard-response","190","356810","0.0-165.0","5f4849042648171ef6c2cdf8","665500ab8938657b03fbdba8","66577b9bee3c561ea2f98543","579","stimuli/2110000.jpg","2","","prediction_trial","2","","true","","2","true","true","true","true","true","true","[2]","110","000","1","","","","","","",""
"","","","","","image-keyboard-response","191","357287","0.0-166.0","5f4849042648171ef6c2cdf8","665500ab8938657b03fbdba8","66577b9bee3c561ea2f98543","475","stimuli/21100002.jpg"," ","","feedback_trial","2","","","","","","","","","","","","","","","","","","","","",""
"","","","","","image-keyboard-response","192","358223","0.0-167.0","5f4849042648171ef6c2cdf8","665500ab8938657b03fbdba8","66577b9bee3c561ea2f98543","934","stimuli/0110010.jpg","0","","prediction_trial","1","","false","","0","true","true","false","false","false","false","[1,0]","110","010","0","","","","","","",""
"","","","","","image-keyboard-response","193","358791","0.0-168.0","5f4849042648171ef6c2cdf8","665500ab8938657b03fbdba8","66577b9bee3c561ea2f98543","565","stimuli/01100101.jpg"," ","","feedback_trial","1","","","","","","","","","","","","","","","","","","","","",""
"","","","","","image-keyboard-response","194","359378","0.0-169.0","5f4849042648171ef6c2cdf8","665500ab8938657b03fbdba8","66577b9bee3c561ea2f98543","586","stimuli/2000110.jpg","2","","prediction_trial","2","","true","","2","true","true","true","true","true","true","[2]","000","110","1","","","","","","",""
"","","","","","image-keyboard-response","195","359857","0.0-170.0","5f4849042648171ef6c2cdf8","665500ab8938657b03fbdba8","66577b9bee3c561ea2f98543","477","stimuli/20001102.jpg"," ","","feedback_trial","2","","","","","","","","","","","","","","","","","","","","",""
"","","","","","image-keyboard-response","196","360865","0.0-171.0","5f4849042648171ef6c2cdf8","665500ab8938657b03fbdba8","66577b9bee3c561ea2f98543","1005","stimuli/2111010.jpg","2","","prediction_trial","1","","false","","2","true","true","false","false","false","false","[1,0,2]","111","010","0","","","","","","",""
"","","","","","image-keyboard-response","197","361437","0.0-172.0","5f4849042648171ef6c2cdf8","665500ab8938657b03fbdba8","66577b9bee3c561ea2f98543","571","stimuli/21110101.jpg"," ","","feedback_trial","1","","","","","","","","","","","","","","","","","","","","",""
"","","","","","image-keyboard-response","198","362767","0.0-173.0","5f4849042648171ef6c2cdf8","665500ab8938657b03fbdba8","66577b9bee3c561ea2f98543","1327","stimuli/2101101.jpg","0","","prediction_trial","2","","false","","2","false","false","false","false","false","false","[2,0]","101","101","0","","","","","","",""
"","","","","","image-keyboard-response","199","363367","0.0-174.0","5f4849042648171ef6c2cdf8","665500ab8938657b03fbdba8","66577b9bee3c561ea2f98543","597","stimuli/21011012.jpg"," ","","feedback_trial","2","","","","","","","","","","","","","","","","","","","","",""
"","","","","","image-keyboard-response","200","363969","0.0-175.0","5f4849042648171ef6c2cdf8","665500ab8938657b03fbdba8","66577b9bee3c561ea2f98543","600","stimuli/0011000.jpg","0","","prediction_trial","0","","true","","0","true","true","true","true","true","true","[0]","011","000","1","","","","","","",""
"","","","","","image-keyboard-response","201","364325","0.0-176.0","5f4849042648171ef6c2cdf8","665500ab8938657b03fbdba8","66577b9bee3c561ea2f98543","354","stimuli/00110000.jpg"," ","","feedback_trial","0","","","","","","","","","","","","","","","","","","","","",""
"","","","","","image-keyboard-response","202","365539","0.0-177.0","5f4849042648171ef6c2cdf8","665500ab8938657b03fbdba8","66577b9bee3c561ea2f98543","1212","stimuli/2111101.jpg","2","","prediction_trial","2","","true","","2","false","false","false","false","false","false","[1,2,0]","111","101","1","","","","","","",""
"","","","","","image-keyboard-response","203","366155","0.0-178.0","5f4849042648171ef6c2cdf8","665500ab8938657b03fbdba8","66577b9bee3c561ea2f98543","613","stimuli/21111012.jpg"," ","","feedback_trial","1","","","","","","","","","","","","","","","","","","","","",""
"","","","","","image-keyboard-response","204","366746","0.0-179.0","5f4849042648171ef6c2cdf8","665500ab8938657b03fbdba8","66577b9bee3c561ea2f98543","588","stimuli/2101110.jpg","2","","prediction_trial","0","","false","","2","true","true","false","false","false","false","[0,2]","101","110","0","","","","","","",""
"","","","","","image-keyboard-response","205","367757","0.0-180.0","5f4849042648171ef6c2cdf8","665500ab8938657b03fbdba8","66577b9bee3c561ea2f98543","1009","stimuli/21011100.jpg"," ","","feedback_trial","0","","","","","","","","","","","","","","","","","","","","",""
"","","","","","image-keyboard-response","206","369351","0.0-181.0","5f4849042648171ef6c2cdf8","665500ab8938657b03fbdba8","66577b9bee3c561ea2f98543","1592","stimuli/0111011.jpg","2","","prediction_trial","0","","false","","0","true","true","false","false","false","false","[0,2,1]","111","011","0","","","","","","",""
"","","","","","image-keyboard-response","207","370219","0.0-182.0","5f4849042648171ef6c2cdf8","665500ab8938657b03fbdba8","66577b9bee3c561ea2f98543","865","stimuli/01110110.jpg"," ","","feedback_trial","0","","","","","","","","","","","","","","","","","","","","",""
"","","","","","image-keyboard-response","208","371220","0.0-183.0","5f4849042648171ef6c2cdf8","665500ab8938657b03fbdba8","66577b9bee3c561ea2f98543","998","stimuli/0110000.jpg","0","","prediction_trial","1","","false","","0","true","true","false","false","false","false","[1,0]","110","000","0","","","","","","",""
"","","","","","image-keyboard-response","209","371958","0.0-184.0","5f4849042648171ef6c2cdf8","665500ab8938657b03fbdba8","66577b9bee3c561ea2f98543","736","stimuli/01100001.jpg"," ","","feedback_trial","1","","","","","","","","","","","","","","","","","","","","",""
"","","","","","image-keyboard-response","210","372693","0.0-185.0","5f4849042648171ef6c2cdf8","665500ab8938657b03fbdba8","66577b9bee3c561ea2f98543","732","stimuli/0000010.jpg","0","","prediction_trial","0","","true","","0","true","true","true","true","true","true","[0]","000","010","1","","","","","","",""
"","","","","","image-keyboard-response","211","373265","0.0-186.0","5f4849042648171ef6c2cdf8","665500ab8938657b03fbdba8","66577b9bee3c561ea2f98543","570","stimuli/00000100.jpg"," ","","feedback_trial","0","","","","","","","","","","","","","","","","","","","","",""
"","","","","","image-keyboard-response","212","373921","0.0-187.0","5f4849042648171ef6c2cdf8","665500ab8938657b03fbdba8","66577b9bee3c561ea2f98543","652","stimuli/2100000.jpg","2","","prediction_trial","2","","true","","2","true","true","true","true","true","true","[2]","100","000","1","","","","","","",""
"","","","","","image-keyboard-response","213","374509","0.0-188.0","5f4849042648171ef6c2cdf8","665500ab8938657b03fbdba8","66577b9bee3c561ea2f98543","586","stimuli/21000002.jpg"," ","","feedback_trial","2","","","","","","","","","","","","","","","","","","","","",""
"","","","","","image-keyboard-response","214","375880","0.0-189.0","5f4849042648171ef6c2cdf8","665500ab8938657b03fbdba8","66577b9bee3c561ea2f98543","1368","stimuli/0111010.jpg","0","","prediction_trial","0","","true","","0","true","true","false","false","false","false","[1,2,0]","111","010","1","","","","","","",""
"","","","","","image-keyboard-response","215","376555","0.0-190.0","5f4849042648171ef6c2cdf8","665500ab8938657b03fbdba8","66577b9bee3c561ea2f98543","673","stimuli/01110100.jpg"," ","","feedback_trial","1","","","","","","","","","","","","","","","","","","","","",""
"","","","","","image-keyboard-response","216","378707","0.0-191.0","5f4849042648171ef6c2cdf8","665500ab8938657b03fbdba8","66577b9bee3c561ea2f98543","2150","stimuli/1111110.jpg","1","","prediction_trial","2","","false","","1","false","false","false","false","false","false","[0,1,2]","111","110","0","","","","","","",""
"","","","","","image-keyboard-response","217","379376","0.0-192.0","5f4849042648171ef6c2cdf8","665500ab8938657b03fbdba8","66577b9bee3c561ea2f98543","666","stimuli/11111102.jpg"," ","","feedback_trial","0","","","","","","","","","","","","","","","","","","","","",""
"","","","","","image-keyboard-response","218","380099","0.0-193.0","5f4849042648171ef6c2cdf8","665500ab8938657b03fbdba8","66577b9bee3c561ea2f98543","720","stimuli/0000011.jpg","0","","prediction_trial","0","","true","","0","true","true","true","true","true","true","[0]","000","011","1","","","","","","",""
"","","","","","image-keyboard-response","219","380625","0.0-194.0","5f4849042648171ef6c2cdf8","665500ab8938657b03fbdba8","66577b9bee3c561ea2f98543","524","stimuli/00000110.jpg"," ","","feedback_trial","0","","","","","","","","","","","","","","","","","","","","",""
"","","","","","image-keyboard-response","220","382415","0.0-195.0","5f4849042648171ef6c2cdf8","665500ab8938657b03fbdba8","66577b9bee3c561ea2f98543","1787","stimuli/0001111.jpg","2","","prediction_trial","0","","false","","0","false","false","true","true","false","false","[0]","001","111","0","","","","","","",""
"","","","","","image-keyboard-response","221","383062","0.0-196.0","5f4849042648171ef6c2cdf8","665500ab8938657b03fbdba8","66577b9bee3c561ea2f98543","644","stimuli/00011110.jpg"," ","","feedback_trial","0","","","","","","","","","","","","","","","","","","","","",""
"","","","","","image-keyboard-response","222","386377","0.0-197.0","5f4849042648171ef6c2cdf8","665500ab8938657b03fbdba8","66577b9bee3c561ea2f98543","3313","stimuli/0010110.jpg","1","","prediction_trial","0","","false","","0","false","false","true","true","false","false","[0]","010","110","0","","","","","","",""
"","","","","","image-keyboard-response","223","386873","0.0-198.0","5f4849042648171ef6c2cdf8","665500ab8938657b03fbdba8","66577b9bee3c561ea2f98543","494","stimuli/00101100.jpg"," ","","feedback_trial","0","","","","","","","","","","","","","","","","","","","","",""
"","","","","","image-keyboard-response","224","387869","0.0-199.0","5f4849042648171ef6c2cdf8","665500ab8938657b03fbdba8","66577b9bee3c561ea2f98543","994","stimuli/1111010.jpg","1","","prediction_trial","1","","true","","1","false","true","false","false","false","false","[0,1,2]","111","010","1","","","","","","",""
"","","","","","image-keyboard-response","225","388537","0.0-200.0","5f4849042648171ef6c2cdf8","665500ab8938657b03fbdba8","66577b9bee3c561ea2f98543","665","stimuli/11110101.jpg"," ","","feedback_trial","0","","","","","","","","","","","","","","","","","","","","",""
"","","","","","image-keyboard-response","226","389444","0.0-201.0","5f4849042648171ef6c2cdf8","665500ab8938657b03fbdba8","66577b9bee3c561ea2f98543","905","stimuli/2010110.jpg","2","","prediction_trial","2","","true","","2","true","true","true","true","true","true","[2]","010","110","1","","","","","","",""
"","","","","","image-keyboard-response","227","390027","0.0-202.0","5f4849042648171ef6c2cdf8","665500ab8938657b03fbdba8","66577b9bee3c561ea2f98543","579","stimuli/20101102.jpg"," ","","feedback_trial","2","","","","","","","","","","","","","","","","","","","","",""
"","","","","","image-keyboard-response","228","392259","0.0-203.0","5f4849042648171ef6c2cdf8","665500ab8938657b03fbdba8","66577b9bee3c561ea2f98543","2228","stimuli/0011100.jpg","0","","prediction_trial","0","","true","","0","false","true","true","true","false","true","[0]","011","100","1","","","","","","",""
"","","","","","image-keyboard-response","229","392947","0.0-204.0","5f4849042648171ef6c2cdf8","665500ab8938657b03fbdba8","66577b9bee3c561ea2f98543","686","stimuli/00111000.jpg"," ","","feedback_trial","0","","","","","","","","","","","","","","","","","","","","",""
"","","","","","image-keyboard-response","230","394662","0.0-205.0","5f4849042648171ef6c2cdf8","665500ab8938657b03fbdba8","66577b9bee3c561ea2f98543","1713","stimuli/2010011.jpg","2","","prediction_trial","2","","true","","2","false","false","true","true","false","false","[2]","010","011","1","","","","","","",""
"","","","","","image-keyboard-response","231","395229","0.0-206.0","5f4849042648171ef6c2cdf8","665500ab8938657b03fbdba8","66577b9bee3c561ea2f98543","564","stimuli/20100112.jpg"," ","","feedback_trial","2","","","","","","","","","","","","","","","","","","","","",""
"","","","","","image-keyboard-response","232","396249","0.0-207.0","5f4849042648171ef6c2cdf8","665500ab8938657b03fbdba8","66577b9bee3c561ea2f98543","1016","stimuli/0100111.jpg","2","","prediction_trial","0","","false","","0","false","false","false","true","false","false","[0]","100","111","0","","","","","","",""
"","","","","","image-keyboard-response","233","396746","0.0-208.0","5f4849042648171ef6c2cdf8","665500ab8938657b03fbdba8","66577b9bee3c561ea2f98543","493","stimuli/01001110.jpg"," ","","feedback_trial","0","","","","","","","","","","","","","","","","","","","","",""
"","","","","","image-keyboard-response","234","397492","0.0-209.0","5f4849042648171ef6c2cdf8","665500ab8938657b03fbdba8","66577b9bee3c561ea2f98543","742","stimuli/1111000.jpg","1","","prediction_trial","2","","false","","1","true","true","false","false","false","false","[1,2,0]","111","000","0","","","","","","",""
"","","","","","image-keyboard-response","235","398173","0.0-210.0","5f4849042648171ef6c2cdf8","665500ab8938657b03fbdba8","66577b9bee3c561ea2f98543","678","stimuli/11110002.jpg"," ","","feedback_trial","1","","","","","","","","","","","","","","","","","","","","",""
"","","","","","image-keyboard-response","236","399026","0.0-211.0","5f4849042648171ef6c2cdf8","665500ab8938657b03fbdba8","66577b9bee3c561ea2f98543","850","stimuli/1000001.jpg","1","","prediction_trial","1","","true","","1","true","true","true","true","true","true","[1]","000","001","1","","","","","","",""
"","","","","","image-keyboard-response","237","399538","0.0-212.0","5f4849042648171ef6c2cdf8","665500ab8938657b03fbdba8","66577b9bee3c561ea2f98543","508","stimuli/10000011.jpg"," ","","feedback_trial","1","","","","","","","","","","","","","","","","","","","","",""
"","","","","","image-keyboard-response","238","400557","0.0-213.0","5f4849042648171ef6c2cdf8","665500ab8938657b03fbdba8","66577b9bee3c561ea2f98543","1016","stimuli/2111000.jpg","2","","prediction_trial","2","","true","","2","true","true","false","false","false","false","[0,2,1]","111","000","1","","","","","","",""
"","","","","","image-keyboard-response","239","401193","0.0-214.0","5f4849042648171ef6c2cdf8","665500ab8938657b03fbdba8","66577b9bee3c561ea2f98543","633","stimuli/21110002.jpg"," ","","feedback_trial","0","","","","","","","","","","","","","","","","","","","","",""
"","","","","","image-keyboard-response","240","401901","0.0-215.0","5f4849042648171ef6c2cdf8","665500ab8938657b03fbdba8","66577b9bee3c561ea2f98543","705","stimuli/2110110.jpg","2","","prediction_trial","2","","true","","2","true","true","true","true","true","true","[2]","110","110","1","","","","","","",""
"","","","","","image-keyboard-response","241","402451","0.0-216.0","5f4849042648171ef6c2cdf8","665500ab8938657b03fbdba8","66577b9bee3c561ea2f98543","547","stimuli/21101102.jpg"," ","","feedback_trial","2","","","","","","","","","","","","","","","","","","","","",""
"","","","","","image-keyboard-response","242","403295","0.0-217.0","5f4849042648171ef6c2cdf8","665500ab8938657b03fbdba8","66577b9bee3c561ea2f98543","842","stimuli/1000010.jpg","1","","prediction_trial","1","","true","","1","false","true","true","true","false","true","[1]","000","010","1","","","","","","",""
"","","","","","image-keyboard-response","243","403879","0.0-218.0","5f4849042648171ef6c2cdf8","665500ab8938657b03fbdba8","66577b9bee3c561ea2f98543","582","stimuli/10000101.jpg"," ","","feedback_trial","1","","","","","","","","","","","","","","","","","","","","",""
"","","","","","image-keyboard-response","244","404525","0.0-219.0","5f4849042648171ef6c2cdf8","665500ab8938657b03fbdba8","66577b9bee3c561ea2f98543","644","stimuli/2100010.jpg","2","","prediction_trial","2","","true","","2","true","true","true","true","true","true","[2]","100","010","1","","","","","","",""
"","","","","","image-keyboard-response","245","405069","0.0-220.0","5f4849042648171ef6c2cdf8","665500ab8938657b03fbdba8","66577b9bee3c561ea2f98543","540","stimuli/21000102.jpg"," ","","feedback_trial","2","","","","","","","","","","","","","","","","","","","","",""
"","","","","","image-keyboard-response","246","405748","0.0-221.0","5f4849042648171ef6c2cdf8","665500ab8938657b03fbdba8","66577b9bee3c561ea2f98543","675","stimuli/2010100.jpg","2","","prediction_trial","2","","true","","2","true","true","true","true","true","true","[2]","010","100","1","","","","","","",""
"","","","","","image-keyboard-response","247","406296","0.0-222.0","5f4849042648171ef6c2cdf8","665500ab8938657b03fbdba8","66577b9bee3c561ea2f98543","545","stimuli/20101002.jpg"," ","","feedback_trial","2","","","","","","","","","","","","","","","","","","","","",""
"","","","","","image-keyboard-response","248","408051","0.0-223.0","5f4849042648171ef6c2cdf8","665500ab8938657b03fbdba8","66577b9bee3c561ea2f98543","1753","stimuli/2101100.jpg","2","","prediction_trial","2","","true","","2","true","true","false","false","false","false","[0,2]","101","100","1","","","","","","",""
"","","","","","image-keyboard-response","249","408665","0.0-224.0","5f4849042648171ef6c2cdf8","665500ab8938657b03fbdba8","66577b9bee3c561ea2f98543","611","stimuli/21011002.jpg"," ","","feedback_trial","0","","","","","","","","","","","","","","","","","","","","",""
"","","","","","image-keyboard-response","250","410036","0.0-225.0","5f4849042648171ef6c2cdf8","665500ab8938657b03fbdba8","66577b9bee3c561ea2f98543","1367","stimuli/0111110.jpg","1","","prediction_trial","2","","false","","0","false","false","false","false","false","false","[1,2,0]","111","110","0","","","","","","",""
"","","","","","image-keyboard-response","251","410644","0.0-226.0","5f4849042648171ef6c2cdf8","665500ab8938657b03fbdba8","66577b9bee3c561ea2f98543","604","stimuli/01111102.jpg"," ","","feedback_trial","1","","","","","","","","","","","","","","","","","","","","",""
"","","","","","image-keyboard-response","252","411237","0.0-227.0","5f4849042648171ef6c2cdf8","665500ab8938657b03fbdba8","66577b9bee3c561ea2f98543","590","stimuli/1011000.jpg","1","","prediction_trial","2","","false","","1","true","true","false","false","false","false","[2,1]","011","000","0","","","","","","",""
"","","","","","image-keyboard-response","253","411993","0.0-228.0","5f4849042648171ef6c2cdf8","665500ab8938657b03fbdba8","66577b9bee3c561ea2f98543","754","stimuli/10110002.jpg"," ","","feedback_trial","2","","","","","","","","","","","","","","","","","","","","",""
"","","","","","image-keyboard-response","254","413669","0.0-229.0","5f4849042648171ef6c2cdf8","665500ab8938657b03fbdba8","66577b9bee3c561ea2f98543","1673","stimuli/2011111.jpg","0","","prediction_trial","2","","false","","2","false","false","false","false","false","false","[1,2]","011","111","0","","","","","","",""
"","","","","","image-keyboard-response","255","414260","0.0-230.0","5f4849042648171ef6c2cdf8","665500ab8938657b03fbdba8","66577b9bee3c561ea2f98543","587","stimuli/20111112.jpg"," ","","feedback_trial","1","","","","","","","","","","","","","","","","","","","","",""
"","","","","","image-keyboard-response","256","414932","0.0-231.0","5f4849042648171ef6c2cdf8","665500ab8938657b03fbdba8","66577b9bee3c561ea2f98543","668","stimuli/0011010.jpg","0","","prediction_trial","0","","true","","0","true","true","true","true","true","true","[0]","011","010","1","","","","","","",""
"","","","","","image-keyboard-response","257","415296","0.0-232.0","5f4849042648171ef6c2cdf8","665500ab8938657b03fbdba8","66577b9bee3c561ea2f98543","362","stimuli/00110100.jpg"," ","","feedback_trial","0","","","","","","","","","","","","","","","","","","","","",""
"","","","","","image-keyboard-response","258","416070","0.0-233.0","5f4849042648171ef6c2cdf8","665500ab8938657b03fbdba8","66577b9bee3c561ea2f98543","771","stimuli/0000001.jpg","0","","prediction_trial","0","","true","","0","true","true","true","true","true","true","[0]","000","001","1","","","","","","",""
"","","","","","image-keyboard-response","259","416478","0.0-234.0","5f4849042648171ef6c2cdf8","665500ab8938657b03fbdba8","66577b9bee3c561ea2f98543","405","stimuli/00000010.jpg"," ","","feedback_trial","0","","","","","","","","","","","","","","","","","","","","",""
"","","","","","image-keyboard-response","260","417715","0.0-235.0","5f4849042648171ef6c2cdf8","665500ab8938657b03fbdba8","66577b9bee3c561ea2f98543","1236","stimuli/2011011.jpg","2","","prediction_trial","2","","true","","2","false","false","false","false","false","false","[2,1]","011","011","1","","","","","","",""
"","","","","","image-keyboard-response","261","418328","0.0-236.0","5f4849042648171ef6c2cdf8","665500ab8938657b03fbdba8","66577b9bee3c561ea2f98543","611","stimuli/20110112.jpg"," ","","feedback_trial","2","","","","","","","","","","","","","","","","","","","","",""
"","","","","","image-keyboard-response","262","419416","0.0-237.0","5f4849042648171ef6c2cdf8","665500ab8938657b03fbdba8","66577b9bee3c561ea2f98543","1085","stimuli/1011101.jpg","1","","prediction_trial","1","","true","","1","true","true","false","false","false","false","[1,2]","011","101","1","","","","","","",""
"","","","","","image-keyboard-response","263","420158","0.0-238.0","5f4849042648171ef6c2cdf8","665500ab8938657b03fbdba8","66577b9bee3c561ea2f98543","740","stimuli/10111011.jpg"," ","","feedback_trial","1","","","","","","","","","","","","","","","","","","","","",""
"","","","","","image-keyboard-response","264","421546","0.0-239.0","5f4849042648171ef6c2cdf8","665500ab8938657b03fbdba8","66577b9bee3c561ea2f98543","1386","stimuli/0111101.jpg","0","","prediction_trial","0","","true","","0","false","false","false","false","false","false","[2,1,0]","111","101","1","","","","","","",""
"","","","","","image-keyboard-response","265","422397","0.0-240.0","5f4849042648171ef6c2cdf8","665500ab8938657b03fbdba8","66577b9bee3c561ea2f98543","848","stimuli/01111010.jpg"," ","","feedback_trial","2","","","","","","","","","","","","","","","","","","","","",""
"","","","","","image-keyboard-response","266","425014","0.0-241.0","5f4849042648171ef6c2cdf8","665500ab8938657b03fbdba8","66577b9bee3c561ea2f98543","2615","stimuli/2010111.jpg","2","","prediction_trial","2","","true","","2","false","false","true","true","false","false","[2]","010","111","1","","","","","","",""
"","","","","","image-keyboard-response","267","425638","0.0-242.0","5f4849042648171ef6c2cdf8","665500ab8938657b03fbdba8","66577b9bee3c561ea2f98543","620","stimuli/20101112.jpg"," ","","feedback_trial","2","","","","","","","","","","","","","","","","","","","","",""
"","","","","","image-keyboard-response","268","427318","0.0-243.0","5f4849042648171ef6c2cdf8","665500ab8938657b03fbdba8","66577b9bee3c561ea2f98543","1679","stimuli/0111100.jpg","0","","prediction_trial","1","","false","","0","false","true","false","false","false","false","[1,0,2]","111","100","0","","","","","","",""
"","","","","","image-keyboard-response","269","427971","0.0-244.0","5f4849042648171ef6c2cdf8","665500ab8938657b03fbdba8","66577b9bee3c561ea2f98543","649","stimuli/01111001.jpg"," ","","feedback_trial","1","","","","","","","","","","","","","","","","","","","","",""
"","","","","","image-keyboard-response","270","429815","0.0-245.0","5f4849042648171ef6c2cdf8","665500ab8938657b03fbdba8","66577b9bee3c561ea2f98543","1842","stimuli/2110101.jpg","0","","prediction_trial","2","","false","","2","false","false","true","true","false","false","[2]","110","101","0","","","","","","",""
"","","","","","image-keyboard-response","271","430567","0.0-246.0","5f4849042648171ef6c2cdf8","665500ab8938657b03fbdba8","66577b9bee3c561ea2f98543","749","stimuli/21101012.jpg"," ","","feedback_trial","2","","","","","","","","","","","","","","","","","","","","",""
"","","","","","image-keyboard-response","272","431420","0.0-247.0","5f4849042648171ef6c2cdf8","665500ab8938657b03fbdba8","66577b9bee3c561ea2f98543","849","stimuli/0011101.jpg","0","","prediction_trial","0","","true","","0","false","false","true","true","false","false","[0]","011","101","1","","","","","","",""
"","","","","","image-keyboard-response","273","432192","0.0-248.0","5f4849042648171ef6c2cdf8","665500ab8938657b03fbdba8","66577b9bee3c561ea2f98543","769","stimuli/00111010.jpg"," ","","feedback_trial","0","","","","","","","","","","","","","","","","","","","","",""
"","","","","","image-keyboard-response","274","433245","0.0-249.0","5f4849042648171ef6c2cdf8","665500ab8938657b03fbdba8","66577b9bee3c561ea2f98543","1052","stimuli/1100010.jpg","1","","prediction_trial","1","","true","","1","false","true","true","true","false","true","[1]","100","010","1","","","","","","",""
"","","","","","image-keyboard-response","275","434423","0.0-250.0","5f4849042648171ef6c2cdf8","665500ab8938657b03fbdba8","66577b9bee3c561ea2f98543","1175","stimuli/11000101.jpg"," ","","feedback_trial","1","","","","","","","","","","","","","","","","","","","","",""
"","","","","","image-keyboard-response","276","437396","0.0-251.0","5f4849042648171ef6c2cdf8","665500ab8938657b03fbdba8","66577b9bee3c561ea2f98543","2971","stimuli/2111001.jpg","1","","prediction_trial","0","","false","","2","false","true","false","false","false","false","[0,2,1]","111","001","0","","","","","","",""
"","","","","","image-keyboard-response","277","438019","0.0-252.0","5f4849042648171ef6c2cdf8","665500ab8938657b03fbdba8","66577b9bee3c561ea2f98543","621","stimuli/21110010.jpg"," ","","feedback_trial","0","","","","","","","","","","","","","","","","","","","","",""
"","","","","","image-keyboard-response","278","439807","0.0-253.0","5f4849042648171ef6c2cdf8","665500ab8938657b03fbdba8","66577b9bee3c561ea2f98543","1786","stimuli/0100110.jpg","1","","prediction_trial","0","","false","","0","false","false","false","true","false","false","[0]","100","110","0","","","","","","",""
"","","","","","image-keyboard-response","279","440346","0.0-254.0","5f4849042648171ef6c2cdf8","665500ab8938657b03fbdba8","66577b9bee3c561ea2f98543","537","stimuli/01001100.jpg"," ","","feedback_trial","0","","","","","","","","","","","","","","","","","","","","",""
"","","","","","image-keyboard-response","280","441863","0.0-255.0","5f4849042648171ef6c2cdf8","665500ab8938657b03fbdba8","66577b9bee3c561ea2f98543","1513","stimuli/2001011.jpg","1","","prediction_trial","2","","false","","2","false","false","false","true","false","false","[2]","001","011","0","","","","","","",""
"","","","","","image-keyboard-response","281","442488","0.0-256.0","5f4849042648171ef6c2cdf8","665500ab8938657b03fbdba8","66577b9bee3c561ea2f98543","625","stimuli/20010112.jpg"," ","","feedback_trial","2","","","","","","","","","","","","","","","","","","","","",""
"","","","","","image-keyboard-response","282","443073","0.0-257.0","5f4849042648171ef6c2cdf8","665500ab8938657b03fbdba8","66577b9bee3c561ea2f98543","582","stimuli/1100000.jpg","1","","prediction_trial","1","","true","","1","true","true","true","true","true","true","[1]","100","000","1","","","","","","",""
"","","","","","image-keyboard-response","283","443503","0.0-258.0","5f4849042648171ef6c2cdf8","665500ab8938657b03fbdba8","66577b9bee3c561ea2f98543","429","stimuli/11000001.jpg"," ","","feedback_trial","1","","","","","","","","","","","","","","","","","","","","",""
"","","","","","image-keyboard-response","284","445837","0.0-259.0","5f4849042648171ef6c2cdf8","665500ab8938657b03fbdba8","66577b9bee3c561ea2f98543","2331","stimuli/2100111.jpg","1","","prediction_trial","2","","false","","2","false","false","true","true","false","false","[2]","100","111","0","","","","","","",""
"","","","","","image-keyboard-response","285","446299","0.0-260.0","5f4849042648171ef6c2cdf8","665500ab8938657b03fbdba8","66577b9bee3c561ea2f98543","459","stimuli/21001112.jpg"," ","","feedback_trial","2","","","","","","","","","","","","","","","","","","","","",""
"","","","","","image-keyboard-response","286","446832","0.0-261.0","5f4849042648171ef6c2cdf8","665500ab8938657b03fbdba8","66577b9bee3c561ea2f98543","530","stimuli/2100110.jpg","2","","prediction_trial","2","","true","","2","true","true","true","true","true","true","[2]","100","110","1","","","","","","",""
"","","","","","image-keyboard-response","287","447371","0.0-262.0","5f4849042648171ef6c2cdf8","665500ab8938657b03fbdba8","66577b9bee3c561ea2f98543","536","stimuli/21001102.jpg"," ","","feedback_trial","2","","","","","","","","","","","","","","","","","","","","",""
"","","","","","image-keyboard-response","288","449175","0.0-263.0","5f4849042648171ef6c2cdf8","665500ab8938657b03fbdba8","66577b9bee3c561ea2f98543","1802","stimuli/1100111.jpg","1","","prediction_trial","1","","true","","1","false","false","true","true","false","false","[1]","100","111","1","","","","","","",""
"","","","","","image-keyboard-response","289","449714","0.0-264.0","5f4849042648171ef6c2cdf8","665500ab8938657b03fbdba8","66577b9bee3c561ea2f98543","537","stimuli/11001111.jpg"," ","","feedback_trial","1","","","","","","","","","","","","","","","","","","","","",""
"","","","","","image-keyboard-response","290","450259","0.0-265.0","5f4849042648171ef6c2cdf8","665500ab8938657b03fbdba8","66577b9bee3c561ea2f98543","542","stimuli/1101101.jpg","1","","prediction_trial","1","","true","","1","true","true","true","true","true","true","[1]","101","101","1","","","","","","",""
"","","","","","image-keyboard-response","291","450753","0.0-266.0","5f4849042648171ef6c2cdf8","665500ab8938657b03fbdba8","66577b9bee3c561ea2f98543","492","stimuli/11011011.jpg"," ","","feedback_trial","1","","","","","","","","","","","","","","","","","","","","",""
"","","","","","image-keyboard-response","292","453176","0.0-267.0","5f4849042648171ef6c2cdf8","665500ab8938657b03fbdba8","66577b9bee3c561ea2f98543","2420","stimuli/0110011.jpg","1","","prediction_trial","0","","false","","0","true","true","false","false","false","false","[0,1]","110","011","0","","","","","","",""
"","","","","","image-keyboard-response","293","453731","0.0-268.0","5f4849042648171ef6c2cdf8","665500ab8938657b03fbdba8","66577b9bee3c561ea2f98543","554","stimuli/01100110.jpg"," ","","feedback_trial","0","","","","","","","","","","","","","","","","","","","","",""
"","","","","","image-keyboard-response","294","454933","0.0-269.0","5f4849042648171ef6c2cdf8","665500ab8938657b03fbdba8","66577b9bee3c561ea2f98543","1199","stimuli/1001011.jpg","1","","prediction_trial","1","","true","","1","false","false","true","true","false","false","[1]","001","011","1","","","","","","",""
"","","","","","image-keyboard-response","295","455475","0.0-270.0","5f4849042648171ef6c2cdf8","665500ab8938657b03fbdba8","66577b9bee3c561ea2f98543","538","stimuli/10010111.jpg"," ","","feedback_trial","1","","","","","","","","","","","","","","","","","","","","",""
"","","","","","image-keyboard-response","296","456260","0.0-271.0","5f4849042648171ef6c2cdf8","665500ab8938657b03fbdba8","66577b9bee3c561ea2f98543","784","stimuli/2100001.jpg","2","","prediction_trial","2","","true","","2","false","true","true","true","false","true","[2]","100","001","1","","","","","","",""
"","","","","","image-keyboard-response","297","456641","0.0-272.0","5f4849042648171ef6c2cdf8","665500ab8938657b03fbdba8","66577b9bee3c561ea2f98543","378","stimuli/21000012.jpg"," ","","feedback_trial","2","","","","","","","","","","","","","","","","","","","","",""
"","","","","","image-keyboard-response","298","457709","0.0-273.0","5f4849042648171ef6c2cdf8","665500ab8938657b03fbdba8","66577b9bee3c561ea2f98543","1066","stimuli/2001110.jpg","2","","prediction_trial","2","","true","","2","true","true","false","true","false","true","[2]","001","110","1","","","","","","",""
"","","","","","image-keyboard-response","299","458291","0.0-274.0","5f4849042648171ef6c2cdf8","665500ab8938657b03fbdba8","66577b9bee3c561ea2f98543","579","stimuli/20011102.jpg"," ","","feedback_trial","2","","","","","","","","","","","","","","","","","","","","",""
"","","","","","image-keyboard-response","300","458904","0.0-275.0","5f4849042648171ef6c2cdf8","665500ab8938657b03fbdba8","66577b9bee3c561ea2f98543","609","stimuli/2000100.jpg","2","","prediction_trial","2","","true","","2","true","true","true","true","true","true","[2]","000","100","1","","","","","","",""
"","","","","","image-keyboard-response","301","459393","0.0-276.0","5f4849042648171ef6c2cdf8","665500ab8938657b03fbdba8","66577b9bee3c561ea2f98543","487","stimuli/20001002.jpg"," ","","feedback_trial","2","","","","","","","","","","","","","","","","","","","","",""
"","","","","","image-keyboard-response","302","460446","0.0-277.0","5f4849042648171ef6c2cdf8","665500ab8938657b03fbdba8","66577b9bee3c561ea2f98543","1051","stimuli/2100101.jpg","2","","prediction_trial","2","","true","","2","false","false","true","true","false","false","[2]","100","101","1","","","","","","",""
"","","","","","image-keyboard-response","303","461010","0.0-278.0","5f4849042648171ef6c2cdf8","665500ab8938657b03fbdba8","66577b9bee3c561ea2f98543","561","stimuli/21001012.jpg"," ","","feedback_trial","2","","","","","","","","","","","","","","","","","","","","",""
"","","","","","image-keyboard-response","304","461787","0.0-279.0","5f4849042648171ef6c2cdf8","665500ab8938657b03fbdba8","66577b9bee3c561ea2f98543","774","stimuli/0010100.jpg","0","","prediction_trial","0","","true","","0","false","true","true","true","false","true","[0]","010","100","1","","","","","","",""
"","","","","","image-keyboard-response","305","462389","0.0-280.0","5f4849042648171ef6c2cdf8","665500ab8938657b03fbdba8","66577b9bee3c561ea2f98543","600","stimuli/00101000.jpg"," ","","feedback_trial","0","","","","","","","","","","","","","","","","","","","","",""
"","","","","","image-keyboard-response","306","463622","0.0-281.0","5f4849042648171ef6c2cdf8","665500ab8938657b03fbdba8","66577b9bee3c561ea2f98543","1230","stimuli/1011010.jpg","1","","prediction_trial","1","","true","","1","false","true","false","false","false","false","[1,2]","011","010","1","","","","","","",""
"","","","","","image-keyboard-response","307","464191","0.0-282.0","5f4849042648171ef6c2cdf8","665500ab8938657b03fbdba8","66577b9bee3c561ea2f98543","566","stimuli/10110101.jpg"," ","","feedback_trial","1","","","","","","","","","","","","","","","","","","","","",""
"","","","","","image-keyboard-response","308","465103","0.0-283.0","5f4849042648171ef6c2cdf8","665500ab8938657b03fbdba8","66577b9bee3c561ea2f98543","911","stimuli/0100101.jpg","2","","prediction_trial","0","","false","","0","false","false","false","true","false","false","[0]","100","101","0","","","","","","",""
"","","","","","image-keyboard-response","309","465736","0.0-284.0","5f4849042648171ef6c2cdf8","665500ab8938657b03fbdba8","66577b9bee3c561ea2f98543","630","stimuli/01001010.jpg"," ","","feedback_trial","0","","","","","","","","","","","","","","","","","","","","",""
"","","","","","image-keyboard-response","310","466900","0.0-285.0","5f4849042648171ef6c2cdf8","665500ab8938657b03fbdba8","66577b9bee3c561ea2f98543","1161","stimuli/0110101.jpg","2","","prediction_trial","0","","false","","0","false","false","false","false","false","false","[1,0]","110","101","0","","","","","","",""
"","","","","","image-keyboard-response","311","467480","0.0-286.0","5f4849042648171ef6c2cdf8","665500ab8938657b03fbdba8","66577b9bee3c561ea2f98543","576","stimuli/01101010.jpg"," ","","feedback_trial","1","","","","","","","","","","","","","","","","","","","","",""
"","","","","","image-keyboard-response","312","468381","0.0-287.0","5f4849042648171ef6c2cdf8","665500ab8938657b03fbdba8","66577b9bee3c561ea2f98543","897","stimuli/0100010.jpg","0","","prediction_trial","0","","true","","0","true","true","false","true","false","true","[0]","100","010","1","","","","","","",""
"","","","","","image-keyboard-response","313","468963","0.0-288.0","5f4849042648171ef6c2cdf8","665500ab8938657b03fbdba8","66577b9bee3c561ea2f98543","581","stimuli/01000100.jpg"," ","","feedback_trial","0","","","","","","","","","","","","","","","","","","","","",""
"","","","","","image-keyboard-response","314","471378","0.0-289.0","5f4849042648171ef6c2cdf8","665500ab8938657b03fbdba8","66577b9bee3c561ea2f98543","2411","stimuli/2000011.jpg","2","","prediction_trial","2","","true","","2","false","false","true","true","false","false","[2]","000","011","1","","","","","","",""
"","","","","","image-keyboard-response","315","471923","0.0-290.0","5f4849042648171ef6c2cdf8","665500ab8938657b03fbdba8","66577b9bee3c561ea2f98543","543","stimuli/20000112.jpg"," ","","feedback_trial","2","","","","","","","","","","","","","","","","","","","","",""
"","","","","","image-keyboard-response","316","472757","0.0-291.0","5f4849042648171ef6c2cdf8","665500ab8938657b03fbdba8","66577b9bee3c561ea2f98543","832","stimuli/0011001.jpg","0","","prediction_trial","0","","true","","0","true","true","true","true","true","true","[0]","011","001","1","","","","","","",""
"","","","","","image-keyboard-response","317","473118","0.0-292.0","5f4849042648171ef6c2cdf8","665500ab8938657b03fbdba8","66577b9bee3c561ea2f98543","357","stimuli/00110010.jpg"," ","","feedback_trial","0","","","","","","","","","","","","","","","","","","","","",""
"","","","","","survey-html-form","318","511488","0.0-293.0","5f4849042648171ef6c2cdf8","665500ab8938657b03fbdba8","66577b9bee3c561ea2f98543","38369","","{""feedback"":""If Sam could see the ball or not. It didn't matter if I could, but it did matter if he could"",""age"":""31"",""gender"":""Non-binary"",""other_gender"":"""",""race"":""Black/African American"",""other_race"":"""",""ethnicity"":""Non-Hispanic""}","","exit_survey","","","","","","","","","","","","","","","","If Sam could see the ball or not. It didn't matter if I could, but it did matter if he could","31","Non-Hispanic","Non-binary","Black/African American","0.6041666666666666","0.6041666666666666"
