"success","timeout","failed_images","failed_audio","failed_video","trial_type","trial_index","time_elapsed","internal_node_id","prolific_id","prolific_study_id","prolific_session_id","rt","stimulus","response","view_history","trial","character_choice","stimulus_dict","accuracy","correct_response","ball_pos","ego_ball_visible","ego_can_infer","alter_ball_visible","alter_can_infer","collective_ball_visible","collective_can_infer","search_locations","alter_occluders","ego_occluders","accuracy_bool","feedback","age","ethnicity","gender","race","overall_accuracy","bonus"
"true","false","[]","[]","[]","preload","0","11580","0.0-0.0","5f121091e95fdc03b5e897d0","665500ab8938657b03fbdba8","6657923503892b97df880ae4","","","","","","","","","","","","","","","","","","","","","","","","","","",""
"true","","","","","fullscreen","1","30926","0.0-1.0","5f121091e95fdc03b5e897d0","665500ab8938657b03fbdba8","6657923503892b97df880ae4","","","","","","","","","","","","","","","","","","","","","","","","","","",""
"","","","","","html-button-response","2","69694","0.0-2.0","5f121091e95fdc03b5e897d0","665500ab8938657b03fbdba8","6657923503892b97df880ae4","38754","<p><b>Consent Form</b></p> <div style=""text-align:left;background-color:lightgrey; padding:20px; max-width:900px;""><p>Please consider this information carefully before deciding whether to participate in this research.</p> <p>The purpose of this research is to examine which factors influence social judgment and decision-making. You will be asked to make judgements about individuals and actions in social scenarios. We are simply interested in your judgement. The study will take less than 1 hour to complete, and you will receive less than $20 on Prolific. Your compensation and time commitment are specified in the study description. There are no anticipated risks associated with participating in this study. The effects of participating should be comparable to those you would ordinarily experience from viewing a computer monitor and using a mouse or keyboard for a similar amount of time. At the end of the study, we will provide an explanation of the questions that motivate this line of research and will describe the potential implications. </p><p> Your participation in this study is completely voluntary and you may refuse to participate or you may choose to withdraw at any time without penalty or loss of benefits to you which are otherwise entitled. Your participation in this study will remain confidential. No personally identifiable information will be associated with your data. Also, all analyses of the data will be averaged across all the participants, so your individual responses will never be specifically analyzed. </p><p> If you have questions or concerns about your participation or payment, or want to request a summary of research findings, please contact Dr. Jonathan Phillips at Jonathan.S.Phillips@dartmouth.edu. </p><p> Please save a copy of this form for your records. </p><p><b>Agreement: </b>The nature and purpose of this research have been sufficiently explained and I agree to participate in this study. I understand that I am free to withdraw at any time without incurring any penalty. Please consent by clicking the button below to continue. Otherwise, please exit the study at any time. </p>","0","","","","","","","","","","","","","","","","","","","","","","","",""
"","","","","","instructions","3","160865","0.0-3.0-0.0","5f121091e95fdc03b5e897d0","665500ab8938657b03fbdba8","6657923503892b97df880ae4","91169","","","[{""page_index"":0,""viewing_time"":1693},{""page_index"":1,""viewing_time"":1546},{""page_index"":2,""viewing_time"":12660},{""page_index"":3,""viewing_time"":5551},{""page_index"":4,""viewing_time"":4806},{""page_index"":5,""viewing_time"":8927},{""page_index"":6,""viewing_time"":4007},{""page_index"":7,""viewing_time"":2714},{""page_index"":8,""viewing_time"":4808},{""page_index"":9,""viewing_time"":2403},{""page_index"":10,""viewing_time"":31364},{""page_index"":11,""viewing_time"":5824},{""page_index"":12,""viewing_time"":3426},{""page_index"":13,""viewing_time"":1437}]","intro","","","","","","","","","","","","","","","","","","","","","",""
"","","","","","image-keyboard-response","4","162576","0.0-3.0-1.0","5f121091e95fdc03b5e897d0","665500ab8938657b03fbdba8","6657923503892b97df880ae4","1695","stimuli/1000100.jpg","1","","prediction_practice","1","{""filepath"":""stimuli/1000100.jpg"",""ball_pos"":1,""ego_ball_visible"":true,""ego_can_infer"":true,""alter_ball_visible"":true,""alter_can_infer"":true,""collective_ball_visible"":true,""collective_can_infer"":true,""search_locations"":[1],""alter_occluders"":""000"",""ego_occluders"":""100""}","true","","","","","","","","","","","","","","","","","","",""
"","","","","","image-keyboard-response","5","164520","0.0-3.0-2.0","5f121091e95fdc03b5e897d0","665500ab8938657b03fbdba8","6657923503892b97df880ae4","1941","stimuli/10001001.jpg"," ","","practrice_feedback","1","","","","","","","","","","","","","","","","","","","","",""
"","","","","","image-keyboard-response","6","167823","0.0-3.0-3.0","5f121091e95fdc03b5e897d0","665500ab8938657b03fbdba8","6657923503892b97df880ae4","3299","stimuli/2011001.jpg","2","","prediction_practice","1","{""filepath"":""stimuli/2011001.jpg"",""ball_pos"":2,""ego_ball_visible"":false,""ego_can_infer"":true,""alter_ball_visible"":false,""alter_can_infer"":false,""collective_ball_visible"":false,""collective_can_infer"":false,""search_locations"":[2,1],""alter_occluders"":""011"",""ego_occluders"":""001""}","false","","","","","","","","","","","","","","","","","","",""
"","","","","","image-keyboard-response","7","170305","0.0-3.0-4.0","5f121091e95fdc03b5e897d0","665500ab8938657b03fbdba8","6657923503892b97df880ae4","2477","stimuli/20110011.jpg"," ","","practrice_feedback","2","","","","","","","","","","","","","","","","","","","","",""
"","","","","","image-keyboard-response","8","172215","0.0-3.0-5.0","5f121091e95fdc03b5e897d0","665500ab8938657b03fbdba8","6657923503892b97df880ae4","1908","stimuli/2110110.jpg","2","","prediction_practice","2","{""filepath"":""stimuli/2110110.jpg"",""ball_pos"":2,""ego_ball_visible"":true,""ego_can_infer"":true,""alter_ball_visible"":true,""alter_can_infer"":true,""collective_ball_visible"":true,""collective_can_infer"":true,""search_locations"":[2],""alter_occluders"":""110"",""ego_occluders"":""110""}","true","","","","","","","","","","","","","","","","","","",""
"","","","","","image-keyboard-response","9","173092","0.0-3.0-6.0","5f121091e95fdc03b5e897d0","665500ab8938657b03fbdba8","6657923503892b97df880ae4","873","stimuli/21101102.jpg"," ","","practrice_feedback","2","","","","","","","","","","","","","","","","","","","","",""
"","","","","","image-keyboard-response","10","174739","0.0-3.0-7.0","5f121091e95fdc03b5e897d0","665500ab8938657b03fbdba8","6657923503892b97df880ae4","1644","stimuli/0110010.jpg","1","","prediction_practice","0","{""filepath"":""stimuli/0110010.jpg"",""ball_pos"":0,""ego_ball_visible"":true,""ego_can_infer"":true,""alter_ball_visible"":false,""alter_can_infer"":false,""collective_ball_visible"":false,""collective_can_infer"":false,""search_locations"":[0,1],""alter_occluders"":""110"",""ego_occluders"":""010""}","false","","","","","","","","","","","","","","","","","","",""
"","","","","","image-keyboard-response","11","175960","0.0-3.0-8.0","5f121091e95fdc03b5e897d0","665500ab8938657b03fbdba8","6657923503892b97df880ae4","1218","stimuli/01100100.jpg"," ","","practrice_feedback","0","","","","","","","","","","","","","","","","","","","","",""
"","","","","","image-keyboard-response","12","177675","0.0-3.0-9.0","5f121091e95fdc03b5e897d0","665500ab8938657b03fbdba8","6657923503892b97df880ae4","1712","stimuli/0010001.jpg","0","","prediction_practice","0","{""filepath"":""stimuli/0010001.jpg"",""ball_pos"":0,""ego_ball_visible"":true,""ego_can_infer"":true,""alter_ball_visible"":true,""alter_can_infer"":true,""collective_ball_visible"":true,""collective_can_infer"":true,""search_locations"":[0],""alter_occluders"":""010"",""ego_occluders"":""001""}","true","","","","","","","","","","","","","","","","","","",""
"","","","","","image-keyboard-response","13","178331","0.0-3.0-10.0","5f121091e95fdc03b5e897d0","665500ab8938657b03fbdba8","6657923503892b97df880ae4","652","stimuli/00100010.jpg"," ","","practrice_feedback","0","","","","","","","","","","","","","","","","","","","","",""
"","","","","","image-keyboard-response","14","179267","0.0-3.0-11.0","5f121091e95fdc03b5e897d0","665500ab8938657b03fbdba8","6657923503892b97df880ae4","934","stimuli/0111010.jpg","0","","prediction_practice","0","{""filepath"":""stimuli/0111010.jpg"",""ball_pos"":0,""ego_ball_visible"":true,""ego_can_infer"":true,""alter_ball_visible"":false,""alter_can_infer"":false,""collective_ball_visible"":false,""collective_can_infer"":false,""search_locations"":[0,2,1],""alter_occluders"":""111"",""ego_occluders"":""010""}","true","","","","","","","","","","","","","","","","","","",""
"","","","","","image-keyboard-response","15","180119","0.0-3.0-12.0","5f121091e95fdc03b5e897d0","665500ab8938657b03fbdba8","6657923503892b97df880ae4","847","stimuli/01110100.jpg"," ","","practrice_feedback","0","","","","","","","","","","","","","","","","","","","","",""
"","","","","","image-keyboard-response","16","180686","0.0-3.0-13.0","5f121091e95fdc03b5e897d0","665500ab8938657b03fbdba8","6657923503892b97df880ae4","542","stimuli/2110100.jpg","2","","prediction_practice","2","{""filepath"":""stimuli/2110100.jpg"",""ball_pos"":2,""ego_ball_visible"":true,""ego_can_infer"":true,""alter_ball_visible"":true,""alter_can_infer"":true,""collective_ball_visible"":true,""collective_can_infer"":true,""search_locations"":[2],""alter_occluders"":""110"",""ego_occluders"":""100""}","true","","","","","","","","","","","","","","","","","","",""
"","","","","","image-keyboard-response","17","181587","0.0-3.0-14.0","5f121091e95fdc03b5e897d0","665500ab8938657b03fbdba8","6657923503892b97df880ae4","896","stimuli/21101002.jpg"," ","","practrice_feedback","2","","","","","","","","","","","","","","","","","","","","",""
"","","","","","image-keyboard-response","18","182757","0.0-3.0-15.0","5f121091e95fdc03b5e897d0","665500ab8938657b03fbdba8","6657923503892b97df880ae4","1167","stimuli/0101000.jpg","0","","prediction_practice","2","{""filepath"":""stimuli/0101000.jpg"",""ball_pos"":0,""ego_ball_visible"":true,""ego_can_infer"":true,""alter_ball_visible"":false,""alter_can_infer"":false,""collective_ball_visible"":false,""collective_can_infer"":false,""search_locations"":[0,2],""alter_occluders"":""101"",""ego_occluders"":""000""}","false","","","","","","","","","","","","","","","","","","",""
"","","","","","image-keyboard-response","19","183682","0.0-3.0-16.0","5f121091e95fdc03b5e897d0","665500ab8938657b03fbdba8","6657923503892b97df880ae4","923","stimuli/01010002.jpg"," ","","practrice_feedback","0","","","","","","","","","","","","","","","","","","","","",""
"","","","","","image-keyboard-response","20","184848","0.0-3.0-17.0","5f121091e95fdc03b5e897d0","665500ab8938657b03fbdba8","6657923503892b97df880ae4","1162","stimuli/2010111.jpg","1","","prediction_practice","2","{""filepath"":""stimuli/2010111.jpg"",""ball_pos"":2,""ego_ball_visible"":false,""ego_can_infer"":false,""alter_ball_visible"":true,""alter_can_infer"":true,""collective_ball_visible"":false,""collective_can_infer"":false,""search_locations"":[2],""alter_occluders"":""010"",""ego_occluders"":""111""}","false","","","","","","","","","","","","","","","","","","",""
"","","","","","image-keyboard-response","21","185502","0.0-3.0-18.0","5f121091e95fdc03b5e897d0","665500ab8938657b03fbdba8","6657923503892b97df880ae4","652","stimuli/20101112.jpg"," ","","practrice_feedback","2","","","","","","","","","","","","","","","","","","","","",""
"","","","","","image-keyboard-response","22","186340","0.0-3.0-19.0","5f121091e95fdc03b5e897d0","665500ab8938657b03fbdba8","6657923503892b97df880ae4","835","stimuli/2010011.jpg","0","","prediction_practice","2","{""filepath"":""stimuli/2010011.jpg"",""ball_pos"":2,""ego_ball_visible"":false,""ego_can_infer"":false,""alter_ball_visible"":true,""alter_can_infer"":true,""collective_ball_visible"":false,""collective_can_infer"":false,""search_locations"":[2],""alter_occluders"":""010"",""ego_occluders"":""011""}","false","","","","","","","","","","","","","","","","","","",""
"","","","","","image-keyboard-response","23","186820","0.0-3.0-20.0","5f121091e95fdc03b5e897d0","665500ab8938657b03fbdba8","6657923503892b97df880ae4","476","stimuli/20100112.jpg"," ","","practrice_feedback","2","","","","","","","","","","","","","","","","","","","","",""
"","","","","","html-button-response","24","195283","0.0-3.0-21.0","5f121091e95fdc03b5e897d0","665500ab8938657b03fbdba8","6657923503892b97df880ae4","8460","Now that you've had some practice, you'll be tested with a couple of easy trials. If you correctly predict Sam's choice, you'll move on to complete the experiment!","0","","","","","","","","","","","","","","","","","","","","","","","",""
"","","","","","image-keyboard-response","25","196322","0.0-3.0-22.0-0.0","5f121091e95fdc03b5e897d0","665500ab8938657b03fbdba8","6657923503892b97df880ae4","1033","stimuli/0000011.jpg","arrowleft","","comprehension_quiz","","","true","arrowleft","","","","","","","","","","","","","","","","","",""
"","","","","","image-keyboard-response","26","197301","0.0-3.0-22.0-1.0","5f121091e95fdc03b5e897d0","665500ab8938657b03fbdba8","6657923503892b97df880ae4","976","stimuli/00000110.jpg"," ","","comprehension_quiz","","","true"," ","","","","","","","","","","","","","","","","","",""
"","","","","","image-keyboard-response","27","198949","0.0-3.0-22.0-2.0","5f121091e95fdc03b5e897d0","665500ab8938657b03fbdba8","6657923503892b97df880ae4","1645","stimuli/1010010.jpg","arrowdown","","comprehension_quiz","","","true","arrowdown","","","","","","","","","","","","","","","","","",""
"","","","","","image-keyboard-response","28","199378","0.0-3.0-22.0-3.0","5f121091e95fdc03b5e897d0","665500ab8938657b03fbdba8","6657923503892b97df880ae4","385","stimuli/10100101.jpg"," ","","comprehension_quiz","","","true"," ","","","","","","","","","","","","","","","","","",""
"","","","","","html-button-response","29","201694","0.0-4.0","5f121091e95fdc03b5e897d0","665500ab8938657b03fbdba8","6657923503892b97df880ae4","2309","The experiment will now begin.","0","","","","","","","","","","","","","","","","","","","","","","","",""
"","","","","","image-keyboard-response","30","202438","0.0-5.0","5f121091e95fdc03b5e897d0","665500ab8938657b03fbdba8","6657923503892b97df880ae4","739","stimuli/1111000.jpg","1","","prediction_trial","0","","false","","1","true","true","false","false","false","false","[1,0,2]","111","000","0","","","","","","",""
"","","","","","image-keyboard-response","31","203753","0.0-6.0","5f121091e95fdc03b5e897d0","665500ab8938657b03fbdba8","6657923503892b97df880ae4","1311","stimuli/11110000.jpg"," ","","feedback_trial","1","","","","","","","","","","","","","","","","","","","","",""
"","","","","","image-keyboard-response","32","204817","0.0-7.0","5f121091e95fdc03b5e897d0","665500ab8938657b03fbdba8","6657923503892b97df880ae4","1074","stimuli/0101011.jpg","0","","prediction_trial","0","","true","","0","true","true","false","false","false","false","[2,0]","101","011","1","","","","","","",""
"","","","","","image-keyboard-response","33","205168","0.0-8.0","5f121091e95fdc03b5e897d0","665500ab8938657b03fbdba8","6657923503892b97df880ae4","349","stimuli/01010110.jpg"," ","","feedback_trial","2","","","","","","","","","","","","","","","","","","","","",""
"","","","","","image-keyboard-response","34","205967","0.0-9.0","5f121091e95fdc03b5e897d0","665500ab8938657b03fbdba8","6657923503892b97df880ae4","796","stimuli/1100100.jpg","1","","prediction_trial","1","","true","","1","true","true","true","true","true","true","[1]","100","100","1","","","","","","",""
"","","","","","image-keyboard-response","35","206299","0.0-10.0","5f121091e95fdc03b5e897d0","665500ab8938657b03fbdba8","6657923503892b97df880ae4","329","stimuli/11001001.jpg"," ","","feedback_trial","1","","","","","","","","","","","","","","","","","","","","",""
"","","","","","image-keyboard-response","36","207066","0.0-11.0","5f121091e95fdc03b5e897d0","665500ab8938657b03fbdba8","6657923503892b97df880ae4","764","stimuli/2111100.jpg","2","","prediction_trial","0","","false","","2","true","true","false","false","false","false","[0,1,2]","111","100","0","","","","","","",""
"","","","","","image-keyboard-response","37","207502","0.0-12.0","5f121091e95fdc03b5e897d0","665500ab8938657b03fbdba8","6657923503892b97df880ae4","432","stimuli/21111000.jpg"," ","","feedback_trial","0","","","","","","","","","","","","","","","","","","","","",""
"","","","","","image-keyboard-response","38","208191","0.0-13.0","5f121091e95fdc03b5e897d0","665500ab8938657b03fbdba8","6657923503892b97df880ae4","686","stimuli/2101010.jpg","2","","prediction_trial","0","","false","","2","true","true","false","false","false","false","[2,0]","101","010","0","","","","","","",""
"","","","","","image-keyboard-response","39","208539","0.0-14.0","5f121091e95fdc03b5e897d0","665500ab8938657b03fbdba8","6657923503892b97df880ae4","345","stimuli/21010100.jpg"," ","","feedback_trial","2","","","","","","","","","","","","","","","","","","","","",""
"","","","","","image-keyboard-response","40","209816","0.0-15.0","5f121091e95fdc03b5e897d0","665500ab8938657b03fbdba8","6657923503892b97df880ae4","1253","stimuli/2101101.jpg","0","","prediction_trial","0","","true","","2","false","false","false","false","false","false","[0,2]","101","101","1","","","","","","",""
"","","","","","image-keyboard-response","41","210520","0.0-16.0","5f121091e95fdc03b5e897d0","665500ab8938657b03fbdba8","6657923503892b97df880ae4","701","stimuli/21011010.jpg"," ","","feedback_trial","0","","","","","","","","","","","","","","","","","","","","",""
"","","","","","image-keyboard-response","42","211070","0.0-17.0","5f121091e95fdc03b5e897d0","665500ab8938657b03fbdba8","6657923503892b97df880ae4","547","stimuli/2011100.jpg","2","","prediction_trial","1","","false","","2","true","true","false","false","false","false","[1,2]","011","100","0","","","","","","",""
"","","","","","image-keyboard-response","43","211734","0.0-18.0","5f121091e95fdc03b5e897d0","665500ab8938657b03fbdba8","6657923503892b97df880ae4","660","stimuli/20111001.jpg"," ","","feedback_trial","1","","","","","","","","","","","","","","","","","","","","",""
"","","","","","image-keyboard-response","44","212379","0.0-19.0","5f121091e95fdc03b5e897d0","665500ab8938657b03fbdba8","6657923503892b97df880ae4","642","stimuli/0011011.jpg","0","","prediction_trial","0","","true","","0","true","true","true","true","true","true","[0]","011","011","1","","","","","","",""
"","","","","","image-keyboard-response","45","212774","0.0-20.0","5f121091e95fdc03b5e897d0","665500ab8938657b03fbdba8","6657923503892b97df880ae4","393","stimuli/00110110.jpg"," ","","feedback_trial","0","","","","","","","","","","","","","","","","","","","","",""
"","","","","","image-keyboard-response","46","214313","0.0-21.0","5f121091e95fdc03b5e897d0","665500ab8938657b03fbdba8","6657923503892b97df880ae4","1534","stimuli/0110011.jpg","1","","prediction_trial","1","","true","","0","true","true","false","false","false","false","[1,0]","110","011","1","","","","","","",""
"","","","","","image-keyboard-response","47","214940","0.0-22.0","5f121091e95fdc03b5e897d0","665500ab8938657b03fbdba8","6657923503892b97df880ae4","624","stimuli/01100111.jpg"," ","","feedback_trial","1","","","","","","","","","","","","","","","","","","","","",""
"","","","","","image-keyboard-response","48","215897","0.0-23.0","5f121091e95fdc03b5e897d0","665500ab8938657b03fbdba8","6657923503892b97df880ae4","954","stimuli/0100100.jpg","0","","prediction_trial","0","","true","","0","false","true","false","true","false","true","[0]","100","100","1","","","","","","",""
"","","","","","image-keyboard-response","49","216850","0.0-24.0","5f121091e95fdc03b5e897d0","665500ab8938657b03fbdba8","6657923503892b97df880ae4","951","stimuli/01001000.jpg"," ","","feedback_trial","0","","","","","","","","","","","","","","","","","","","","",""
"","","","","","image-keyboard-response","50","218008","0.0-25.0","5f121091e95fdc03b5e897d0","665500ab8938657b03fbdba8","6657923503892b97df880ae4","1156","stimuli/0110101.jpg","0","","prediction_trial","1","","false","","0","false","false","false","false","false","false","[0,1]","110","101","0","","","","","","",""
"","","","","","image-keyboard-response","51","218785","0.0-26.0","5f121091e95fdc03b5e897d0","665500ab8938657b03fbdba8","6657923503892b97df880ae4","774","stimuli/01101011.jpg"," ","","feedback_trial","0","","","","","","","","","","","","","","","","","","","","",""
"","","","","","image-keyboard-response","52","221221","0.0-27.0","5f121091e95fdc03b5e897d0","665500ab8938657b03fbdba8","6657923503892b97df880ae4","2433","stimuli/2110011.jpg","1","","prediction_trial","2","","false","","2","false","false","true","true","false","false","[2]","110","011","0","","","","","","",""
"","","","","","image-keyboard-response","53","221882","0.0-28.0","5f121091e95fdc03b5e897d0","665500ab8938657b03fbdba8","6657923503892b97df880ae4","658","stimuli/21100112.jpg"," ","","feedback_trial","2","","","","","","","","","","","","","","","","","","","","",""
"","","","","","image-keyboard-response","54","224374","0.0-29.0","5f121091e95fdc03b5e897d0","665500ab8938657b03fbdba8","6657923503892b97df880ae4","2488","stimuli/0001111.jpg","1","","prediction_trial","0","","false","","0","false","false","true","true","false","false","[0]","001","111","0","","","","","","",""
"","","","","","image-keyboard-response","55","224941","0.0-30.0","5f121091e95fdc03b5e897d0","665500ab8938657b03fbdba8","6657923503892b97df880ae4","564","stimuli/00011110.jpg"," ","","feedback_trial","0","","","","","","","","","","","","","","","","","","","","",""
"","","","","","image-keyboard-response","56","226082","0.0-31.0","5f121091e95fdc03b5e897d0","665500ab8938657b03fbdba8","6657923503892b97df880ae4","1139","stimuli/2000011.jpg","2","","prediction_trial","2","","true","","2","false","false","true","true","false","false","[2]","000","011","1","","","","","","",""
"","","","","","image-keyboard-response","57","226643","0.0-32.0","5f121091e95fdc03b5e897d0","665500ab8938657b03fbdba8","6657923503892b97df880ae4","558","stimuli/20000112.jpg"," ","","feedback_trial","2","","","","","","","","","","","","","","","","","","","","",""
"","","","","","image-keyboard-response","58","227557","0.0-33.0","5f121091e95fdc03b5e897d0","665500ab8938657b03fbdba8","6657923503892b97df880ae4","911","stimuli/1010010.jpg","1","","prediction_trial","1","","true","","1","false","true","false","true","false","true","[1]","010","010","1","","","","","","",""
"","","","","","image-keyboard-response","59","227977","0.0-34.0","5f121091e95fdc03b5e897d0","665500ab8938657b03fbdba8","6657923503892b97df880ae4","417","stimuli/10100101.jpg"," ","","feedback_trial","1","","","","","","","","","","","","","","","","","","","","",""
"","","","","","image-keyboard-response","60","229060","0.0-35.0","5f121091e95fdc03b5e897d0","665500ab8938657b03fbdba8","6657923503892b97df880ae4","1080","stimuli/2000111.jpg","0","","prediction_trial","2","","false","","2","false","false","true","true","false","false","[2]","000","111","0","","","","","","",""
"","","","","","image-keyboard-response","61","229601","0.0-36.0","5f121091e95fdc03b5e897d0","665500ab8938657b03fbdba8","6657923503892b97df880ae4","538","stimuli/20001112.jpg"," ","","feedback_trial","2","","","","","","","","","","","","","","","","","","","","",""
"","","","","","image-keyboard-response","62","231251","0.0-37.0","5f121091e95fdc03b5e897d0","665500ab8938657b03fbdba8","6657923503892b97df880ae4","1625","stimuli/0110100.jpg","0","","prediction_trial","1","","false","","0","false","true","false","false","false","false","[1,0]","110","100","0","","","","","","",""
"","","","","","image-keyboard-response","63","231664","0.0-38.0","5f121091e95fdc03b5e897d0","665500ab8938657b03fbdba8","6657923503892b97df880ae4","410","stimuli/01101001.jpg"," ","","feedback_trial","1","","","","","","","","","","","","","","","","","","","","",""
"","","","","","image-keyboard-response","64","232346","0.0-39.0","5f121091e95fdc03b5e897d0","665500ab8938657b03fbdba8","6657923503892b97df880ae4","678","stimuli/2000000.jpg","2","","prediction_trial","2","","true","","2","true","true","true","true","true","true","[2]","000","000","1","","","","","","",""
"","","","","","image-keyboard-response","65","232677","0.0-40.0","5f121091e95fdc03b5e897d0","665500ab8938657b03fbdba8","6657923503892b97df880ae4","328","stimuli/20000002.jpg"," ","","feedback_trial","2","","","","","","","","","","","","","","","","","","","","",""
"","","","","","image-keyboard-response","66","233869","0.0-41.0","5f121091e95fdc03b5e897d0","665500ab8938657b03fbdba8","6657923503892b97df880ae4","1189","stimuli/1011110.jpg","0","","prediction_trial","1","","false","","1","false","false","false","false","false","false","[2,1]","011","110","0","","","","","","",""
"","","","","","image-keyboard-response","67","234300","0.0-42.0","5f121091e95fdc03b5e897d0","665500ab8938657b03fbdba8","6657923503892b97df880ae4","427","stimuli/10111101.jpg"," ","","feedback_trial","2","","","","","","","","","","","","","","","","","","","","",""
"","","","","","image-keyboard-response","68","235031","0.0-43.0","5f121091e95fdc03b5e897d0","665500ab8938657b03fbdba8","6657923503892b97df880ae4","728","stimuli/0010000.jpg","0","","prediction_trial","0","","true","","0","true","true","true","true","true","true","[0]","010","000","1","","","","","","",""
"","","","","","image-keyboard-response","69","235327","0.0-44.0","5f121091e95fdc03b5e897d0","665500ab8938657b03fbdba8","6657923503892b97df880ae4","293","stimuli/00100000.jpg"," ","","feedback_trial","0","","","","","","","","","","","","","","","","","","","","",""
"","","","","","image-keyboard-response","70","236346","0.0-45.0","5f121091e95fdc03b5e897d0","665500ab8938657b03fbdba8","6657923503892b97df880ae4","1017","stimuli/1110101.jpg","1","","prediction_trial","1","","true","","1","true","true","false","false","false","false","[0,1]","110","101","1","","","","","","",""
"","","","","","image-keyboard-response","71","236693","0.0-46.0","5f121091e95fdc03b5e897d0","665500ab8938657b03fbdba8","6657923503892b97df880ae4","343","stimuli/11101011.jpg"," ","","feedback_trial","0","","","","","","","","","","","","","","","","","","","","",""
"","","","","","image-keyboard-response","72","237529","0.0-47.0","5f121091e95fdc03b5e897d0","665500ab8938657b03fbdba8","6657923503892b97df880ae4","833","stimuli/2000010.jpg","2","","prediction_trial","2","","true","","2","true","true","true","true","true","true","[2]","000","010","1","","","","","","",""
"","","","","","image-keyboard-response","73","237889","0.0-48.0","5f121091e95fdc03b5e897d0","665500ab8938657b03fbdba8","6657923503892b97df880ae4","328","stimuli/20000102.jpg"," ","","feedback_trial","2","","","","","","","","","","","","","","","","","","","","",""
"","","","","","image-keyboard-response","74","238618","0.0-49.0","5f121091e95fdc03b5e897d0","665500ab8938657b03fbdba8","6657923503892b97df880ae4","726","stimuli/2111110.jpg","2","","prediction_trial","1","","false","","2","true","true","false","false","false","false","[2,1,0]","111","110","0","","","","","","",""
"","","","","","image-keyboard-response","75","239135","0.0-50.0","5f121091e95fdc03b5e897d0","665500ab8938657b03fbdba8","6657923503892b97df880ae4","513","stimuli/21111101.jpg"," ","","feedback_trial","2","","","","","","","","","","","","","","","","","","","","",""
"","","","","","image-keyboard-response","76","239706","0.0-51.0","5f121091e95fdc03b5e897d0","665500ab8938657b03fbdba8","6657923503892b97df880ae4","569","stimuli/1111101.jpg","1","","prediction_trial","0","","false","","1","true","true","false","false","false","false","[1,2,0]","111","101","0","","","","","","",""
"","","","","","image-keyboard-response","77","240102","0.0-52.0","5f121091e95fdc03b5e897d0","665500ab8938657b03fbdba8","6657923503892b97df880ae4","394","stimuli/11111010.jpg"," ","","feedback_trial","1","","","","","","","","","","","","","","","","","","","","",""
"","","","","","image-keyboard-response","78","240680","0.0-53.0","5f121091e95fdc03b5e897d0","665500ab8938657b03fbdba8","6657923503892b97df880ae4","575","stimuli/2110010.jpg","2","","prediction_trial","2","","true","","2","true","true","true","true","true","true","[2]","110","010","1","","","","","","",""
"","","","","","image-keyboard-response","79","241088","0.0-54.0","5f121091e95fdc03b5e897d0","665500ab8938657b03fbdba8","6657923503892b97df880ae4","406","stimuli/21100102.jpg"," ","","feedback_trial","2","","","","","","","","","","","","","","","","","","","","",""
"","","","","","image-keyboard-response","80","241960","0.0-55.0","5f121091e95fdc03b5e897d0","665500ab8938657b03fbdba8","6657923503892b97df880ae4","870","stimuli/2101111.jpg","1","","prediction_trial","0","","false","","2","false","false","false","false","false","false","[0,2]","101","111","0","","","","","","",""
"","","","","","image-keyboard-response","81","242349","0.0-56.0","5f121091e95fdc03b5e897d0","665500ab8938657b03fbdba8","6657923503892b97df880ae4","387","stimuli/21011110.jpg"," ","","feedback_trial","0","","","","","","","","","","","","","","","","","","","","",""
"","","","","","image-keyboard-response","82","244032","0.0-57.0","5f121091e95fdc03b5e897d0","665500ab8938657b03fbdba8","6657923503892b97df880ae4","1681","stimuli/1100010.jpg","1","","prediction_trial","1","","true","","1","false","true","true","true","false","true","[1]","100","010","1","","","","","","",""
"","","","","","image-keyboard-response","83","244331","0.0-58.0","5f121091e95fdc03b5e897d0","665500ab8938657b03fbdba8","6657923503892b97df880ae4","297","stimuli/11000101.jpg"," ","","feedback_trial","1","","","","","","","","","","","","","","","","","","","","",""
"","","","","","image-keyboard-response","84","245655","0.0-59.0","5f121091e95fdc03b5e897d0","665500ab8938657b03fbdba8","6657923503892b97df880ae4","1295","stimuli/1100110.jpg","0","","prediction_trial","1","","false","","1","false","false","true","true","false","false","[1]","100","110","0","","","","","","",""
"","","","","","image-keyboard-response","85","245927","0.0-60.0","5f121091e95fdc03b5e897d0","665500ab8938657b03fbdba8","6657923503892b97df880ae4","268","stimuli/11001101.jpg"," ","","feedback_trial","1","","","","","","","","","","","","","","","","","","","","",""
"","","","","","image-keyboard-response","86","246688","0.0-61.0","5f121091e95fdc03b5e897d0","665500ab8938657b03fbdba8","6657923503892b97df880ae4","757","stimuli/2111001.jpg","2","","prediction_trial","0","","false","","2","false","true","false","false","false","false","[2,1,0]","111","001","0","","","","","","",""
"","","","","","image-keyboard-response","87","247026","0.0-62.0","5f121091e95fdc03b5e897d0","665500ab8938657b03fbdba8","6657923503892b97df880ae4","335","stimuli/21110010.jpg"," ","","feedback_trial","2","","","","","","","","","","","","","","","","","","","","",""
"","","","","","image-keyboard-response","88","247675","0.0-63.0","5f121091e95fdc03b5e897d0","665500ab8938657b03fbdba8","6657923503892b97df880ae4","645","stimuli/2110110.jpg","2","","prediction_trial","2","","true","","2","true","true","true","true","true","true","[2]","110","110","1","","","","","","",""
"","","","","","image-keyboard-response","89","247997","0.0-64.0","5f121091e95fdc03b5e897d0","665500ab8938657b03fbdba8","6657923503892b97df880ae4","319","stimuli/21101102.jpg"," ","","feedback_trial","2","","","","","","","","","","","","","","","","","","","","",""
"","","","","","image-keyboard-response","90","248688","0.0-65.0","5f121091e95fdc03b5e897d0","665500ab8938657b03fbdba8","6657923503892b97df880ae4","686","stimuli/2001010.jpg","2","","prediction_trial","2","","true","","2","true","true","false","true","false","true","[2]","001","010","1","","","","","","",""
"","","","","","image-keyboard-response","91","249014","0.0-66.0","5f121091e95fdc03b5e897d0","665500ab8938657b03fbdba8","6657923503892b97df880ae4","324","stimuli/20010102.jpg"," ","","feedback_trial","2","","","","","","","","","","","","","","","","","","","","",""
"","","","","","image-keyboard-response","92","249660","0.0-67.0","5f121091e95fdc03b5e897d0","665500ab8938657b03fbdba8","6657923503892b97df880ae4","642","stimuli/1110000.jpg","1","","prediction_trial","0","","false","","1","true","true","false","false","false","false","[0,1]","110","000","0","","","","","","",""
"","","","","","image-keyboard-response","93","249988","0.0-68.0","5f121091e95fdc03b5e897d0","665500ab8938657b03fbdba8","6657923503892b97df880ae4","326","stimuli/11100000.jpg"," ","","feedback_trial","0","","","","","","","","","","","","","","","","","","","","",""
"","","","","","image-keyboard-response","94","250586","0.0-69.0","5f121091e95fdc03b5e897d0","665500ab8938657b03fbdba8","6657923503892b97df880ae4","594","stimuli/2001111.jpg","2","","prediction_trial","2","","true","","2","false","false","false","true","false","false","[2]","001","111","1","","","","","","",""
"","","","","","image-keyboard-response","95","250935","0.0-70.0","5f121091e95fdc03b5e897d0","665500ab8938657b03fbdba8","6657923503892b97df880ae4","324","stimuli/20011112.jpg"," ","","feedback_trial","2","","","","","","","","","","","","","","","","","","","","",""
"","","","","","image-keyboard-response","96","251899","0.0-71.0","5f121091e95fdc03b5e897d0","665500ab8938657b03fbdba8","6657923503892b97df880ae4","960","stimuli/0101111.jpg","0","","prediction_trial","2","","false","","0","false","false","false","false","false","false","[0,2]","101","111","0","","","","","","",""
"","","","","","image-keyboard-response","97","252299","0.0-72.0","5f121091e95fdc03b5e897d0","665500ab8938657b03fbdba8","6657923503892b97df880ae4","398","stimuli/01011112.jpg"," ","","feedback_trial","0","","","","","","","","","","","","","","","","","","","","",""
"","","","","","image-keyboard-response","98","252959","0.0-73.0","5f121091e95fdc03b5e897d0","665500ab8938657b03fbdba8","6657923503892b97df880ae4","656","stimuli/0100011.jpg","0","","prediction_trial","0","","true","","0","true","true","false","true","false","true","[0]","100","011","1","","","","","","",""
"","","","","","image-keyboard-response","99","253190","0.0-74.0","5f121091e95fdc03b5e897d0","665500ab8938657b03fbdba8","6657923503892b97df880ae4","229","stimuli/01000110.jpg"," ","","feedback_trial","0","","","","","","","","","","","","","","","","","","","","",""
"","","","","","image-keyboard-response","100","253919","0.0-75.0","5f121091e95fdc03b5e897d0","665500ab8938657b03fbdba8","6657923503892b97df880ae4","726","stimuli/1000110.jpg","1","","prediction_trial","1","","true","","1","false","false","true","true","false","false","[1]","000","110","1","","","","","","",""
"","","","","","image-keyboard-response","101","254247","0.0-76.0","5f121091e95fdc03b5e897d0","665500ab8938657b03fbdba8","6657923503892b97df880ae4","325","stimuli/10001101.jpg"," ","","feedback_trial","1","","","","","","","","","","","","","","","","","","","","",""
"","","","","","image-keyboard-response","102","255103","0.0-77.0","5f121091e95fdc03b5e897d0","665500ab8938657b03fbdba8","6657923503892b97df880ae4","853","stimuli/1010110.jpg","0","","prediction_trial","1","","false","","1","false","false","false","true","false","false","[1]","010","110","0","","","","","","",""
"","","","","","image-keyboard-response","103","255618","0.0-78.0","5f121091e95fdc03b5e897d0","665500ab8938657b03fbdba8","6657923503892b97df880ae4","511","stimuli/10101101.jpg"," ","","feedback_trial","1","","","","","","","","","","","","","","","","","","","","",""
"","","","","","image-keyboard-response","104","256467","0.0-79.0","5f121091e95fdc03b5e897d0","665500ab8938657b03fbdba8","6657923503892b97df880ae4","845","stimuli/0111100.jpg","0","","prediction_trial","2","","false","","0","false","true","false","false","false","false","[0,2,1]","111","100","0","","","","","","",""
"","","","","","image-keyboard-response","105","256931","0.0-80.0","5f121091e95fdc03b5e897d0","665500ab8938657b03fbdba8","6657923503892b97df880ae4","462","stimuli/01111002.jpg"," ","","feedback_trial","0","","","","","","","","","","","","","","","","","","","","",""
"","","","","","image-keyboard-response","106","257617","0.0-81.0","5f121091e95fdc03b5e897d0","665500ab8938657b03fbdba8","6657923503892b97df880ae4","650","stimuli/0101010.jpg","0","","prediction_trial","2","","false","","0","true","true","false","false","false","false","[0,2]","101","010","0","","","","","","",""
"","","","","","image-keyboard-response","107","258055","0.0-82.0","5f121091e95fdc03b5e897d0","665500ab8938657b03fbdba8","6657923503892b97df880ae4","436","stimuli/01010102.jpg"," ","","feedback_trial","0","","","","","","","","","","","","","","","","","","","","",""
"","","","","","image-keyboard-response","108","258963","0.0-83.0","5f121091e95fdc03b5e897d0","665500ab8938657b03fbdba8","6657923503892b97df880ae4","905","stimuli/0100111.jpg","1","","prediction_trial","0","","false","","0","false","false","false","true","false","false","[0]","100","111","0","","","","","","",""
"","","","","","image-keyboard-response","109","259409","0.0-84.0","5f121091e95fdc03b5e897d0","665500ab8938657b03fbdba8","6657923503892b97df880ae4","443","stimuli/01001110.jpg"," ","","feedback_trial","0","","","","","","","","","","","","","","","","","","","","",""
"","","","","","image-keyboard-response","110","260072","0.0-85.0","5f121091e95fdc03b5e897d0","665500ab8938657b03fbdba8","6657923503892b97df880ae4","659","stimuli/1101011.jpg","1","","prediction_trial","1","","true","","1","false","false","true","true","false","false","[1]","101","011","1","","","","","","",""
"","","","","","image-keyboard-response","111","260384","0.0-86.0","5f121091e95fdc03b5e897d0","665500ab8938657b03fbdba8","6657923503892b97df880ae4","309","stimuli/11010111.jpg"," ","","feedback_trial","1","","","","","","","","","","","","","","","","","","","","",""
"","","","","","image-keyboard-response","112","261046","0.0-87.0","5f121091e95fdc03b5e897d0","665500ab8938657b03fbdba8","6657923503892b97df880ae4","658","stimuli/2101011.jpg","1","","prediction_trial","2","","false","","2","false","false","false","false","false","false","[0,2]","101","011","0","","","","","","",""
"","","","","","image-keyboard-response","113","261511","0.0-88.0","5f121091e95fdc03b5e897d0","665500ab8938657b03fbdba8","6657923503892b97df880ae4","463","stimuli/21010112.jpg"," ","","feedback_trial","0","","","","","","","","","","","","","","","","","","","","",""
"","","","","","image-keyboard-response","114","262824","0.0-89.0","5f121091e95fdc03b5e897d0","665500ab8938657b03fbdba8","6657923503892b97df880ae4","1311","stimuli/0010110.jpg","0","","prediction_trial","0","","true","","0","false","false","true","true","false","false","[0]","010","110","1","","","","","","",""
"","","","","","image-keyboard-response","115","263156","0.0-90.0","5f121091e95fdc03b5e897d0","665500ab8938657b03fbdba8","6657923503892b97df880ae4","329","stimuli/00101100.jpg"," ","","feedback_trial","0","","","","","","","","","","","","","","","","","","","","",""
"","","","","","image-keyboard-response","116","263775","0.0-91.0","5f121091e95fdc03b5e897d0","665500ab8938657b03fbdba8","6657923503892b97df880ae4","617","stimuli/2011111.jpg","0","","prediction_trial","1","","false","","2","false","false","false","false","false","false","[2,1]","011","111","0","","","","","","",""
"","","","","","image-keyboard-response","117","264180","0.0-92.0","5f121091e95fdc03b5e897d0","665500ab8938657b03fbdba8","6657923503892b97df880ae4","377","stimuli/20111111.jpg"," ","","feedback_trial","2","","","","","","","","","","","","","","","","","","","","",""
"","","","","","image-keyboard-response","118","264906","0.0-93.0","5f121091e95fdc03b5e897d0","665500ab8938657b03fbdba8","6657923503892b97df880ae4","712","stimuli/0111000.jpg","0","","prediction_trial","0","","true","","0","true","true","false","false","false","false","[1,2,0]","111","000","1","","","","","","",""
"","","","","","image-keyboard-response","119","265202","0.0-94.0","5f121091e95fdc03b5e897d0","665500ab8938657b03fbdba8","6657923503892b97df880ae4","293","stimuli/01110000.jpg"," ","","feedback_trial","1","","","","","","","","","","","","","","","","","","","","",""
"","","","","","image-keyboard-response","120","266030","0.0-95.0","5f121091e95fdc03b5e897d0","665500ab8938657b03fbdba8","6657923503892b97df880ae4","826","stimuli/1111111.jpg","2","","prediction_trial","2","","true","","1","false","false","false","false","false","false","[2,1,0]","111","111","1","","","","","","",""
"","","","","","image-keyboard-response","121","266418","0.0-96.0","5f121091e95fdc03b5e897d0","665500ab8938657b03fbdba8","6657923503892b97df880ae4","383","stimuli/11111112.jpg"," ","","feedback_trial","2","","","","","","","","","","","","","","","","","","","","",""
"","","","","","image-keyboard-response","122","267623","0.0-97.0","5f121091e95fdc03b5e897d0","665500ab8938657b03fbdba8","6657923503892b97df880ae4","1202","stimuli/1101110.jpg","1","","prediction_trial","1","","true","","1","false","false","true","true","false","false","[1]","101","110","1","","","","","","",""
"","","","","","image-keyboard-response","123","267957","0.0-98.0","5f121091e95fdc03b5e897d0","665500ab8938657b03fbdba8","6657923503892b97df880ae4","331","stimuli/11011101.jpg"," ","","feedback_trial","1","","","","","","","","","","","","","","","","","","","","",""
"","","","","","image-keyboard-response","124","268568","0.0-99.0","5f121091e95fdc03b5e897d0","665500ab8938657b03fbdba8","6657923503892b97df880ae4","608","stimuli/0101100.jpg","0","","prediction_trial","0","","true","","0","false","true","false","false","false","false","[0,2]","101","100","1","","","","","","",""
"","","","","","image-keyboard-response","125","268876","0.0-100.0","5f121091e95fdc03b5e897d0","665500ab8938657b03fbdba8","6657923503892b97df880ae4","304","stimuli/01011000.jpg"," ","","feedback_trial","0","","","","","","","","","","","","","","","","","","","","",""
"","","","","","image-keyboard-response","126","269794","0.0-101.0","5f121091e95fdc03b5e897d0","665500ab8938657b03fbdba8","6657923503892b97df880ae4","914","stimuli/1100011.jpg","1","","prediction_trial","1","","true","","1","false","false","true","true","false","false","[1]","100","011","1","","","","","","",""
"","","","","","image-keyboard-response","127","270089","0.0-102.0","5f121091e95fdc03b5e897d0","665500ab8938657b03fbdba8","6657923503892b97df880ae4","290","stimuli/11000111.jpg"," ","","feedback_trial","1","","","","","","","","","","","","","","","","","","","","",""
"","","","","","image-keyboard-response","128","270716","0.0-103.0","5f121091e95fdc03b5e897d0","665500ab8938657b03fbdba8","6657923503892b97df880ae4","599","stimuli/0000111.jpg","1","","prediction_trial","0","","false","","0","false","false","true","true","false","false","[0]","000","111","0","","","","","","",""
"","","","","","image-keyboard-response","129","271130","0.0-104.0","5f121091e95fdc03b5e897d0","665500ab8938657b03fbdba8","6657923503892b97df880ae4","411","stimuli/00001110.jpg"," ","","feedback_trial","0","","","","","","","","","","","","","","","","","","","","",""
"","","","","","image-keyboard-response","130","271695","0.0-105.0","5f121091e95fdc03b5e897d0","665500ab8938657b03fbdba8","6657923503892b97df880ae4","563","stimuli/2011101.jpg","2","","prediction_trial","1","","false","","2","false","false","false","false","false","false","[1,2]","011","101","0","","","","","","",""
"","","","","","image-keyboard-response","131","272128","0.0-106.0","5f121091e95fdc03b5e897d0","665500ab8938657b03fbdba8","6657923503892b97df880ae4","428","stimuli/20111011.jpg"," ","","feedback_trial","1","","","","","","","","","","","","","","","","","","","","",""
"","","","","","image-keyboard-response","132","272816","0.0-107.0","5f121091e95fdc03b5e897d0","665500ab8938657b03fbdba8","6657923503892b97df880ae4","686","stimuli/2011000.jpg","2","","prediction_trial","2","","true","","2","true","true","false","false","false","false","[2,1]","011","000","1","","","","","","",""
"","","","","","image-keyboard-response","133","273166","0.0-108.0","5f121091e95fdc03b5e897d0","665500ab8938657b03fbdba8","6657923503892b97df880ae4","346","stimuli/20110002.jpg"," ","","feedback_trial","2","","","","","","","","","","","","","","","","","","","","",""
"","","","","","image-keyboard-response","134","273941","0.0-109.0","5f121091e95fdc03b5e897d0","665500ab8938657b03fbdba8","6657923503892b97df880ae4","772","stimuli/1111110.jpg","0","","prediction_trial","0","","true","","1","false","false","false","false","false","false","[0,2,1]","111","110","1","","","","","","",""
"","","","","","image-keyboard-response","135","274315","0.0-110.0","5f121091e95fdc03b5e897d0","665500ab8938657b03fbdba8","6657923503892b97df880ae4","371","stimuli/11111100.jpg"," ","","feedback_trial","0","","","","","","","","","","","","","","","","","","","","",""
"","","","","","image-keyboard-response","136","274883","0.0-111.0","5f121091e95fdc03b5e897d0","665500ab8938657b03fbdba8","6657923503892b97df880ae4","565","stimuli/1000000.jpg","1","","prediction_trial","1","","true","","1","true","true","true","true","true","true","[1]","000","000","1","","","","","","",""
"","","","","","image-keyboard-response","137","275235","0.0-112.0","5f121091e95fdc03b5e897d0","665500ab8938657b03fbdba8","6657923503892b97df880ae4","345","stimuli/10000001.jpg"," ","","feedback_trial","1","","","","","","","","","","","","","","","","","","","","",""
"","","","","","image-keyboard-response","138","275939","0.0-113.0","5f121091e95fdc03b5e897d0","665500ab8938657b03fbdba8","6657923503892b97df880ae4","702","stimuli/1000010.jpg","1","","prediction_trial","1","","true","","1","false","true","true","true","false","true","[1]","000","010","1","","","","","","",""
"","","","","","image-keyboard-response","139","276298","0.0-114.0","5f121091e95fdc03b5e897d0","665500ab8938657b03fbdba8","6657923503892b97df880ae4","353","stimuli/10000101.jpg"," ","","feedback_trial","1","","","","","","","","","","","","","","","","","","","","",""
"","","","","","image-keyboard-response","140","277324","0.0-115.0","5f121091e95fdc03b5e897d0","665500ab8938657b03fbdba8","6657923503892b97df880ae4","1022","stimuli/1010101.jpg","1","","prediction_trial","1","","true","","1","true","true","false","true","false","true","[1]","010","101","1","","","","","","",""
"","","","","","image-keyboard-response","141","277743","0.0-116.0","5f121091e95fdc03b5e897d0","665500ab8938657b03fbdba8","6657923503892b97df880ae4","417","stimuli/10101011.jpg"," ","","feedback_trial","1","","","","","","","","","","","","","","","","","","","","",""
"","","","","","image-keyboard-response","142","278324","0.0-117.0","5f121091e95fdc03b5e897d0","665500ab8938657b03fbdba8","6657923503892b97df880ae4","577","stimuli/1110001.jpg","1","","prediction_trial","0","","false","","1","true","true","false","false","false","false","[1,0]","110","001","0","","","","","","",""
"","","","","","image-keyboard-response","143","278792","0.0-118.0","5f121091e95fdc03b5e897d0","665500ab8938657b03fbdba8","6657923503892b97df880ae4","465","stimuli/11100010.jpg"," ","","feedback_trial","1","","","","","","","","","","","","","","","","","","","","",""
"","","","","","image-keyboard-response","144","279302","0.0-119.0","5f121091e95fdc03b5e897d0","665500ab8938657b03fbdba8","6657923503892b97df880ae4","506","stimuli/1100101.jpg","1","","prediction_trial","1","","true","","1","true","true","true","true","true","true","[1]","100","101","1","","","","","","",""
"","","","","","image-keyboard-response","145","279714","0.0-120.0","5f121091e95fdc03b5e897d0","665500ab8938657b03fbdba8","6657923503892b97df880ae4","410","stimuli/11001011.jpg"," ","","feedback_trial","1","","","","","","","","","","","","","","","","","","","","",""
"","","","","","image-keyboard-response","146","280206","0.0-121.0","5f121091e95fdc03b5e897d0","665500ab8938657b03fbdba8","6657923503892b97df880ae4","488","stimuli/0100010.jpg","0","","prediction_trial","0","","true","","0","true","true","false","true","false","true","[0]","100","010","1","","","","","","",""
"","","","","","image-keyboard-response","147","280514","0.0-122.0","5f121091e95fdc03b5e897d0","665500ab8938657b03fbdba8","6657923503892b97df880ae4","305","stimuli/01000100.jpg"," ","","feedback_trial","0","","","","","","","","","","","","","","","","","","","","",""
"","","","","","image-keyboard-response","148","281241","0.0-123.0","5f121091e95fdc03b5e897d0","665500ab8938657b03fbdba8","6657923503892b97df880ae4","723","stimuli/1000111.jpg","1","","prediction_trial","1","","true","","1","false","false","true","true","false","false","[1]","000","111","1","","","","","","",""
"","","","","","image-keyboard-response","149","281632","0.0-124.0","5f121091e95fdc03b5e897d0","665500ab8938657b03fbdba8","6657923503892b97df880ae4","388","stimuli/10001111.jpg"," ","","feedback_trial","1","","","","","","","","","","","","","","","","","","","","",""
"","","","","","image-keyboard-response","150","282577","0.0-125.0","5f121091e95fdc03b5e897d0","665500ab8938657b03fbdba8","6657923503892b97df880ae4","926","stimuli/1110111.jpg","2","","prediction_trial","0","","false","","1","false","false","false","false","false","false","[1,0]","110","111","0","","","","","","",""
"","","","","","image-keyboard-response","151","282951","0.0-126.0","5f121091e95fdc03b5e897d0","665500ab8938657b03fbdba8","6657923503892b97df880ae4","370","stimuli/11101110.jpg"," ","","feedback_trial","1","","","","","","","","","","","","","","","","","","","","",""
"","","","","","image-keyboard-response","152","283625","0.0-127.0","5f121091e95fdc03b5e897d0","665500ab8938657b03fbdba8","6657923503892b97df880ae4","672","stimuli/1001100.jpg","1","","prediction_trial","1","","true","","1","true","true","true","true","true","true","[1]","001","100","1","","","","","","",""
"","","","","","image-keyboard-response","153","283953","0.0-128.0","5f121091e95fdc03b5e897d0","665500ab8938657b03fbdba8","6657923503892b97df880ae4","325","stimuli/10011001.jpg"," ","","feedback_trial","1","","","","","","","","","","","","","","","","","","","","",""
"","","","","","image-keyboard-response","154","284648","0.0-129.0","5f121091e95fdc03b5e897d0","665500ab8938657b03fbdba8","6657923503892b97df880ae4","692","stimuli/2000001.jpg","2","","prediction_trial","2","","true","","2","false","true","true","true","false","true","[2]","000","001","1","","","","","","",""
"","","","","","image-keyboard-response","155","285106","0.0-130.0","5f121091e95fdc03b5e897d0","665500ab8938657b03fbdba8","6657923503892b97df880ae4","455","stimuli/20000012.jpg"," ","","feedback_trial","2","","","","","","","","","","","","","","","","","","","","",""
"","","","","","image-keyboard-response","156","285786","0.0-131.0","5f121091e95fdc03b5e897d0","665500ab8938657b03fbdba8","6657923503892b97df880ae4","677","stimuli/0100110.jpg","0","","prediction_trial","0","","true","","0","false","false","false","true","false","false","[0]","100","110","1","","","","","","",""
"","","","","","image-keyboard-response","157","286115","0.0-132.0","5f121091e95fdc03b5e897d0","665500ab8938657b03fbdba8","6657923503892b97df880ae4","327","stimuli/01001100.jpg"," ","","feedback_trial","0","","","","","","","","","","","","","","","","","","","","",""
"","","","","","image-keyboard-response","158","286722","0.0-133.0","5f121091e95fdc03b5e897d0","665500ab8938657b03fbdba8","6657923503892b97df880ae4","605","stimuli/1011111.jpg","1","","prediction_trial","2","","false","","1","false","false","false","false","false","false","[2,1]","011","111","0","","","","","","",""
"","","","","","image-keyboard-response","159","287312","0.0-134.0","5f121091e95fdc03b5e897d0","665500ab8938657b03fbdba8","6657923503892b97df880ae4","587","stimuli/10111112.jpg"," ","","feedback_trial","2","","","","","","","","","","","","","","","","","","","","",""
"","","","","","image-keyboard-response","160","287974","0.0-135.0","5f121091e95fdc03b5e897d0","665500ab8938657b03fbdba8","6657923503892b97df880ae4","659","stimuli/1010001.jpg","1","","prediction_trial","1","","true","","1","true","true","false","true","false","true","[1]","010","001","1","","","","","","",""
"","","","","","image-keyboard-response","161","288357","0.0-136.0","5f121091e95fdc03b5e897d0","665500ab8938657b03fbdba8","6657923503892b97df880ae4","379","stimuli/10100011.jpg"," ","","feedback_trial","1","","","","","","","","","","","","","","","","","","","","",""
"","","","","","image-keyboard-response","162","289029","0.0-137.0","5f121091e95fdc03b5e897d0","665500ab8938657b03fbdba8","6657923503892b97df880ae4","667","stimuli/1010000.jpg","1","","prediction_trial","1","","true","","1","true","true","false","true","false","true","[1]","010","000","1","","","","","","",""
"","","","","","image-keyboard-response","163","289386","0.0-138.0","5f121091e95fdc03b5e897d0","665500ab8938657b03fbdba8","6657923503892b97df880ae4","353","stimuli/10100001.jpg"," ","","feedback_trial","1","","","","","","","","","","","","","","","","","","","","",""
"","","","","","image-keyboard-response","164","290008","0.0-139.0","5f121091e95fdc03b5e897d0","665500ab8938657b03fbdba8","6657923503892b97df880ae4","619","stimuli/0000110.jpg","1","","prediction_trial","0","","false","","0","false","false","true","true","false","false","[0]","000","110","0","","","","","","",""
"","","","","","image-keyboard-response","165","290448","0.0-140.0","5f121091e95fdc03b5e897d0","665500ab8938657b03fbdba8","6657923503892b97df880ae4","437","stimuli/00001100.jpg"," ","","feedback_trial","0","","","","","","","","","","","","","","","","","","","","",""
"","","","","","image-keyboard-response","166","291067","0.0-141.0","5f121091e95fdc03b5e897d0","665500ab8938657b03fbdba8","6657923503892b97df880ae4","615","stimuli/1011011.jpg","2","","prediction_trial","1","","false","","1","false","false","false","false","false","false","[1,2]","011","011","0","","","","","","",""
"","","","","","image-keyboard-response","167","291360","0.0-142.0","5f121091e95fdc03b5e897d0","665500ab8938657b03fbdba8","6657923503892b97df880ae4","290","stimuli/10110111.jpg"," ","","feedback_trial","1","","","","","","","","","","","","","","","","","","","","",""
"","","","","","image-keyboard-response","168","292006","0.0-143.0","5f121091e95fdc03b5e897d0","665500ab8938657b03fbdba8","6657923503892b97df880ae4","643","stimuli/1001111.jpg","1","","prediction_trial","1","","true","","1","false","false","true","true","false","false","[1]","001","111","1","","","","","","",""
"","","","","","image-keyboard-response","169","292398","0.0-144.0","5f121091e95fdc03b5e897d0","665500ab8938657b03fbdba8","6657923503892b97df880ae4","389","stimuli/10011111.jpg"," ","","feedback_trial","1","","","","","","","","","","","","","","","","","","","","",""
"","","","","","image-keyboard-response","170","293177","0.0-145.0","5f121091e95fdc03b5e897d0","665500ab8938657b03fbdba8","6657923503892b97df880ae4","776","stimuli/1010011.jpg","2","","prediction_trial","1","","false","","1","false","false","false","true","false","false","[1]","010","011","0","","","","","","",""
"","","","","","image-keyboard-response","171","293566","0.0-146.0","5f121091e95fdc03b5e897d0","665500ab8938657b03fbdba8","6657923503892b97df880ae4","384","stimuli/10100111.jpg"," ","","feedback_trial","1","","","","","","","","","","","","","","","","","","","","",""
"","","","","","image-keyboard-response","172","294786","0.0-147.0","5f121091e95fdc03b5e897d0","665500ab8938657b03fbdba8","6657923503892b97df880ae4","1216","stimuli/1101111.jpg","1","","prediction_trial","1","","true","","1","false","false","true","true","false","false","[1]","101","111","1","","","","","","",""
"","","","","","image-keyboard-response","173","295314","0.0-148.0","5f121091e95fdc03b5e897d0","665500ab8938657b03fbdba8","6657923503892b97df880ae4","525","stimuli/11011111.jpg"," ","","feedback_trial","1","","","","","","","","","","","","","","","","","","","","",""
"","","","","","image-keyboard-response","174","295920","0.0-149.0","5f121091e95fdc03b5e897d0","665500ab8938657b03fbdba8","6657923503892b97df880ae4","604","stimuli/2001110.jpg","2","","prediction_trial","2","","true","","2","true","true","false","true","false","true","[2]","001","110","1","","","","","","",""
"","","","","","image-keyboard-response","175","296339","0.0-150.0","5f121091e95fdc03b5e897d0","665500ab8938657b03fbdba8","6657923503892b97df880ae4","416","stimuli/20011102.jpg"," ","","feedback_trial","2","","","","","","","","","","","","","","","","","","","","",""
"","","","","","image-keyboard-response","176","297072","0.0-151.0","5f121091e95fdc03b5e897d0","665500ab8938657b03fbdba8","6657923503892b97df880ae4","729","stimuli/0011111.jpg","1","","prediction_trial","0","","false","","0","false","false","true","true","false","false","[0]","011","111","0","","","","","","",""
"","","","","","image-keyboard-response","177","297563","0.0-152.0","5f121091e95fdc03b5e897d0","665500ab8938657b03fbdba8","6657923503892b97df880ae4","489","stimuli/00111110.jpg"," ","","feedback_trial","0","","","","","","","","","","","","","","","","","","","","",""
"","","","","","image-keyboard-response","178","298127","0.0-153.0","5f121091e95fdc03b5e897d0","665500ab8938657b03fbdba8","6657923503892b97df880ae4","561","stimuli/1000001.jpg","1","","prediction_trial","1","","true","","1","true","true","true","true","true","true","[1]","000","001","1","","","","","","",""
"","","","","","image-keyboard-response","179","298416","0.0-154.0","5f121091e95fdc03b5e897d0","665500ab8938657b03fbdba8","6657923503892b97df880ae4","285","stimuli/10000011.jpg"," ","","feedback_trial","1","","","","","","","","","","","","","","","","","","","","",""
"","","","","","image-keyboard-response","180","299012","0.0-155.0","5f121091e95fdc03b5e897d0","665500ab8938657b03fbdba8","6657923503892b97df880ae4","592","stimuli/1100001.jpg","1","","prediction_trial","1","","true","","1","true","true","true","true","true","true","[1]","100","001","1","","","","","","",""
"","","","","","image-keyboard-response","181","299666","0.0-156.0","5f121091e95fdc03b5e897d0","665500ab8938657b03fbdba8","6657923503892b97df880ae4","651","stimuli/11000011.jpg"," ","","feedback_trial","1","","","","","","","","","","","","","","","","","","","","",""
"","","","","","image-keyboard-response","182","300617","0.0-157.0","5f121091e95fdc03b5e897d0","665500ab8938657b03fbdba8","6657923503892b97df880ae4","948","stimuli/0010101.jpg","0","","prediction_trial","0","","true","","0","false","false","true","true","false","false","[0]","010","101","1","","","","","","",""
"","","","","","image-keyboard-response","183","300926","0.0-158.0","5f121091e95fdc03b5e897d0","665500ab8938657b03fbdba8","6657923503892b97df880ae4","304","stimuli/00101010.jpg"," ","","feedback_trial","0","","","","","","","","","","","","","","","","","","","","",""
"","","","","","image-keyboard-response","184","301560","0.0-159.0","5f121091e95fdc03b5e897d0","665500ab8938657b03fbdba8","6657923503892b97df880ae4","632","stimuli/0011010.jpg","0","","prediction_trial","0","","true","","0","true","true","true","true","true","true","[0]","011","010","1","","","","","","",""
"","","","","","image-keyboard-response","185","301818","0.0-160.0","5f121091e95fdc03b5e897d0","665500ab8938657b03fbdba8","6657923503892b97df880ae4","254","stimuli/00110100.jpg"," ","","feedback_trial","0","","","","","","","","","","","","","","","","","","","","",""
"","","","","","image-keyboard-response","186","302351","0.0-161.0","5f121091e95fdc03b5e897d0","665500ab8938657b03fbdba8","6657923503892b97df880ae4","529","stimuli/0100001.jpg","0","","prediction_trial","0","","true","","0","true","true","false","true","false","true","[0]","100","001","1","","","","","","",""
"","","","","","image-keyboard-response","187","302748","0.0-162.0","5f121091e95fdc03b5e897d0","665500ab8938657b03fbdba8","6657923503892b97df880ae4","394","stimuli/01000010.jpg"," ","","feedback_trial","0","","","","","","","","","","","","","","","","","","","","",""
"","","","","","image-keyboard-response","188","303398","0.0-163.0","5f121091e95fdc03b5e897d0","665500ab8938657b03fbdba8","6657923503892b97df880ae4","647","stimuli/1100000.jpg","1","","prediction_trial","1","","true","","1","true","true","true","true","true","true","[1]","100","000","1","","","","","","",""
"","","","","","image-keyboard-response","189","303754","0.0-164.0","5f121091e95fdc03b5e897d0","665500ab8938657b03fbdba8","6657923503892b97df880ae4","353","stimuli/11000001.jpg"," ","","feedback_trial","1","","","","","","","","","","","","","","","","","","","","",""
"","","","","","image-keyboard-response","190","304242","0.0-165.0","5f121091e95fdc03b5e897d0","665500ab8938657b03fbdba8","6657923503892b97df880ae4","484","stimuli/1011100.jpg","1","","prediction_trial","2","","false","","1","true","true","false","false","false","false","[1,2]","011","100","0","","","","","","",""
"","","","","","image-keyboard-response","191","304834","0.0-166.0","5f121091e95fdc03b5e897d0","665500ab8938657b03fbdba8","6657923503892b97df880ae4","589","stimuli/10111002.jpg"," ","","feedback_trial","1","","","","","","","","","","","","","","","","","","","","",""
"","","","","","image-keyboard-response","192","305519","0.0-167.0","5f121091e95fdc03b5e897d0","665500ab8938657b03fbdba8","6657923503892b97df880ae4","682","stimuli/1111010.jpg","1","","prediction_trial","2","","false","","1","false","true","false","false","false","false","[1,2,0]","111","010","0","","","","","","",""
"","","","","","image-keyboard-response","193","305947","0.0-168.0","5f121091e95fdc03b5e897d0","665500ab8938657b03fbdba8","6657923503892b97df880ae4","426","stimuli/11110102.jpg"," ","","feedback_trial","1","","","","","","","","","","","","","","","","","","","","",""
"","","","","","image-keyboard-response","194","306381","0.0-169.0","5f121091e95fdc03b5e897d0","665500ab8938657b03fbdba8","6657923503892b97df880ae4","431","stimuli/1101000.jpg","1","","prediction_trial","1","","true","","1","true","true","true","true","true","true","[1]","101","000","1","","","","","","",""
"","","","","","image-keyboard-response","195","306673","0.0-170.0","5f121091e95fdc03b5e897d0","665500ab8938657b03fbdba8","6657923503892b97df880ae4","289","stimuli/11010001.jpg"," ","","feedback_trial","1","","","","","","","","","","","","","","","","","","","","",""
"","","","","","image-keyboard-response","196","307257","0.0-171.0","5f121091e95fdc03b5e897d0","665500ab8938657b03fbdba8","6657923503892b97df880ae4","581","stimuli/0110001.jpg","0","","prediction_trial","1","","false","","0","true","true","false","false","false","false","[1,0]","110","001","0","","","","","","",""
"","","","","","image-keyboard-response","197","307590","0.0-172.0","5f121091e95fdc03b5e897d0","665500ab8938657b03fbdba8","6657923503892b97df880ae4","330","stimuli/01100011.jpg"," ","","feedback_trial","1","","","","","","","","","","","","","","","","","","","","",""
"","","","","","image-keyboard-response","198","308040","0.0-173.0","5f121091e95fdc03b5e897d0","665500ab8938657b03fbdba8","6657923503892b97df880ae4","447","stimuli/1001000.jpg","1","","prediction_trial","1","","true","","1","true","true","true","true","true","true","[1]","001","000","1","","","","","","",""
"","","","","","image-keyboard-response","199","308355","0.0-174.0","5f121091e95fdc03b5e897d0","665500ab8938657b03fbdba8","6657923503892b97df880ae4","312","stimuli/10010001.jpg"," ","","feedback_trial","1","","","","","","","","","","","","","","","","","","","","",""
"","","","","","image-keyboard-response","200","309068","0.0-175.0","5f121091e95fdc03b5e897d0","665500ab8938657b03fbdba8","6657923503892b97df880ae4","710","stimuli/0010100.jpg","0","","prediction_trial","0","","true","","0","false","true","true","true","false","true","[0]","010","100","1","","","","","","",""
"","","","","","image-keyboard-response","201","309345","0.0-176.0","5f121091e95fdc03b5e897d0","665500ab8938657b03fbdba8","6657923503892b97df880ae4","274","stimuli/00101000.jpg"," ","","feedback_trial","0","","","","","","","","","","","","","","","","","","","","",""
"","","","","","image-keyboard-response","202","310063","0.0-177.0","5f121091e95fdc03b5e897d0","665500ab8938657b03fbdba8","6657923503892b97df880ae4","715","stimuli/2010100.jpg","2","","prediction_trial","2","","true","","2","true","true","true","true","true","true","[2]","010","100","1","","","","","","",""
"","","","","","image-keyboard-response","203","310495","0.0-178.0","5f121091e95fdc03b5e897d0","665500ab8938657b03fbdba8","6657923503892b97df880ae4","430","stimuli/20101002.jpg"," ","","feedback_trial","2","","","","","","","","","","","","","","","","","","","","",""
"","","","","","image-keyboard-response","204","311084","0.0-179.0","5f121091e95fdc03b5e897d0","665500ab8938657b03fbdba8","6657923503892b97df880ae4","587","stimuli/1010111.jpg","0","","prediction_trial","1","","false","","1","false","false","false","true","false","false","[1]","010","111","0","","","","","","",""
"","","","","","image-keyboard-response","205","311720","0.0-180.0","5f121091e95fdc03b5e897d0","665500ab8938657b03fbdba8","6657923503892b97df880ae4","602","stimuli/10101111.jpg"," ","","feedback_trial","1","","","","","","","","","","","","","","","","","","","","",""
"","","","","","image-keyboard-response","206","312498","0.0-181.0","5f121091e95fdc03b5e897d0","665500ab8938657b03fbdba8","6657923503892b97df880ae4","763","stimuli/0000101.jpg","2","","prediction_trial","0","","false","","0","false","false","true","true","false","false","[0]","000","101","0","","","","","","",""
"","","","","","image-keyboard-response","207","312982","0.0-182.0","5f121091e95fdc03b5e897d0","665500ab8938657b03fbdba8","6657923503892b97df880ae4","482","stimuli/00001010.jpg"," ","","feedback_trial","0","","","","","","","","","","","","","","","","","","","","",""
"","","","","","image-keyboard-response","208","313897","0.0-183.0","5f121091e95fdc03b5e897d0","665500ab8938657b03fbdba8","6657923503892b97df880ae4","909","stimuli/0011110.jpg","0","","prediction_trial","0","","true","","0","false","false","true","true","false","false","[0]","011","110","1","","","","","","",""
"","","","","","image-keyboard-response","209","314291","0.0-184.0","5f121091e95fdc03b5e897d0","665500ab8938657b03fbdba8","6657923503892b97df880ae4","392","stimuli/00111100.jpg"," ","","feedback_trial","0","","","","","","","","","","","","","","","","","","","","",""
"","","","","","image-keyboard-response","210","315026","0.0-185.0","5f121091e95fdc03b5e897d0","665500ab8938657b03fbdba8","6657923503892b97df880ae4","732","stimuli/2111010.jpg","2","","prediction_trial","0","","false","","2","true","true","false","false","false","false","[2,0,1]","111","010","0","","","","","","",""
"","","","","","image-keyboard-response","211","315665","0.0-186.0","5f121091e95fdc03b5e897d0","665500ab8938657b03fbdba8","6657923503892b97df880ae4","634","stimuli/21110100.jpg"," ","","feedback_trial","2","","","","","","","","","","","","","","","","","","","","",""
"","","","","","image-keyboard-response","212","316354","0.0-187.0","5f121091e95fdc03b5e897d0","665500ab8938657b03fbdba8","6657923503892b97df880ae4","687","stimuli/0110111.jpg","2","","prediction_trial","0","","false","","0","false","false","false","false","false","false","[0,1]","110","111","0","","","","","","",""
"","","","","","image-keyboard-response","213","316787","0.0-188.0","5f121091e95fdc03b5e897d0","665500ab8938657b03fbdba8","6657923503892b97df880ae4","429","stimuli/01101110.jpg"," ","","feedback_trial","0","","","","","","","","","","","","","","","","","","","","",""
"","","","","","image-keyboard-response","214","317520","0.0-189.0","5f121091e95fdc03b5e897d0","665500ab8938657b03fbdba8","6657923503892b97df880ae4","729","stimuli/0111101.jpg","2","","prediction_trial","0","","false","","0","false","false","false","false","false","false","[1,2,0]","111","101","0","","","","","","",""
"","","","","","image-keyboard-response","215","317922","0.0-190.0","5f121091e95fdc03b5e897d0","665500ab8938657b03fbdba8","6657923503892b97df880ae4","399","stimuli/01111010.jpg"," ","","feedback_trial","1","","","","","","","","","","","","","","","","","","","","",""
"","","","","","image-keyboard-response","216","318817","0.0-191.0","5f121091e95fdc03b5e897d0","665500ab8938657b03fbdba8","6657923503892b97df880ae4","866","stimuli/1010100.jpg","1","","prediction_trial","1","","true","","1","true","true","false","true","false","true","[1]","010","100","1","","","","","","",""
"","","","","","image-keyboard-response","217","319167","0.0-192.0","5f121091e95fdc03b5e897d0","665500ab8938657b03fbdba8","6657923503892b97df880ae4","347","stimuli/10101001.jpg"," ","","feedback_trial","1","","","","","","","","","","","","","","","","","","","","",""
"","","","","","image-keyboard-response","218","319913","0.0-193.0","5f121091e95fdc03b5e897d0","665500ab8938657b03fbdba8","6657923503892b97df880ae4","743","stimuli/2111011.jpg","1","","prediction_trial","0","","false","","2","false","false","false","false","false","false","[0,2,1]","111","011","0","","","","","","",""
"","","","","","image-keyboard-response","219","320359","0.0-194.0","5f121091e95fdc03b5e897d0","665500ab8938657b03fbdba8","6657923503892b97df880ae4","443","stimuli/21110110.jpg"," ","","feedback_trial","0","","","","","","","","","","","","","","","","","","","","",""
"","","","","","image-keyboard-response","220","320965","0.0-195.0","5f121091e95fdc03b5e897d0","665500ab8938657b03fbdba8","6657923503892b97df880ae4","603","stimuli/0001001.jpg","0","","prediction_trial","0","","true","","0","true","true","true","true","true","true","[0]","001","001","1","","","","","","",""
"","","","","","image-keyboard-response","221","321170","0.0-196.0","5f121091e95fdc03b5e897d0","665500ab8938657b03fbdba8","6657923503892b97df880ae4","203","stimuli/00010010.jpg"," ","","feedback_trial","0","","","","","","","","","","","","","","","","","","","","",""
"","","","","","image-keyboard-response","222","321956","0.0-197.0","5f121091e95fdc03b5e897d0","665500ab8938657b03fbdba8","6657923503892b97df880ae4","782","stimuli/2010011.jpg","2","","prediction_trial","2","","true","","2","false","false","true","true","false","false","[2]","010","011","1","","","","","","",""
"","","","","","image-keyboard-response","223","322311","0.0-198.0","5f121091e95fdc03b5e897d0","665500ab8938657b03fbdba8","6657923503892b97df880ae4","352","stimuli/20100112.jpg"," ","","feedback_trial","2","","","","","","","","","","","","","","","","","","","","",""
"","","","","","image-keyboard-response","224","323017","0.0-199.0","5f121091e95fdc03b5e897d0","665500ab8938657b03fbdba8","6657923503892b97df880ae4","704","stimuli/2001101.jpg","0","","prediction_trial","2","","false","","2","false","false","false","true","false","false","[2]","001","101","0","","","","","","",""
"","","","","","image-keyboard-response","225","323383","0.0-200.0","5f121091e95fdc03b5e897d0","665500ab8938657b03fbdba8","6657923503892b97df880ae4","364","stimuli/20011012.jpg"," ","","feedback_trial","2","","","","","","","","","","","","","","","","","","","","",""
"","","","","","image-keyboard-response","226","324045","0.0-201.0","5f121091e95fdc03b5e897d0","665500ab8938657b03fbdba8","6657923503892b97df880ae4","658","stimuli/1011001.jpg","1","","prediction_trial","1","","true","","1","true","true","false","false","false","false","[2,1]","011","001","1","","","","","","",""
"","","","","","image-keyboard-response","227","324448","0.0-202.0","5f121091e95fdc03b5e897d0","665500ab8938657b03fbdba8","6657923503892b97df880ae4","399","stimuli/10110011.jpg"," ","","feedback_trial","2","","","","","","","","","","","","","","","","","","","","",""
"","","","","","image-keyboard-response","228","325025","0.0-203.0","5f121091e95fdc03b5e897d0","665500ab8938657b03fbdba8","6657923503892b97df880ae4","572","stimuli/1000101.jpg","1","","prediction_trial","1","","true","","1","true","true","true","true","true","true","[1]","000","101","1","","","","","","",""
"","","","","","image-keyboard-response","229","325340","0.0-204.0","5f121091e95fdc03b5e897d0","665500ab8938657b03fbdba8","6657923503892b97df880ae4","312","stimuli/10001011.jpg"," ","","feedback_trial","1","","","","","","","","","","","","","","","","","","","","",""
"","","","","","image-keyboard-response","230","325893","0.0-205.0","5f121091e95fdc03b5e897d0","665500ab8938657b03fbdba8","6657923503892b97df880ae4","549","stimuli/2011001.jpg","2","","prediction_trial","2","","true","","2","false","true","false","false","false","false","[2,1]","011","001","1","","","","","","",""
"","","","","","image-keyboard-response","231","326205","0.0-206.0","5f121091e95fdc03b5e897d0","665500ab8938657b03fbdba8","6657923503892b97df880ae4","309","stimuli/20110012.jpg"," ","","feedback_trial","2","","","","","","","","","","","","","","","","","","","","",""
"","","","","","image-keyboard-response","232","326681","0.0-207.0","5f121091e95fdc03b5e897d0","665500ab8938657b03fbdba8","6657923503892b97df880ae4","473","stimuli/2111000.jpg","2","","prediction_trial","0","","false","","2","true","true","false","false","false","false","[2,1,0]","111","000","0","","","","","","",""
"","","","","","image-keyboard-response","233","327361","0.0-208.0","5f121091e95fdc03b5e897d0","665500ab8938657b03fbdba8","6657923503892b97df880ae4","675","stimuli/21110000.jpg"," ","","feedback_trial","2","","","","","","","","","","","","","","","","","","","","",""
"","","","","","image-keyboard-response","234","327832","0.0-209.0","5f121091e95fdc03b5e897d0","665500ab8938657b03fbdba8","6657923503892b97df880ae4","467","stimuli/2100000.jpg","2","","prediction_trial","2","","true","","2","true","true","true","true","true","true","[2]","100","000","1","","","","","","",""
"","","","","","image-keyboard-response","235","328105","0.0-210.0","5f121091e95fdc03b5e897d0","665500ab8938657b03fbdba8","6657923503892b97df880ae4","270","stimuli/21000002.jpg"," ","","feedback_trial","2","","","","","","","","","","","","","","","","","","","","",""
"","","","","","image-keyboard-response","236","328627","0.0-211.0","5f121091e95fdc03b5e897d0","665500ab8938657b03fbdba8","6657923503892b97df880ae4","519","stimuli/0111111.jpg","2","","prediction_trial","1","","false","","0","false","false","false","false","false","false","[0,1,2]","111","111","0","","","","","","",""
"","","","","","image-keyboard-response","237","329049","0.0-212.0","5f121091e95fdc03b5e897d0","665500ab8938657b03fbdba8","6657923503892b97df880ae4","419","stimuli/01111111.jpg"," ","","feedback_trial","0","","","","","","","","","","","","","","","","","","","","",""
"","","","","","image-keyboard-response","238","329621","0.0-213.0","5f121091e95fdc03b5e897d0","665500ab8938657b03fbdba8","6657923503892b97df880ae4","568","stimuli/2011010.jpg","2","","prediction_trial","1","","false","","2","true","true","false","false","false","false","[2,1]","011","010","0","","","","","","",""
"","","","","","image-keyboard-response","239","330047","0.0-214.0","5f121091e95fdc03b5e897d0","665500ab8938657b03fbdba8","6657923503892b97df880ae4","424","stimuli/20110101.jpg"," ","","feedback_trial","2","","","","","","","","","","","","","","","","","","","","",""
"","","","","","image-keyboard-response","240","331106","0.0-215.0","5f121091e95fdc03b5e897d0","665500ab8938657b03fbdba8","6657923503892b97df880ae4","1056","stimuli/1101010.jpg","1","","prediction_trial","1","","true","","1","false","true","true","true","false","true","[1]","101","010","1","","","","","","",""
"","","","","","image-keyboard-response","241","331361","0.0-216.0","5f121091e95fdc03b5e897d0","665500ab8938657b03fbdba8","6657923503892b97df880ae4","252","stimuli/11010101.jpg"," ","","feedback_trial","1","","","","","","","","","","","","","","","","","","","","",""
"","","","","","image-keyboard-response","242","331932","0.0-217.0","5f121091e95fdc03b5e897d0","665500ab8938657b03fbdba8","6657923503892b97df880ae4","568","stimuli/2100100.jpg","2","","prediction_trial","2","","true","","2","true","true","true","true","true","true","[2]","100","100","1","","","","","","",""
"","","","","","image-keyboard-response","243","332197","0.0-218.0","5f121091e95fdc03b5e897d0","665500ab8938657b03fbdba8","6657923503892b97df880ae4","262","stimuli/21001002.jpg"," ","","feedback_trial","2","","","","","","","","","","","","","","","","","","","","",""
"","","","","","image-keyboard-response","244","332946","0.0-219.0","5f121091e95fdc03b5e897d0","665500ab8938657b03fbdba8","6657923503892b97df880ae4","746","stimuli/0011100.jpg","0","","prediction_trial","0","","true","","0","false","true","true","true","false","true","[0]","011","100","1","","","","","","",""
"","","","","","image-keyboard-response","245","333250","0.0-220.0","5f121091e95fdc03b5e897d0","665500ab8938657b03fbdba8","6657923503892b97df880ae4","301","stimuli/00111000.jpg"," ","","feedback_trial","0","","","","","","","","","","","","","","","","","","","","",""
"","","","","","image-keyboard-response","246","333843","0.0-221.0","5f121091e95fdc03b5e897d0","665500ab8938657b03fbdba8","6657923503892b97df880ae4","590","stimuli/2101000.jpg","2","","prediction_trial","2","","true","","2","true","true","false","false","false","false","[0,2]","101","000","1","","","","","","",""
"","","","","","image-keyboard-response","247","334223","0.0-222.0","5f121091e95fdc03b5e897d0","665500ab8938657b03fbdba8","6657923503892b97df880ae4","376","stimuli/21010002.jpg"," ","","feedback_trial","0","","","","","","","","","","","","","","","","","","","","",""
"","","","","","image-keyboard-response","248","334686","0.0-223.0","5f121091e95fdc03b5e897d0","665500ab8938657b03fbdba8","6657923503892b97df880ae4","459","stimuli/0100101.jpg","0","","prediction_trial","0","","true","","0","false","false","false","true","false","false","[0]","100","101","1","","","","","","",""
"","","","","","image-keyboard-response","249","335097","0.0-224.0","5f121091e95fdc03b5e897d0","665500ab8938657b03fbdba8","6657923503892b97df880ae4","407","stimuli/01001010.jpg"," ","","feedback_trial","0","","","","","","","","","","","","","","","","","","","","",""
"","","","","","image-keyboard-response","250","335776","0.0-225.0","5f121091e95fdc03b5e897d0","665500ab8938657b03fbdba8","6657923503892b97df880ae4","677","stimuli/1111011.jpg","1","","prediction_trial","1","","true","","1","false","false","false","false","false","false","[0,2,1]","111","011","1","","","","","","",""
"","","","","","image-keyboard-response","251","336053","0.0-226.0","5f121091e95fdc03b5e897d0","665500ab8938657b03fbdba8","6657923503892b97df880ae4","273","stimuli/11110111.jpg"," ","","feedback_trial","0","","","","","","","","","","","","","","","","","","","","",""
"","","","","","image-keyboard-response","252","336806","0.0-227.0","5f121091e95fdc03b5e897d0","665500ab8938657b03fbdba8","6657923503892b97df880ae4","750","stimuli/2101001.jpg","2","","prediction_trial","2","","true","","2","false","true","false","false","false","false","[2,0]","101","001","1","","","","","","",""
"","","","","","image-keyboard-response","253","337070","0.0-228.0","5f121091e95fdc03b5e897d0","665500ab8938657b03fbdba8","6657923503892b97df880ae4","262","stimuli/21010012.jpg"," ","","feedback_trial","2","","","","","","","","","","","","","","","","","","","","",""
"","","","","","image-keyboard-response","254","337570","0.0-229.0","5f121091e95fdc03b5e897d0","665500ab8938657b03fbdba8","6657923503892b97df880ae4","496","stimuli/2101110.jpg","2","","prediction_trial","2","","true","","2","true","true","false","false","false","false","[0,2]","101","110","1","","","","","","",""
"","","","","","image-keyboard-response","255","337898","0.0-230.0","5f121091e95fdc03b5e897d0","665500ab8938657b03fbdba8","6657923503892b97df880ae4","325","stimuli/21011102.jpg"," ","","feedback_trial","0","","","","","","","","","","","","","","","","","","","","",""
"","","","","","image-keyboard-response","256","338411","0.0-231.0","5f121091e95fdc03b5e897d0","665500ab8938657b03fbdba8","6657923503892b97df880ae4","511","stimuli/0100000.jpg","0","","prediction_trial","0","","true","","0","true","true","false","true","false","true","[0]","100","000","1","","","","","","",""
"","","","","","image-keyboard-response","257","338645","0.0-232.0","5f121091e95fdc03b5e897d0","665500ab8938657b03fbdba8","6657923503892b97df880ae4","230","stimuli/01000000.jpg"," ","","feedback_trial","0","","","","","","","","","","","","","","","","","","","","",""
"","","","","","image-keyboard-response","258","339193","0.0-233.0","5f121091e95fdc03b5e897d0","665500ab8938657b03fbdba8","6657923503892b97df880ae4","544","stimuli/0110010.jpg","0","","prediction_trial","1","","false","","0","true","true","false","false","false","false","[0,1]","110","010","0","","","","","","",""
"","","","","","image-keyboard-response","259","339668","0.0-234.0","5f121091e95fdc03b5e897d0","665500ab8938657b03fbdba8","6657923503892b97df880ae4","472","stimuli/01100101.jpg"," ","","feedback_trial","0","","","","","","","","","","","","","","","","","","","","",""
"","","","","","image-keyboard-response","260","340155","0.0-235.0","5f121091e95fdc03b5e897d0","665500ab8938657b03fbdba8","6657923503892b97df880ae4","483","stimuli/0101101.jpg","0","","prediction_trial","2","","false","","0","false","false","false","false","false","false","[0,2]","101","101","0","","","","","","",""
"","","","","","image-keyboard-response","261","340661","0.0-236.0","5f121091e95fdc03b5e897d0","665500ab8938657b03fbdba8","6657923503892b97df880ae4","504","stimuli/01011012.jpg"," ","","feedback_trial","0","","","","","","","","","","","","","","","","","","","","",""
"","","","","","image-keyboard-response","262","341216","0.0-237.0","5f121091e95fdc03b5e897d0","665500ab8938657b03fbdba8","6657923503892b97df880ae4","552","stimuli/2010101.jpg","0","","prediction_trial","2","","false","","2","false","false","true","true","false","false","[2]","010","101","0","","","","","","",""
"","","","","","image-keyboard-response","263","341716","0.0-238.0","5f121091e95fdc03b5e897d0","665500ab8938657b03fbdba8","6657923503892b97df880ae4","469","stimuli/20101012.jpg"," ","","feedback_trial","2","","","","","","","","","","","","","","","","","","","","",""
"","","","","","image-keyboard-response","264","342407","0.0-239.0","5f121091e95fdc03b5e897d0","665500ab8938657b03fbdba8","6657923503892b97df880ae4","687","stimuli/2001000.jpg","2","","prediction_trial","2","","true","","2","true","true","false","true","false","true","[2]","001","000","1","","","","","","",""
"","","","","","image-keyboard-response","265","343374","0.0-240.0","5f121091e95fdc03b5e897d0","665500ab8938657b03fbdba8","6657923503892b97df880ae4","963","stimuli/20010002.jpg"," ","","feedback_trial","2","","","","","","","","","","","","","","","","","","","","",""
"","","","","","image-keyboard-response","266","344768","0.0-241.0","5f121091e95fdc03b5e897d0","665500ab8938657b03fbdba8","6657923503892b97df880ae4","1392","stimuli/0001110.jpg","1","","prediction_trial","0","","false","","0","false","false","true","true","false","false","[0]","001","110","0","","","","","","",""
"","","","","","image-keyboard-response","267","345349","0.0-242.0","5f121091e95fdc03b5e897d0","665500ab8938657b03fbdba8","6657923503892b97df880ae4","579","stimuli/00011100.jpg"," ","","feedback_trial","0","","","","","","","","","","","","","","","","","","","","",""
"","","","","","image-keyboard-response","268","347382","0.0-243.0","5f121091e95fdc03b5e897d0","665500ab8938657b03fbdba8","6657923503892b97df880ae4","2030","stimuli/0001101.jpg","0","","prediction_trial","0","","true","","0","false","false","true","true","false","false","[0]","001","101","1","","","","","","",""
"","","","","","image-keyboard-response","269","347747","0.0-244.0","5f121091e95fdc03b5e897d0","665500ab8938657b03fbdba8","6657923503892b97df880ae4","363","stimuli/00011010.jpg"," ","","feedback_trial","0","","","","","","","","","","","","","","","","","","","","",""
"","","","","","image-keyboard-response","270","351235","0.0-245.0","5f121091e95fdc03b5e897d0","665500ab8938657b03fbdba8","6657923503892b97df880ae4","3485","stimuli/0111110.jpg","1","","prediction_trial","2","","false","","0","false","false","false","false","false","false","[0,1,2]","111","110","0","","","","","","",""
"","","","","","image-keyboard-response","271","351726","0.0-246.0","5f121091e95fdc03b5e897d0","665500ab8938657b03fbdba8","6657923503892b97df880ae4","489","stimuli/01111102.jpg"," ","","feedback_trial","0","","","","","","","","","","","","","","","","","","","","",""
"","","","","","image-keyboard-response","272","352213","0.0-247.0","5f121091e95fdc03b5e897d0","665500ab8938657b03fbdba8","6657923503892b97df880ae4","483","stimuli/1011101.jpg","1","","prediction_trial","1","","true","","1","true","true","false","false","false","false","[1,2]","011","101","1","","","","","","",""
"","","","","","image-keyboard-response","273","352492","0.0-248.0","5f121091e95fdc03b5e897d0","665500ab8938657b03fbdba8","6657923503892b97df880ae4","276","stimuli/10111011.jpg"," ","","feedback_trial","1","","","","","","","","","","","","","","","","","","","","",""
"","","","","","image-keyboard-response","274","353315","0.0-249.0","5f121091e95fdc03b5e897d0","665500ab8938657b03fbdba8","6657923503892b97df880ae4","806","stimuli/2000100.jpg","2","","prediction_trial","2","","true","","2","true","true","true","true","true","true","[2]","000","100","1","","","","","","",""
"","","","","","image-keyboard-response","275","353647","0.0-250.0","5f121091e95fdc03b5e897d0","665500ab8938657b03fbdba8","6657923503892b97df880ae4","328","stimuli/20001002.jpg"," ","","feedback_trial","2","","","","","","","","","","","","","","","","","","","","",""
"","","","","","image-keyboard-response","276","354346","0.0-251.0","5f121091e95fdc03b5e897d0","665500ab8938657b03fbdba8","6657923503892b97df880ae4","696","stimuli/1110011.jpg","1","","prediction_trial","1","","true","","1","false","false","false","false","false","false","[1,0]","110","011","1","","","","","","",""
"","","","","","image-keyboard-response","277","354635","0.0-252.0","5f121091e95fdc03b5e897d0","665500ab8938657b03fbdba8","6657923503892b97df880ae4","286","stimuli/11100111.jpg"," ","","feedback_trial","1","","","","","","","","","","","","","","","","","","","","",""
"","","","","","image-keyboard-response","278","355446","0.0-253.0","5f121091e95fdc03b5e897d0","665500ab8938657b03fbdba8","6657923503892b97df880ae4","808","stimuli/1110010.jpg","1","","prediction_trial","0","","false","","1","false","true","false","false","false","false","[1,0]","110","010","0","","","","","","",""
"","","","","","image-keyboard-response","279","355731","0.0-254.0","5f121091e95fdc03b5e897d0","665500ab8938657b03fbdba8","6657923503892b97df880ae4","281","stimuli/11100100.jpg"," ","","feedback_trial","1","","","","","","","","","","","","","","","","","","","","",""
"","","","","","image-keyboard-response","280","356915","0.0-255.0","5f121091e95fdc03b5e897d0","665500ab8938657b03fbdba8","6657923503892b97df880ae4","1181","stimuli/0001011.jpg","0","","prediction_trial","0","","true","","0","true","true","true","true","true","true","[0]","001","011","1","","","","","","",""
"","","","","","image-keyboard-response","281","357120","0.0-256.0","5f121091e95fdc03b5e897d0","665500ab8938657b03fbdba8","6657923503892b97df880ae4","201","stimuli/00010110.jpg"," ","","feedback_trial","0","","","","","","","","","","","","","","","","","","","","",""
"","","","","","image-keyboard-response","282","357759","0.0-257.0","5f121091e95fdc03b5e897d0","665500ab8938657b03fbdba8","6657923503892b97df880ae4","636","stimuli/2110111.jpg","1","","prediction_trial","2","","false","","2","false","false","true","true","false","false","[2]","110","111","0","","","","","","",""
"","","","","","image-keyboard-response","283","358115","0.0-258.0","5f121091e95fdc03b5e897d0","665500ab8938657b03fbdba8","6657923503892b97df880ae4","353","stimuli/21101112.jpg"," ","","feedback_trial","2","","","","","","","","","","","","","","","","","","","","",""
"","","","","","image-keyboard-response","284","358839","0.0-259.0","5f121091e95fdc03b5e897d0","665500ab8938657b03fbdba8","6657923503892b97df880ae4","722","stimuli/2110000.jpg","2","","prediction_trial","2","","true","","2","true","true","true","true","true","true","[2]","110","000","1","","","","","","",""
"","","","","","image-keyboard-response","285","359167","0.0-260.0","5f121091e95fdc03b5e897d0","665500ab8938657b03fbdba8","6657923503892b97df880ae4","303","stimuli/21100002.jpg"," ","","feedback_trial","2","","","","","","","","","","","","","","","","","","","","",""
"","","","","","image-keyboard-response","286","359930","0.0-261.0","5f121091e95fdc03b5e897d0","665500ab8938657b03fbdba8","6657923503892b97df880ae4","760","stimuli/1001010.jpg","1","","prediction_trial","1","","true","","1","false","true","true","true","false","true","[1]","001","010","1","","","","","","",""
"","","","","","image-keyboard-response","287","360220","0.0-262.0","5f121091e95fdc03b5e897d0","665500ab8938657b03fbdba8","6657923503892b97df880ae4","287","stimuli/10010101.jpg"," ","","feedback_trial","1","","","","","","","","","","","","","","","","","","","","",""
"","","","","","image-keyboard-response","288","360857","0.0-263.0","5f121091e95fdc03b5e897d0","665500ab8938657b03fbdba8","6657923503892b97df880ae4","635","stimuli/0110000.jpg","0","","prediction_trial","0","","true","","0","true","true","false","false","false","false","[0,1]","110","000","1","","","","","","",""
"","","","","","image-keyboard-response","289","361007","0.0-264.0","5f121091e95fdc03b5e897d0","665500ab8938657b03fbdba8","6657923503892b97df880ae4","147","stimuli/01100000.jpg"," ","","feedback_trial","0","","","","","","","","","","","","","","","","","","","","",""
"","","","","","image-keyboard-response","290","361670","0.0-265.0","5f121091e95fdc03b5e897d0","665500ab8938657b03fbdba8","6657923503892b97df880ae4","660","stimuli/2100010.jpg","2","","prediction_trial","2","","true","","2","true","true","true","true","true","true","[2]","100","010","1","","","","","","",""
"","","","","","image-keyboard-response","291","361979","0.0-266.0","5f121091e95fdc03b5e897d0","665500ab8938657b03fbdba8","6657923503892b97df880ae4","305","stimuli/21000102.jpg"," ","","feedback_trial","2","","","","","","","","","","","","","","","","","","","","",""
"","","","","","image-keyboard-response","292","362444","0.0-267.0","5f121091e95fdc03b5e897d0","665500ab8938657b03fbdba8","6657923503892b97df880ae4","462","stimuli/0010011.jpg","0","","prediction_trial","0","","true","","0","true","true","true","true","true","true","[0]","010","011","1","","","","","","",""
"","","","","","image-keyboard-response","293","362645","0.0-268.0","5f121091e95fdc03b5e897d0","665500ab8938657b03fbdba8","6657923503892b97df880ae4","198","stimuli/00100110.jpg"," ","","feedback_trial","0","","","","","","","","","","","","","","","","","","","","",""
"","","","","","image-keyboard-response","294","363986","0.0-269.0","5f121091e95fdc03b5e897d0","665500ab8938657b03fbdba8","6657923503892b97df880ae4","1338","stimuli/1100111.jpg","1","","prediction_trial","1","","true","","1","false","false","true","true","false","false","[1]","100","111","1","","","","","","",""
"","","","","","image-keyboard-response","295","364499","0.0-270.0","5f121091e95fdc03b5e897d0","665500ab8938657b03fbdba8","6657923503892b97df880ae4","508","stimuli/11001111.jpg"," ","","feedback_trial","1","","","","","","","","","","","","","","","","","","","","",""
"","","","","","image-keyboard-response","296","365065","0.0-271.0","5f121091e95fdc03b5e897d0","665500ab8938657b03fbdba8","6657923503892b97df880ae4","541","stimuli/1001101.jpg","1","","prediction_trial","1","","true","","1","true","true","true","true","true","true","[1]","001","101","1","","","","","","",""
"","","","","","image-keyboard-response","297","365667","0.0-272.0","5f121091e95fdc03b5e897d0","665500ab8938657b03fbdba8","6657923503892b97df880ae4","599","stimuli/10011011.jpg"," ","","feedback_trial","1","","","","","","","","","","","","","","","","","","","","",""
"","","","","","image-keyboard-response","298","366429","0.0-273.0","5f121091e95fdc03b5e897d0","665500ab8938657b03fbdba8","6657923503892b97df880ae4","757","stimuli/1001011.jpg","1","","prediction_trial","1","","true","","1","false","false","true","true","false","false","[1]","001","011","1","","","","","","",""
"","","","","","image-keyboard-response","299","366967","0.0-274.0","5f121091e95fdc03b5e897d0","665500ab8938657b03fbdba8","6657923503892b97df880ae4","535","stimuli/10010111.jpg"," ","","feedback_trial","1","","","","","","","","","","","","","","","","","","","","",""
"","","","","","image-keyboard-response","300","367512","0.0-275.0","5f121091e95fdc03b5e897d0","665500ab8938657b03fbdba8","6657923503892b97df880ae4","542","stimuli/2100110.jpg","2","","prediction_trial","2","","true","","2","true","true","true","true","true","true","[2]","100","110","1","","","","","","",""
"","","","","","image-keyboard-response","301","367807","0.0-276.0","5f121091e95fdc03b5e897d0","665500ab8938657b03fbdba8","6657923503892b97df880ae4","291","stimuli/21001102.jpg"," ","","feedback_trial","2","","","","","","","","","","","","","","","","","","","","",""
"","","","","","image-keyboard-response","302","368317","0.0-277.0","5f121091e95fdc03b5e897d0","665500ab8938657b03fbdba8","6657923503892b97df880ae4","507","stimuli/0111001.jpg","0","","prediction_trial","0","","true","","0","true","true","false","false","false","false","[2,1,0]","111","001","1","","","","","","",""
"","","","","","image-keyboard-response","303","368607","0.0-278.0","5f121091e95fdc03b5e897d0","665500ab8938657b03fbdba8","6657923503892b97df880ae4","287","stimuli/01110010.jpg"," ","","feedback_trial","2","","","","","","","","","","","","","","","","","","","","",""
"","","","","","image-keyboard-response","304","369146","0.0-279.0","5f121091e95fdc03b5e897d0","665500ab8938657b03fbdba8","6657923503892b97df880ae4","535","stimuli/1101101.jpg","1","","prediction_trial","1","","true","","1","true","true","true","true","true","true","[1]","101","101","1","","","","","","",""
"","","","","","image-keyboard-response","305","369430","0.0-280.0","5f121091e95fdc03b5e897d0","665500ab8938657b03fbdba8","6657923503892b97df880ae4","281","stimuli/11011011.jpg"," ","","feedback_trial","1","","","","","","","","","","","","","","","","","","","","",""
"","","","","","image-keyboard-response","306","369986","0.0-281.0","5f121091e95fdc03b5e897d0","665500ab8938657b03fbdba8","6657923503892b97df880ae4","551","stimuli/1101100.jpg","1","","prediction_trial","1","","true","","1","true","true","true","true","true","true","[1]","101","100","1","","","","","","",""
"","","","","","image-keyboard-response","307","370419","0.0-282.0","5f121091e95fdc03b5e897d0","665500ab8938657b03fbdba8","6657923503892b97df880ae4","429","stimuli/11011001.jpg"," ","","feedback_trial","1","","","","","","","","","","","","","","","","","","","","",""
"","","","","","image-keyboard-response","308","371336","0.0-283.0","5f121091e95fdc03b5e897d0","665500ab8938657b03fbdba8","6657923503892b97df880ae4","913","stimuli/1011010.jpg","1","","prediction_trial","1","","true","","1","false","true","false","false","false","false","[2,1]","011","010","1","","","","","","",""
"","","","","","image-keyboard-response","309","371640","0.0-284.0","5f121091e95fdc03b5e897d0","665500ab8938657b03fbdba8","6657923503892b97df880ae4","302","stimuli/10110101.jpg"," ","","feedback_trial","2","","","","","","","","","","","","","","","","","","","","",""
"","","","","","image-keyboard-response","310","372428","0.0-285.0","5f121091e95fdc03b5e897d0","665500ab8938657b03fbdba8","6657923503892b97df880ae4","785","stimuli/1001110.jpg","1","","prediction_trial","1","","true","","1","false","false","true","true","false","false","[1]","001","110","1","","","","","","",""
"","","","","","image-keyboard-response","311","372963","0.0-286.0","5f121091e95fdc03b5e897d0","665500ab8938657b03fbdba8","6657923503892b97df880ae4","531","stimuli/10011101.jpg"," ","","feedback_trial","1","","","","","","","","","","","","","","","","","","","","",""
"","","","","","image-keyboard-response","312","373587","0.0-287.0","5f121091e95fdc03b5e897d0","665500ab8938657b03fbdba8","6657923503892b97df880ae4","620","stimuli/1110100.jpg","1","","prediction_trial","1","","true","","1","true","true","false","false","false","false","[1,0]","110","100","1","","","","","","",""
"","","","","","image-keyboard-response","313","373898","0.0-288.0","5f121091e95fdc03b5e897d0","665500ab8938657b03fbdba8","6657923503892b97df880ae4","308","stimuli/11101001.jpg"," ","","feedback_trial","1","","","","","","","","","","","","","","","","","","","","",""
"","","","","","image-keyboard-response","314","374371","0.0-289.0","5f121091e95fdc03b5e897d0","665500ab8938657b03fbdba8","6657923503892b97df880ae4","470","stimuli/0001010.jpg","0","","prediction_trial","0","","true","","0","true","true","true","true","true","true","[0]","001","010","1","","","","","","",""
"","","","","","image-keyboard-response","315","374612","0.0-290.0","5f121091e95fdc03b5e897d0","665500ab8938657b03fbdba8","6657923503892b97df880ae4","238","stimuli/00010100.jpg"," ","","feedback_trial","0","","","","","","","","","","","","","","","","","","","","",""
"","","","","","image-keyboard-response","316","375199","0.0-291.0","5f121091e95fdc03b5e897d0","665500ab8938657b03fbdba8","6657923503892b97df880ae4","584","stimuli/2110001.jpg","2","","prediction_trial","2","","true","","2","false","true","true","true","false","true","[2]","110","001","1","","","","","","",""
"","","","","","image-keyboard-response","317","375803","0.0-292.0","5f121091e95fdc03b5e897d0","665500ab8938657b03fbdba8","6657923503892b97df880ae4","601","stimuli/21100012.jpg"," ","","feedback_trial","2","","","","","","","","","","","","","","","","","","","","",""
"","","","","","survey-html-form","318","412719","0.0-293.0","5f121091e95fdc03b5e897d0","665500ab8938657b03fbdba8","6657923503892b97df880ae4","36910","","{""feedback"":""just what i thought i would pick if i was sam"",""age"":""30"",""gender"":""Female"",""other_gender"":"""",""race"":""White"",""other_race"":"""",""ethnicity"":""Non-Hispanic""}","","exit_survey","","","","","","","","","","","","","","","","just what i thought i would pick if i was sam","30","Non-Hispanic","Female","White","0.6388888888888888","0.6388888888888888"
