"success","timeout","failed_images","failed_audio","failed_video","trial_type","trial_index","time_elapsed","internal_node_id","prolific_id","prolific_study_id","prolific_session_id","rt","stimulus","response","view_history","trial","character_choice","stimulus_dict","accuracy","correct_response","ball_pos","ego_ball_visible","ego_can_infer","alter_ball_visible","alter_can_infer","collective_ball_visible","collective_can_infer","search_locations","alter_occluders","ego_occluders","accuracy_bool","feedback","age","ethnicity","gender","race","overall_accuracy","bonus"
"true","false","[]","[]","[]","preload","0","3685","0.0-0.0","650fab251b0fd30bfabbedb3","665500ab8938657b03fbdba8","66579798a720deef8acb15bb","","","","","","","","","","","","","","","","","","","","","","","","","","",""
"true","","","","","fullscreen","1","12152","0.0-1.0","650fab251b0fd30bfabbedb3","665500ab8938657b03fbdba8","66579798a720deef8acb15bb","","","","","","","","","","","","","","","","","","","","","","","","","","",""
"","","","","","html-button-response","2","31135","0.0-2.0","650fab251b0fd30bfabbedb3","665500ab8938657b03fbdba8","66579798a720deef8acb15bb","18986","<p><b>Consent Form</b></p> <div style=""text-align:left;background-color:lightgrey; padding:20px; max-width:900px;""><p>Please consider this information carefully before deciding whether to participate in this research.</p> <p>The purpose of this research is to examine which factors influence social judgment and decision-making. You will be asked to make judgements about individuals and actions in social scenarios. We are simply interested in your judgement. The study will take less than 1 hour to complete, and you will receive less than $20 on Prolific. Your compensation and time commitment are specified in the study description. There are no anticipated risks associated with participating in this study. The effects of participating should be comparable to those you would ordinarily experience from viewing a computer monitor and using a mouse or keyboard for a similar amount of time. At the end of the study, we will provide an explanation of the questions that motivate this line of research and will describe the potential implications. </p><p> Your participation in this study is completely voluntary and you may refuse to participate or you may choose to withdraw at any time without penalty or loss of benefits to you which are otherwise entitled. Your participation in this study will remain confidential. No personally identifiable information will be associated with your data. Also, all analyses of the data will be averaged across all the participants, so your individual responses will never be specifically analyzed. </p><p> If you have questions or concerns about your participation or payment, or want to request a summary of research findings, please contact Dr. Jonathan Phillips at Jonathan.S.Phillips@dartmouth.edu. </p><p> Please save a copy of this form for your records. </p><p><b>Agreement: </b>The nature and purpose of this research have been sufficiently explained and I agree to participate in this study. I understand that I am free to withdraw at any time without incurring any penalty. Please consent by clicking the button below to continue. Otherwise, please exit the study at any time. </p>","0","","","","","","","","","","","","","","","","","","","","","","","",""
"","","","","","instructions","3","131837","0.0-3.0-0.0","650fab251b0fd30bfabbedb3","665500ab8938657b03fbdba8","66579798a720deef8acb15bb","100699","","","[{""page_index"":0,""viewing_time"":2167},{""page_index"":1,""viewing_time"":2525},{""page_index"":2,""viewing_time"":3298},{""page_index"":3,""viewing_time"":5556},{""page_index"":4,""viewing_time"":10943},{""page_index"":5,""viewing_time"":3401},{""page_index"":6,""viewing_time"":6070},{""page_index"":7,""viewing_time"":6422},{""page_index"":8,""viewing_time"":4641},{""page_index"":9,""viewing_time"":5084},{""page_index"":10,""viewing_time"":28383},{""page_index"":11,""viewing_time"":14993},{""page_index"":12,""viewing_time"":5035},{""page_index"":13,""viewing_time"":2180}]","intro","","","","","","","","","","","","","","","","","","","","","",""
"","","","","","image-keyboard-response","4","134818","0.0-3.0-1.0","650fab251b0fd30bfabbedb3","665500ab8938657b03fbdba8","66579798a720deef8acb15bb","2976","stimuli/0010100.jpg","0","","prediction_practice","0","{""filepath"":""stimuli/0010100.jpg"",""ball_pos"":0,""ego_ball_visible"":false,""ego_can_infer"":true,""alter_ball_visible"":true,""alter_can_infer"":true,""collective_ball_visible"":false,""collective_can_infer"":true,""search_locations"":[0],""alter_occluders"":""010"",""ego_occluders"":""100""}","true","","","","","","","","","","","","","","","","","","",""
"","","","","","image-keyboard-response","5","136518","0.0-3.0-2.0","650fab251b0fd30bfabbedb3","665500ab8938657b03fbdba8","66579798a720deef8acb15bb","1698","stimuli/00101000.jpg"," ","","practrice_feedback","0","","","","","","","","","","","","","","","","","","","","",""
"","","","","","image-keyboard-response","6","137923","0.0-3.0-3.0","650fab251b0fd30bfabbedb3","665500ab8938657b03fbdba8","66579798a720deef8acb15bb","1404","stimuli/2110000.jpg","2","","prediction_practice","2","{""filepath"":""stimuli/2110000.jpg"",""ball_pos"":2,""ego_ball_visible"":true,""ego_can_infer"":true,""alter_ball_visible"":true,""alter_can_infer"":true,""collective_ball_visible"":true,""collective_can_infer"":true,""search_locations"":[2],""alter_occluders"":""110"",""ego_occluders"":""000""}","true","","","","","","","","","","","","","","","","","","",""
"","","","","","image-keyboard-response","7","139283","0.0-3.0-4.0","650fab251b0fd30bfabbedb3","665500ab8938657b03fbdba8","66579798a720deef8acb15bb","1359","stimuli/21100002.jpg"," ","","practrice_feedback","2","","","","","","","","","","","","","","","","","","","","",""
"","","","","","image-keyboard-response","8","140852","0.0-3.0-5.0","650fab251b0fd30bfabbedb3","665500ab8938657b03fbdba8","66579798a720deef8acb15bb","1567","stimuli/1010101.jpg","1","","prediction_practice","1","{""filepath"":""stimuli/1010101.jpg"",""ball_pos"":1,""ego_ball_visible"":true,""ego_can_infer"":true,""alter_ball_visible"":false,""alter_can_infer"":true,""collective_ball_visible"":false,""collective_can_infer"":true,""search_locations"":[1],""alter_occluders"":""010"",""ego_occluders"":""101""}","true","","","","","","","","","","","","","","","","","","",""
"","","","","","image-keyboard-response","9","141828","0.0-3.0-6.0","650fab251b0fd30bfabbedb3","665500ab8938657b03fbdba8","66579798a720deef8acb15bb","974","stimuli/10101011.jpg"," ","","practrice_feedback","1","","","","","","","","","","","","","","","","","","","","",""
"","","","","","image-keyboard-response","10","144147","0.0-3.0-7.0","650fab251b0fd30bfabbedb3","665500ab8938657b03fbdba8","66579798a720deef8acb15bb","2318","stimuli/2101011.jpg","2","","prediction_practice","0","{""filepath"":""stimuli/2101011.jpg"",""ball_pos"":2,""ego_ball_visible"":false,""ego_can_infer"":false,""alter_ball_visible"":false,""alter_can_infer"":false,""collective_ball_visible"":false,""collective_can_infer"":false,""search_locations"":[0,2],""alter_occluders"":""101"",""ego_occluders"":""011""}","false","","","","","","","","","","","","","","","","","","",""
"","","","","","image-keyboard-response","11","148331","0.0-3.0-8.0","650fab251b0fd30bfabbedb3","665500ab8938657b03fbdba8","66579798a720deef8acb15bb","4183","stimuli/21010110.jpg"," ","","practrice_feedback","0","","","","","","","","","","","","","","","","","","","","",""
"","","","","","image-keyboard-response","12","155802","0.0-3.0-9.0","650fab251b0fd30bfabbedb3","665500ab8938657b03fbdba8","66579798a720deef8acb15bb","7469","stimuli/1110110.jpg","0","","prediction_practice","1","{""filepath"":""stimuli/1110110.jpg"",""ball_pos"":1,""ego_ball_visible"":false,""ego_can_infer"":false,""alter_ball_visible"":false,""alter_can_infer"":false,""collective_ball_visible"":false,""collective_can_infer"":false,""search_locations"":[1,0],""alter_occluders"":""110"",""ego_occluders"":""110""}","false","","","","","","","","","","","","","","","","","","",""
"","","","","","image-keyboard-response","13","157171","0.0-3.0-10.0","650fab251b0fd30bfabbedb3","665500ab8938657b03fbdba8","66579798a720deef8acb15bb","1367","stimuli/11101101.jpg"," ","","practrice_feedback","1","","","","","","","","","","","","","","","","","","","","",""
"","","","","","image-keyboard-response","14","159699","0.0-3.0-11.0","650fab251b0fd30bfabbedb3","665500ab8938657b03fbdba8","66579798a720deef8acb15bb","2518","stimuli/2101101.jpg","0","","prediction_practice","0","{""filepath"":""stimuli/2101101.jpg"",""ball_pos"":2,""ego_ball_visible"":false,""ego_can_infer"":false,""alter_ball_visible"":false,""alter_can_infer"":false,""collective_ball_visible"":false,""collective_can_infer"":false,""search_locations"":[0,2],""alter_occluders"":""101"",""ego_occluders"":""101""}","true","","","","","","","","","","","","","","","","","","",""
"","","","","","image-keyboard-response","15","161438","0.0-3.0-12.0","650fab251b0fd30bfabbedb3","665500ab8938657b03fbdba8","66579798a720deef8acb15bb","1738","stimuli/21011010.jpg"," ","","practrice_feedback","0","","","","","","","","","","","","","","","","","","","","",""
"","","","","","image-keyboard-response","16","169119","0.0-3.0-13.0","650fab251b0fd30bfabbedb3","665500ab8938657b03fbdba8","66579798a720deef8acb15bb","7681","stimuli/1011110.jpg","2","","prediction_practice","1","{""filepath"":""stimuli/1011110.jpg"",""ball_pos"":1,""ego_ball_visible"":false,""ego_can_infer"":false,""alter_ball_visible"":false,""alter_can_infer"":false,""collective_ball_visible"":false,""collective_can_infer"":false,""search_locations"":[2,1],""alter_occluders"":""011"",""ego_occluders"":""110""}","false","","","","","","","","","","","","","","","","","","",""
"","","","","","image-keyboard-response","17","170447","0.0-3.0-14.0","650fab251b0fd30bfabbedb3","665500ab8938657b03fbdba8","66579798a720deef8acb15bb","1327","stimuli/10111101.jpg"," ","","practrice_feedback","2","","","","","","","","","","","","","","","","","","","","",""
"","","","","","image-keyboard-response","18","175850","0.0-3.0-15.0","650fab251b0fd30bfabbedb3","665500ab8938657b03fbdba8","66579798a720deef8acb15bb","5402","stimuli/1111001.jpg","2","","prediction_practice","0","{""filepath"":""stimuli/1111001.jpg"",""ball_pos"":1,""ego_ball_visible"":true,""ego_can_infer"":true,""alter_ball_visible"":false,""alter_can_infer"":false,""collective_ball_visible"":false,""collective_can_infer"":false,""search_locations"":[1,2,0],""alter_occluders"":""111"",""ego_occluders"":""001""}","false","","","","","","","","","","","","","","","","","","",""
"","","","","","image-keyboard-response","19","177084","0.0-3.0-16.0","650fab251b0fd30bfabbedb3","665500ab8938657b03fbdba8","66579798a720deef8acb15bb","1233","stimuli/11110010.jpg"," ","","practrice_feedback","1","","","","","","","","","","","","","","","","","","","","",""
"","","","","","image-keyboard-response","20","181149","0.0-3.0-17.0","650fab251b0fd30bfabbedb3","665500ab8938657b03fbdba8","66579798a720deef8acb15bb","4063","stimuli/1011101.jpg","1","","prediction_practice","1","{""filepath"":""stimuli/1011101.jpg"",""ball_pos"":1,""ego_ball_visible"":true,""ego_can_infer"":true,""alter_ball_visible"":false,""alter_can_infer"":false,""collective_ball_visible"":false,""collective_can_infer"":false,""search_locations"":[2,1],""alter_occluders"":""011"",""ego_occluders"":""101""}","true","","","","","","","","","","","","","","","","","","",""
"","","","","","image-keyboard-response","21","182084","0.0-3.0-18.0","650fab251b0fd30bfabbedb3","665500ab8938657b03fbdba8","66579798a720deef8acb15bb","934","stimuli/10111011.jpg"," ","","practrice_feedback","2","","","","","","","","","","","","","","","","","","","","",""
"","","","","","image-keyboard-response","22","184763","0.0-3.0-19.0","650fab251b0fd30bfabbedb3","665500ab8938657b03fbdba8","66579798a720deef8acb15bb","2677","stimuli/2011100.jpg","1","","prediction_practice","2","{""filepath"":""stimuli/2011100.jpg"",""ball_pos"":2,""ego_ball_visible"":true,""ego_can_infer"":true,""alter_ball_visible"":false,""alter_can_infer"":false,""collective_ball_visible"":false,""collective_can_infer"":false,""search_locations"":[2,1],""alter_occluders"":""011"",""ego_occluders"":""100""}","false","","","","","","","","","","","","","","","","","","",""
"","","","","","image-keyboard-response","23","185797","0.0-3.0-20.0","650fab251b0fd30bfabbedb3","665500ab8938657b03fbdba8","66579798a720deef8acb15bb","1034","stimuli/20111002.jpg"," ","","practrice_feedback","2","","","","","","","","","","","","","","","","","","","","",""
"","","","","","html-button-response","24","189846","0.0-3.0-21.0","650fab251b0fd30bfabbedb3","665500ab8938657b03fbdba8","66579798a720deef8acb15bb","4048","Now that you've had some practice, you'll be tested with a couple of easy trials. If you correctly predict Sam's choice, you'll move on to complete the experiment!","0","","","","","","","","","","","","","","","","","","","","","","","",""
"","","","","","image-keyboard-response","25","192680","0.0-3.0-22.0-0.0","650fab251b0fd30bfabbedb3","665500ab8938657b03fbdba8","66579798a720deef8acb15bb","2833","stimuli/0000011.jpg","arrowleft","","comprehension_quiz","","","true","arrowleft","","","","","","","","","","","","","","","","","",""
"","","","","","image-keyboard-response","26","193694","0.0-3.0-22.0-1.0","650fab251b0fd30bfabbedb3","665500ab8938657b03fbdba8","66579798a720deef8acb15bb","1012","stimuli/00000110.jpg"," ","","comprehension_quiz","","","true"," ","","","","","","","","","","","","","","","","","",""
"","","","","","image-keyboard-response","27","195638","0.0-3.0-22.0-2.0","650fab251b0fd30bfabbedb3","665500ab8938657b03fbdba8","66579798a720deef8acb15bb","1943","stimuli/1010010.jpg","arrowdown","","comprehension_quiz","","","true","arrowdown","","","","","","","","","","","","","","","","","",""
"","","","","","image-keyboard-response","28","196304","0.0-3.0-22.0-3.0","650fab251b0fd30bfabbedb3","665500ab8938657b03fbdba8","66579798a720deef8acb15bb","665","stimuli/10100101.jpg"," ","","comprehension_quiz","","","true"," ","","","","","","","","","","","","","","","","","",""
"","","","","","html-button-response","29","198165","0.0-4.0","650fab251b0fd30bfabbedb3","665500ab8938657b03fbdba8","66579798a720deef8acb15bb","1858","The experiment will now begin.","0","","","","","","","","","","","","","","","","","","","","","","","",""
"","","","","","image-keyboard-response","30","200700","0.0-5.0","650fab251b0fd30bfabbedb3","665500ab8938657b03fbdba8","66579798a720deef8acb15bb","2533","stimuli/2011111.jpg","2","","prediction_trial","1","","false","","2","false","false","false","false","false","false","[1,2]","011","111","0","","","","","","",""
"","","","","","image-keyboard-response","31","201691","0.0-6.0","650fab251b0fd30bfabbedb3","665500ab8938657b03fbdba8","66579798a720deef8acb15bb","989","stimuli/20111111.jpg"," ","","feedback_trial","1","","","","","","","","","","","","","","","","","","","","",""
"","","","","","image-keyboard-response","32","203528","0.0-7.0","650fab251b0fd30bfabbedb3","665500ab8938657b03fbdba8","66579798a720deef8acb15bb","1836","stimuli/1010111.jpg","1","","prediction_trial","1","","true","","1","false","false","false","true","false","false","[1]","010","111","1","","","","","","",""
"","","","","","image-keyboard-response","33","204250","0.0-8.0","650fab251b0fd30bfabbedb3","665500ab8938657b03fbdba8","66579798a720deef8acb15bb","720","stimuli/10101111.jpg"," ","","feedback_trial","1","","","","","","","","","","","","","","","","","","","","",""
"","","","","","image-keyboard-response","34","205837","0.0-9.0","650fab251b0fd30bfabbedb3","665500ab8938657b03fbdba8","66579798a720deef8acb15bb","1586","stimuli/2000110.jpg","2","","prediction_trial","2","","true","","2","true","true","true","true","true","true","[2]","000","110","1","","","","","","",""
"","","","","","image-keyboard-response","35","206412","0.0-10.0","650fab251b0fd30bfabbedb3","665500ab8938657b03fbdba8","66579798a720deef8acb15bb","574","stimuli/20001102.jpg"," ","","feedback_trial","2","","","","","","","","","","","","","","","","","","","","",""
"","","","","","image-keyboard-response","36","208858","0.0-11.0","650fab251b0fd30bfabbedb3","665500ab8938657b03fbdba8","66579798a720deef8acb15bb","2444","stimuli/0111101.jpg","0","","prediction_trial","0","","true","","0","false","false","false","false","false","false","[1,2,0]","111","101","1","","","","","","",""
"","","","","","image-keyboard-response","37","209592","0.0-12.0","650fab251b0fd30bfabbedb3","665500ab8938657b03fbdba8","66579798a720deef8acb15bb","733","stimuli/01111010.jpg"," ","","feedback_trial","1","","","","","","","","","","","","","","","","","","","","",""
"","","","","","image-keyboard-response","38","210998","0.0-13.0","650fab251b0fd30bfabbedb3","665500ab8938657b03fbdba8","66579798a720deef8acb15bb","1404","stimuli/0000010.jpg","0","","prediction_trial","0","","true","","0","true","true","true","true","true","true","[0]","000","010","1","","","","","","",""
"","","","","","image-keyboard-response","39","211725","0.0-14.0","650fab251b0fd30bfabbedb3","665500ab8938657b03fbdba8","66579798a720deef8acb15bb","726","stimuli/00000100.jpg"," ","","feedback_trial","0","","","","","","","","","","","","","","","","","","","","",""
"","","","","","image-keyboard-response","40","213637","0.0-15.0","650fab251b0fd30bfabbedb3","665500ab8938657b03fbdba8","66579798a720deef8acb15bb","1910","stimuli/2001100.jpg","2","","prediction_trial","2","","true","","2","true","true","false","true","false","true","[2]","001","100","1","","","","","","",""
"","","","","","image-keyboard-response","41","214668","0.0-16.0","650fab251b0fd30bfabbedb3","665500ab8938657b03fbdba8","66579798a720deef8acb15bb","1030","stimuli/20011002.jpg"," ","","feedback_trial","2","","","","","","","","","","","","","","","","","","","","",""
"","","","","","image-keyboard-response","42","216089","0.0-17.0","650fab251b0fd30bfabbedb3","665500ab8938657b03fbdba8","66579798a720deef8acb15bb","1419","stimuli/2100110.jpg","2","","prediction_trial","2","","true","","2","true","true","true","true","true","true","[2]","100","110","1","","","","","","",""
"","","","","","image-keyboard-response","43","216709","0.0-18.0","650fab251b0fd30bfabbedb3","665500ab8938657b03fbdba8","66579798a720deef8acb15bb","619","stimuli/21001102.jpg"," ","","feedback_trial","2","","","","","","","","","","","","","","","","","","","","",""
"","","","","","image-keyboard-response","44","218145","0.0-19.0","650fab251b0fd30bfabbedb3","665500ab8938657b03fbdba8","66579798a720deef8acb15bb","1435","stimuli/1101100.jpg","1","","prediction_trial","1","","true","","1","true","true","true","true","true","true","[1]","101","100","1","","","","","","",""
"","","","","","image-keyboard-response","45","218701","0.0-20.0","650fab251b0fd30bfabbedb3","665500ab8938657b03fbdba8","66579798a720deef8acb15bb","554","stimuli/11011001.jpg"," ","","feedback_trial","1","","","","","","","","","","","","","","","","","","","","",""
"","","","","","image-keyboard-response","46","219679","0.0-21.0","650fab251b0fd30bfabbedb3","665500ab8938657b03fbdba8","66579798a720deef8acb15bb","976","stimuli/1100100.jpg","1","","prediction_trial","1","","true","","1","true","true","true","true","true","true","[1]","100","100","1","","","","","","",""
"","","","","","image-keyboard-response","47","220443","0.0-22.0","650fab251b0fd30bfabbedb3","665500ab8938657b03fbdba8","66579798a720deef8acb15bb","763","stimuli/11001001.jpg"," ","","feedback_trial","1","","","","","","","","","","","","","","","","","","","","",""
"","","","","","image-keyboard-response","48","221494","0.0-23.0","650fab251b0fd30bfabbedb3","665500ab8938657b03fbdba8","66579798a720deef8acb15bb","1050","stimuli/1000001.jpg","1","","prediction_trial","1","","true","","1","true","true","true","true","true","true","[1]","000","001","1","","","","","","",""
"","","","","","image-keyboard-response","49","222314","0.0-24.0","650fab251b0fd30bfabbedb3","665500ab8938657b03fbdba8","66579798a720deef8acb15bb","818","stimuli/10000011.jpg"," ","","feedback_trial","1","","","","","","","","","","","","","","","","","","","","",""
"","","","","","image-keyboard-response","50","224507","0.0-25.0","650fab251b0fd30bfabbedb3","665500ab8938657b03fbdba8","66579798a720deef8acb15bb","2191","stimuli/2101000.jpg","0","","prediction_trial","0","","true","","2","true","true","false","false","false","false","[2,0]","101","000","1","","","","","","",""
"","","","","","image-keyboard-response","51","225419","0.0-26.0","650fab251b0fd30bfabbedb3","665500ab8938657b03fbdba8","66579798a720deef8acb15bb","912","stimuli/21010000.jpg"," ","","feedback_trial","2","","","","","","","","","","","","","","","","","","","","",""
"","","","","","image-keyboard-response","52","228302","0.0-27.0","650fab251b0fd30bfabbedb3","665500ab8938657b03fbdba8","66579798a720deef8acb15bb","2881","stimuli/2111100.jpg","1","","prediction_trial","2","","false","","2","true","true","false","false","false","false","[2,0,1]","111","100","0","","","","","","",""
"","","","","","image-keyboard-response","53","229284","0.0-28.0","650fab251b0fd30bfabbedb3","665500ab8938657b03fbdba8","66579798a720deef8acb15bb","974","stimuli/21111002.jpg"," ","","feedback_trial","2","","","","","","","","","","","","","","","","","","","","",""
"","","","","","image-keyboard-response","54","230536","0.0-29.0","650fab251b0fd30bfabbedb3","665500ab8938657b03fbdba8","66579798a720deef8acb15bb","1251","stimuli/1000101.jpg","1","","prediction_trial","1","","true","","1","true","true","true","true","true","true","[1]","000","101","1","","","","","","",""
"","","","","","image-keyboard-response","55","232057","0.0-30.0","650fab251b0fd30bfabbedb3","665500ab8938657b03fbdba8","66579798a720deef8acb15bb","1519","stimuli/10001011.jpg"," ","","feedback_trial","1","","","","","","","","","","","","","","","","","","","","",""
"","","","","","image-keyboard-response","56","235223","0.0-31.0","650fab251b0fd30bfabbedb3","665500ab8938657b03fbdba8","66579798a720deef8acb15bb","3164","stimuli/2100001.jpg","0","","prediction_trial","2","","false","","2","false","true","true","true","false","true","[2]","100","001","0","","","","","","",""
"","","","","","image-keyboard-response","57","240397","0.0-32.0","650fab251b0fd30bfabbedb3","665500ab8938657b03fbdba8","66579798a720deef8acb15bb","5174","stimuli/21000012.jpg"," ","","feedback_trial","2","","","","","","","","","","","","","","","","","","","","",""
"","","","","","image-keyboard-response","58","242281","0.0-33.0","650fab251b0fd30bfabbedb3","665500ab8938657b03fbdba8","66579798a720deef8acb15bb","1882","stimuli/1000010.jpg","1","","prediction_trial","1","","true","","1","false","true","true","true","false","true","[1]","000","010","1","","","","","","",""
"","","","","","image-keyboard-response","59","242994","0.0-34.0","650fab251b0fd30bfabbedb3","665500ab8938657b03fbdba8","66579798a720deef8acb15bb","711","stimuli/10000101.jpg"," ","","feedback_trial","1","","","","","","","","","","","","","","","","","","","","",""
"","","","","","image-keyboard-response","60","245012","0.0-35.0","650fab251b0fd30bfabbedb3","665500ab8938657b03fbdba8","66579798a720deef8acb15bb","2017","stimuli/0101010.jpg","0","","prediction_trial","0","","true","","0","true","true","false","false","false","false","[2,0]","101","010","1","","","","","","",""
"","","","","","image-keyboard-response","61","246001","0.0-36.0","650fab251b0fd30bfabbedb3","665500ab8938657b03fbdba8","66579798a720deef8acb15bb","987","stimuli/01010100.jpg"," ","","feedback_trial","2","","","","","","","","","","","","","","","","","","","","",""
"","","","","","image-keyboard-response","62","248362","0.0-37.0","650fab251b0fd30bfabbedb3","665500ab8938657b03fbdba8","66579798a720deef8acb15bb","2360","stimuli/1101011.jpg","1","","prediction_trial","1","","true","","1","false","false","true","true","false","false","[1]","101","011","1","","","","","","",""
"","","","","","image-keyboard-response","63","249062","0.0-38.0","650fab251b0fd30bfabbedb3","665500ab8938657b03fbdba8","66579798a720deef8acb15bb","699","stimuli/11010111.jpg"," ","","feedback_trial","1","","","","","","","","","","","","","","","","","","","","",""
"","","","","","image-keyboard-response","64","250978","0.0-39.0","650fab251b0fd30bfabbedb3","665500ab8938657b03fbdba8","66579798a720deef8acb15bb","1914","stimuli/0000111.jpg","2","","prediction_trial","0","","false","","0","false","false","true","true","false","false","[0]","000","111","0","","","","","","",""
"","","","","","image-keyboard-response","65","251775","0.0-40.0","650fab251b0fd30bfabbedb3","665500ab8938657b03fbdba8","66579798a720deef8acb15bb","796","stimuli/00001110.jpg"," ","","feedback_trial","0","","","","","","","","","","","","","","","","","","","","",""
"","","","","","image-keyboard-response","66","254014","0.0-41.0","650fab251b0fd30bfabbedb3","665500ab8938657b03fbdba8","66579798a720deef8acb15bb","2238","stimuli/2110111.jpg","1","","prediction_trial","2","","false","","2","false","false","true","true","false","false","[2]","110","111","0","","","","","","",""
"","","","","","image-keyboard-response","67","255601","0.0-42.0","650fab251b0fd30bfabbedb3","665500ab8938657b03fbdba8","66579798a720deef8acb15bb","1586","stimuli/21101112.jpg"," ","","feedback_trial","2","","","","","","","","","","","","","","","","","","","","",""
"","","","","","image-keyboard-response","68","256919","0.0-43.0","650fab251b0fd30bfabbedb3","665500ab8938657b03fbdba8","66579798a720deef8acb15bb","1316","stimuli/2010000.jpg","2","","prediction_trial","2","","true","","2","true","true","true","true","true","true","[2]","010","000","1","","","","","","",""
"","","","","","image-keyboard-response","69","257751","0.0-44.0","650fab251b0fd30bfabbedb3","665500ab8938657b03fbdba8","66579798a720deef8acb15bb","831","stimuli/20100002.jpg"," ","","feedback_trial","2","","","","","","","","","","","","","","","","","","","","",""
"","","","","","image-keyboard-response","70","258791","0.0-45.0","650fab251b0fd30bfabbedb3","665500ab8938657b03fbdba8","66579798a720deef8acb15bb","1039","stimuli/1001101.jpg","1","","prediction_trial","1","","true","","1","true","true","true","true","true","true","[1]","001","101","1","","","","","","",""
"","","","","","image-keyboard-response","71","259342","0.0-46.0","650fab251b0fd30bfabbedb3","665500ab8938657b03fbdba8","66579798a720deef8acb15bb","550","stimuli/10011011.jpg"," ","","feedback_trial","1","","","","","","","","","","","","","","","","","","","","",""
"","","","","","image-keyboard-response","72","261603","0.0-47.0","650fab251b0fd30bfabbedb3","665500ab8938657b03fbdba8","66579798a720deef8acb15bb","2259","stimuli/1100011.jpg","1","","prediction_trial","1","","true","","1","false","false","true","true","false","false","[1]","100","011","1","","","","","","",""
"","","","","","image-keyboard-response","73","262291","0.0-48.0","650fab251b0fd30bfabbedb3","665500ab8938657b03fbdba8","66579798a720deef8acb15bb","687","stimuli/11000111.jpg"," ","","feedback_trial","1","","","","","","","","","","","","","","","","","","","","",""
"","","","","","image-keyboard-response","74","264894","0.0-49.0","650fab251b0fd30bfabbedb3","665500ab8938657b03fbdba8","66579798a720deef8acb15bb","2602","stimuli/2111010.jpg","1","","prediction_trial","1","","true","","2","true","true","false","false","false","false","[2,1,0]","111","010","1","","","","","","",""
"","","","","","image-keyboard-response","75","265667","0.0-50.0","650fab251b0fd30bfabbedb3","665500ab8938657b03fbdba8","66579798a720deef8acb15bb","772","stimuli/21110101.jpg"," ","","feedback_trial","2","","","","","","","","","","","","","","","","","","","","",""
"","","","","","image-keyboard-response","76","266791","0.0-51.0","650fab251b0fd30bfabbedb3","665500ab8938657b03fbdba8","66579798a720deef8acb15bb","1122","stimuli/0001000.jpg","0","","prediction_trial","0","","true","","0","true","true","true","true","true","true","[0]","001","000","1","","","","","","",""
"","","","","","image-keyboard-response","77","267400","0.0-52.0","650fab251b0fd30bfabbedb3","665500ab8938657b03fbdba8","66579798a720deef8acb15bb","608","stimuli/00010000.jpg"," ","","feedback_trial","0","","","","","","","","","","","","","","","","","","","","",""
"","","","","","image-keyboard-response","78","270359","0.0-53.0","650fab251b0fd30bfabbedb3","665500ab8938657b03fbdba8","66579798a720deef8acb15bb","2958","stimuli/0101110.jpg","0","","prediction_trial","0","","true","","0","false","false","false","false","false","false","[2,0]","101","110","1","","","","","","",""
"","","","","","image-keyboard-response","79","270976","0.0-54.0","650fab251b0fd30bfabbedb3","665500ab8938657b03fbdba8","66579798a720deef8acb15bb","615","stimuli/01011100.jpg"," ","","feedback_trial","2","","","","","","","","","","","","","","","","","","","","",""
"","","","","","image-keyboard-response","80","272095","0.0-55.0","650fab251b0fd30bfabbedb3","665500ab8938657b03fbdba8","66579798a720deef8acb15bb","1117","stimuli/2000000.jpg","2","","prediction_trial","2","","true","","2","true","true","true","true","true","true","[2]","000","000","1","","","","","","",""
"","","","","","image-keyboard-response","81","272827","0.0-56.0","650fab251b0fd30bfabbedb3","665500ab8938657b03fbdba8","66579798a720deef8acb15bb","730","stimuli/20000002.jpg"," ","","feedback_trial","2","","","","","","","","","","","","","","","","","","","","",""
"","","","","","image-keyboard-response","82","275891","0.0-57.0","650fab251b0fd30bfabbedb3","665500ab8938657b03fbdba8","66579798a720deef8acb15bb","3063","stimuli/0111110.jpg","2","","prediction_trial","1","","false","","0","false","false","false","false","false","false","[0,2,1]","111","110","0","","","","","","",""
"","","","","","image-keyboard-response","83","276626","0.0-58.0","650fab251b0fd30bfabbedb3","665500ab8938657b03fbdba8","66579798a720deef8acb15bb","734","stimuli/01111101.jpg"," ","","feedback_trial","0","","","","","","","","","","","","","","","","","","","","",""
"","","","","","image-keyboard-response","84","278377","0.0-59.0","650fab251b0fd30bfabbedb3","665500ab8938657b03fbdba8","66579798a720deef8acb15bb","1750","stimuli/1111110.jpg","0","","prediction_trial","1","","false","","1","false","false","false","false","false","false","[0,1,2]","111","110","0","","","","","","",""
"","","","","","image-keyboard-response","85","279446","0.0-60.0","650fab251b0fd30bfabbedb3","665500ab8938657b03fbdba8","66579798a720deef8acb15bb","1068","stimuli/11111101.jpg"," ","","feedback_trial","0","","","","","","","","","","","","","","","","","","","","",""
"","","","","","image-keyboard-response","86","280979","0.0-61.0","650fab251b0fd30bfabbedb3","665500ab8938657b03fbdba8","66579798a720deef8acb15bb","1526","stimuli/0110111.jpg","2","","prediction_trial","0","","false","","0","false","false","false","false","false","false","[1,0]","110","111","0","","","","","","",""
"","","","","","image-keyboard-response","87","281838","0.0-62.0","650fab251b0fd30bfabbedb3","665500ab8938657b03fbdba8","66579798a720deef8acb15bb","857","stimuli/01101110.jpg"," ","","feedback_trial","1","","","","","","","","","","","","","","","","","","","","",""
"","","","","","image-keyboard-response","88","284324","0.0-63.0","650fab251b0fd30bfabbedb3","665500ab8938657b03fbdba8","66579798a720deef8acb15bb","2485","stimuli/0011100.jpg","0","","prediction_trial","0","","true","","0","false","true","true","true","false","true","[0]","011","100","1","","","","","","",""
"","","","","","image-keyboard-response","89","285825","0.0-64.0","650fab251b0fd30bfabbedb3","665500ab8938657b03fbdba8","66579798a720deef8acb15bb","1500","stimuli/00111000.jpg"," ","","feedback_trial","0","","","","","","","","","","","","","","","","","","","","",""
"","","","","","image-keyboard-response","90","287252","0.0-65.0","650fab251b0fd30bfabbedb3","665500ab8938657b03fbdba8","66579798a720deef8acb15bb","1426","stimuli/2111111.jpg","2","","prediction_trial","2","","true","","2","false","false","false","false","false","false","[1,0,2]","111","111","1","","","","","","",""
"","","","","","image-keyboard-response","91","287954","0.0-66.0","650fab251b0fd30bfabbedb3","665500ab8938657b03fbdba8","66579798a720deef8acb15bb","700","stimuli/21111112.jpg"," ","","feedback_trial","1","","","","","","","","","","","","","","","","","","","","",""
"","","","","","image-keyboard-response","92","289262","0.0-67.0","650fab251b0fd30bfabbedb3","665500ab8938657b03fbdba8","66579798a720deef8acb15bb","1306","stimuli/0100010.jpg","0","","prediction_trial","0","","true","","0","true","true","false","true","false","true","[0]","100","010","1","","","","","","",""
"","","","","","image-keyboard-response","93","289865","0.0-68.0","650fab251b0fd30bfabbedb3","665500ab8938657b03fbdba8","66579798a720deef8acb15bb","607","stimuli/01000100.jpg"," ","","feedback_trial","0","","","","","","","","","","","","","","","","","","","","",""
"","","","","","image-keyboard-response","94","294476","0.0-69.0","650fab251b0fd30bfabbedb3","665500ab8938657b03fbdba8","66579798a720deef8acb15bb","4610","stimuli/0100101.jpg","2","","prediction_trial","0","","false","","0","false","false","false","true","false","false","[0]","100","101","0","","","","","","",""
"","","","","","image-keyboard-response","95","295264","0.0-70.0","650fab251b0fd30bfabbedb3","665500ab8938657b03fbdba8","66579798a720deef8acb15bb","787","stimuli/01001010.jpg"," ","","feedback_trial","0","","","","","","","","","","","","","","","","","","","","",""
"","","","","","image-keyboard-response","96","299527","0.0-71.0","650fab251b0fd30bfabbedb3","665500ab8938657b03fbdba8","66579798a720deef8acb15bb","4262","stimuli/2100111.jpg","2","","prediction_trial","2","","true","","2","false","false","true","true","false","false","[2]","100","111","1","","","","","","",""
"","","","","","image-keyboard-response","97","300223","0.0-72.0","650fab251b0fd30bfabbedb3","665500ab8938657b03fbdba8","66579798a720deef8acb15bb","694","stimuli/21001112.jpg"," ","","feedback_trial","2","","","","","","","","","","","","","","","","","","","","",""
"","","","","","image-keyboard-response","98","303303","0.0-73.0","650fab251b0fd30bfabbedb3","665500ab8938657b03fbdba8","66579798a720deef8acb15bb","3073","stimuli/1111100.jpg","1","","prediction_trial","1","","true","","1","true","true","false","false","false","false","[1,0,2]","111","100","1","","","","","","",""
"","","","","","image-keyboard-response","99","304000","0.0-74.0","650fab251b0fd30bfabbedb3","665500ab8938657b03fbdba8","66579798a720deef8acb15bb","695","stimuli/11111001.jpg"," ","","feedback_trial","1","","","","","","","","","","","","","","","","","","","","",""
"","","","","","image-keyboard-response","100","305420","0.0-75.0","650fab251b0fd30bfabbedb3","665500ab8938657b03fbdba8","66579798a720deef8acb15bb","1419","stimuli/2110000.jpg","2","","prediction_trial","2","","true","","2","true","true","true","true","true","true","[2]","110","000","1","","","","","","",""
"","","","","","image-keyboard-response","101","305999","0.0-76.0","650fab251b0fd30bfabbedb3","665500ab8938657b03fbdba8","66579798a720deef8acb15bb","578","stimuli/21100002.jpg"," ","","feedback_trial","2","","","","","","","","","","","","","","","","","","","","",""
"","","","","","image-keyboard-response","102","308853","0.0-77.0","650fab251b0fd30bfabbedb3","665500ab8938657b03fbdba8","66579798a720deef8acb15bb","2853","stimuli/1001011.jpg","2","","prediction_trial","1","","false","","1","false","false","true","true","false","false","[1]","001","011","0","","","","","","",""
"","","","","","image-keyboard-response","103","309541","0.0-78.0","650fab251b0fd30bfabbedb3","665500ab8938657b03fbdba8","66579798a720deef8acb15bb","687","stimuli/10010111.jpg"," ","","feedback_trial","1","","","","","","","","","","","","","","","","","","","","",""
"","","","","","image-keyboard-response","104","312107","0.0-79.0","650fab251b0fd30bfabbedb3","665500ab8938657b03fbdba8","66579798a720deef8acb15bb","2564","stimuli/2101011.jpg","2","","prediction_trial","0","","false","","2","false","false","false","false","false","false","[0,2]","101","011","0","","","","","","",""
"","","","","","image-keyboard-response","105","313301","0.0-80.0","650fab251b0fd30bfabbedb3","665500ab8938657b03fbdba8","66579798a720deef8acb15bb","1193","stimuli/21010110.jpg"," ","","feedback_trial","0","","","","","","","","","","","","","","","","","","","","",""
"","","","","","image-keyboard-response","106","319384","0.0-81.0","650fab251b0fd30bfabbedb3","665500ab8938657b03fbdba8","66579798a720deef8acb15bb","6082","stimuli/2101110.jpg","0","","prediction_trial","2","","false","","2","true","true","false","false","false","false","[0,2]","101","110","0","","","","","","",""
"","","","","","image-keyboard-response","107","320153","0.0-82.0","650fab251b0fd30bfabbedb3","665500ab8938657b03fbdba8","66579798a720deef8acb15bb","767","stimuli/21011102.jpg"," ","","feedback_trial","0","","","","","","","","","","","","","","","","","","","","",""
"","","","","","image-keyboard-response","108","323847","0.0-83.0","650fab251b0fd30bfabbedb3","665500ab8938657b03fbdba8","66579798a720deef8acb15bb","3693","stimuli/1001110.jpg","0","","prediction_trial","1","","false","","1","false","false","true","true","false","false","[1]","001","110","0","","","","","","",""
"","","","","","image-keyboard-response","109","324583","0.0-84.0","650fab251b0fd30bfabbedb3","665500ab8938657b03fbdba8","66579798a720deef8acb15bb","734","stimuli/10011101.jpg"," ","","feedback_trial","1","","","","","","","","","","","","","","","","","","","","",""
"","","","","","image-keyboard-response","110","326789","0.0-85.0","650fab251b0fd30bfabbedb3","665500ab8938657b03fbdba8","66579798a720deef8acb15bb","2205","stimuli/0000100.jpg","0","","prediction_trial","0","","true","","0","false","true","true","true","false","true","[0]","000","100","1","","","","","","",""
"","","","","","image-keyboard-response","111","327463","0.0-86.0","650fab251b0fd30bfabbedb3","665500ab8938657b03fbdba8","66579798a720deef8acb15bb","673","stimuli/00001000.jpg"," ","","feedback_trial","0","","","","","","","","","","","","","","","","","","","","",""
"","","","","","image-keyboard-response","112","329162","0.0-87.0","650fab251b0fd30bfabbedb3","665500ab8938657b03fbdba8","66579798a720deef8acb15bb","1697","stimuli/2111101.jpg","2","","prediction_trial","2","","true","","2","false","false","false","false","false","false","[2,1,0]","111","101","1","","","","","","",""
"","","","","","image-keyboard-response","113","329970","0.0-88.0","650fab251b0fd30bfabbedb3","665500ab8938657b03fbdba8","66579798a720deef8acb15bb","807","stimuli/21111012.jpg"," ","","feedback_trial","2","","","","","","","","","","","","","","","","","","","","",""
"","","","","","image-keyboard-response","114","331619","0.0-89.0","650fab251b0fd30bfabbedb3","665500ab8938657b03fbdba8","66579798a720deef8acb15bb","1647","stimuli/2001001.jpg","2","","prediction_trial","2","","true","","2","false","true","false","true","false","true","[2]","001","001","1","","","","","","",""
"","","","","","image-keyboard-response","115","332269","0.0-90.0","650fab251b0fd30bfabbedb3","665500ab8938657b03fbdba8","66579798a720deef8acb15bb","648","stimuli/20010012.jpg"," ","","feedback_trial","2","","","","","","","","","","","","","","","","","","","","",""
"","","","","","image-keyboard-response","116","338090","0.0-91.0","650fab251b0fd30bfabbedb3","665500ab8938657b03fbdba8","66579798a720deef8acb15bb","5820","stimuli/0100011.jpg","0","","prediction_trial","0","","true","","0","true","true","false","true","false","true","[0]","100","011","1","","","","","","",""
"","","","","","image-keyboard-response","117","338869","0.0-92.0","650fab251b0fd30bfabbedb3","665500ab8938657b03fbdba8","66579798a720deef8acb15bb","778","stimuli/01000110.jpg"," ","","feedback_trial","0","","","","","","","","","","","","","","","","","","","","",""
"","","","","","image-keyboard-response","118","342720","0.0-93.0","650fab251b0fd30bfabbedb3","665500ab8938657b03fbdba8","66579798a720deef8acb15bb","3849","stimuli/1011011.jpg","1","","prediction_trial","2","","false","","1","false","false","false","false","false","false","[1,2]","011","011","0","","","","","","",""
"","","","","","image-keyboard-response","119","343505","0.0-94.0","650fab251b0fd30bfabbedb3","665500ab8938657b03fbdba8","66579798a720deef8acb15bb","783","stimuli/10110112.jpg"," ","","feedback_trial","1","","","","","","","","","","","","","","","","","","","","",""
"","","","","","image-keyboard-response","120","345634","0.0-95.0","650fab251b0fd30bfabbedb3","665500ab8938657b03fbdba8","66579798a720deef8acb15bb","2122","stimuli/2100011.jpg","2","","prediction_trial","2","","true","","2","false","false","true","true","false","false","[2]","100","011","1","","","","","","",""
"","","","","","image-keyboard-response","121","346419","0.0-96.0","650fab251b0fd30bfabbedb3","665500ab8938657b03fbdba8","66579798a720deef8acb15bb","784","stimuli/21000112.jpg"," ","","feedback_trial","2","","","","","","","","","","","","","","","","","","","","",""
"","","","","","image-keyboard-response","122","348829","0.0-97.0","650fab251b0fd30bfabbedb3","665500ab8938657b03fbdba8","66579798a720deef8acb15bb","2409","stimuli/0100001.jpg","0","","prediction_trial","0","","true","","0","true","true","false","true","false","true","[0]","100","001","1","","","","","","",""
"","","","","","image-keyboard-response","123","349406","0.0-98.0","650fab251b0fd30bfabbedb3","665500ab8938657b03fbdba8","66579798a720deef8acb15bb","574","stimuli/01000010.jpg"," ","","feedback_trial","0","","","","","","","","","","","","","","","","","","","","",""
"","","","","","image-keyboard-response","124","351932","0.0-99.0","650fab251b0fd30bfabbedb3","665500ab8938657b03fbdba8","66579798a720deef8acb15bb","2521","stimuli/0011101.jpg","1","","prediction_trial","0","","false","","0","false","false","true","true","false","false","[0]","011","101","0","","","","","","",""
"","","","","","image-keyboard-response","125","352636","0.0-100.0","650fab251b0fd30bfabbedb3","665500ab8938657b03fbdba8","66579798a720deef8acb15bb","703","stimuli/00111010.jpg"," ","","feedback_trial","0","","","","","","","","","","","","","","","","","","","","",""
"","","","","","image-keyboard-response","126","355122","0.0-101.0","650fab251b0fd30bfabbedb3","665500ab8938657b03fbdba8","66579798a720deef8acb15bb","2484","stimuli/2010001.jpg","2","","prediction_trial","2","","true","","2","false","true","true","true","false","true","[2]","010","001","1","","","","","","",""
"","","","","","image-keyboard-response","127","355697","0.0-102.0","650fab251b0fd30bfabbedb3","665500ab8938657b03fbdba8","66579798a720deef8acb15bb","574","stimuli/20100012.jpg"," ","","feedback_trial","2","","","","","","","","","","","","","","","","","","","","",""
"","","","","","image-keyboard-response","128","356845","0.0-103.0","650fab251b0fd30bfabbedb3","665500ab8938657b03fbdba8","66579798a720deef8acb15bb","1147","stimuli/2100000.jpg","2","","prediction_trial","2","","true","","2","true","true","true","true","true","true","[2]","100","000","1","","","","","","",""
"","","","","","image-keyboard-response","129","357360","0.0-104.0","650fab251b0fd30bfabbedb3","665500ab8938657b03fbdba8","66579798a720deef8acb15bb","513","stimuli/21000002.jpg"," ","","feedback_trial","2","","","","","","","","","","","","","","","","","","","","",""
"","","","","","image-keyboard-response","130","360008","0.0-105.0","650fab251b0fd30bfabbedb3","665500ab8938657b03fbdba8","66579798a720deef8acb15bb","2647","stimuli/1100010.jpg","1","","prediction_trial","1","","true","","1","false","true","true","true","false","true","[1]","100","010","1","","","","","","",""
"","","","","","image-keyboard-response","131","360576","0.0-106.0","650fab251b0fd30bfabbedb3","665500ab8938657b03fbdba8","66579798a720deef8acb15bb","566","stimuli/11000101.jpg"," ","","feedback_trial","1","","","","","","","","","","","","","","","","","","","","",""
"","","","","","image-keyboard-response","132","361660","0.0-107.0","650fab251b0fd30bfabbedb3","665500ab8938657b03fbdba8","66579798a720deef8acb15bb","1083","stimuli/2110100.jpg","2","","prediction_trial","2","","true","","2","true","true","true","true","true","true","[2]","110","100","1","","","","","","",""
"","","","","","image-keyboard-response","133","362705","0.0-108.0","650fab251b0fd30bfabbedb3","665500ab8938657b03fbdba8","66579798a720deef8acb15bb","1044","stimuli/21101002.jpg"," ","","feedback_trial","2","","","","","","","","","","","","","","","","","","","","",""
"","","","","","image-keyboard-response","134","364063","0.0-109.0","650fab251b0fd30bfabbedb3","665500ab8938657b03fbdba8","66579798a720deef8acb15bb","1356","stimuli/1100111.jpg","1","","prediction_trial","1","","true","","1","false","false","true","true","false","false","[1]","100","111","1","","","","","","",""
"","","","","","image-keyboard-response","135","364833","0.0-110.0","650fab251b0fd30bfabbedb3","665500ab8938657b03fbdba8","66579798a720deef8acb15bb","769","stimuli/11001111.jpg"," ","","feedback_trial","1","","","","","","","","","","","","","","","","","","","","",""
"","","","","","image-keyboard-response","136","366700","0.0-111.0","650fab251b0fd30bfabbedb3","665500ab8938657b03fbdba8","66579798a720deef8acb15bb","1865","stimuli/0100100.jpg","0","","prediction_trial","0","","true","","0","false","true","false","true","false","true","[0]","100","100","1","","","","","","",""
"","","","","","image-keyboard-response","137","367309","0.0-112.0","650fab251b0fd30bfabbedb3","665500ab8938657b03fbdba8","66579798a720deef8acb15bb","608","stimuli/01001000.jpg"," ","","feedback_trial","0","","","","","","","","","","","","","","","","","","","","",""
"","","","","","image-keyboard-response","138","369983","0.0-113.0","650fab251b0fd30bfabbedb3","665500ab8938657b03fbdba8","66579798a720deef8acb15bb","2673","stimuli/1110100.jpg","0","","prediction_trial","0","","true","","1","true","true","false","false","false","false","[1,0]","110","100","1","","","","","","",""
"","","","","","image-keyboard-response","139","370561","0.0-114.0","650fab251b0fd30bfabbedb3","665500ab8938657b03fbdba8","66579798a720deef8acb15bb","576","stimuli/11101000.jpg"," ","","feedback_trial","1","","","","","","","","","","","","","","","","","","","","",""
"","","","","","image-keyboard-response","140","372252","0.0-115.0","650fab251b0fd30bfabbedb3","665500ab8938657b03fbdba8","66579798a720deef8acb15bb","1690","stimuli/0011000.jpg","0","","prediction_trial","0","","true","","0","true","true","true","true","true","true","[0]","011","000","1","","","","","","",""
"","","","","","image-keyboard-response","141","372735","0.0-116.0","650fab251b0fd30bfabbedb3","665500ab8938657b03fbdba8","66579798a720deef8acb15bb","482","stimuli/00110000.jpg"," ","","feedback_trial","0","","","","","","","","","","","","","","","","","","","","",""
"","","","","","image-keyboard-response","142","375209","0.0-117.0","650fab251b0fd30bfabbedb3","665500ab8938657b03fbdba8","66579798a720deef8acb15bb","2473","stimuli/2011001.jpg","1","","prediction_trial","2","","false","","2","false","true","false","false","false","false","[1,2]","011","001","0","","","","","","",""
"","","","","","image-keyboard-response","143","375863","0.0-118.0","650fab251b0fd30bfabbedb3","665500ab8938657b03fbdba8","66579798a720deef8acb15bb","653","stimuli/20110012.jpg"," ","","feedback_trial","1","","","","","","","","","","","","","","","","","","","","",""
"","","","","","image-keyboard-response","144","380285","0.0-119.0","650fab251b0fd30bfabbedb3","665500ab8938657b03fbdba8","66579798a720deef8acb15bb","4417","stimuli/0010100.jpg","0","","prediction_trial","0","","true","","0","false","true","true","true","false","true","[0]","010","100","1","","","","","","",""
"","","","","","image-keyboard-response","145","380869","0.0-120.0","650fab251b0fd30bfabbedb3","665500ab8938657b03fbdba8","66579798a720deef8acb15bb","583","stimuli/00101000.jpg"," ","","feedback_trial","0","","","","","","","","","","","","","","","","","","","","",""
"","","","","","image-keyboard-response","146","383567","0.0-121.0","650fab251b0fd30bfabbedb3","665500ab8938657b03fbdba8","66579798a720deef8acb15bb","2697","stimuli/1010101.jpg","1","","prediction_trial","1","","true","","1","true","true","false","true","false","true","[1]","010","101","1","","","","","","",""
"","","","","","image-keyboard-response","147","384269","0.0-122.0","650fab251b0fd30bfabbedb3","665500ab8938657b03fbdba8","66579798a720deef8acb15bb","701","stimuli/10101011.jpg"," ","","feedback_trial","1","","","","","","","","","","","","","","","","","","","","",""
"","","","","","image-keyboard-response","148","386787","0.0-123.0","650fab251b0fd30bfabbedb3","665500ab8938657b03fbdba8","66579798a720deef8acb15bb","2516","stimuli/2010011.jpg","1","","prediction_trial","2","","false","","2","false","false","true","true","false","false","[2]","010","011","0","","","","","","",""
"","","","","","image-keyboard-response","149","387654","0.0-124.0","650fab251b0fd30bfabbedb3","665500ab8938657b03fbdba8","66579798a720deef8acb15bb","866","stimuli/20100112.jpg"," ","","feedback_trial","2","","","","","","","","","","","","","","","","","","","","",""
"","","","","","image-keyboard-response","150","390194","0.0-125.0","650fab251b0fd30bfabbedb3","665500ab8938657b03fbdba8","66579798a720deef8acb15bb","2539","stimuli/0110000.jpg","1","","prediction_trial","0","","false","","0","true","true","false","false","false","false","[1,0]","110","000","0","","","","","","",""
"","","","","","image-keyboard-response","151","390861","0.0-126.0","650fab251b0fd30bfabbedb3","665500ab8938657b03fbdba8","66579798a720deef8acb15bb","666","stimuli/01100000.jpg"," ","","feedback_trial","1","","","","","","","","","","","","","","","","","","","","",""
"","","","","","image-keyboard-response","152","395356","0.0-127.0","650fab251b0fd30bfabbedb3","665500ab8938657b03fbdba8","66579798a720deef8acb15bb","4494","stimuli/0110011.jpg","0","","prediction_trial","1","","false","","0","true","true","false","false","false","false","[1,0]","110","011","0","","","","","","",""
"","","","","","image-keyboard-response","153","396589","0.0-128.0","650fab251b0fd30bfabbedb3","665500ab8938657b03fbdba8","66579798a720deef8acb15bb","1232","stimuli/01100111.jpg"," ","","feedback_trial","1","","","","","","","","","","","","","","","","","","","","",""
"","","","","","image-keyboard-response","154","397672","0.0-129.0","650fab251b0fd30bfabbedb3","665500ab8938657b03fbdba8","66579798a720deef8acb15bb","1082","stimuli/1001000.jpg","1","","prediction_trial","1","","true","","1","true","true","true","true","true","true","[1]","001","000","1","","","","","","",""
"","","","","","image-keyboard-response","155","398218","0.0-130.0","650fab251b0fd30bfabbedb3","665500ab8938657b03fbdba8","66579798a720deef8acb15bb","545","stimuli/10010001.jpg"," ","","feedback_trial","1","","","","","","","","","","","","","","","","","","","","",""
"","","","","","image-keyboard-response","156","400065","0.0-131.0","650fab251b0fd30bfabbedb3","665500ab8938657b03fbdba8","66579798a720deef8acb15bb","1846","stimuli/1101111.jpg","1","","prediction_trial","1","","true","","1","false","false","true","true","false","false","[1]","101","111","1","","","","","","",""
"","","","","","image-keyboard-response","157","400805","0.0-132.0","650fab251b0fd30bfabbedb3","665500ab8938657b03fbdba8","66579798a720deef8acb15bb","739","stimuli/11011111.jpg"," ","","feedback_trial","1","","","","","","","","","","","","","","","","","","","","",""
"","","","","","image-keyboard-response","158","402619","0.0-133.0","650fab251b0fd30bfabbedb3","665500ab8938657b03fbdba8","66579798a720deef8acb15bb","1813","stimuli/1011000.jpg","2","","prediction_trial","2","","true","","1","true","true","false","false","false","false","[2,1]","011","000","1","","","","","","",""
"","","","","","image-keyboard-response","159","403482","0.0-134.0","650fab251b0fd30bfabbedb3","665500ab8938657b03fbdba8","66579798a720deef8acb15bb","862","stimuli/10110002.jpg"," ","","feedback_trial","2","","","","","","","","","","","","","","","","","","","","",""
"","","","","","image-keyboard-response","160","405203","0.0-135.0","650fab251b0fd30bfabbedb3","665500ab8938657b03fbdba8","66579798a720deef8acb15bb","1719","stimuli/0011001.jpg","0","","prediction_trial","0","","true","","0","true","true","true","true","true","true","[0]","011","001","1","","","","","","",""
"","","","","","image-keyboard-response","161","405652","0.0-136.0","650fab251b0fd30bfabbedb3","665500ab8938657b03fbdba8","66579798a720deef8acb15bb","448","stimuli/00110010.jpg"," ","","feedback_trial","0","","","","","","","","","","","","","","","","","","","","",""
"","","","","","image-keyboard-response","162","407443","0.0-137.0","650fab251b0fd30bfabbedb3","665500ab8938657b03fbdba8","66579798a720deef8acb15bb","1790","stimuli/2011100.jpg","1","","prediction_trial","1","","true","","2","true","true","false","false","false","false","[2,1]","011","100","1","","","","","","",""
"","","","","","image-keyboard-response","163","408084","0.0-138.0","650fab251b0fd30bfabbedb3","665500ab8938657b03fbdba8","66579798a720deef8acb15bb","639","stimuli/20111001.jpg"," ","","feedback_trial","2","","","","","","","","","","","","","","","","","","","","",""
"","","","","","image-keyboard-response","164","410807","0.0-139.0","650fab251b0fd30bfabbedb3","665500ab8938657b03fbdba8","66579798a720deef8acb15bb","2721","stimuli/0101000.jpg","2","","prediction_trial","0","","false","","0","true","true","false","false","false","false","[0,2]","101","000","0","","","","","","",""
"","","","","","image-keyboard-response","165","411928","0.0-140.0","650fab251b0fd30bfabbedb3","665500ab8938657b03fbdba8","66579798a720deef8acb15bb","1119","stimuli/01010000.jpg"," ","","feedback_trial","0","","","","","","","","","","","","","","","","","","","","",""
"","","","","","image-keyboard-response","166","413703","0.0-141.0","650fab251b0fd30bfabbedb3","665500ab8938657b03fbdba8","66579798a720deef8acb15bb","1774","stimuli/0010011.jpg","0","","prediction_trial","0","","true","","0","true","true","true","true","true","true","[0]","010","011","1","","","","","","",""
"","","","","","image-keyboard-response","167","414270","0.0-142.0","650fab251b0fd30bfabbedb3","665500ab8938657b03fbdba8","66579798a720deef8acb15bb","566","stimuli/00100110.jpg"," ","","feedback_trial","0","","","","","","","","","","","","","","","","","","","","",""
"","","","","","image-keyboard-response","168","416429","0.0-143.0","650fab251b0fd30bfabbedb3","665500ab8938657b03fbdba8","66579798a720deef8acb15bb","2159","stimuli/0101111.jpg","2","","prediction_trial","0","","false","","0","false","false","false","false","false","false","[0,2]","101","111","0","","","","","","",""
"","","","","","image-keyboard-response","169","417341","0.0-144.0","650fab251b0fd30bfabbedb3","665500ab8938657b03fbdba8","66579798a720deef8acb15bb","910","stimuli/01011110.jpg"," ","","feedback_trial","0","","","","","","","","","","","","","","","","","","","","",""
"","","","","","image-keyboard-response","170","421760","0.0-145.0","650fab251b0fd30bfabbedb3","665500ab8938657b03fbdba8","66579798a720deef8acb15bb","4418","stimuli/1000110.jpg","1","","prediction_trial","1","","true","","1","false","false","true","true","false","false","[1]","000","110","1","","","","","","",""
"","","","","","image-keyboard-response","171","422418","0.0-146.0","650fab251b0fd30bfabbedb3","665500ab8938657b03fbdba8","66579798a720deef8acb15bb","657","stimuli/10001101.jpg"," ","","feedback_trial","1","","","","","","","","","","","","","","","","","","","","",""
"","","","","","image-keyboard-response","172","423530","0.0-147.0","650fab251b0fd30bfabbedb3","665500ab8938657b03fbdba8","66579798a720deef8acb15bb","1110","stimuli/0001011.jpg","0","","prediction_trial","0","","true","","0","true","true","true","true","true","true","[0]","001","011","1","","","","","","",""
"","","","","","image-keyboard-response","173","424070","0.0-148.0","650fab251b0fd30bfabbedb3","665500ab8938657b03fbdba8","66579798a720deef8acb15bb","538","stimuli/00010110.jpg"," ","","feedback_trial","0","","","","","","","","","","","","","","","","","","","","",""
"","","","","","image-keyboard-response","174","425041","0.0-149.0","650fab251b0fd30bfabbedb3","665500ab8938657b03fbdba8","66579798a720deef8acb15bb","969","stimuli/1000100.jpg","1","","prediction_trial","1","","true","","1","true","true","true","true","true","true","[1]","000","100","1","","","","","","",""
"","","","","","image-keyboard-response","175","425623","0.0-150.0","650fab251b0fd30bfabbedb3","665500ab8938657b03fbdba8","66579798a720deef8acb15bb","580","stimuli/10001001.jpg"," ","","feedback_trial","1","","","","","","","","","","","","","","","","","","","","",""
"","","","","","image-keyboard-response","176","427309","0.0-151.0","650fab251b0fd30bfabbedb3","665500ab8938657b03fbdba8","66579798a720deef8acb15bb","1685","stimuli/1110011.jpg","1","","prediction_trial","0","","false","","1","false","false","false","false","false","false","[1,0]","110","011","0","","","","","","",""
"","","","","","image-keyboard-response","177","428072","0.0-152.0","650fab251b0fd30bfabbedb3","665500ab8938657b03fbdba8","66579798a720deef8acb15bb","761","stimuli/11100110.jpg"," ","","feedback_trial","1","","","","","","","","","","","","","","","","","","","","",""
"","","","","","image-keyboard-response","178","429525","0.0-153.0","650fab251b0fd30bfabbedb3","665500ab8938657b03fbdba8","66579798a720deef8acb15bb","1452","stimuli/2110011.jpg","1","","prediction_trial","2","","false","","2","false","false","true","true","false","false","[2]","110","011","0","","","","","","",""
"","","","","","image-keyboard-response","179","430699","0.0-154.0","650fab251b0fd30bfabbedb3","665500ab8938657b03fbdba8","66579798a720deef8acb15bb","1172","stimuli/21100112.jpg"," ","","feedback_trial","2","","","","","","","","","","","","","","","","","","","","",""
"","","","","","image-keyboard-response","180","432935","0.0-155.0","650fab251b0fd30bfabbedb3","665500ab8938657b03fbdba8","66579798a720deef8acb15bb","2235","stimuli/2000001.jpg","2","","prediction_trial","2","","true","","2","false","true","true","true","false","true","[2]","000","001","1","","","","","","",""
"","","","","","image-keyboard-response","181","433620","0.0-156.0","650fab251b0fd30bfabbedb3","665500ab8938657b03fbdba8","66579798a720deef8acb15bb","684","stimuli/20000012.jpg"," ","","feedback_trial","2","","","","","","","","","","","","","","","","","","","","",""
"","","","","","image-keyboard-response","182","435777","0.0-157.0","650fab251b0fd30bfabbedb3","665500ab8938657b03fbdba8","66579798a720deef8acb15bb","2155","stimuli/2101100.jpg","0","","prediction_trial","0","","true","","2","true","true","false","false","false","false","[0,2]","101","100","1","","","","","","",""
"","","","","","image-keyboard-response","183","436736","0.0-158.0","650fab251b0fd30bfabbedb3","665500ab8938657b03fbdba8","66579798a720deef8acb15bb","958","stimuli/21011000.jpg"," ","","feedback_trial","0","","","","","","","","","","","","","","","","","","","","",""
"","","","","","image-keyboard-response","184","438820","0.0-159.0","650fab251b0fd30bfabbedb3","665500ab8938657b03fbdba8","66579798a720deef8acb15bb","2082","stimuli/1011110.jpg","1","","prediction_trial","2","","false","","1","false","false","false","false","false","false","[2,1]","011","110","0","","","","","","",""
"","","","","","image-keyboard-response","185","439486","0.0-160.0","650fab251b0fd30bfabbedb3","665500ab8938657b03fbdba8","66579798a720deef8acb15bb","665","stimuli/10111102.jpg"," ","","feedback_trial","2","","","","","","","","","","","","","","","","","","","","",""
"","","","","","image-keyboard-response","186","441838","0.0-161.0","650fab251b0fd30bfabbedb3","665500ab8938657b03fbdba8","66579798a720deef8acb15bb","2350","stimuli/2110101.jpg","1","","prediction_trial","2","","false","","2","false","false","true","true","false","false","[2]","110","101","0","","","","","","",""
"","","","","","image-keyboard-response","187","442544","0.0-162.0","650fab251b0fd30bfabbedb3","665500ab8938657b03fbdba8","66579798a720deef8acb15bb","704","stimuli/21101012.jpg"," ","","feedback_trial","2","","","","","","","","","","","","","","","","","","","","",""
"","","","","","image-keyboard-response","188","446468","0.0-163.0","650fab251b0fd30bfabbedb3","665500ab8938657b03fbdba8","66579798a720deef8acb15bb","3923","stimuli/1101010.jpg","1","","prediction_trial","1","","true","","1","false","true","true","true","false","true","[1]","101","010","1","","","","","","",""
"","","","","","image-keyboard-response","189","447021","0.0-164.0","650fab251b0fd30bfabbedb3","665500ab8938657b03fbdba8","66579798a720deef8acb15bb","551","stimuli/11010101.jpg"," ","","feedback_trial","1","","","","","","","","","","","","","","","","","","","","",""
"","","","","","image-keyboard-response","190","448581","0.0-165.0","650fab251b0fd30bfabbedb3","665500ab8938657b03fbdba8","66579798a720deef8acb15bb","1559","stimuli/0111011.jpg","0","","prediction_trial","1","","false","","0","true","true","false","false","false","false","[2,1,0]","111","011","0","","","","","","",""
"","","","","","image-keyboard-response","191","449324","0.0-166.0","650fab251b0fd30bfabbedb3","665500ab8938657b03fbdba8","66579798a720deef8acb15bb","742","stimuli/01110111.jpg"," ","","feedback_trial","2","","","","","","","","","","","","","","","","","","","","",""
"","","","","","image-keyboard-response","192","450507","0.0-167.0","650fab251b0fd30bfabbedb3","665500ab8938657b03fbdba8","66579798a720deef8acb15bb","1181","stimuli/1111111.jpg","1","","prediction_trial","1","","true","","1","false","false","false","false","false","false","[2,1,0]","111","111","1","","","","","","",""
"","","","","","image-keyboard-response","193","451204","0.0-168.0","650fab251b0fd30bfabbedb3","665500ab8938657b03fbdba8","66579798a720deef8acb15bb","695","stimuli/11111111.jpg"," ","","feedback_trial","2","","","","","","","","","","","","","","","","","","","","",""
"","","","","","image-keyboard-response","194","452395","0.0-169.0","650fab251b0fd30bfabbedb3","665500ab8938657b03fbdba8","66579798a720deef8acb15bb","1190","stimuli/1101101.jpg","1","","prediction_trial","1","","true","","1","true","true","true","true","true","true","[1]","101","101","1","","","","","","",""
"","","","","","image-keyboard-response","195","453059","0.0-170.0","650fab251b0fd30bfabbedb3","665500ab8938657b03fbdba8","66579798a720deef8acb15bb","663","stimuli/11011011.jpg"," ","","feedback_trial","1","","","","","","","","","","","","","","","","","","","","",""
"","","","","","image-keyboard-response","196","454457","0.0-171.0","650fab251b0fd30bfabbedb3","665500ab8938657b03fbdba8","66579798a720deef8acb15bb","1395","stimuli/2001111.jpg","2","","prediction_trial","2","","true","","2","false","false","false","true","false","false","[2]","001","111","1","","","","","","",""
"","","","","","image-keyboard-response","197","455179","0.0-172.0","650fab251b0fd30bfabbedb3","665500ab8938657b03fbdba8","66579798a720deef8acb15bb","720","stimuli/20011112.jpg"," ","","feedback_trial","2","","","","","","","","","","","","","","","","","","","","",""
"","","","","","image-keyboard-response","198","456564","0.0-173.0","650fab251b0fd30bfabbedb3","665500ab8938657b03fbdba8","66579798a720deef8acb15bb","1384","stimuli/1100101.jpg","1","","prediction_trial","1","","true","","1","true","true","true","true","true","true","[1]","100","101","1","","","","","","",""
"","","","","","image-keyboard-response","199","457231","0.0-174.0","650fab251b0fd30bfabbedb3","665500ab8938657b03fbdba8","66579798a720deef8acb15bb","666","stimuli/11001011.jpg"," ","","feedback_trial","1","","","","","","","","","","","","","","","","","","","","",""
"","","","","","image-keyboard-response","200","458051","0.0-175.0","650fab251b0fd30bfabbedb3","665500ab8938657b03fbdba8","66579798a720deef8acb15bb","819","stimuli/0011010.jpg","0","","prediction_trial","0","","true","","0","true","true","true","true","true","true","[0]","011","010","1","","","","","","",""
"","","","","","image-keyboard-response","201","458608","0.0-176.0","650fab251b0fd30bfabbedb3","665500ab8938657b03fbdba8","66579798a720deef8acb15bb","555","stimuli/00110100.jpg"," ","","feedback_trial","0","","","","","","","","","","","","","","","","","","","","",""
"","","","","","image-keyboard-response","202","459873","0.0-177.0","650fab251b0fd30bfabbedb3","665500ab8938657b03fbdba8","66579798a720deef8acb15bb","1264","stimuli/2101001.jpg","2","","prediction_trial","2","","true","","2","false","true","false","false","false","false","[2,0]","101","001","1","","","","","","",""
"","","","","","image-keyboard-response","203","460418","0.0-178.0","650fab251b0fd30bfabbedb3","665500ab8938657b03fbdba8","66579798a720deef8acb15bb","543","stimuli/21010012.jpg"," ","","feedback_trial","2","","","","","","","","","","","","","","","","","","","","",""
"","","","","","image-keyboard-response","204","462066","0.0-179.0","650fab251b0fd30bfabbedb3","665500ab8938657b03fbdba8","66579798a720deef8acb15bb","1646","stimuli/0011110.jpg","1","","prediction_trial","0","","false","","0","false","false","true","true","false","false","[0]","011","110","0","","","","","","",""
"","","","","","image-keyboard-response","205","462725","0.0-180.0","650fab251b0fd30bfabbedb3","665500ab8938657b03fbdba8","66579798a720deef8acb15bb","659","stimuli/00111100.jpg"," ","","feedback_trial","0","","","","","","","","","","","","","","","","","","","","",""
"","","","","","image-keyboard-response","206","464446","0.0-181.0","650fab251b0fd30bfabbedb3","665500ab8938657b03fbdba8","66579798a720deef8acb15bb","1719","stimuli/0110110.jpg","1","","prediction_trial","1","","true","","0","false","false","false","false","false","false","[1,0]","110","110","1","","","","","","",""
"","","","","","image-keyboard-response","207","465202","0.0-182.0","650fab251b0fd30bfabbedb3","665500ab8938657b03fbdba8","66579798a720deef8acb15bb","754","stimuli/01101101.jpg"," ","","feedback_trial","1","","","","","","","","","","","","","","","","","","","","",""
"","","","","","image-keyboard-response","208","467374","0.0-183.0","650fab251b0fd30bfabbedb3","665500ab8938657b03fbdba8","66579798a720deef8acb15bb","2171","stimuli/1011101.jpg","2","","prediction_trial","1","","false","","1","true","true","false","false","false","false","[2,1]","011","101","0","","","","","","",""
"","","","","","image-keyboard-response","209","468210","0.0-184.0","650fab251b0fd30bfabbedb3","665500ab8938657b03fbdba8","66579798a720deef8acb15bb","834","stimuli/10111011.jpg"," ","","feedback_trial","2","","","","","","","","","","","","","","","","","","","","",""
"","","","","","image-keyboard-response","210","471039","0.0-185.0","650fab251b0fd30bfabbedb3","665500ab8938657b03fbdba8","66579798a720deef8acb15bb","2827","stimuli/0000101.jpg","2","","prediction_trial","0","","false","","0","false","false","true","true","false","false","[0]","000","101","0","","","","","","",""
"","","","","","image-keyboard-response","211","471672","0.0-186.0","650fab251b0fd30bfabbedb3","665500ab8938657b03fbdba8","66579798a720deef8acb15bb","632","stimuli/00001010.jpg"," ","","feedback_trial","0","","","","","","","","","","","","","","","","","","","","",""
"","","","","","image-keyboard-response","212","473451","0.0-187.0","650fab251b0fd30bfabbedb3","665500ab8938657b03fbdba8","66579798a720deef8acb15bb","1772","stimuli/2110001.jpg","2","","prediction_trial","2","","true","","2","false","true","true","true","false","true","[2]","110","001","1","","","","","","",""
"","","","","","image-keyboard-response","213","473986","0.0-188.0","650fab251b0fd30bfabbedb3","665500ab8938657b03fbdba8","66579798a720deef8acb15bb","534","stimuli/21100012.jpg"," ","","feedback_trial","2","","","","","","","","","","","","","","","","","","","","",""
"","","","","","image-keyboard-response","214","475717","0.0-189.0","650fab251b0fd30bfabbedb3","665500ab8938657b03fbdba8","66579798a720deef8acb15bb","1729","stimuli/1011010.jpg","1","","prediction_trial","2","","false","","1","false","true","false","false","false","false","[1,2]","011","010","0","","","","","","",""
"","","","","","image-keyboard-response","215","477495","0.0-190.0","650fab251b0fd30bfabbedb3","665500ab8938657b03fbdba8","66579798a720deef8acb15bb","1777","stimuli/10110102.jpg"," ","","feedback_trial","1","","","","","","","","","","","","","","","","","","","","",""
"","","","","","image-keyboard-response","216","479054","0.0-191.0","650fab251b0fd30bfabbedb3","665500ab8938657b03fbdba8","66579798a720deef8acb15bb","1557","stimuli/1011111.jpg","0","","prediction_trial","1","","false","","1","false","false","false","false","false","false","[1,2]","011","111","0","","","","","","",""
"","","","","","image-keyboard-response","217","480178","0.0-192.0","650fab251b0fd30bfabbedb3","665500ab8938657b03fbdba8","66579798a720deef8acb15bb","1123","stimuli/10111111.jpg"," ","","feedback_trial","1","","","","","","","","","","","","","","","","","","","","",""
"","","","","","image-keyboard-response","218","481475","0.0-193.0","650fab251b0fd30bfabbedb3","665500ab8938657b03fbdba8","66579798a720deef8acb15bb","1295","stimuli/1111010.jpg","1","","prediction_trial","2","","false","","1","false","true","false","false","false","false","[1,2,0]","111","010","0","","","","","","",""
"","","","","","image-keyboard-response","219","482398","0.0-194.0","650fab251b0fd30bfabbedb3","665500ab8938657b03fbdba8","66579798a720deef8acb15bb","921","stimuli/11110102.jpg"," ","","feedback_trial","1","","","","","","","","","","","","","","","","","","","","",""
"","","","","","image-keyboard-response","220","484884","0.0-195.0","650fab251b0fd30bfabbedb3","665500ab8938657b03fbdba8","66579798a720deef8acb15bb","2484","stimuli/2011101.jpg","0","","prediction_trial","2","","false","","2","false","false","false","false","false","false","[1,2]","011","101","0","","","","","","",""
"","","","","","image-keyboard-response","221","485643","0.0-196.0","650fab251b0fd30bfabbedb3","665500ab8938657b03fbdba8","66579798a720deef8acb15bb","757","stimuli/20111012.jpg"," ","","feedback_trial","1","","","","","","","","","","","","","","","","","","","","",""
"","","","","","image-keyboard-response","222","490265","0.0-197.0","650fab251b0fd30bfabbedb3","665500ab8938657b03fbdba8","66579798a720deef8acb15bb","4621","stimuli/2101010.jpg","0","","prediction_trial","2","","false","","2","true","true","false","false","false","false","[0,2]","101","010","0","","","","","","",""
"","","","","","image-keyboard-response","223","491145","0.0-198.0","650fab251b0fd30bfabbedb3","665500ab8938657b03fbdba8","66579798a720deef8acb15bb","879","stimuli/21010102.jpg"," ","","feedback_trial","0","","","","","","","","","","","","","","","","","","","","",""
"","","","","","image-keyboard-response","224","493529","0.0-199.0","650fab251b0fd30bfabbedb3","665500ab8938657b03fbdba8","66579798a720deef8acb15bb","2382","stimuli/0101011.jpg","1","","prediction_trial","2","","false","","0","true","true","false","false","false","false","[0,2]","101","011","0","","","","","","",""
"","","","","","image-keyboard-response","225","494350","0.0-200.0","650fab251b0fd30bfabbedb3","665500ab8938657b03fbdba8","66579798a720deef8acb15bb","820","stimuli/01010112.jpg"," ","","feedback_trial","0","","","","","","","","","","","","","","","","","","","","",""
"","","","","","image-keyboard-response","226","495465","0.0-201.0","650fab251b0fd30bfabbedb3","665500ab8938657b03fbdba8","66579798a720deef8acb15bb","1113","stimuli/0111000.jpg","1","","prediction_trial","1","","true","","0","true","true","false","false","false","false","[1,0,2]","111","000","1","","","","","","",""
"","","","","","image-keyboard-response","227","496415","0.0-202.0","650fab251b0fd30bfabbedb3","665500ab8938657b03fbdba8","66579798a720deef8acb15bb","949","stimuli/01110001.jpg"," ","","feedback_trial","1","","","","","","","","","","","","","","","","","","","","",""
"","","","","","image-keyboard-response","228","499483","0.0-203.0","650fab251b0fd30bfabbedb3","665500ab8938657b03fbdba8","66579798a720deef8acb15bb","3067","stimuli/0001100.jpg","0","","prediction_trial","0","","true","","0","false","true","true","true","false","true","[0]","001","100","1","","","","","","",""
"","","","","","image-keyboard-response","229","500122","0.0-204.0","650fab251b0fd30bfabbedb3","665500ab8938657b03fbdba8","66579798a720deef8acb15bb","638","stimuli/00011000.jpg"," ","","feedback_trial","0","","","","","","","","","","","","","","","","","","","","",""
"","","","","","image-keyboard-response","230","502710","0.0-205.0","650fab251b0fd30bfabbedb3","665500ab8938657b03fbdba8","66579798a720deef8acb15bb","2586","stimuli/1000011.jpg","1","","prediction_trial","1","","true","","1","false","false","true","true","false","false","[1]","000","011","1","","","","","","",""
"","","","","","image-keyboard-response","231","503340","0.0-206.0","650fab251b0fd30bfabbedb3","665500ab8938657b03fbdba8","66579798a720deef8acb15bb","628","stimuli/10000111.jpg"," ","","feedback_trial","1","","","","","","","","","","","","","","","","","","","","",""
"","","","","","image-keyboard-response","232","504779","0.0-207.0","650fab251b0fd30bfabbedb3","665500ab8938657b03fbdba8","66579798a720deef8acb15bb","1438","stimuli/0011111.jpg","2","","prediction_trial","0","","false","","0","false","false","true","true","false","false","[0]","011","111","0","","","","","","",""
"","","","","","image-keyboard-response","233","506712","0.0-208.0","650fab251b0fd30bfabbedb3","665500ab8938657b03fbdba8","66579798a720deef8acb15bb","1931","stimuli/00111110.jpg"," ","","feedback_trial","0","","","","","","","","","","","","","","","","","","","","",""
"","","","","","image-keyboard-response","234","507859","0.0-209.0","650fab251b0fd30bfabbedb3","665500ab8938657b03fbdba8","66579798a720deef8acb15bb","1146","stimuli/1001111.jpg","1","","prediction_trial","1","","true","","1","false","false","true","true","false","false","[1]","001","111","1","","","","","","",""
"","","","","","image-keyboard-response","235","508587","0.0-210.0","650fab251b0fd30bfabbedb3","665500ab8938657b03fbdba8","66579798a720deef8acb15bb","726","stimuli/10011111.jpg"," ","","feedback_trial","1","","","","","","","","","","","","","","","","","","","","",""
"","","","","","image-keyboard-response","236","509608","0.0-211.0","650fab251b0fd30bfabbedb3","665500ab8938657b03fbdba8","66579798a720deef8acb15bb","1019","stimuli/0010101.jpg","2","","prediction_trial","0","","false","","0","false","false","true","true","false","false","[0]","010","101","0","","","","","","",""
"","","","","","image-keyboard-response","237","511170","0.0-212.0","650fab251b0fd30bfabbedb3","665500ab8938657b03fbdba8","66579798a720deef8acb15bb","1561","stimuli/00101010.jpg"," ","","feedback_trial","0","","","","","","","","","","","","","","","","","","","","",""
"","","","","","image-keyboard-response","238","512561","0.0-213.0","650fab251b0fd30bfabbedb3","665500ab8938657b03fbdba8","66579798a720deef8acb15bb","1389","stimuli/2001000.jpg","2","","prediction_trial","2","","true","","2","true","true","false","true","false","true","[2]","001","000","1","","","","","","",""
"","","","","","image-keyboard-response","239","513042","0.0-214.0","650fab251b0fd30bfabbedb3","665500ab8938657b03fbdba8","66579798a720deef8acb15bb","479","stimuli/20010002.jpg"," ","","feedback_trial","2","","","","","","","","","","","","","","","","","","","","",""
"","","","","","image-keyboard-response","240","514286","0.0-215.0","650fab251b0fd30bfabbedb3","665500ab8938657b03fbdba8","66579798a720deef8acb15bb","1242","stimuli/2101101.jpg","2","","prediction_trial","0","","false","","2","false","false","false","false","false","false","[0,2]","101","101","0","","","","","","",""
"","","","","","image-keyboard-response","241","514982","0.0-216.0","650fab251b0fd30bfabbedb3","665500ab8938657b03fbdba8","66579798a720deef8acb15bb","695","stimuli/21011010.jpg"," ","","feedback_trial","0","","","","","","","","","","","","","","","","","","","","",""
"","","","","","image-keyboard-response","242","516991","0.0-217.0","650fab251b0fd30bfabbedb3","665500ab8938657b03fbdba8","66579798a720deef8acb15bb","2008","stimuli/0111001.jpg","0","","prediction_trial","1","","false","","0","true","true","false","false","false","false","[0,1,2]","111","001","0","","","","","","",""
"","","","","","image-keyboard-response","243","517894","0.0-218.0","650fab251b0fd30bfabbedb3","665500ab8938657b03fbdba8","66579798a720deef8acb15bb","901","stimuli/01110011.jpg"," ","","feedback_trial","0","","","","","","","","","","","","","","","","","","","","",""
"","","","","","image-keyboard-response","244","520438","0.0-219.0","650fab251b0fd30bfabbedb3","665500ab8938657b03fbdba8","66579798a720deef8acb15bb","2543","stimuli/2010101.jpg","2","","prediction_trial","2","","true","","2","false","false","true","true","false","false","[2]","010","101","1","","","","","","",""
"","","","","","image-keyboard-response","245","521485","0.0-220.0","650fab251b0fd30bfabbedb3","665500ab8938657b03fbdba8","66579798a720deef8acb15bb","1045","stimuli/20101012.jpg"," ","","feedback_trial","2","","","","","","","","","","","","","","","","","","","","",""
"","","","","","image-keyboard-response","246","524276","0.0-221.0","650fab251b0fd30bfabbedb3","665500ab8938657b03fbdba8","66579798a720deef8acb15bb","2789","stimuli/2001110.jpg","2","","prediction_trial","2","","true","","2","true","true","false","true","false","true","[2]","001","110","1","","","","","","",""
"","","","","","image-keyboard-response","247","525443","0.0-222.0","650fab251b0fd30bfabbedb3","665500ab8938657b03fbdba8","66579798a720deef8acb15bb","1165","stimuli/20011102.jpg"," ","","feedback_trial","2","","","","","","","","","","","","","","","","","","","","",""
"","","","","","image-keyboard-response","248","526435","0.0-223.0","650fab251b0fd30bfabbedb3","665500ab8938657b03fbdba8","66579798a720deef8acb15bb","991","stimuli/0001010.jpg","0","","prediction_trial","0","","true","","0","true","true","true","true","true","true","[0]","001","010","1","","","","","","",""
"","","","","","image-keyboard-response","249","527230","0.0-224.0","650fab251b0fd30bfabbedb3","665500ab8938657b03fbdba8","66579798a720deef8acb15bb","793","stimuli/00010100.jpg"," ","","feedback_trial","0","","","","","","","","","","","","","","","","","","","","",""
"","","","","","image-keyboard-response","250","529624","0.0-225.0","650fab251b0fd30bfabbedb3","665500ab8938657b03fbdba8","66579798a720deef8acb15bb","2393","stimuli/0001101.jpg","2","","prediction_trial","0","","false","","0","false","false","true","true","false","false","[0]","001","101","0","","","","","","",""
"","","","","","image-keyboard-response","251","530442","0.0-226.0","650fab251b0fd30bfabbedb3","665500ab8938657b03fbdba8","66579798a720deef8acb15bb","811","stimuli/00011010.jpg"," ","","feedback_trial","0","","","","","","","","","","","","","","","","","","","","",""
"","","","","","image-keyboard-response","252","531443","0.0-227.0","650fab251b0fd30bfabbedb3","665500ab8938657b03fbdba8","66579798a720deef8acb15bb","999","stimuli/2010010.jpg","2","","prediction_trial","2","","true","","2","true","true","true","true","true","true","[2]","010","010","1","","","","","","",""
"","","","","","image-keyboard-response","253","531947","0.0-228.0","650fab251b0fd30bfabbedb3","665500ab8938657b03fbdba8","66579798a720deef8acb15bb","503","stimuli/20100102.jpg"," ","","feedback_trial","2","","","","","","","","","","","","","","","","","","","","",""
"","","","","","image-keyboard-response","254","533229","0.0-229.0","650fab251b0fd30bfabbedb3","665500ab8938657b03fbdba8","66579798a720deef8acb15bb","1280","stimuli/2010111.jpg","2","","prediction_trial","2","","true","","2","false","false","true","true","false","false","[2]","010","111","1","","","","","","",""
"","","","","","image-keyboard-response","255","533903","0.0-230.0","650fab251b0fd30bfabbedb3","665500ab8938657b03fbdba8","66579798a720deef8acb15bb","674","stimuli/20101112.jpg"," ","","feedback_trial","2","","","","","","","","","","","","","","","","","","","","",""
"","","","","","image-keyboard-response","256","535190","0.0-231.0","650fab251b0fd30bfabbedb3","665500ab8938657b03fbdba8","66579798a720deef8acb15bb","1285","stimuli/1010010.jpg","1","","prediction_trial","1","","true","","1","false","true","false","true","false","true","[1]","010","010","1","","","","","","",""
"","","","","","image-keyboard-response","257","535664","0.0-232.0","650fab251b0fd30bfabbedb3","665500ab8938657b03fbdba8","66579798a720deef8acb15bb","472","stimuli/10100101.jpg"," ","","feedback_trial","1","","","","","","","","","","","","","","","","","","","","",""
"","","","","","image-keyboard-response","258","536680","0.0-233.0","650fab251b0fd30bfabbedb3","665500ab8938657b03fbdba8","66579798a720deef8acb15bb","1014","stimuli/1100001.jpg","1","","prediction_trial","1","","true","","1","true","true","true","true","true","true","[1]","100","001","1","","","","","","",""
"","","","","","image-keyboard-response","259","537051","0.0-234.0","650fab251b0fd30bfabbedb3","665500ab8938657b03fbdba8","66579798a720deef8acb15bb","369","stimuli/11000011.jpg"," ","","feedback_trial","1","","","","","","","","","","","","","","","","","","","","",""
"","","","","","image-keyboard-response","260","539892","0.0-235.0","650fab251b0fd30bfabbedb3","665500ab8938657b03fbdba8","66579798a720deef8acb15bb","2839","stimuli/1110010.jpg","1","","prediction_trial","1","","true","","1","false","true","false","false","false","false","[0,1]","110","010","1","","","","","","",""
"","","","","","image-keyboard-response","261","540450","0.0-236.0","650fab251b0fd30bfabbedb3","665500ab8938657b03fbdba8","66579798a720deef8acb15bb","557","stimuli/11100101.jpg"," ","","feedback_trial","0","","","","","","","","","","","","","","","","","","","","",""
"","","","","","image-keyboard-response","262","542312","0.0-237.0","650fab251b0fd30bfabbedb3","665500ab8938657b03fbdba8","66579798a720deef8acb15bb","1861","stimuli/1001010.jpg","1","","prediction_trial","1","","true","","1","false","true","true","true","false","true","[1]","001","010","1","","","","","","",""
"","","","","","image-keyboard-response","263","543018","0.0-238.0","650fab251b0fd30bfabbedb3","665500ab8938657b03fbdba8","66579798a720deef8acb15bb","704","stimuli/10010101.jpg"," ","","feedback_trial","1","","","","","","","","","","","","","","","","","","","","",""
"","","","","","image-keyboard-response","264","544608","0.0-239.0","650fab251b0fd30bfabbedb3","665500ab8938657b03fbdba8","66579798a720deef8acb15bb","1587","stimuli/2110010.jpg","2","","prediction_trial","2","","true","","2","true","true","true","true","true","true","[2]","110","010","1","","","","","","",""
"","","","","","image-keyboard-response","265","545074","0.0-240.0","650fab251b0fd30bfabbedb3","665500ab8938657b03fbdba8","66579798a720deef8acb15bb","465","stimuli/21100102.jpg"," ","","feedback_trial","2","","","","","","","","","","","","","","","","","","","","",""
"","","","","","image-keyboard-response","266","545897","0.0-241.0","650fab251b0fd30bfabbedb3","665500ab8938657b03fbdba8","66579798a720deef8acb15bb","821","stimuli/0000001.jpg","0","","prediction_trial","0","","true","","0","true","true","true","true","true","true","[0]","000","001","1","","","","","","",""
"","","","","","image-keyboard-response","267","546431","0.0-242.0","650fab251b0fd30bfabbedb3","665500ab8938657b03fbdba8","66579798a720deef8acb15bb","533","stimuli/00000010.jpg"," ","","feedback_trial","0","","","","","","","","","","","","","","","","","","","","",""
"","","","","","image-keyboard-response","268","547923","0.0-243.0","650fab251b0fd30bfabbedb3","665500ab8938657b03fbdba8","66579798a720deef8acb15bb","1490","stimuli/0101001.jpg","0","","prediction_trial","0","","true","","0","true","true","false","false","false","false","[0,2]","101","001","1","","","","","","",""
"","","","","","image-keyboard-response","269","548897","0.0-244.0","650fab251b0fd30bfabbedb3","665500ab8938657b03fbdba8","66579798a720deef8acb15bb","972","stimuli/01010010.jpg"," ","","feedback_trial","0","","","","","","","","","","","","","","","","","","","","",""
"","","","","","image-keyboard-response","270","552952","0.0-245.0","650fab251b0fd30bfabbedb3","665500ab8938657b03fbdba8","66579798a720deef8acb15bb","4054","stimuli/1010001.jpg","1","","prediction_trial","1","","true","","1","true","true","false","true","false","true","[1]","010","001","1","","","","","","",""
"","","","","","image-keyboard-response","271","553411","0.0-246.0","650fab251b0fd30bfabbedb3","665500ab8938657b03fbdba8","66579798a720deef8acb15bb","457","stimuli/10100011.jpg"," ","","feedback_trial","1","","","","","","","","","","","","","","","","","","","","",""
"","","","","","image-keyboard-response","272","554724","0.0-247.0","650fab251b0fd30bfabbedb3","665500ab8938657b03fbdba8","66579798a720deef8acb15bb","1311","stimuli/0111111.jpg","2","","prediction_trial","1","","false","","0","false","false","false","false","false","false","[0,2,1]","111","111","0","","","","","","",""
"","","","","","image-keyboard-response","273","555394","0.0-248.0","650fab251b0fd30bfabbedb3","665500ab8938657b03fbdba8","66579798a720deef8acb15bb","669","stimuli/01111111.jpg"," ","","feedback_trial","0","","","","","","","","","","","","","","","","","","","","",""
"","","","","","image-keyboard-response","274","557053","0.0-249.0","650fab251b0fd30bfabbedb3","665500ab8938657b03fbdba8","66579798a720deef8acb15bb","1657","stimuli/1000111.jpg","1","","prediction_trial","1","","true","","1","false","false","true","true","false","false","[1]","000","111","1","","","","","","",""
"","","","","","image-keyboard-response","275","557840","0.0-250.0","650fab251b0fd30bfabbedb3","665500ab8938657b03fbdba8","66579798a720deef8acb15bb","785","stimuli/10001111.jpg"," ","","feedback_trial","1","","","","","","","","","","","","","","","","","","","","",""
"","","","","","image-keyboard-response","276","560434","0.0-251.0","650fab251b0fd30bfabbedb3","665500ab8938657b03fbdba8","66579798a720deef8acb15bb","2593","stimuli/1010011.jpg","1","","prediction_trial","1","","true","","1","false","false","false","true","false","false","[1]","010","011","1","","","","","","",""
"","","","","","image-keyboard-response","277","560918","0.0-252.0","650fab251b0fd30bfabbedb3","665500ab8938657b03fbdba8","66579798a720deef8acb15bb","482","stimuli/10100111.jpg"," ","","feedback_trial","1","","","","","","","","","","","","","","","","","","","","",""
"","","","","","image-keyboard-response","278","561877","0.0-253.0","650fab251b0fd30bfabbedb3","665500ab8938657b03fbdba8","66579798a720deef8acb15bb","957","stimuli/2100100.jpg","2","","prediction_trial","2","","true","","2","true","true","true","true","true","true","[2]","100","100","1","","","","","","",""
"","","","","","image-keyboard-response","279","562209","0.0-254.0","650fab251b0fd30bfabbedb3","665500ab8938657b03fbdba8","66579798a720deef8acb15bb","331","stimuli/21001002.jpg"," ","","feedback_trial","2","","","","","","","","","","","","","","","","","","","","",""
"","","","","","image-keyboard-response","280","563577","0.0-255.0","650fab251b0fd30bfabbedb3","665500ab8938657b03fbdba8","66579798a720deef8acb15bb","1367","stimuli/1111101.jpg","2","","prediction_trial","2","","true","","1","true","true","false","false","false","false","[0,1,2]","111","101","1","","","","","","",""
"","","","","","image-keyboard-response","281","564282","0.0-256.0","650fab251b0fd30bfabbedb3","665500ab8938657b03fbdba8","66579798a720deef8acb15bb","703","stimuli/11111012.jpg"," ","","feedback_trial","0","","","","","","","","","","","","","","","","","","","","",""
"","","","","","image-keyboard-response","282","565975","0.0-257.0","650fab251b0fd30bfabbedb3","665500ab8938657b03fbdba8","66579798a720deef8acb15bb","1691","stimuli/2111011.jpg","1","","prediction_trial","2","","false","","2","false","false","false","false","false","false","[0,2,1]","111","011","0","","","","","","",""
"","","","","","image-keyboard-response","283","566896","0.0-258.0","650fab251b0fd30bfabbedb3","665500ab8938657b03fbdba8","66579798a720deef8acb15bb","920","stimuli/21110112.jpg"," ","","feedback_trial","0","","","","","","","","","","","","","","","","","","","","",""
"","","","","","image-keyboard-response","284","567793","0.0-259.0","650fab251b0fd30bfabbedb3","665500ab8938657b03fbdba8","66579798a720deef8acb15bb","895","stimuli/1110111.jpg","1","","prediction_trial","1","","true","","1","false","false","false","false","false","false","[1,0]","110","111","1","","","","","","",""
"","","","","","image-keyboard-response","285","568539","0.0-260.0","650fab251b0fd30bfabbedb3","665500ab8938657b03fbdba8","66579798a720deef8acb15bb","744","stimuli/11101111.jpg"," ","","feedback_trial","1","","","","","","","","","","","","","","","","","","","","",""
"","","","","","image-keyboard-response","286","570342","0.0-261.0","650fab251b0fd30bfabbedb3","665500ab8938657b03fbdba8","66579798a720deef8acb15bb","1802","stimuli/2001010.jpg","2","","prediction_trial","2","","true","","2","true","true","false","true","false","true","[2]","001","010","1","","","","","","",""
"","","","","","image-keyboard-response","287","570750","0.0-262.0","650fab251b0fd30bfabbedb3","665500ab8938657b03fbdba8","66579798a720deef8acb15bb","398","stimuli/20010102.jpg"," ","","feedback_trial","2","","","","","","","","","","","","","","","","","","","","",""
"","","","","","image-keyboard-response","288","573807","0.0-263.0","650fab251b0fd30bfabbedb3","665500ab8938657b03fbdba8","66579798a720deef8acb15bb","3056","stimuli/2111110.jpg","0","","prediction_trial","2","","false","","2","true","true","false","false","false","false","[0,2,1]","111","110","0","","","","","","",""
"","","","","","image-keyboard-response","289","574822","0.0-264.0","650fab251b0fd30bfabbedb3","665500ab8938657b03fbdba8","66579798a720deef8acb15bb","1013","stimuli/21111102.jpg"," ","","feedback_trial","0","","","","","","","","","","","","","","","","","","","","",""
"","","","","","image-keyboard-response","290","576466","0.0-265.0","650fab251b0fd30bfabbedb3","665500ab8938657b03fbdba8","66579798a720deef8acb15bb","1643","stimuli/0010000.jpg","0","","prediction_trial","0","","true","","0","true","true","true","true","true","true","[0]","010","000","1","","","","","","",""
"","","","","","image-keyboard-response","291","577054","0.0-266.0","650fab251b0fd30bfabbedb3","665500ab8938657b03fbdba8","66579798a720deef8acb15bb","586","stimuli/00100000.jpg"," ","","feedback_trial","0","","","","","","","","","","","","","","","","","","","","",""
"","","","","","image-keyboard-response","292","578776","0.0-267.0","650fab251b0fd30bfabbedb3","665500ab8938657b03fbdba8","66579798a720deef8acb15bb","1721","stimuli/1011100.jpg","1","","prediction_trial","1","","true","","1","true","true","false","false","false","false","[2,1]","011","100","1","","","","","","",""
"","","","","","image-keyboard-response","293","579368","0.0-268.0","650fab251b0fd30bfabbedb3","665500ab8938657b03fbdba8","66579798a720deef8acb15bb","590","stimuli/10111001.jpg"," ","","feedback_trial","2","","","","","","","","","","","","","","","","","","","","",""
"","","","","","image-keyboard-response","294","581169","0.0-269.0","650fab251b0fd30bfabbedb3","665500ab8938657b03fbdba8","66579798a720deef8acb15bb","1799","stimuli/2011011.jpg","1","","prediction_trial","2","","false","","2","false","false","false","false","false","false","[1,2]","011","011","0","","","","","","",""
"","","","","","image-keyboard-response","295","581789","0.0-270.0","650fab251b0fd30bfabbedb3","665500ab8938657b03fbdba8","66579798a720deef8acb15bb","619","stimuli/20110112.jpg"," ","","feedback_trial","1","","","","","","","","","","","","","","","","","","","","",""
"","","","","","image-keyboard-response","296","583163","0.0-271.0","650fab251b0fd30bfabbedb3","665500ab8938657b03fbdba8","66579798a720deef8acb15bb","1372","stimuli/2000010.jpg","2","","prediction_trial","2","","true","","2","true","true","true","true","true","true","[2]","000","010","1","","","","","","",""
"","","","","","image-keyboard-response","297","583599","0.0-272.0","650fab251b0fd30bfabbedb3","665500ab8938657b03fbdba8","66579798a720deef8acb15bb","434","stimuli/20000102.jpg"," ","","feedback_trial","2","","","","","","","","","","","","","","","","","","","","",""
"","","","","","image-keyboard-response","298","585084","0.0-273.0","650fab251b0fd30bfabbedb3","665500ab8938657b03fbdba8","66579798a720deef8acb15bb","1484","stimuli/2000111.jpg","2","","prediction_trial","2","","true","","2","false","false","true","true","false","false","[2]","000","111","1","","","","","","",""
"","","","","","image-keyboard-response","299","585778","0.0-274.0","650fab251b0fd30bfabbedb3","665500ab8938657b03fbdba8","66579798a720deef8acb15bb","693","stimuli/20001112.jpg"," ","","feedback_trial","2","","","","","","","","","","","","","","","","","","","","",""
"","","","","","image-keyboard-response","300","588118","0.0-275.0","650fab251b0fd30bfabbedb3","665500ab8938657b03fbdba8","66579798a720deef8acb15bb","2338","stimuli/1110000.jpg","0","","prediction_trial","1","","false","","1","true","true","false","false","false","false","[1,0]","110","000","0","","","","","","",""
"","","","","","image-keyboard-response","301","588775","0.0-276.0","650fab251b0fd30bfabbedb3","665500ab8938657b03fbdba8","66579798a720deef8acb15bb","655","stimuli/11100001.jpg"," ","","feedback_trial","1","","","","","","","","","","","","","","","","","","","","",""
"","","","","","image-keyboard-response","302","590380","0.0-277.0","650fab251b0fd30bfabbedb3","665500ab8938657b03fbdba8","66579798a720deef8acb15bb","1604","stimuli/0110010.jpg","0","","prediction_trial","1","","false","","0","true","true","false","false","false","false","[0,1]","110","010","0","","","","","","",""
"","","","","","image-keyboard-response","303","591067","0.0-278.0","650fab251b0fd30bfabbedb3","665500ab8938657b03fbdba8","66579798a720deef8acb15bb","685","stimuli/01100101.jpg"," ","","feedback_trial","0","","","","","","","","","","","","","","","","","","","","",""
"","","","","","image-keyboard-response","304","592136","0.0-279.0","650fab251b0fd30bfabbedb3","665500ab8938657b03fbdba8","66579798a720deef8acb15bb","1068","stimuli/1101000.jpg","1","","prediction_trial","1","","true","","1","true","true","true","true","true","true","[1]","101","000","1","","","","","","",""
"","","","","","image-keyboard-response","305","592619","0.0-280.0","650fab251b0fd30bfabbedb3","665500ab8938657b03fbdba8","66579798a720deef8acb15bb","481","stimuli/11010001.jpg"," ","","feedback_trial","1","","","","","","","","","","","","","","","","","","","","",""
"","","","","","image-keyboard-response","306","594506","0.0-281.0","650fab251b0fd30bfabbedb3","665500ab8938657b03fbdba8","66579798a720deef8acb15bb","1887","stimuli/2000100.jpg","2","","prediction_trial","2","","true","","2","true","true","true","true","true","true","[2]","000","100","1","","","","","","",""
"","","","","","image-keyboard-response","307","595024","0.0-282.0","650fab251b0fd30bfabbedb3","665500ab8938657b03fbdba8","66579798a720deef8acb15bb","516","stimuli/20001002.jpg"," ","","feedback_trial","2","","","","","","","","","","","","","","","","","","","","",""
"","","","","","image-keyboard-response","308","596014","0.0-283.0","650fab251b0fd30bfabbedb3","665500ab8938657b03fbdba8","66579798a720deef8acb15bb","989","stimuli/0011011.jpg","0","","prediction_trial","0","","true","","0","true","true","true","true","true","true","[0]","011","011","1","","","","","","",""
"","","","","","image-keyboard-response","309","596469","0.0-284.0","650fab251b0fd30bfabbedb3","665500ab8938657b03fbdba8","66579798a720deef8acb15bb","453","stimuli/00110110.jpg"," ","","feedback_trial","0","","","","","","","","","","","","","","","","","","","","",""
"","","","","","image-keyboard-response","310","597326","0.0-285.0","650fab251b0fd30bfabbedb3","665500ab8938657b03fbdba8","66579798a720deef8acb15bb","856","stimuli/0000011.jpg","0","","prediction_trial","0","","true","","0","true","true","true","true","true","true","[0]","000","011","1","","","","","","",""
"","","","","","image-keyboard-response","311","597791","0.0-286.0","650fab251b0fd30bfabbedb3","665500ab8938657b03fbdba8","66579798a720deef8acb15bb","464","stimuli/00000110.jpg"," ","","feedback_trial","0","","","","","","","","","","","","","","","","","","","","",""
"","","","","","image-keyboard-response","312","598837","0.0-287.0","650fab251b0fd30bfabbedb3","665500ab8938657b03fbdba8","66579798a720deef8acb15bb","1045","stimuli/0111010.jpg","2","","prediction_trial","0","","false","","0","true","true","false","false","false","false","[1,2,0]","111","010","0","","","","","","",""
"","","","","","image-keyboard-response","313","599455","0.0-288.0","650fab251b0fd30bfabbedb3","665500ab8938657b03fbdba8","66579798a720deef8acb15bb","617","stimuli/01110100.jpg"," ","","feedback_trial","1","","","","","","","","","","","","","","","","","","","","",""
"","","","","","image-keyboard-response","314","600518","0.0-289.0","650fab251b0fd30bfabbedb3","665500ab8938657b03fbdba8","66579798a720deef8acb15bb","1062","stimuli/1010110.jpg","2","","prediction_trial","1","","false","","1","false","false","false","true","false","false","[1]","010","110","0","","","","","","",""
"","","","","","image-keyboard-response","315","601763","0.0-290.0","650fab251b0fd30bfabbedb3","665500ab8938657b03fbdba8","66579798a720deef8acb15bb","1244","stimuli/10101101.jpg"," ","","feedback_trial","1","","","","","","","","","","","","","","","","","","","","",""
"","","","","","image-keyboard-response","316","602603","0.0-291.0","650fab251b0fd30bfabbedb3","665500ab8938657b03fbdba8","66579798a720deef8acb15bb","838","stimuli/1100000.jpg","1","","prediction_trial","1","","true","","1","true","true","true","true","true","true","[1]","100","000","1","","","","","","",""
"","","","","","image-keyboard-response","317","603038","0.0-292.0","650fab251b0fd30bfabbedb3","665500ab8938657b03fbdba8","66579798a720deef8acb15bb","434","stimuli/11000001.jpg"," ","","feedback_trial","1","","","","","","","","","","","","","","","","","","","","",""
"","","","","","survey-html-form","318","654838","0.0-293.0","650fab251b0fd30bfabbedb3","665500ab8938657b03fbdba8","66579798a720deef8acb15bb","51796","","{""feedback"":""I just tried to imagine I was Sam and then notice his patterns for picking (if there were any)."",""age"":""39"",""gender"":""Female"",""other_gender"":"""",""race"":""Black/African American"",""other_race"":"""",""ethnicity"":""Non-Hispanic""}","","exit_survey","","","","","","","","","","","","","","","","I just tried to imagine I was Sam and then notice his patterns for picking (if there were any).","39","Non-Hispanic","Female","Black/African American","0.6666666666666666","0.6666666666666666"
