"success","timeout","failed_images","failed_audio","failed_video","trial_type","trial_index","time_elapsed","internal_node_id","prolific_id","prolific_study_id","prolific_session_id","rt","stimulus","response","view_history","trial","character_choice","stimulus_dict","accuracy","correct_response","ball_pos","ego_ball_visible","ego_can_infer","alter_ball_visible","alter_can_infer","collective_ball_visible","collective_can_infer","search_locations","alter_occluders","ego_occluders","accuracy_bool","feedback","age","ethnicity","gender","race","overall_accuracy","bonus"
"true","false","[]","[]","[]","preload","0","2651","0.0-0.0","651090beae417ded35c4ef2f","665500ab8938657b03fbdba8","6657929c681befa75ce9a0f7","","","","","","","","","","","","","","","","","","","","","","","","","","",""
"true","","","","","fullscreen","1","6324","0.0-1.0","651090beae417ded35c4ef2f","665500ab8938657b03fbdba8","6657929c681befa75ce9a0f7","","","","","","","","","","","","","","","","","","","","","","","","","","",""
"","","","","","html-button-response","2","30659","0.0-2.0","651090beae417ded35c4ef2f","665500ab8938657b03fbdba8","6657929c681befa75ce9a0f7","24330","<p><b>Consent Form</b></p> <div style=""text-align:left;background-color:lightgrey; padding:20px; max-width:900px;""><p>Please consider this information carefully before deciding whether to participate in this research.</p> <p>The purpose of this research is to examine which factors influence social judgment and decision-making. You will be asked to make judgements about individuals and actions in social scenarios. We are simply interested in your judgement. The study will take less than 1 hour to complete, and you will receive less than $20 on Prolific. Your compensation and time commitment are specified in the study description. There are no anticipated risks associated with participating in this study. The effects of participating should be comparable to those you would ordinarily experience from viewing a computer monitor and using a mouse or keyboard for a similar amount of time. At the end of the study, we will provide an explanation of the questions that motivate this line of research and will describe the potential implications. </p><p> Your participation in this study is completely voluntary and you may refuse to participate or you may choose to withdraw at any time without penalty or loss of benefits to you which are otherwise entitled. Your participation in this study will remain confidential. No personally identifiable information will be associated with your data. Also, all analyses of the data will be averaged across all the participants, so your individual responses will never be specifically analyzed. </p><p> If you have questions or concerns about your participation or payment, or want to request a summary of research findings, please contact Dr. Jonathan Phillips at Jonathan.S.Phillips@dartmouth.edu. </p><p> Please save a copy of this form for your records. </p><p><b>Agreement: </b>The nature and purpose of this research have been sufficiently explained and I agree to participate in this study. I understand that I am free to withdraw at any time without incurring any penalty. Please consent by clicking the button below to continue. Otherwise, please exit the study at any time. </p>","0","","","","","","","","","","","","","","","","","","","","","","","",""
"","","","","","instructions","3","124269","0.0-3.0-0.0","651090beae417ded35c4ef2f","665500ab8938657b03fbdba8","6657929c681befa75ce9a0f7","93607","","","[{""page_index"":0,""viewing_time"":2307},{""page_index"":1,""viewing_time"":15577},{""page_index"":2,""viewing_time"":3047},{""page_index"":3,""viewing_time"":6846},{""page_index"":4,""viewing_time"":3922},{""page_index"":5,""viewing_time"":2596},{""page_index"":6,""viewing_time"":5120},{""page_index"":7,""viewing_time"":5268},{""page_index"":8,""viewing_time"":4612},{""page_index"":9,""viewing_time"":4208},{""page_index"":10,""viewing_time"":13075},{""page_index"":9,""viewing_time"":557},{""page_index"":10,""viewing_time"":7464},{""page_index"":11,""viewing_time"":11560},{""page_index"":12,""viewing_time"":6204},{""page_index"":13,""viewing_time"":1243}]","intro","","","","","","","","","","","","","","","","","","","","","",""
"","","","","","image-keyboard-response","4","126659","0.0-3.0-1.0","651090beae417ded35c4ef2f","665500ab8938657b03fbdba8","6657929c681befa75ce9a0f7","2383","stimuli/0100001.jpg","0","","prediction_practice","0","{""filepath"":""stimuli/0100001.jpg"",""ball_pos"":0,""ego_ball_visible"":true,""ego_can_infer"":true,""alter_ball_visible"":false,""alter_can_infer"":true,""collective_ball_visible"":false,""collective_can_infer"":true,""search_locations"":[0],""alter_occluders"":""100"",""ego_occluders"":""001""}","true","","","","","","","","","","","","","","","","","","",""
"","","","","","image-keyboard-response","5","128748","0.0-3.0-2.0","651090beae417ded35c4ef2f","665500ab8938657b03fbdba8","6657929c681befa75ce9a0f7","2086","stimuli/01000010.jpg"," ","","practrice_feedback","0","","","","","","","","","","","","","","","","","","","","",""
"","","","","","image-keyboard-response","6","131317","0.0-3.0-3.0","651090beae417ded35c4ef2f","665500ab8938657b03fbdba8","6657929c681befa75ce9a0f7","2566","stimuli/1110110.jpg","2","","prediction_practice","1","{""filepath"":""stimuli/1110110.jpg"",""ball_pos"":1,""ego_ball_visible"":false,""ego_can_infer"":false,""alter_ball_visible"":false,""alter_can_infer"":false,""collective_ball_visible"":false,""collective_can_infer"":false,""search_locations"":[0,1],""alter_occluders"":""110"",""ego_occluders"":""110""}","false","","","","","","","","","","","","","","","","","","",""
"","","","","","image-keyboard-response","7","132396","0.0-3.0-4.0","651090beae417ded35c4ef2f","665500ab8938657b03fbdba8","6657929c681befa75ce9a0f7","1077","stimuli/11101101.jpg"," ","","practrice_feedback","0","","","","","","","","","","","","","","","","","","","","",""
"","","","","","image-keyboard-response","8","133596","0.0-3.0-5.0","651090beae417ded35c4ef2f","665500ab8938657b03fbdba8","6657929c681befa75ce9a0f7","1198","stimuli/0001010.jpg","0","","prediction_practice","0","{""filepath"":""stimuli/0001010.jpg"",""ball_pos"":0,""ego_ball_visible"":true,""ego_can_infer"":true,""alter_ball_visible"":true,""alter_can_infer"":true,""collective_ball_visible"":true,""collective_can_infer"":true,""search_locations"":[0],""alter_occluders"":""001"",""ego_occluders"":""010""}","true","","","","","","","","","","","","","","","","","","",""
"","","","","","image-keyboard-response","9","134980","0.0-3.0-6.0","651090beae417ded35c4ef2f","665500ab8938657b03fbdba8","6657929c681befa75ce9a0f7","1381","stimuli/00010100.jpg"," ","","practrice_feedback","0","","","","","","","","","","","","","","","","","","","","",""
"","","","","","image-keyboard-response","10","136843","0.0-3.0-7.0","651090beae417ded35c4ef2f","665500ab8938657b03fbdba8","6657929c681befa75ce9a0f7","1860","stimuli/0000010.jpg","0","","prediction_practice","0","{""filepath"":""stimuli/0000010.jpg"",""ball_pos"":0,""ego_ball_visible"":true,""ego_can_infer"":true,""alter_ball_visible"":true,""alter_can_infer"":true,""collective_ball_visible"":true,""collective_can_infer"":true,""search_locations"":[0],""alter_occluders"":""000"",""ego_occluders"":""010""}","true","","","","","","","","","","","","","","","","","","",""
"","","","","","image-keyboard-response","11","137556","0.0-3.0-8.0","651090beae417ded35c4ef2f","665500ab8938657b03fbdba8","6657929c681befa75ce9a0f7","711","stimuli/00000100.jpg"," ","","practrice_feedback","0","","","","","","","","","","","","","","","","","","","","",""
"","","","","","image-keyboard-response","12","139012","0.0-3.0-9.0","651090beae417ded35c4ef2f","665500ab8938657b03fbdba8","6657929c681befa75ce9a0f7","1454","stimuli/2011011.jpg","2","","prediction_practice","1","{""filepath"":""stimuli/2011011.jpg"",""ball_pos"":2,""ego_ball_visible"":false,""ego_can_infer"":false,""alter_ball_visible"":false,""alter_can_infer"":false,""collective_ball_visible"":false,""collective_can_infer"":false,""search_locations"":[1,2],""alter_occluders"":""011"",""ego_occluders"":""011""}","false","","","","","","","","","","","","","","","","","","",""
"","","","","","image-keyboard-response","13","141364","0.0-3.0-10.0","651090beae417ded35c4ef2f","665500ab8938657b03fbdba8","6657929c681befa75ce9a0f7","2349","stimuli/20110111.jpg"," ","","practrice_feedback","1","","","","","","","","","","","","","","","","","","","","",""
"","","","","","image-keyboard-response","14","143860","0.0-3.0-11.0","651090beae417ded35c4ef2f","665500ab8938657b03fbdba8","6657929c681befa75ce9a0f7","2494","stimuli/2101111.jpg","0","","prediction_practice","0","{""filepath"":""stimuli/2101111.jpg"",""ball_pos"":2,""ego_ball_visible"":false,""ego_can_infer"":false,""alter_ball_visible"":false,""alter_can_infer"":false,""collective_ball_visible"":false,""collective_can_infer"":false,""search_locations"":[0,2],""alter_occluders"":""101"",""ego_occluders"":""111""}","true","","","","","","","","","","","","","","","","","","",""
"","","","","","image-keyboard-response","15","144996","0.0-3.0-12.0","651090beae417ded35c4ef2f","665500ab8938657b03fbdba8","6657929c681befa75ce9a0f7","1133","stimuli/21011110.jpg"," ","","practrice_feedback","0","","","","","","","","","","","","","","","","","","","","",""
"","","","","","image-keyboard-response","16","145988","0.0-3.0-13.0","651090beae417ded35c4ef2f","665500ab8938657b03fbdba8","6657929c681befa75ce9a0f7","974","stimuli/0101110.jpg","2","","prediction_practice","2","{""filepath"":""stimuli/0101110.jpg"",""ball_pos"":0,""ego_ball_visible"":false,""ego_can_infer"":false,""alter_ball_visible"":false,""alter_can_infer"":false,""collective_ball_visible"":false,""collective_can_infer"":false,""search_locations"":[0,2],""alter_occluders"":""101"",""ego_occluders"":""110""}","true","","","","","","","","","","","","","","","","","","",""
"","","","","","image-keyboard-response","17","151044","0.0-3.0-14.0","651090beae417ded35c4ef2f","665500ab8938657b03fbdba8","6657929c681befa75ce9a0f7","5054","stimuli/01011102.jpg"," ","","practrice_feedback","0","","","","","","","","","","","","","","","","","","","","",""
"","","","","","image-keyboard-response","18","152468","0.0-3.0-15.0","651090beae417ded35c4ef2f","665500ab8938657b03fbdba8","6657929c681befa75ce9a0f7","1422","stimuli/0001111.jpg","0","","prediction_practice","0","{""filepath"":""stimuli/0001111.jpg"",""ball_pos"":0,""ego_ball_visible"":false,""ego_can_infer"":false,""alter_ball_visible"":true,""alter_can_infer"":true,""collective_ball_visible"":false,""collective_can_infer"":false,""search_locations"":[0],""alter_occluders"":""001"",""ego_occluders"":""111""}","true","","","","","","","","","","","","","","","","","","",""
"","","","","","image-keyboard-response","19","155588","0.0-3.0-16.0","651090beae417ded35c4ef2f","665500ab8938657b03fbdba8","6657929c681befa75ce9a0f7","3118","stimuli/00011110.jpg"," ","","practrice_feedback","0","","","","","","","","","","","","","","","","","","","","",""
"","","","","","image-keyboard-response","20","157897","0.0-3.0-17.0","651090beae417ded35c4ef2f","665500ab8938657b03fbdba8","6657929c681befa75ce9a0f7","2307","stimuli/0101011.jpg","0","","prediction_practice","0","{""filepath"":""stimuli/0101011.jpg"",""ball_pos"":0,""ego_ball_visible"":true,""ego_can_infer"":true,""alter_ball_visible"":false,""alter_can_infer"":false,""collective_ball_visible"":false,""collective_can_infer"":false,""search_locations"":[2,0],""alter_occluders"":""101"",""ego_occluders"":""011""}","true","","","","","","","","","","","","","","","","","","",""
"","","","","","image-keyboard-response","21","159724","0.0-3.0-18.0","651090beae417ded35c4ef2f","665500ab8938657b03fbdba8","6657929c681befa75ce9a0f7","1825","stimuli/01010110.jpg"," ","","practrice_feedback","2","","","","","","","","","","","","","","","","","","","","",""
"","","","","","image-keyboard-response","22","160852","0.0-3.0-19.0","651090beae417ded35c4ef2f","665500ab8938657b03fbdba8","6657929c681befa75ce9a0f7","1126","stimuli/2101010.jpg","2","","prediction_practice","2","{""filepath"":""stimuli/2101010.jpg"",""ball_pos"":2,""ego_ball_visible"":true,""ego_can_infer"":true,""alter_ball_visible"":false,""alter_can_infer"":false,""collective_ball_visible"":false,""collective_can_infer"":false,""search_locations"":[0,2],""alter_occluders"":""101"",""ego_occluders"":""010""}","true","","","","","","","","","","","","","","","","","","",""
"","","","","","image-keyboard-response","23","161588","0.0-3.0-20.0","651090beae417ded35c4ef2f","665500ab8938657b03fbdba8","6657929c681befa75ce9a0f7","734","stimuli/21010102.jpg"," ","","practrice_feedback","0","","","","","","","","","","","","","","","","","","","","",""
"","","","","","html-button-response","24","166622","0.0-3.0-21.0","651090beae417ded35c4ef2f","665500ab8938657b03fbdba8","6657929c681befa75ce9a0f7","5031","Now that you've had some practice, you'll be tested with a couple of easy trials. If you correctly predict Sam's choice, you'll move on to complete the experiment!","0","","","","","","","","","","","","","","","","","","","","","","","",""
"","","","","","image-keyboard-response","25","168657","0.0-3.0-22.0-0.0","651090beae417ded35c4ef2f","665500ab8938657b03fbdba8","6657929c681befa75ce9a0f7","2015","stimuli/0000011.jpg","arrowleft","","comprehension_quiz","","","true","arrowleft","","","","","","","","","","","","","","","","","",""
"","","","","","image-keyboard-response","26","171460","0.0-3.0-22.0-1.0","651090beae417ded35c4ef2f","665500ab8938657b03fbdba8","6657929c681befa75ce9a0f7","2801","stimuli/00000110.jpg"," ","","comprehension_quiz","","","true"," ","","","","","","","","","","","","","","","","","",""
"","","","","","image-keyboard-response","27","176980","0.0-3.0-22.0-2.0","651090beae417ded35c4ef2f","665500ab8938657b03fbdba8","6657929c681befa75ce9a0f7","5517","stimuli/1010010.jpg","arrowdown","","comprehension_quiz","","","true","arrowdown","","","","","","","","","","","","","","","","","",""
"","","","","","image-keyboard-response","28","179385","0.0-3.0-22.0-3.0","651090beae417ded35c4ef2f","665500ab8938657b03fbdba8","6657929c681befa75ce9a0f7","2403","stimuli/10100101.jpg"," ","","comprehension_quiz","","","true"," ","","","","","","","","","","","","","","","","","",""
"","","","","","html-button-response","29","182913","0.0-4.0","651090beae417ded35c4ef2f","665500ab8938657b03fbdba8","6657929c681befa75ce9a0f7","3525","The experiment will now begin.","0","","","","","","","","","","","","","","","","","","","","","","","",""
"","","","","","image-keyboard-response","30","185435","0.0-5.0","651090beae417ded35c4ef2f","665500ab8938657b03fbdba8","6657929c681befa75ce9a0f7","2520","stimuli/1010101.jpg","2","","prediction_trial","1","","false","","1","true","true","false","true","false","true","[1]","010","101","0","","","","","","",""
"","","","","","image-keyboard-response","31","190976","0.0-6.0","651090beae417ded35c4ef2f","665500ab8938657b03fbdba8","6657929c681befa75ce9a0f7","5538","stimuli/10101011.jpg"," ","","feedback_trial","1","","","","","","","","","","","","","","","","","","","","",""
"","","","","","image-keyboard-response","32","193131","0.0-7.0","651090beae417ded35c4ef2f","665500ab8938657b03fbdba8","6657929c681befa75ce9a0f7","2154","stimuli/0110001.jpg","0","","prediction_trial","0","","true","","0","true","true","false","false","false","false","[0,1]","110","001","1","","","","","","",""
"","","","","","image-keyboard-response","33","194771","0.0-8.0","651090beae417ded35c4ef2f","665500ab8938657b03fbdba8","6657929c681befa75ce9a0f7","1638","stimuli/01100010.jpg"," ","","feedback_trial","0","","","","","","","","","","","","","","","","","","","","",""
"","","","","","image-keyboard-response","34","197483","0.0-9.0","651090beae417ded35c4ef2f","665500ab8938657b03fbdba8","6657929c681befa75ce9a0f7","2695","stimuli/2110111.jpg","0","","prediction_trial","2","","false","","2","false","false","true","true","false","false","[2]","110","111","0","","","","","","",""
"","","","","","image-keyboard-response","35","201581","0.0-10.0","651090beae417ded35c4ef2f","665500ab8938657b03fbdba8","6657929c681befa75ce9a0f7","4096","stimuli/21101112.jpg"," ","","feedback_trial","2","","","","","","","","","","","","","","","","","","","","",""
"","","","","","image-keyboard-response","36","202955","0.0-11.0","651090beae417ded35c4ef2f","665500ab8938657b03fbdba8","6657929c681befa75ce9a0f7","1373","stimuli/2011100.jpg","2","","prediction_trial","1","","false","","2","true","true","false","false","false","false","[1,2]","011","100","0","","","","","","",""
"","","","","","image-keyboard-response","37","213492","0.0-12.0","651090beae417ded35c4ef2f","665500ab8938657b03fbdba8","6657929c681befa75ce9a0f7","10534","stimuli/20111001.jpg"," ","","feedback_trial","1","","","","","","","","","","","","","","","","","","","","",""
"","","","","","image-keyboard-response","38","218147","0.0-13.0","651090beae417ded35c4ef2f","665500ab8938657b03fbdba8","6657929c681befa75ce9a0f7","4654","stimuli/2011101.jpg","0","","prediction_trial","2","","false","","2","false","false","false","false","false","false","[2,1]","011","101","0","","","","","","",""
"","","","","","image-keyboard-response","39","219203","0.0-14.0","651090beae417ded35c4ef2f","665500ab8938657b03fbdba8","6657929c681befa75ce9a0f7","1054","stimuli/20111012.jpg"," ","","feedback_trial","2","","","","","","","","","","","","","","","","","","","","",""
"","","","","","image-keyboard-response","40","221498","0.0-15.0","651090beae417ded35c4ef2f","665500ab8938657b03fbdba8","6657929c681befa75ce9a0f7","2293","stimuli/2111101.jpg","2","","prediction_trial","1","","false","","2","false","false","false","false","false","false","[1,2,0]","111","101","0","","","","","","",""
"","","","","","image-keyboard-response","41","224321","0.0-16.0","651090beae417ded35c4ef2f","665500ab8938657b03fbdba8","6657929c681befa75ce9a0f7","2822","stimuli/21111011.jpg"," ","","feedback_trial","1","","","","","","","","","","","","","","","","","","","","",""
"","","","","","image-keyboard-response","42","225803","0.0-17.0","651090beae417ded35c4ef2f","665500ab8938657b03fbdba8","6657929c681befa75ce9a0f7","1464","stimuli/0010010.jpg","0","","prediction_trial","0","","true","","0","true","true","true","true","true","true","[0]","010","010","1","","","","","","",""
"","","","","","image-keyboard-response","43","227387","0.0-18.0","651090beae417ded35c4ef2f","665500ab8938657b03fbdba8","6657929c681befa75ce9a0f7","1581","stimuli/00100100.jpg"," ","","feedback_trial","0","","","","","","","","","","","","","","","","","","","","",""
"","","","","","image-keyboard-response","44","228947","0.0-19.0","651090beae417ded35c4ef2f","665500ab8938657b03fbdba8","6657929c681befa75ce9a0f7","1557","stimuli/2011011.jpg","2","","prediction_trial","1","","false","","2","false","false","false","false","false","false","[1,2]","011","011","0","","","","","","",""
"","","","","","image-keyboard-response","45","231483","0.0-20.0","651090beae417ded35c4ef2f","665500ab8938657b03fbdba8","6657929c681befa75ce9a0f7","2534","stimuli/20110111.jpg"," ","","feedback_trial","1","","","","","","","","","","","","","","","","","","","","",""
"","","","","","image-keyboard-response","46","233827","0.0-21.0","651090beae417ded35c4ef2f","665500ab8938657b03fbdba8","6657929c681befa75ce9a0f7","2341","stimuli/0100011.jpg","0","","prediction_trial","0","","true","","0","true","true","false","true","false","true","[0]","100","011","1","","","","","","",""
"","","","","","image-keyboard-response","47","236251","0.0-22.0","651090beae417ded35c4ef2f","665500ab8938657b03fbdba8","6657929c681befa75ce9a0f7","2422","stimuli/01000110.jpg"," ","","feedback_trial","0","","","","","","","","","","","","","","","","","","","","",""
"","","","","","image-keyboard-response","48","240371","0.0-23.0","651090beae417ded35c4ef2f","665500ab8938657b03fbdba8","6657929c681befa75ce9a0f7","4119","stimuli/2001101.jpg","2","","prediction_trial","2","","true","","2","false","false","false","true","false","false","[2]","001","101","1","","","","","","",""
"","","","","","image-keyboard-response","49","242059","0.0-24.0","651090beae417ded35c4ef2f","665500ab8938657b03fbdba8","6657929c681befa75ce9a0f7","1686","stimuli/20011012.jpg"," ","","feedback_trial","2","","","","","","","","","","","","","","","","","","","","",""
"","","","","","image-keyboard-response","50","243667","0.0-25.0","651090beae417ded35c4ef2f","665500ab8938657b03fbdba8","6657929c681befa75ce9a0f7","1593","stimuli/2000000.jpg","2","","prediction_trial","2","","true","","2","true","true","true","true","true","true","[2]","000","000","1","","","","","","",""
"","","","","","image-keyboard-response","51","245251","0.0-26.0","651090beae417ded35c4ef2f","665500ab8938657b03fbdba8","6657929c681befa75ce9a0f7","1582","stimuli/20000002.jpg"," ","","feedback_trial","2","","","","","","","","","","","","","","","","","","","","",""
"","","","","","image-keyboard-response","52","248299","0.0-27.0","651090beae417ded35c4ef2f","665500ab8938657b03fbdba8","6657929c681befa75ce9a0f7","3046","stimuli/2100101.jpg","2","","prediction_trial","2","","true","","2","false","false","true","true","false","false","[2]","100","101","1","","","","","","",""
"","","","","","image-keyboard-response","53","249979","0.0-28.0","651090beae417ded35c4ef2f","665500ab8938657b03fbdba8","6657929c681befa75ce9a0f7","1679","stimuli/21001012.jpg"," ","","feedback_trial","2","","","","","","","","","","","","","","","","","","","","",""
"","","","","","image-keyboard-response","54","251859","0.0-29.0","651090beae417ded35c4ef2f","665500ab8938657b03fbdba8","6657929c681befa75ce9a0f7","1878","stimuli/2111111.jpg","0","","prediction_trial","0","","true","","2","false","false","false","false","false","false","[0,2,1]","111","111","1","","","","","","",""
"","","","","","image-keyboard-response","55","253827","0.0-30.0","651090beae417ded35c4ef2f","665500ab8938657b03fbdba8","6657929c681befa75ce9a0f7","1965","stimuli/21111110.jpg"," ","","feedback_trial","0","","","","","","","","","","","","","","","","","","","","",""
"","","","","","image-keyboard-response","56","254979","0.0-31.0","651090beae417ded35c4ef2f","665500ab8938657b03fbdba8","6657929c681befa75ce9a0f7","1150","stimuli/2010100.jpg","2","","prediction_trial","2","","true","","2","true","true","true","true","true","true","[2]","010","100","1","","","","","","",""
"","","","","","image-keyboard-response","57","256163","0.0-32.0","651090beae417ded35c4ef2f","665500ab8938657b03fbdba8","6657929c681befa75ce9a0f7","1181","stimuli/20101002.jpg"," ","","feedback_trial","2","","","","","","","","","","","","","","","","","","","","",""
"","","","","","image-keyboard-response","58","257755","0.0-33.0","651090beae417ded35c4ef2f","665500ab8938657b03fbdba8","6657929c681befa75ce9a0f7","1581","stimuli/0101010.jpg","0","","prediction_trial","2","","false","","0","true","true","false","false","false","false","[2,0]","101","010","0","","","","","","",""
"","","","","","image-keyboard-response","59","261091","0.0-34.0","651090beae417ded35c4ef2f","665500ab8938657b03fbdba8","6657929c681befa75ce9a0f7","3334","stimuli/01010102.jpg"," ","","feedback_trial","2","","","","","","","","","","","","","","","","","","","","",""
"","","","","","image-keyboard-response","60","264883","0.0-35.0","651090beae417ded35c4ef2f","665500ab8938657b03fbdba8","6657929c681befa75ce9a0f7","3790","stimuli/1000000.jpg","1","","prediction_trial","1","","true","","1","true","true","true","true","true","true","[1]","000","000","1","","","","","","",""
"","","","","","image-keyboard-response","61","266811","0.0-36.0","651090beae417ded35c4ef2f","665500ab8938657b03fbdba8","6657929c681befa75ce9a0f7","1926","stimuli/10000001.jpg"," ","","feedback_trial","1","","","","","","","","","","","","","","","","","","","","",""
"","","","","","image-keyboard-response","62","269240","0.0-37.0","651090beae417ded35c4ef2f","665500ab8938657b03fbdba8","6657929c681befa75ce9a0f7","2427","stimuli/1101111.jpg","2","","prediction_trial","1","","false","","1","false","false","true","true","false","false","[1]","101","111","0","","","","","","",""
"","","","","","image-keyboard-response","63","273715","0.0-38.0","651090beae417ded35c4ef2f","665500ab8938657b03fbdba8","6657929c681befa75ce9a0f7","4473","stimuli/11011111.jpg"," ","","feedback_trial","1","","","","","","","","","","","","","","","","","","","","",""
"","","","","","image-keyboard-response","64","275571","0.0-39.0","651090beae417ded35c4ef2f","665500ab8938657b03fbdba8","6657929c681befa75ce9a0f7","1854","stimuli/1010100.jpg","2","","prediction_trial","1","","false","","1","true","true","false","true","false","true","[1]","010","100","0","","","","","","",""
"","","","","","image-keyboard-response","65","278196","0.0-40.0","651090beae417ded35c4ef2f","665500ab8938657b03fbdba8","6657929c681befa75ce9a0f7","2623","stimuli/10101001.jpg"," ","","feedback_trial","1","","","","","","","","","","","","","","","","","","","","",""
"","","","","","image-keyboard-response","66","280519","0.0-41.0","651090beae417ded35c4ef2f","665500ab8938657b03fbdba8","6657929c681befa75ce9a0f7","2314","stimuli/0100101.jpg","0","","prediction_trial","0","","true","","0","false","false","false","true","false","false","[0]","100","101","1","","","","","","",""
"","","","","","image-keyboard-response","67","282019","0.0-42.0","651090beae417ded35c4ef2f","665500ab8938657b03fbdba8","6657929c681befa75ce9a0f7","1498","stimuli/01001010.jpg"," ","","feedback_trial","0","","","","","","","","","","","","","","","","","","","","",""
"","","","","","image-keyboard-response","68","285227","0.0-43.0","651090beae417ded35c4ef2f","665500ab8938657b03fbdba8","6657929c681befa75ce9a0f7","3206","stimuli/2010011.jpg","2","","prediction_trial","2","","true","","2","false","false","true","true","false","false","[2]","010","011","1","","","","","","",""
"","","","","","image-keyboard-response","69","286659","0.0-44.0","651090beae417ded35c4ef2f","665500ab8938657b03fbdba8","6657929c681befa75ce9a0f7","1430","stimuli/20100112.jpg"," ","","feedback_trial","2","","","","","","","","","","","","","","","","","","","","",""
"","","","","","image-keyboard-response","70","290491","0.0-45.0","651090beae417ded35c4ef2f","665500ab8938657b03fbdba8","6657929c681befa75ce9a0f7","3830","stimuli/1001011.jpg","1","","prediction_trial","1","","true","","1","false","false","true","true","false","false","[1]","001","011","1","","","","","","",""
"","","","","","image-keyboard-response","71","291953","0.0-46.0","651090beae417ded35c4ef2f","665500ab8938657b03fbdba8","6657929c681befa75ce9a0f7","1459","stimuli/10010111.jpg"," ","","feedback_trial","1","","","","","","","","","","","","","","","","","","","","",""
"","","","","","image-keyboard-response","72","296755","0.0-47.0","651090beae417ded35c4ef2f","665500ab8938657b03fbdba8","6657929c681befa75ce9a0f7","4800","stimuli/0100110.jpg","1","","prediction_trial","0","","false","","0","false","false","false","true","false","false","[0]","100","110","0","","","","","","",""
"","","","","","image-keyboard-response","73","300747","0.0-48.0","651090beae417ded35c4ef2f","665500ab8938657b03fbdba8","6657929c681befa75ce9a0f7","3990","stimuli/01001100.jpg"," ","","feedback_trial","0","","","","","","","","","","","","","","","","","","","","",""
"","","","","","image-keyboard-response","74","302178","0.0-49.0","651090beae417ded35c4ef2f","665500ab8938657b03fbdba8","6657929c681befa75ce9a0f7","1415","stimuli/2110110.jpg","2","","prediction_trial","2","","true","","2","true","true","true","true","true","true","[2]","110","110","1","","","","","","",""
"","","","","","image-keyboard-response","75","303539","0.0-50.0","651090beae417ded35c4ef2f","665500ab8938657b03fbdba8","6657929c681befa75ce9a0f7","1360","stimuli/21101102.jpg"," ","","feedback_trial","2","","","","","","","","","","","","","","","","","","","","",""
"","","","","","image-keyboard-response","76","305715","0.0-51.0","651090beae417ded35c4ef2f","665500ab8938657b03fbdba8","6657929c681befa75ce9a0f7","2182","stimuli/0100000.jpg","0","","prediction_trial","0","","true","","0","true","true","false","true","false","true","[0]","100","000","1","","","","","","",""
"","","","","","image-keyboard-response","77","306787","0.0-52.0","651090beae417ded35c4ef2f","665500ab8938657b03fbdba8","6657929c681befa75ce9a0f7","1070","stimuli/01000000.jpg"," ","","feedback_trial","0","","","","","","","","","","","","","","","","","","","","",""
"","","","","","image-keyboard-response","78","309147","0.0-53.0","651090beae417ded35c4ef2f","665500ab8938657b03fbdba8","6657929c681befa75ce9a0f7","2358","stimuli/0111010.jpg","0","","prediction_trial","2","","false","","0","true","true","false","false","false","false","[0,1,2]","111","010","0","","","","","","",""
"","","","","","image-keyboard-response","79","312131","0.0-54.0","651090beae417ded35c4ef2f","665500ab8938657b03fbdba8","6657929c681befa75ce9a0f7","2982","stimuli/01110102.jpg"," ","","feedback_trial","0","","","","","","","","","","","","","","","","","","","","",""
"","","","","","image-keyboard-response","80","315680","0.0-55.0","651090beae417ded35c4ef2f","665500ab8938657b03fbdba8","6657929c681befa75ce9a0f7","3546","stimuli/1110010.jpg","1","","prediction_trial","0","","false","","1","false","true","false","false","false","false","[1,0]","110","010","0","","","","","","",""
"","","","","","image-keyboard-response","81","320235","0.0-56.0","651090beae417ded35c4ef2f","665500ab8938657b03fbdba8","6657929c681befa75ce9a0f7","4553","stimuli/11100100.jpg"," ","","feedback_trial","1","","","","","","","","","","","","","","","","","","","","",""
"","","","","","image-keyboard-response","82","326286","0.0-57.0","651090beae417ded35c4ef2f","665500ab8938657b03fbdba8","6657929c681befa75ce9a0f7","6035","stimuli/1011101.jpg","1","","prediction_trial","2","","false","","1","true","true","false","false","false","false","[1,2]","011","101","0","","","","","","",""
"","","","","","image-keyboard-response","83","330867","0.0-58.0","651090beae417ded35c4ef2f","665500ab8938657b03fbdba8","6657929c681befa75ce9a0f7","4579","stimuli/10111012.jpg"," ","","feedback_trial","1","","","","","","","","","","","","","","","","","","","","",""
"","","","","","image-keyboard-response","84","336259","0.0-59.0","651090beae417ded35c4ef2f","665500ab8938657b03fbdba8","6657929c681befa75ce9a0f7","5390","stimuli/1000101.jpg","1","","prediction_trial","1","","true","","1","true","true","true","true","true","true","[1]","000","101","1","","","","","","",""
"","","","","","image-keyboard-response","85","338209","0.0-60.0","651090beae417ded35c4ef2f","665500ab8938657b03fbdba8","6657929c681befa75ce9a0f7","1947","stimuli/10001011.jpg"," ","","feedback_trial","1","","","","","","","","","","","","","","","","","","","","",""
"","","","","","image-keyboard-response","86","341026","0.0-61.0","651090beae417ded35c4ef2f","665500ab8938657b03fbdba8","6657929c681befa75ce9a0f7","2816","stimuli/1111001.jpg","1","","prediction_trial","2","","false","","1","true","true","false","false","false","false","[2,1,0]","111","001","0","","","","","","",""
"","","","","","image-keyboard-response","87","343515","0.0-62.0","651090beae417ded35c4ef2f","665500ab8938657b03fbdba8","6657929c681befa75ce9a0f7","2487","stimuli/11110012.jpg"," ","","feedback_trial","2","","","","","","","","","","","","","","","","","","","","",""
"","","","","","image-keyboard-response","88","347218","0.0-63.0","651090beae417ded35c4ef2f","665500ab8938657b03fbdba8","6657929c681befa75ce9a0f7","3701","stimuli/0100100.jpg","0","","prediction_trial","0","","true","","0","false","true","false","true","false","true","[0]","100","100","1","","","","","","",""
"","","","","","image-keyboard-response","89","349944","0.0-64.0","651090beae417ded35c4ef2f","665500ab8938657b03fbdba8","6657929c681befa75ce9a0f7","2725","stimuli/01001000.jpg"," ","","feedback_trial","0","","","","","","","","","","","","","","","","","","","","",""
"","","","","","image-keyboard-response","90","353219","0.0-65.0","651090beae417ded35c4ef2f","665500ab8938657b03fbdba8","6657929c681befa75ce9a0f7","3256","stimuli/0101111.jpg","2","","prediction_trial","2","","true","","0","false","false","false","false","false","false","[0,2]","101","111","1","","","","","","",""
"","","","","","image-keyboard-response","91","355251","0.0-66.0","651090beae417ded35c4ef2f","665500ab8938657b03fbdba8","6657929c681befa75ce9a0f7","2029","stimuli/01011112.jpg"," ","","feedback_trial","0","","","","","","","","","","","","","","","","","","","","",""
"","","","","","image-keyboard-response","92","357339","0.0-67.0","651090beae417ded35c4ef2f","665500ab8938657b03fbdba8","6657929c681befa75ce9a0f7","2086","stimuli/2001010.jpg","2","","prediction_trial","2","","true","","2","true","true","false","true","false","true","[2]","001","010","1","","","","","","",""
"","","","","","image-keyboard-response","93","358779","0.0-68.0","651090beae417ded35c4ef2f","665500ab8938657b03fbdba8","6657929c681befa75ce9a0f7","1438","stimuli/20010102.jpg"," ","","feedback_trial","2","","","","","","","","","","","","","","","","","","","","",""
"","","","","","image-keyboard-response","94","365163","0.0-69.0","651090beae417ded35c4ef2f","665500ab8938657b03fbdba8","6657929c681befa75ce9a0f7","6382","stimuli/1101110.jpg","1","","prediction_trial","1","","true","","1","false","false","true","true","false","false","[1]","101","110","1","","","","","","",""
"","","","","","image-keyboard-response","95","367664","0.0-70.0","651090beae417ded35c4ef2f","665500ab8938657b03fbdba8","6657929c681befa75ce9a0f7","2495","stimuli/11011101.jpg"," ","","feedback_trial","1","","","","","","","","","","","","","","","","","","","","",""
"","","","","","image-keyboard-response","96","369888","0.0-71.0","651090beae417ded35c4ef2f","665500ab8938657b03fbdba8","6657929c681befa75ce9a0f7","2222","stimuli/1111101.jpg","1","","prediction_trial","2","","false","","1","true","true","false","false","false","false","[1,2,0]","111","101","0","","","","","","",""
"","","","","","image-keyboard-response","97","372384","0.0-72.0","651090beae417ded35c4ef2f","665500ab8938657b03fbdba8","6657929c681befa75ce9a0f7","2494","stimuli/11111012.jpg"," ","","feedback_trial","1","","","","","","","","","","","","","","","","","","","","",""
"","","","","","image-keyboard-response","98","374480","0.0-73.0","651090beae417ded35c4ef2f","665500ab8938657b03fbdba8","6657929c681befa75ce9a0f7","2085","stimuli/2111000.jpg","2","","prediction_trial","0","","false","","2","true","true","false","false","false","false","[0,2,1]","111","000","0","","","","","","",""
"","","","","","image-keyboard-response","99","378144","0.0-74.0","651090beae417ded35c4ef2f","665500ab8938657b03fbdba8","6657929c681befa75ce9a0f7","3662","stimuli/21110000.jpg"," ","","feedback_trial","0","","","","","","","","","","","","","","","","","","","","",""
"","","","","","image-keyboard-response","100","380960","0.0-75.0","651090beae417ded35c4ef2f","665500ab8938657b03fbdba8","6657929c681befa75ce9a0f7","2814","stimuli/2100100.jpg","2","","prediction_trial","2","","true","","2","true","true","true","true","true","true","[2]","100","100","1","","","","","","",""
"","","","","","image-keyboard-response","101","382216","0.0-76.0","651090beae417ded35c4ef2f","665500ab8938657b03fbdba8","6657929c681befa75ce9a0f7","1254","stimuli/21001002.jpg"," ","","feedback_trial","2","","","","","","","","","","","","","","","","","","","","",""
"","","","","","image-keyboard-response","102","384496","0.0-77.0","651090beae417ded35c4ef2f","665500ab8938657b03fbdba8","6657929c681befa75ce9a0f7","2278","stimuli/0110110.jpg","0","","prediction_trial","1","","false","","0","false","false","false","false","false","false","[0,1]","110","110","0","","","","","","",""
"","","","","","image-keyboard-response","103","386720","0.0-78.0","651090beae417ded35c4ef2f","665500ab8938657b03fbdba8","6657929c681befa75ce9a0f7","2222","stimuli/01101101.jpg"," ","","feedback_trial","0","","","","","","","","","","","","","","","","","","","","",""
"","","","","","image-keyboard-response","104","390952","0.0-79.0","651090beae417ded35c4ef2f","665500ab8938657b03fbdba8","6657929c681befa75ce9a0f7","4231","stimuli/0100001.jpg","0","","prediction_trial","0","","true","","0","true","true","false","true","false","true","[0]","100","001","1","","","","","","",""
"","","","","","image-keyboard-response","105","392000","0.0-80.0","651090beae417ded35c4ef2f","665500ab8938657b03fbdba8","6657929c681befa75ce9a0f7","1046","stimuli/01000010.jpg"," ","","feedback_trial","0","","","","","","","","","","","","","","","","","","","","",""
"","","","","","image-keyboard-response","106","396568","0.0-81.0","651090beae417ded35c4ef2f","665500ab8938657b03fbdba8","6657929c681befa75ce9a0f7","4557","stimuli/2000101.jpg","2","","prediction_trial","2","","true","","2","false","false","true","true","false","false","[2]","000","101","1","","","","","","",""
"","","","","","image-keyboard-response","107","398728","0.0-82.0","651090beae417ded35c4ef2f","665500ab8938657b03fbdba8","6657929c681befa75ce9a0f7","2157","stimuli/20001012.jpg"," ","","feedback_trial","2","","","","","","","","","","","","","","","","","","","","",""
"","","","","","image-keyboard-response","108","403400","0.0-83.0","651090beae417ded35c4ef2f","665500ab8938657b03fbdba8","6657929c681befa75ce9a0f7","4671","stimuli/0010110.jpg","1","","prediction_trial","0","","false","","0","false","false","true","true","false","false","[0]","010","110","0","","","","","","",""
"","","","","","image-keyboard-response","109","405279","0.0-84.0","651090beae417ded35c4ef2f","665500ab8938657b03fbdba8","6657929c681befa75ce9a0f7","1877","stimuli/00101100.jpg"," ","","feedback_trial","0","","","","","","","","","","","","","","","","","","","","",""
"","","","","","image-keyboard-response","110","406400","0.0-85.0","651090beae417ded35c4ef2f","665500ab8938657b03fbdba8","6657929c681befa75ce9a0f7","1119","stimuli/1010110.jpg","1","","prediction_trial","1","","true","","1","false","false","false","true","false","false","[1]","010","110","1","","","","","","",""
"","","","","","image-keyboard-response","111","408181","0.0-86.0","651090beae417ded35c4ef2f","665500ab8938657b03fbdba8","6657929c681befa75ce9a0f7","1780","stimuli/10101101.jpg"," ","","feedback_trial","1","","","","","","","","","","","","","","","","","","","","",""
"","","","","","image-keyboard-response","112","411152","0.0-87.0","651090beae417ded35c4ef2f","665500ab8938657b03fbdba8","6657929c681befa75ce9a0f7","2969","stimuli/0000110.jpg","1","","prediction_trial","0","","false","","0","false","false","true","true","false","false","[0]","000","110","0","","","","","","",""
"","","","","","image-keyboard-response","113","413376","0.0-88.0","651090beae417ded35c4ef2f","665500ab8938657b03fbdba8","6657929c681befa75ce9a0f7","2222","stimuli/00001100.jpg"," ","","feedback_trial","0","","","","","","","","","","","","","","","","","","","","",""
"","","","","","image-keyboard-response","114","414784","0.0-89.0","651090beae417ded35c4ef2f","665500ab8938657b03fbdba8","6657929c681befa75ce9a0f7","1396","stimuli/1000011.jpg","1","","prediction_trial","1","","true","","1","false","false","true","true","false","false","[1]","000","011","1","","","","","","",""
"","","","","","image-keyboard-response","115","415840","0.0-90.0","651090beae417ded35c4ef2f","665500ab8938657b03fbdba8","6657929c681befa75ce9a0f7","1054","stimuli/10000111.jpg"," ","","feedback_trial","1","","","","","","","","","","","","","","","","","","","","",""
"","","","","","image-keyboard-response","116","417536","0.0-91.0","651090beae417ded35c4ef2f","665500ab8938657b03fbdba8","6657929c681befa75ce9a0f7","1695","stimuli/1001100.jpg","1","","prediction_trial","1","","true","","1","true","true","true","true","true","true","[1]","001","100","1","","","","","","",""
"","","","","","image-keyboard-response","117","418762","0.0-92.0","651090beae417ded35c4ef2f","665500ab8938657b03fbdba8","6657929c681befa75ce9a0f7","1224","stimuli/10011001.jpg"," ","","feedback_trial","1","","","","","","","","","","","","","","","","","","","","",""
"","","","","","image-keyboard-response","118","422007","0.0-93.0","651090beae417ded35c4ef2f","665500ab8938657b03fbdba8","6657929c681befa75ce9a0f7","3244","stimuli/2101111.jpg","2","","prediction_trial","0","","false","","2","false","false","false","false","false","false","[0,2]","101","111","0","","","","","","",""
"","","","","","image-keyboard-response","119","423832","0.0-94.0","651090beae417ded35c4ef2f","665500ab8938657b03fbdba8","6657929c681befa75ce9a0f7","1823","stimuli/21011110.jpg"," ","","feedback_trial","0","","","","","","","","","","","","","","","","","","","","",""
"","","","","","image-keyboard-response","120","427979","0.0-95.0","651090beae417ded35c4ef2f","665500ab8938657b03fbdba8","6657929c681befa75ce9a0f7","4142","stimuli/0001110.jpg","1","","prediction_trial","0","","false","","0","false","false","true","true","false","false","[0]","001","110","0","","","","","","",""
"","","","","","image-keyboard-response","121","429745","0.0-96.0","651090beae417ded35c4ef2f","665500ab8938657b03fbdba8","6657929c681befa75ce9a0f7","1763","stimuli/00011100.jpg"," ","","feedback_trial","0","","","","","","","","","","","","","","","","","","","","",""
"","","","","","image-keyboard-response","122","431115","0.0-97.0","651090beae417ded35c4ef2f","665500ab8938657b03fbdba8","6657929c681befa75ce9a0f7","1352","stimuli/2000110.jpg","2","","prediction_trial","2","","true","","2","true","true","true","true","true","true","[2]","000","110","1","","","","","","",""
"","","","","","image-keyboard-response","123","431810","0.0-98.0","651090beae417ded35c4ef2f","665500ab8938657b03fbdba8","6657929c681befa75ce9a0f7","693","stimuli/20001102.jpg"," ","","feedback_trial","2","","","","","","","","","","","","","","","","","","","","",""
"","","","","","image-keyboard-response","124","433275","0.0-99.0","651090beae417ded35c4ef2f","665500ab8938657b03fbdba8","6657929c681befa75ce9a0f7","1464","stimuli/0000000.jpg","0","","prediction_trial","0","","true","","0","true","true","true","true","true","true","[0]","000","000","1","","","","","","",""
"","","","","","image-keyboard-response","125","434371","0.0-100.0","651090beae417ded35c4ef2f","665500ab8938657b03fbdba8","6657929c681befa75ce9a0f7","1094","stimuli/00000000.jpg"," ","","feedback_trial","0","","","","","","","","","","","","","","","","","","","","",""
"","","","","","image-keyboard-response","126","440360","0.0-101.0","651090beae417ded35c4ef2f","665500ab8938657b03fbdba8","6657929c681befa75ce9a0f7","5987","stimuli/1101011.jpg","1","","prediction_trial","1","","true","","1","false","false","true","true","false","false","[1]","101","011","1","","","","","","",""
"","","","","","image-keyboard-response","127","441971","0.0-102.0","651090beae417ded35c4ef2f","665500ab8938657b03fbdba8","6657929c681befa75ce9a0f7","1609","stimuli/11010111.jpg"," ","","feedback_trial","1","","","","","","","","","","","","","","","","","","","","",""
"","","","","","image-keyboard-response","128","444723","0.0-103.0","651090beae417ded35c4ef2f","665500ab8938657b03fbdba8","6657929c681befa75ce9a0f7","2750","stimuli/0011100.jpg","0","","prediction_trial","0","","true","","0","false","true","true","true","false","true","[0]","011","100","1","","","","","","",""
"","","","","","image-keyboard-response","129","445523","0.0-104.0","651090beae417ded35c4ef2f","665500ab8938657b03fbdba8","6657929c681befa75ce9a0f7","798","stimuli/00111000.jpg"," ","","feedback_trial","0","","","","","","","","","","","","","","","","","","","","",""
"","","","","","image-keyboard-response","130","447203","0.0-105.0","651090beae417ded35c4ef2f","665500ab8938657b03fbdba8","6657929c681befa75ce9a0f7","1663","stimuli/0000100.jpg","0","","prediction_trial","0","","true","","0","false","true","true","true","false","true","[0]","000","100","1","","","","","","",""
"","","","","","image-keyboard-response","131","447899","0.0-106.0","651090beae417ded35c4ef2f","665500ab8938657b03fbdba8","6657929c681befa75ce9a0f7","694","stimuli/00001000.jpg"," ","","feedback_trial","0","","","","","","","","","","","","","","","","","","","","",""
"","","","","","image-keyboard-response","132","448843","0.0-107.0","651090beae417ded35c4ef2f","665500ab8938657b03fbdba8","6657929c681befa75ce9a0f7","942","stimuli/2111100.jpg","2","","prediction_trial","2","","true","","2","true","true","false","false","false","false","[1,2,0]","111","100","1","","","","","","",""
"","","","","","image-keyboard-response","133","450163","0.0-108.0","651090beae417ded35c4ef2f","665500ab8938657b03fbdba8","6657929c681befa75ce9a0f7","1318","stimuli/21111002.jpg"," ","","feedback_trial","1","","","","","","","","","","","","","","","","","","","","",""
"","","","","","image-keyboard-response","134","453752","0.0-109.0","651090beae417ded35c4ef2f","665500ab8938657b03fbdba8","6657929c681befa75ce9a0f7","3587","stimuli/2010111.jpg","1","","prediction_trial","2","","false","","2","false","false","true","true","false","false","[2]","010","111","0","","","","","","",""
"","","","","","image-keyboard-response","135","456939","0.0-110.0","651090beae417ded35c4ef2f","665500ab8938657b03fbdba8","6657929c681befa75ce9a0f7","3185","stimuli/20101112.jpg"," ","","feedback_trial","2","","","","","","","","","","","","","","","","","","","","",""
"","","","","","image-keyboard-response","136","459979","0.0-111.0","651090beae417ded35c4ef2f","665500ab8938657b03fbdba8","6657929c681befa75ce9a0f7","3038","stimuli/2010001.jpg","2","","prediction_trial","2","","true","","2","false","true","true","true","false","true","[2]","010","001","1","","","","","","",""
"","","","","","image-keyboard-response","137","460979","0.0-112.0","651090beae417ded35c4ef2f","665500ab8938657b03fbdba8","6657929c681befa75ce9a0f7","998","stimuli/20100012.jpg"," ","","feedback_trial","2","","","","","","","","","","","","","","","","","","","","",""
"","","","","","image-keyboard-response","138","465291","0.0-113.0","651090beae417ded35c4ef2f","665500ab8938657b03fbdba8","6657929c681befa75ce9a0f7","4296","stimuli/1111011.jpg","1","","prediction_trial","0","","false","","1","false","false","false","false","false","false","[2,1,0]","111","011","0","","","","","","",""
"","","","","","image-keyboard-response","139","466859","0.0-114.0","651090beae417ded35c4ef2f","665500ab8938657b03fbdba8","6657929c681befa75ce9a0f7","1566","stimuli/11110110.jpg"," ","","feedback_trial","2","","","","","","","","","","","","","","","","","","","","",""
"","","","","","image-keyboard-response","140","469419","0.0-115.0","651090beae417ded35c4ef2f","665500ab8938657b03fbdba8","6657929c681befa75ce9a0f7","2558","stimuli/1111000.jpg","1","","prediction_trial","2","","false","","1","true","true","false","false","false","false","[2,0,1]","111","000","0","","","","","","",""
"","","","","","image-keyboard-response","141","473819","0.0-116.0","651090beae417ded35c4ef2f","665500ab8938657b03fbdba8","6657929c681befa75ce9a0f7","4398","stimuli/11110002.jpg"," ","","feedback_trial","2","","","","","","","","","","","","","","","","","","","","",""
"","","","","","image-keyboard-response","142","477272","0.0-117.0","651090beae417ded35c4ef2f","665500ab8938657b03fbdba8","6657929c681befa75ce9a0f7","3451","stimuli/1110101.jpg","1","","prediction_trial","1","","true","","1","true","true","false","false","false","false","[0,1]","110","101","1","","","","","","",""
"","","","","","image-keyboard-response","143","478923","0.0-118.0","651090beae417ded35c4ef2f","665500ab8938657b03fbdba8","6657929c681befa75ce9a0f7","1648","stimuli/11101011.jpg"," ","","feedback_trial","0","","","","","","","","","","","","","","","","","","","","",""
"","","","","","image-keyboard-response","144","480083","0.0-119.0","651090beae417ded35c4ef2f","665500ab8938657b03fbdba8","6657929c681befa75ce9a0f7","1158","stimuli/0110011.jpg","0","","prediction_trial","0","","true","","0","true","true","false","false","false","false","[0,1]","110","011","1","","","","","","",""
"","","","","","image-keyboard-response","145","481523","0.0-120.0","651090beae417ded35c4ef2f","665500ab8938657b03fbdba8","6657929c681befa75ce9a0f7","1438","stimuli/01100110.jpg"," ","","feedback_trial","0","","","","","","","","","","","","","","","","","","","","",""
"","","","","","image-keyboard-response","146","482931","0.0-121.0","651090beae417ded35c4ef2f","665500ab8938657b03fbdba8","6657929c681befa75ce9a0f7","1392","stimuli/0001001.jpg","0","","prediction_trial","0","","true","","0","true","true","true","true","true","true","[0]","001","001","1","","","","","","",""
"","","","","","image-keyboard-response","147","483929","0.0-122.0","651090beae417ded35c4ef2f","665500ab8938657b03fbdba8","6657929c681befa75ce9a0f7","997","stimuli/00010010.jpg"," ","","feedback_trial","0","","","","","","","","","","","","","","","","","","","","",""
"","","","","","image-keyboard-response","148","489253","0.0-123.0","651090beae417ded35c4ef2f","665500ab8938657b03fbdba8","6657929c681befa75ce9a0f7","5333","stimuli/0110111.jpg","2","","prediction_trial","1","","false","","0","false","false","false","false","false","false","[1,0]","110","111","0","","","","","","",""
"","","","","","image-keyboard-response","149","493288","0.0-124.0","651090beae417ded35c4ef2f","665500ab8938657b03fbdba8","6657929c681befa75ce9a0f7","4032","stimuli/01101111.jpg"," ","","feedback_trial","1","","","","","","","","","","","","","","","","","","","","",""
"","","","","","image-keyboard-response","150","494296","0.0-125.0","651090beae417ded35c4ef2f","665500ab8938657b03fbdba8","6657929c681befa75ce9a0f7","1006","stimuli/0110010.jpg","0","","prediction_trial","0","","true","","0","true","true","false","false","false","false","[1,0]","110","010","1","","","","","","",""
"","","","","","image-keyboard-response","151","495792","0.0-126.0","651090beae417ded35c4ef2f","665500ab8938657b03fbdba8","6657929c681befa75ce9a0f7","1494","stimuli/01100100.jpg"," ","","feedback_trial","1","","","","","","","","","","","","","","","","","","","","",""
"","","","","","image-keyboard-response","152","496639","0.0-127.0","651090beae417ded35c4ef2f","665500ab8938657b03fbdba8","6657929c681befa75ce9a0f7","846","stimuli/2100000.jpg","2","","prediction_trial","2","","true","","2","true","true","true","true","true","true","[2]","100","000","1","","","","","","",""
"","","","","","image-keyboard-response","153","497687","0.0-128.0","651090beae417ded35c4ef2f","665500ab8938657b03fbdba8","6657929c681befa75ce9a0f7","1046","stimuli/21000002.jpg"," ","","feedback_trial","2","","","","","","","","","","","","","","","","","","","","",""
"","","","","","image-keyboard-response","154","501141","0.0-129.0","651090beae417ded35c4ef2f","665500ab8938657b03fbdba8","6657929c681befa75ce9a0f7","3451","stimuli/0011101.jpg","2","","prediction_trial","0","","false","","0","false","false","true","true","false","false","[0]","011","101","0","","","","","","",""
"","","","","","image-keyboard-response","155","506072","0.0-130.0","651090beae417ded35c4ef2f","665500ab8938657b03fbdba8","6657929c681befa75ce9a0f7","4928","stimuli/00111010.jpg"," ","","feedback_trial","0","","","","","","","","","","","","","","","","","","","","",""
"","","","","","image-keyboard-response","156","506848","0.0-131.0","651090beae417ded35c4ef2f","665500ab8938657b03fbdba8","6657929c681befa75ce9a0f7","774","stimuli/0000010.jpg","0","","prediction_trial","0","","true","","0","true","true","true","true","true","true","[0]","000","010","1","","","","","","",""
"","","","","","image-keyboard-response","157","508536","0.0-132.0","651090beae417ded35c4ef2f","665500ab8938657b03fbdba8","6657929c681befa75ce9a0f7","1686","stimuli/00000100.jpg"," ","","feedback_trial","0","","","","","","","","","","","","","","","","","","","","",""
"","","","","","image-keyboard-response","158","510616","0.0-133.0","651090beae417ded35c4ef2f","665500ab8938657b03fbdba8","6657929c681befa75ce9a0f7","2078","stimuli/1011010.jpg","1","","prediction_trial","1","","true","","1","false","true","false","false","false","false","[1,2]","011","010","1","","","","","","",""
"","","","","","image-keyboard-response","159","512325","0.0-134.0","651090beae417ded35c4ef2f","665500ab8938657b03fbdba8","6657929c681befa75ce9a0f7","1707","stimuli/10110101.jpg"," ","","feedback_trial","1","","","","","","","","","","","","","","","","","","","","",""
"","","","","","image-keyboard-response","160","516008","0.0-135.0","651090beae417ded35c4ef2f","665500ab8938657b03fbdba8","6657929c681befa75ce9a0f7","3680","stimuli/1100011.jpg","2","","prediction_trial","1","","false","","1","false","false","true","true","false","false","[1]","100","011","0","","","","","","",""
"","","","","","image-keyboard-response","161","517544","0.0-136.0","651090beae417ded35c4ef2f","665500ab8938657b03fbdba8","6657929c681befa75ce9a0f7","1534","stimuli/11000111.jpg"," ","","feedback_trial","1","","","","","","","","","","","","","","","","","","","","",""
"","","","","","image-keyboard-response","162","518511","0.0-137.0","651090beae417ded35c4ef2f","665500ab8938657b03fbdba8","6657929c681befa75ce9a0f7","951","stimuli/0010011.jpg","0","","prediction_trial","0","","true","","0","true","true","true","true","true","true","[0]","010","011","1","","","","","","",""
"","","","","","image-keyboard-response","163","519384","0.0-138.0","651090beae417ded35c4ef2f","665500ab8938657b03fbdba8","6657929c681befa75ce9a0f7","870","stimuli/00100110.jpg"," ","","feedback_trial","0","","","","","","","","","","","","","","","","","","","","",""
"","","","","","image-keyboard-response","164","521096","0.0-139.0","651090beae417ded35c4ef2f","665500ab8938657b03fbdba8","6657929c681befa75ce9a0f7","1710","stimuli/2001111.jpg","2","","prediction_trial","2","","true","","2","false","false","false","true","false","false","[2]","001","111","1","","","","","","",""
"","","","","","image-keyboard-response","165","522792","0.0-140.0","651090beae417ded35c4ef2f","665500ab8938657b03fbdba8","6657929c681befa75ce9a0f7","1694","stimuli/20011112.jpg"," ","","feedback_trial","2","","","","","","","","","","","","","","","","","","","","",""
"","","","","","image-keyboard-response","166","523768","0.0-141.0","651090beae417ded35c4ef2f","665500ab8938657b03fbdba8","6657929c681befa75ce9a0f7","975","stimuli/2100110.jpg","2","","prediction_trial","2","","true","","2","true","true","true","true","true","true","[2]","100","110","1","","","","","","",""
"","","","","","image-keyboard-response","167","524752","0.0-142.0","651090beae417ded35c4ef2f","665500ab8938657b03fbdba8","6657929c681befa75ce9a0f7","982","stimuli/21001102.jpg"," ","","feedback_trial","2","","","","","","","","","","","","","","","","","","","","",""
"","","","","","image-keyboard-response","168","525912","0.0-143.0","651090beae417ded35c4ef2f","665500ab8938657b03fbdba8","6657929c681befa75ce9a0f7","1158","stimuli/0001101.jpg","2","","prediction_trial","0","","false","","0","false","false","true","true","false","false","[0]","001","101","0","","","","","","",""
"","","","","","image-keyboard-response","169","527792","0.0-144.0","651090beae417ded35c4ef2f","665500ab8938657b03fbdba8","6657929c681befa75ce9a0f7","1877","stimuli/00011010.jpg"," ","","feedback_trial","0","","","","","","","","","","","","","","","","","","","","",""
"","","","","","image-keyboard-response","170","528680","0.0-145.0","651090beae417ded35c4ef2f","665500ab8938657b03fbdba8","6657929c681befa75ce9a0f7","874","stimuli/0011000.jpg","0","","prediction_trial","0","","true","","0","true","true","true","true","true","true","[0]","011","000","1","","","","","","",""
"","","","","","image-keyboard-response","171","529351","0.0-146.0","651090beae417ded35c4ef2f","665500ab8938657b03fbdba8","6657929c681befa75ce9a0f7","669","stimuli/00110000.jpg"," ","","feedback_trial","0","","","","","","","","","","","","","","","","","","","","",""
"","","","","","image-keyboard-response","172","530024","0.0-147.0","651090beae417ded35c4ef2f","665500ab8938657b03fbdba8","6657929c681befa75ce9a0f7","671","stimuli/2100010.jpg","2","","prediction_trial","2","","true","","2","true","true","true","true","true","true","[2]","100","010","1","","","","","","",""
"","","","","","image-keyboard-response","173","530744","0.0-148.0","651090beae417ded35c4ef2f","665500ab8938657b03fbdba8","6657929c681befa75ce9a0f7","717","stimuli/21000102.jpg"," ","","feedback_trial","2","","","","","","","","","","","","","","","","","","","","",""
"","","","","","image-keyboard-response","174","532000","0.0-149.0","651090beae417ded35c4ef2f","665500ab8938657b03fbdba8","6657929c681befa75ce9a0f7","1254","stimuli/0000001.jpg","0","","prediction_trial","0","","true","","0","true","true","true","true","true","true","[0]","000","001","1","","","","","","",""
"","","","","","image-keyboard-response","175","533081","0.0-150.0","651090beae417ded35c4ef2f","665500ab8938657b03fbdba8","6657929c681befa75ce9a0f7","1079","stimuli/00000010.jpg"," ","","feedback_trial","0","","","","","","","","","","","","","","","","","","","","",""
"","","","","","image-keyboard-response","176","535088","0.0-151.0","651090beae417ded35c4ef2f","665500ab8938657b03fbdba8","6657929c681befa75ce9a0f7","2005","stimuli/0100111.jpg","2","","prediction_trial","0","","false","","0","false","false","false","true","false","false","[0]","100","111","0","","","","","","",""
"","","","","","image-keyboard-response","177","535928","0.0-152.0","651090beae417ded35c4ef2f","665500ab8938657b03fbdba8","6657929c681befa75ce9a0f7","838","stimuli/01001110.jpg"," ","","feedback_trial","0","","","","","","","","","","","","","","","","","","","","",""
"","","","","","image-keyboard-response","178","538248","0.0-153.0","651090beae417ded35c4ef2f","665500ab8938657b03fbdba8","6657929c681befa75ce9a0f7","2303","stimuli/1111111.jpg","1","","prediction_trial","0","","false","","1","false","false","false","false","false","false","[2,1,0]","111","111","0","","","","","","",""
"","","","","","image-keyboard-response","179","544040","0.0-154.0","651090beae417ded35c4ef2f","665500ab8938657b03fbdba8","6657929c681befa75ce9a0f7","5790","stimuli/11111110.jpg"," ","","feedback_trial","2","","","","","","","","","","","","","","","","","","","","",""
"","","","","","image-keyboard-response","180","544912","0.0-155.0","651090beae417ded35c4ef2f","665500ab8938657b03fbdba8","6657929c681befa75ce9a0f7","870","stimuli/2110100.jpg","2","","prediction_trial","2","","true","","2","true","true","true","true","true","true","[2]","110","100","1","","","","","","",""
"","","","","","image-keyboard-response","181","545888","0.0-156.0","651090beae417ded35c4ef2f","665500ab8938657b03fbdba8","6657929c681befa75ce9a0f7","974","stimuli/21101002.jpg"," ","","feedback_trial","2","","","","","","","","","","","","","","","","","","","","",""
"","","","","","image-keyboard-response","182","547256","0.0-157.0","651090beae417ded35c4ef2f","665500ab8938657b03fbdba8","6657929c681befa75ce9a0f7","1366","stimuli/1011011.jpg","1","","prediction_trial","1","","true","","1","false","false","false","false","false","false","[1,2]","011","011","1","","","","","","",""
"","","","","","image-keyboard-response","183","548888","0.0-158.0","651090beae417ded35c4ef2f","665500ab8938657b03fbdba8","6657929c681befa75ce9a0f7","1630","stimuli/10110111.jpg"," ","","feedback_trial","1","","","","","","","","","","","","","","","","","","","","",""
"","","","","","image-keyboard-response","184","549722","0.0-159.0","651090beae417ded35c4ef2f","665500ab8938657b03fbdba8","6657929c681befa75ce9a0f7","830","stimuli/2101100.jpg","2","","prediction_trial","0","","false","","2","true","true","false","false","false","false","[2,0]","101","100","0","","","","","","",""
"","","","","","image-keyboard-response","185","553882","0.0-160.0","651090beae417ded35c4ef2f","665500ab8938657b03fbdba8","6657929c681befa75ce9a0f7","4158","stimuli/21011000.jpg"," ","","feedback_trial","2","","","","","","","","","","","","","","","","","","","","",""
"","","","","","image-keyboard-response","186","554729","0.0-161.0","651090beae417ded35c4ef2f","665500ab8938657b03fbdba8","6657929c681befa75ce9a0f7","839","stimuli/2101110.jpg","2","","prediction_trial","2","","true","","2","true","true","false","false","false","false","[2,0]","101","110","1","","","","","","",""
"","","","","","image-keyboard-response","187","556522","0.0-162.0","651090beae417ded35c4ef2f","665500ab8938657b03fbdba8","6657929c681befa75ce9a0f7","1790","stimuli/21011102.jpg"," ","","feedback_trial","2","","","","","","","","","","","","","","","","","","","","",""
"","","","","","image-keyboard-response","188","557906","0.0-163.0","651090beae417ded35c4ef2f","665500ab8938657b03fbdba8","6657929c681befa75ce9a0f7","1382","stimuli/1100100.jpg","1","","prediction_trial","1","","true","","1","true","true","true","true","true","true","[1]","100","100","1","","","","","","",""
"","","","","","image-keyboard-response","189","559186","0.0-164.0","651090beae417ded35c4ef2f","665500ab8938657b03fbdba8","6657929c681befa75ce9a0f7","1278","stimuli/11001001.jpg"," ","","feedback_trial","1","","","","","","","","","","","","","","","","","","","","",""
"","","","","","image-keyboard-response","190","561850","0.0-165.0","651090beae417ded35c4ef2f","665500ab8938657b03fbdba8","6657929c681befa75ce9a0f7","2662","stimuli/2111011.jpg","2","","prediction_trial","2","","true","","2","false","false","false","false","false","false","[2,0,1]","111","011","1","","","","","","",""
"","","","","","image-keyboard-response","191","563018","0.0-166.0","651090beae417ded35c4ef2f","665500ab8938657b03fbdba8","6657929c681befa75ce9a0f7","1165","stimuli/21110112.jpg"," ","","feedback_trial","2","","","","","","","","","","","","","","","","","","","","",""
"","","","","","image-keyboard-response","192","564199","0.0-167.0","651090beae417ded35c4ef2f","665500ab8938657b03fbdba8","6657929c681befa75ce9a0f7","1179","stimuli/2000100.jpg","2","","prediction_trial","2","","true","","2","true","true","true","true","true","true","[2]","000","100","1","","","","","","",""
"","","","","","image-keyboard-response","193","564946","0.0-168.0","651090beae417ded35c4ef2f","665500ab8938657b03fbdba8","6657929c681befa75ce9a0f7","745","stimuli/20001002.jpg"," ","","feedback_trial","2","","","","","","","","","","","","","","","","","","","","",""
"","","","","","image-keyboard-response","194","566754","0.0-169.0","651090beae417ded35c4ef2f","665500ab8938657b03fbdba8","6657929c681befa75ce9a0f7","1795","stimuli/2100001.jpg","2","","prediction_trial","2","","true","","2","false","true","true","true","false","true","[2]","100","001","1","","","","","","",""
"","","","","","image-keyboard-response","195","567610","0.0-170.0","651090beae417ded35c4ef2f","665500ab8938657b03fbdba8","6657929c681befa75ce9a0f7","854","stimuli/21000012.jpg"," ","","feedback_trial","2","","","","","","","","","","","","","","","","","","","","",""
"","","","","","image-keyboard-response","196","569370","0.0-171.0","651090beae417ded35c4ef2f","665500ab8938657b03fbdba8","6657929c681befa75ce9a0f7","1758","stimuli/0110100.jpg","0","","prediction_trial","0","","true","","0","false","true","false","false","false","false","[1,0]","110","100","1","","","","","","",""
"","","","","","image-keyboard-response","197","571314","0.0-172.0","651090beae417ded35c4ef2f","665500ab8938657b03fbdba8","6657929c681befa75ce9a0f7","1942","stimuli/01101000.jpg"," ","","feedback_trial","1","","","","","","","","","","","","","","","","","","","","",""
"","","","","","image-keyboard-response","198","572754","0.0-173.0","651090beae417ded35c4ef2f","665500ab8938657b03fbdba8","6657929c681befa75ce9a0f7","1438","stimuli/1100101.jpg","1","","prediction_trial","1","","true","","1","true","true","true","true","true","true","[1]","100","101","1","","","","","","",""
"","","","","","image-keyboard-response","199","573754","0.0-174.0","651090beae417ded35c4ef2f","665500ab8938657b03fbdba8","6657929c681befa75ce9a0f7","998","stimuli/11001011.jpg"," ","","feedback_trial","1","","","","","","","","","","","","","","","","","","","","",""
"","","","","","image-keyboard-response","200","576470","0.0-175.0","651090beae417ded35c4ef2f","665500ab8938657b03fbdba8","6657929c681befa75ce9a0f7","2714","stimuli/2111001.jpg","2","","prediction_trial","0","","false","","2","false","true","false","false","false","false","[0,2,1]","111","001","0","","","","","","",""
"","","","","","image-keyboard-response","201","580082","0.0-176.0","651090beae417ded35c4ef2f","665500ab8938657b03fbdba8","6657929c681befa75ce9a0f7","3609","stimuli/21110010.jpg"," ","","feedback_trial","0","","","","","","","","","","","","","","","","","","","","",""
"","","","","","image-keyboard-response","202","582298","0.0-177.0","651090beae417ded35c4ef2f","665500ab8938657b03fbdba8","6657929c681befa75ce9a0f7","2200","stimuli/0111000.jpg","0","","prediction_trial","0","","true","","0","true","true","false","false","false","false","[1,2,0]","111","000","1","","","","","","",""
"","","","","","image-keyboard-response","203","583698","0.0-178.0","651090beae417ded35c4ef2f","665500ab8938657b03fbdba8","6657929c681befa75ce9a0f7","1398","stimuli/01110000.jpg"," ","","feedback_trial","1","","","","","","","","","","","","","","","","","","","","",""
"","","","","","image-keyboard-response","204","584530","0.0-179.0","651090beae417ded35c4ef2f","665500ab8938657b03fbdba8","6657929c681befa75ce9a0f7","830","stimuli/2111010.jpg","2","","prediction_trial","2","","true","","2","true","true","false","false","false","false","[2,1,0]","111","010","1","","","","","","",""
"","","","","","image-keyboard-response","205","585426","0.0-180.0","651090beae417ded35c4ef2f","665500ab8938657b03fbdba8","6657929c681befa75ce9a0f7","895","stimuli/21110102.jpg"," ","","feedback_trial","2","","","","","","","","","","","","","","","","","","","","",""
"","","","","","image-keyboard-response","206","586511","0.0-181.0","651090beae417ded35c4ef2f","665500ab8938657b03fbdba8","6657929c681befa75ce9a0f7","1082","stimuli/2001000.jpg","2","","prediction_trial","2","","true","","2","true","true","false","true","false","true","[2]","001","000","1","","","","","","",""
"","","","","","image-keyboard-response","207","587554","0.0-182.0","651090beae417ded35c4ef2f","665500ab8938657b03fbdba8","6657929c681befa75ce9a0f7","1041","stimuli/20010002.jpg"," ","","feedback_trial","2","","","","","","","","","","","","","","","","","","","","",""
"","","","","","image-keyboard-response","208","588274","0.0-183.0","651090beae417ded35c4ef2f","665500ab8938657b03fbdba8","6657929c681befa75ce9a0f7","718","stimuli/2011110.jpg","2","","prediction_trial","1","","false","","2","true","true","false","false","false","false","[2,1]","011","110","0","","","","","","",""
"","","","","","image-keyboard-response","209","589482","0.0-184.0","651090beae417ded35c4ef2f","665500ab8938657b03fbdba8","6657929c681befa75ce9a0f7","1206","stimuli/20111101.jpg"," ","","feedback_trial","2","","","","","","","","","","","","","","","","","","","","",""
"","","","","","image-keyboard-response","210","591490","0.0-185.0","651090beae417ded35c4ef2f","665500ab8938657b03fbdba8","6657929c681befa75ce9a0f7","1997","stimuli/2000011.jpg","2","","prediction_trial","2","","true","","2","false","false","true","true","false","false","[2]","000","011","1","","","","","","",""
"","","","","","image-keyboard-response","211","592289","0.0-186.0","651090beae417ded35c4ef2f","665500ab8938657b03fbdba8","6657929c681befa75ce9a0f7","798","stimuli/20000112.jpg"," ","","feedback_trial","2","","","","","","","","","","","","","","","","","","","","",""
"","","","","","image-keyboard-response","212","593170","0.0-187.0","651090beae417ded35c4ef2f","665500ab8938657b03fbdba8","6657929c681befa75ce9a0f7","879","stimuli/1000001.jpg","0","","prediction_trial","1","","false","","1","true","true","true","true","true","true","[1]","000","001","0","","","","","","",""
"","","","","","image-keyboard-response","213","594234","0.0-188.0","651090beae417ded35c4ef2f","665500ab8938657b03fbdba8","6657929c681befa75ce9a0f7","1062","stimuli/10000011.jpg"," ","","feedback_trial","1","","","","","","","","","","","","","","","","","","","","",""
"","","","","","image-keyboard-response","214","596434","0.0-189.0","651090beae417ded35c4ef2f","665500ab8938657b03fbdba8","6657929c681befa75ce9a0f7","2198","stimuli/0101101.jpg","2","","prediction_trial","0","","false","","0","false","false","false","false","false","false","[2,0]","101","101","0","","","","","","",""
"","","","","","image-keyboard-response","215","607898","0.0-190.0","651090beae417ded35c4ef2f","665500ab8938657b03fbdba8","6657929c681befa75ce9a0f7","11462","stimuli/01011010.jpg"," ","","feedback_trial","2","","","","","","","","","","","","","","","","","","","","",""
"","","","","","image-keyboard-response","216","612224","0.0-191.0","651090beae417ded35c4ef2f","665500ab8938657b03fbdba8","6657929c681befa75ce9a0f7","4317","stimuli/1010011.jpg","1","","prediction_trial","1","","true","","1","false","false","false","true","false","false","[1]","010","011","1","","","","","","",""
"","","","","","image-keyboard-response","217","614369","0.0-192.0","651090beae417ded35c4ef2f","665500ab8938657b03fbdba8","6657929c681befa75ce9a0f7","2142","stimuli/10100111.jpg"," ","","feedback_trial","1","","","","","","","","","","","","","","","","","","","","",""
"","","","","","image-keyboard-response","218","619161","0.0-193.0","651090beae417ded35c4ef2f","665500ab8938657b03fbdba8","6657929c681befa75ce9a0f7","4782","stimuli/1111110.jpg","0","","prediction_trial","0","","true","","1","false","false","false","false","false","false","[0,1,2]","111","110","1","","","","","","",""
"","","","","","image-keyboard-response","219","620161","0.0-194.0","651090beae417ded35c4ef2f","665500ab8938657b03fbdba8","6657929c681befa75ce9a0f7","999","stimuli/11111100.jpg"," ","","feedback_trial","0","","","","","","","","","","","","","","","","","","","","",""
"","","","","","image-keyboard-response","220","622113","0.0-195.0","651090beae417ded35c4ef2f","665500ab8938657b03fbdba8","6657929c681befa75ce9a0f7","1950","stimuli/1100110.jpg","0","","prediction_trial","1","","false","","1","false","false","true","true","false","false","[1]","100","110","0","","","","","","",""
"","","","","","image-keyboard-response","221","625505","0.0-196.0","651090beae417ded35c4ef2f","665500ab8938657b03fbdba8","6657929c681befa75ce9a0f7","3390","stimuli/11001101.jpg"," ","","feedback_trial","1","","","","","","","","","","","","","","","","","","","","",""
"","","","","","image-keyboard-response","222","626473","0.0-197.0","651090beae417ded35c4ef2f","665500ab8938657b03fbdba8","6657929c681befa75ce9a0f7","965","stimuli/0111101.jpg","2","","prediction_trial","1","","false","","0","false","false","false","false","false","false","[2,1,0]","111","101","0","","","","","","",""
"","","","","","image-keyboard-response","223","628752","0.0-198.0","651090beae417ded35c4ef2f","665500ab8938657b03fbdba8","6657929c681befa75ce9a0f7","2278","stimuli/01111011.jpg"," ","","feedback_trial","2","","","","","","","","","","","","","","","","","","","","",""
"","","","","","image-keyboard-response","224","630196","0.0-199.0","651090beae417ded35c4ef2f","665500ab8938657b03fbdba8","6657929c681befa75ce9a0f7","1442","stimuli/1001000.jpg","1","","prediction_trial","1","","true","","1","true","true","true","true","true","true","[1]","001","000","1","","","","","","",""
"","","","","","image-keyboard-response","225","631449","0.0-200.0","651090beae417ded35c4ef2f","665500ab8938657b03fbdba8","6657929c681befa75ce9a0f7","1250","stimuli/10010001.jpg"," ","","feedback_trial","1","","","","","","","","","","","","","","","","","","","","",""
"","","","","","image-keyboard-response","226","632521","0.0-201.0","651090beae417ded35c4ef2f","665500ab8938657b03fbdba8","6657929c681befa75ce9a0f7","1060","stimuli/1110110.jpg","1","","prediction_trial","0","","false","","1","false","false","false","false","false","false","[0,1]","110","110","0","","","","","","",""
"","","","","","image-keyboard-response","227","633400","0.0-202.0","651090beae417ded35c4ef2f","665500ab8938657b03fbdba8","6657929c681befa75ce9a0f7","877","stimuli/11101100.jpg"," ","","feedback_trial","0","","","","","","","","","","","","","","","","","","","","",""
"","","","","","image-keyboard-response","228","634248","0.0-203.0","651090beae417ded35c4ef2f","665500ab8938657b03fbdba8","6657929c681befa75ce9a0f7","846","stimuli/2010000.jpg","2","","prediction_trial","2","","true","","2","true","true","true","true","true","true","[2]","010","000","1","","","","","","",""
"","","","","","image-keyboard-response","229","635072","0.0-204.0","651090beae417ded35c4ef2f","665500ab8938657b03fbdba8","6657929c681befa75ce9a0f7","822","stimuli/20100002.jpg"," ","","feedback_trial","2","","","","","","","","","","","","","","","","","","","","",""
"","","","","","image-keyboard-response","230","636257","0.0-205.0","651090beae417ded35c4ef2f","665500ab8938657b03fbdba8","6657929c681befa75ce9a0f7","1182","stimuli/1000100.jpg","1","","prediction_trial","1","","true","","1","true","true","true","true","true","true","[1]","000","100","1","","","","","","",""
"","","","","","image-keyboard-response","231","637393","0.0-206.0","651090beae417ded35c4ef2f","665500ab8938657b03fbdba8","6657929c681befa75ce9a0f7","1134","stimuli/10001001.jpg"," ","","feedback_trial","1","","","","","","","","","","","","","","","","","","","","",""
"","","","","","image-keyboard-response","232","639497","0.0-207.0","651090beae417ded35c4ef2f","665500ab8938657b03fbdba8","6657929c681befa75ce9a0f7","2102","stimuli/0010101.jpg","2","","prediction_trial","0","","false","","0","false","false","true","true","false","false","[0]","010","101","0","","","","","","",""
"","","","","","image-keyboard-response","233","641398","0.0-208.0","651090beae417ded35c4ef2f","665500ab8938657b03fbdba8","6657929c681befa75ce9a0f7","1899","stimuli/00101010.jpg"," ","","feedback_trial","0","","","","","","","","","","","","","","","","","","","","",""
"","","","","","image-keyboard-response","234","642335","0.0-209.0","651090beae417ded35c4ef2f","665500ab8938657b03fbdba8","6657929c681befa75ce9a0f7","920","stimuli/1011000.jpg","1","","prediction_trial","2","","false","","1","true","true","false","false","false","false","[2,1]","011","000","0","","","","","","",""
"","","","","","image-keyboard-response","235","645825","0.0-210.0","651090beae417ded35c4ef2f","665500ab8938657b03fbdba8","6657929c681befa75ce9a0f7","3488","stimuli/10110002.jpg"," ","","feedback_trial","2","","","","","","","","","","","","","","","","","","","","",""
"","","","","","image-keyboard-response","236","647425","0.0-211.0","651090beae417ded35c4ef2f","665500ab8938657b03fbdba8","6657929c681befa75ce9a0f7","1598","stimuli/1101010.jpg","1","","prediction_trial","1","","true","","1","false","true","true","true","false","true","[1]","101","010","1","","","","","","",""
"","","","","","image-keyboard-response","237","649936","0.0-212.0","651090beae417ded35c4ef2f","665500ab8938657b03fbdba8","6657929c681befa75ce9a0f7","2509","stimuli/11010101.jpg"," ","","feedback_trial","1","","","","","","","","","","","","","","","","","","","","",""
"","","","","","image-keyboard-response","238","651720","0.0-213.0","651090beae417ded35c4ef2f","665500ab8938657b03fbdba8","6657929c681befa75ce9a0f7","1781","stimuli/0011111.jpg","1","","prediction_trial","0","","false","","0","false","false","true","true","false","false","[0]","011","111","0","","","","","","",""
"","","","","","image-keyboard-response","239","653201","0.0-214.0","651090beae417ded35c4ef2f","665500ab8938657b03fbdba8","6657929c681befa75ce9a0f7","1480","stimuli/00111110.jpg"," ","","feedback_trial","0","","","","","","","","","","","","","","","","","","","","",""
"","","","","","image-keyboard-response","240","654408","0.0-215.0","651090beae417ded35c4ef2f","665500ab8938657b03fbdba8","6657929c681befa75ce9a0f7","1205","stimuli/0101011.jpg","2","","prediction_trial","2","","true","","0","true","true","false","false","false","false","[2,0]","101","011","1","","","","","","",""
"","","","","","image-keyboard-response","241","660295","0.0-216.0","651090beae417ded35c4ef2f","665500ab8938657b03fbdba8","6657929c681befa75ce9a0f7","5885","stimuli/01010112.jpg"," ","","feedback_trial","2","","","","","","","","","","","","","","","","","","","","",""
"","","","","","image-keyboard-response","242","661788","0.0-217.0","651090beae417ded35c4ef2f","665500ab8938657b03fbdba8","6657929c681befa75ce9a0f7","1485","stimuli/2100011.jpg","2","","prediction_trial","2","","true","","2","false","false","true","true","false","false","[2]","100","011","1","","","","","","",""
"","","","","","image-keyboard-response","243","663312","0.0-218.0","651090beae417ded35c4ef2f","665500ab8938657b03fbdba8","6657929c681befa75ce9a0f7","1523","stimuli/21000112.jpg"," ","","feedback_trial","2","","","","","","","","","","","","","","","","","","","","",""
"","","","","","image-keyboard-response","244","664337","0.0-219.0","651090beae417ded35c4ef2f","665500ab8938657b03fbdba8","6657929c681befa75ce9a0f7","1023","stimuli/0011011.jpg","0","","prediction_trial","0","","true","","0","true","true","true","true","true","true","[0]","011","011","1","","","","","","",""
"","","","","","image-keyboard-response","245","665073","0.0-220.0","651090beae417ded35c4ef2f","665500ab8938657b03fbdba8","6657929c681befa75ce9a0f7","734","stimuli/00110110.jpg"," ","","feedback_trial","0","","","","","","","","","","","","","","","","","","","","",""
"","","","","","image-keyboard-response","246","665993","0.0-221.0","651090beae417ded35c4ef2f","665500ab8938657b03fbdba8","6657929c681befa75ce9a0f7","918","stimuli/0011010.jpg","0","","prediction_trial","0","","true","","0","true","true","true","true","true","true","[0]","011","010","1","","","","","","",""
"","","","","","image-keyboard-response","247","666705","0.0-222.0","651090beae417ded35c4ef2f","665500ab8938657b03fbdba8","6657929c681befa75ce9a0f7","710","stimuli/00110100.jpg"," ","","feedback_trial","0","","","","","","","","","","","","","","","","","","","","",""
"","","","","","image-keyboard-response","248","670721","0.0-223.0","651090beae417ded35c4ef2f","665500ab8938657b03fbdba8","6657929c681befa75ce9a0f7","4014","stimuli/1011110.jpg","1","","prediction_trial","2","","false","","1","false","false","false","false","false","false","[2,1]","011","110","0","","","","","","",""
"","","","","","image-keyboard-response","249","672641","0.0-224.0","651090beae417ded35c4ef2f","665500ab8938657b03fbdba8","6657929c681befa75ce9a0f7","1917","stimuli/10111102.jpg"," ","","feedback_trial","2","","","","","","","","","","","","","","","","","","","","",""
"","","","","","image-keyboard-response","250","673553","0.0-225.0","651090beae417ded35c4ef2f","665500ab8938657b03fbdba8","6657929c681befa75ce9a0f7","894","stimuli/1111010.jpg","1","","prediction_trial","2","","false","","1","false","true","false","false","false","false","[2,0,1]","111","010","0","","","","","","",""
"","","","","","image-keyboard-response","251","674657","0.0-226.0","651090beae417ded35c4ef2f","665500ab8938657b03fbdba8","6657929c681befa75ce9a0f7","1102","stimuli/11110102.jpg"," ","","feedback_trial","2","","","","","","","","","","","","","","","","","","","","",""
"","","","","","image-keyboard-response","252","677737","0.0-227.0","651090beae417ded35c4ef2f","665500ab8938657b03fbdba8","6657929c681befa75ce9a0f7","3077","stimuli/0101110.jpg","2","","prediction_trial","2","","true","","0","false","false","false","false","false","false","[0,2]","101","110","1","","","","","","",""
"","","","","","image-keyboard-response","253","678881","0.0-228.0","651090beae417ded35c4ef2f","665500ab8938657b03fbdba8","6657929c681befa75ce9a0f7","1142","stimuli/01011102.jpg"," ","","feedback_trial","0","","","","","","","","","","","","","","","","","","","","",""
"","","","","","image-keyboard-response","254","680713","0.0-229.0","651090beae417ded35c4ef2f","665500ab8938657b03fbdba8","6657929c681befa75ce9a0f7","1830","stimuli/0110000.jpg","0","","prediction_trial","0","","true","","0","true","true","false","false","false","false","[1,0]","110","000","1","","","","","","",""
"","","","","","image-keyboard-response","255","681273","0.0-230.0","651090beae417ded35c4ef2f","665500ab8938657b03fbdba8","6657929c681befa75ce9a0f7","558","stimuli/01100000.jpg"," ","","feedback_trial","1","","","","","","","","","","","","","","","","","","","","",""
"","","","","","image-keyboard-response","256","682233","0.0-231.0","651090beae417ded35c4ef2f","665500ab8938657b03fbdba8","6657929c681befa75ce9a0f7","958","stimuli/2010110.jpg","2","","prediction_trial","2","","true","","2","true","true","true","true","true","true","[2]","010","110","1","","","","","","",""
"","","","","","image-keyboard-response","257","682737","0.0-232.0","651090beae417ded35c4ef2f","665500ab8938657b03fbdba8","6657929c681befa75ce9a0f7","503","stimuli/20101102.jpg"," ","","feedback_trial","2","","","","","","","","","","","","","","","","","","","","",""
"","","","","","image-keyboard-response","258","684233","0.0-233.0","651090beae417ded35c4ef2f","665500ab8938657b03fbdba8","6657929c681befa75ce9a0f7","1478","stimuli/2101001.jpg","2","","prediction_trial","2","","true","","2","false","true","false","false","false","false","[2,0]","101","001","1","","","","","","",""
"","","","","","image-keyboard-response","259","684881","0.0-234.0","651090beae417ded35c4ef2f","665500ab8938657b03fbdba8","6657929c681befa75ce9a0f7","646","stimuli/21010012.jpg"," ","","feedback_trial","2","","","","","","","","","","","","","","","","","","","","",""
"","","","","","image-keyboard-response","260","685473","0.0-235.0","651090beae417ded35c4ef2f","665500ab8938657b03fbdba8","6657929c681befa75ce9a0f7","590","stimuli/2011000.jpg","2","","prediction_trial","1","","false","","2","true","true","false","false","false","false","[1,2]","011","000","0","","","","","","",""
"","","","","","image-keyboard-response","261","688545","0.0-236.0","651090beae417ded35c4ef2f","665500ab8938657b03fbdba8","6657929c681befa75ce9a0f7","3070","stimuli/20110001.jpg"," ","","feedback_trial","1","","","","","","","","","","","","","","","","","","","","",""
"","","","","","image-keyboard-response","262","691497","0.0-237.0","651090beae417ded35c4ef2f","665500ab8938657b03fbdba8","6657929c681befa75ce9a0f7","2949","stimuli/0001010.jpg","0","","prediction_trial","0","","true","","0","true","true","true","true","true","true","[0]","001","010","1","","","","","","",""
"","","","","","image-keyboard-response","263","692577","0.0-238.0","651090beae417ded35c4ef2f","665500ab8938657b03fbdba8","6657929c681befa75ce9a0f7","1078","stimuli/00010100.jpg"," ","","feedback_trial","0","","","","","","","","","","","","","","","","","","","","",""
"","","","","","image-keyboard-response","264","694313","0.0-239.0","651090beae417ded35c4ef2f","665500ab8938657b03fbdba8","6657929c681befa75ce9a0f7","1734","stimuli/1111100.jpg","2","","prediction_trial","0","","false","","1","true","true","false","false","false","false","[2,1,0]","111","100","0","","","","","","",""
"","","","","","image-keyboard-response","265","696729","0.0-240.0","651090beae417ded35c4ef2f","665500ab8938657b03fbdba8","6657929c681befa75ce9a0f7","2414","stimuli/11111000.jpg"," ","","feedback_trial","2","","","","","","","","","","","","","","","","","","","","",""
"","","","","","image-keyboard-response","266","697489","0.0-241.0","651090beae417ded35c4ef2f","665500ab8938657b03fbdba8","6657929c681befa75ce9a0f7","742","stimuli/2010010.jpg","2","","prediction_trial","2","","true","","2","true","true","true","true","true","true","[2]","010","010","1","","","","","","",""
"","","","","","image-keyboard-response","267","698249","0.0-242.0","651090beae417ded35c4ef2f","665500ab8938657b03fbdba8","6657929c681befa75ce9a0f7","758","stimuli/20100102.jpg"," ","","feedback_trial","2","","","","","","","","","","","","","","","","","","","","",""
"","","","","","image-keyboard-response","268","700777","0.0-243.0","651090beae417ded35c4ef2f","665500ab8938657b03fbdba8","6657929c681befa75ce9a0f7","2525","stimuli/2000010.jpg","2","","prediction_trial","2","","true","","2","true","true","true","true","true","true","[2]","000","010","1","","","","","","",""
"","","","","","image-keyboard-response","269","702281","0.0-244.0","651090beae417ded35c4ef2f","665500ab8938657b03fbdba8","6657929c681befa75ce9a0f7","1501","stimuli/20000102.jpg"," ","","feedback_trial","2","","","","","","","","","","","","","","","","","","","","",""
"","","","","","image-keyboard-response","270","708046","0.0-245.0","651090beae417ded35c4ef2f","665500ab8938657b03fbdba8","6657929c681befa75ce9a0f7","5763","stimuli/1110001.jpg","0","","prediction_trial","0","","true","","1","true","true","false","false","false","false","[1,0]","110","001","1","","","","","","",""
"","","","","","image-keyboard-response","271","711465","0.0-246.0","651090beae417ded35c4ef2f","665500ab8938657b03fbdba8","6657929c681befa75ce9a0f7","3417","stimuli/11100010.jpg"," ","","feedback_trial","1","","","","","","","","","","","","","","","","","","","","",""
"","","","","","image-keyboard-response","272","712761","0.0-247.0","651090beae417ded35c4ef2f","665500ab8938657b03fbdba8","6657929c681befa75ce9a0f7","1294","stimuli/0111100.jpg","0","","prediction_trial","1","","false","","0","false","true","false","false","false","false","[0,1,2]","111","100","0","","","","","","",""
"","","","","","image-keyboard-response","273","714280","0.0-248.0","651090beae417ded35c4ef2f","665500ab8938657b03fbdba8","6657929c681befa75ce9a0f7","1517","stimuli/01111001.jpg"," ","","feedback_trial","0","","","","","","","","","","","","","","","","","","","","",""
"","","","","","image-keyboard-response","274","715057","0.0-249.0","651090beae417ded35c4ef2f","665500ab8938657b03fbdba8","6657929c681befa75ce9a0f7","767","stimuli/0110101.jpg","0","","prediction_trial","1","","false","","0","false","false","false","false","false","false","[1,0]","110","101","0","","","","","","",""
"","","","","","image-keyboard-response","275","716137","0.0-250.0","651090beae417ded35c4ef2f","665500ab8938657b03fbdba8","6657929c681befa75ce9a0f7","1077","stimuli/01101011.jpg"," ","","feedback_trial","1","","","","","","","","","","","","","","","","","","","","",""
"","","","","","image-keyboard-response","276","717113","0.0-251.0","651090beae417ded35c4ef2f","665500ab8938657b03fbdba8","6657929c681befa75ce9a0f7","974","stimuli/2011111.jpg","2","","prediction_trial","2","","true","","2","false","false","false","false","false","false","[1,2]","011","111","1","","","","","","",""
"","","","","","image-keyboard-response","277","717801","0.0-252.0","651090beae417ded35c4ef2f","665500ab8938657b03fbdba8","6657929c681befa75ce9a0f7","685","stimuli/20111112.jpg"," ","","feedback_trial","1","","","","","","","","","","","","","","","","","","","","",""
"","","","","","image-keyboard-response","278","719104","0.0-253.0","651090beae417ded35c4ef2f","665500ab8938657b03fbdba8","6657929c681befa75ce9a0f7","1301","stimuli/1110100.jpg","1","","prediction_trial","0","","false","","1","true","true","false","false","false","false","[0,1]","110","100","0","","","","","","",""
"","","","","","image-keyboard-response","279","723568","0.0-254.0","651090beae417ded35c4ef2f","665500ab8938657b03fbdba8","6657929c681befa75ce9a0f7","4462","stimuli/11101000.jpg"," ","","feedback_trial","0","","","","","","","","","","","","","","","","","","","","",""
"","","","","","image-keyboard-response","280","726177","0.0-255.0","651090beae417ded35c4ef2f","665500ab8938657b03fbdba8","6657929c681befa75ce9a0f7","2608","stimuli/0000111.jpg","1","","prediction_trial","0","","false","","0","false","false","true","true","false","false","[0]","000","111","0","","","","","","",""
"","","","","","image-keyboard-response","281","726945","0.0-256.0","651090beae417ded35c4ef2f","665500ab8938657b03fbdba8","6657929c681befa75ce9a0f7","766","stimuli/00001110.jpg"," ","","feedback_trial","0","","","","","","","","","","","","","","","","","","","","",""
"","","","","","image-keyboard-response","282","728017","0.0-257.0","651090beae417ded35c4ef2f","665500ab8938657b03fbdba8","6657929c681befa75ce9a0f7","1062","stimuli/1011100.jpg","1","","prediction_trial","1","","true","","1","true","true","false","false","false","false","[2,1]","011","100","1","","","","","","",""
"","","","","","image-keyboard-response","283","728720","0.0-258.0","651090beae417ded35c4ef2f","665500ab8938657b03fbdba8","6657929c681befa75ce9a0f7","701","stimuli/10111001.jpg"," ","","feedback_trial","2","","","","","","","","","","","","","","","","","","","","",""
"","","","","","image-keyboard-response","284","729889","0.0-259.0","651090beae417ded35c4ef2f","665500ab8938657b03fbdba8","6657929c681befa75ce9a0f7","1167","stimuli/0000011.jpg","0","","prediction_trial","0","","true","","0","true","true","true","true","true","true","[0]","000","011","1","","","","","","",""
"","","","","","image-keyboard-response","285","730977","0.0-260.0","651090beae417ded35c4ef2f","665500ab8938657b03fbdba8","6657929c681befa75ce9a0f7","1086","stimuli/00000110.jpg"," ","","feedback_trial","0","","","","","","","","","","","","","","","","","","","","",""
"","","","","","image-keyboard-response","286","732057","0.0-261.0","651090beae417ded35c4ef2f","665500ab8938657b03fbdba8","6657929c681befa75ce9a0f7","1078","stimuli/0000101.jpg","2","","prediction_trial","0","","false","","0","false","false","true","true","false","false","[0]","000","101","0","","","","","","",""
"","","","","","image-keyboard-response","287","732843","0.0-262.0","651090beae417ded35c4ef2f","665500ab8938657b03fbdba8","6657929c681befa75ce9a0f7","782","stimuli/00001010.jpg"," ","","feedback_trial","0","","","","","","","","","","","","","","","","","","","","",""
"","","","","","image-keyboard-response","288","733954","0.0-263.0","651090beae417ded35c4ef2f","665500ab8938657b03fbdba8","6657929c681befa75ce9a0f7","1109","stimuli/0001000.jpg","0","","prediction_trial","0","","true","","0","true","true","true","true","true","true","[0]","001","000","1","","","","","","",""
"","","","","","image-keyboard-response","289","734650","0.0-264.0","651090beae417ded35c4ef2f","665500ab8938657b03fbdba8","6657929c681befa75ce9a0f7","694","stimuli/00010000.jpg"," ","","feedback_trial","0","","","","","","","","","","","","","","","","","","","","",""
"","","","","","image-keyboard-response","290","737066","0.0-265.0","651090beae417ded35c4ef2f","665500ab8938657b03fbdba8","6657929c681befa75ce9a0f7","2413","stimuli/0111110.jpg","2","","prediction_trial","0","","false","","0","false","false","false","false","false","false","[0,2,1]","111","110","0","","","","","","",""
"","","","","","image-keyboard-response","291","737834","0.0-266.0","651090beae417ded35c4ef2f","665500ab8938657b03fbdba8","6657929c681befa75ce9a0f7","765","stimuli/01111100.jpg"," ","","feedback_trial","0","","","","","","","","","","","","","","","","","","","","",""
"","","","","","image-keyboard-response","292","740492","0.0-267.0","651090beae417ded35c4ef2f","665500ab8938657b03fbdba8","6657929c681befa75ce9a0f7","2656","stimuli/1100111.jpg","2","","prediction_trial","1","","false","","1","false","false","true","true","false","false","[1]","100","111","0","","","","","","",""
"","","","","","image-keyboard-response","293","741218","0.0-268.0","651090beae417ded35c4ef2f","665500ab8938657b03fbdba8","6657929c681befa75ce9a0f7","725","stimuli/11001111.jpg"," ","","feedback_trial","1","","","","","","","","","","","","","","","","","","","","",""
"","","","","","image-keyboard-response","294","742794","0.0-269.0","651090beae417ded35c4ef2f","665500ab8938657b03fbdba8","6657929c681befa75ce9a0f7","1573","stimuli/1100001.jpg","1","","prediction_trial","1","","true","","1","true","true","true","true","true","true","[1]","100","001","1","","","","","","",""
"","","","","","image-keyboard-response","295","743578","0.0-270.0","651090beae417ded35c4ef2f","665500ab8938657b03fbdba8","6657929c681befa75ce9a0f7","782","stimuli/11000011.jpg"," ","","feedback_trial","1","","","","","","","","","","","","","","","","","","","","",""
"","","","","","image-keyboard-response","296","745010","0.0-271.0","651090beae417ded35c4ef2f","665500ab8938657b03fbdba8","6657929c681befa75ce9a0f7","1430","stimuli/1010010.jpg","1","","prediction_trial","1","","true","","1","false","true","false","true","false","true","[1]","010","010","1","","","","","","",""
"","","","","","image-keyboard-response","297","745994","0.0-272.0","651090beae417ded35c4ef2f","665500ab8938657b03fbdba8","6657929c681befa75ce9a0f7","982","stimuli/10100101.jpg"," ","","feedback_trial","1","","","","","","","","","","","","","","","","","","","","",""
"","","","","","image-keyboard-response","298","747530","0.0-273.0","651090beae417ded35c4ef2f","665500ab8938657b03fbdba8","6657929c681befa75ce9a0f7","1524","stimuli/1001111.jpg","1","","prediction_trial","1","","true","","1","false","false","true","true","false","false","[1]","001","111","1","","","","","","",""
"","","","","","image-keyboard-response","299","748385","0.0-274.0","651090beae417ded35c4ef2f","665500ab8938657b03fbdba8","6657929c681befa75ce9a0f7","853","stimuli/10011111.jpg"," ","","feedback_trial","1","","","","","","","","","","","","","","","","","","","","",""
"","","","","","image-keyboard-response","300","750018","0.0-275.0","651090beae417ded35c4ef2f","665500ab8938657b03fbdba8","6657929c681befa75ce9a0f7","1632","stimuli/1000111.jpg","1","","prediction_trial","1","","true","","1","false","false","true","true","false","false","[1]","000","111","1","","","","","","",""
"","","","","","image-keyboard-response","301","751239","0.0-276.0","651090beae417ded35c4ef2f","665500ab8938657b03fbdba8","6657929c681befa75ce9a0f7","1219","stimuli/10001111.jpg"," ","","feedback_trial","1","","","","","","","","","","","","","","","","","","","","",""
"","","","","","image-keyboard-response","302","752490","0.0-277.0","651090beae417ded35c4ef2f","665500ab8938657b03fbdba8","6657929c681befa75ce9a0f7","1249","stimuli/0101100.jpg","0","","prediction_trial","0","","true","","0","false","true","false","false","false","false","[0,2]","101","100","1","","","","","","",""
"","","","","","image-keyboard-response","303","753114","0.0-278.0","651090beae417ded35c4ef2f","665500ab8938657b03fbdba8","6657929c681befa75ce9a0f7","622","stimuli/01011000.jpg"," ","","feedback_trial","0","","","","","","","","","","","","","","","","","","","","",""
"","","","","","image-keyboard-response","304","757906","0.0-279.0","651090beae417ded35c4ef2f","665500ab8938657b03fbdba8","6657929c681befa75ce9a0f7","4790","stimuli/1001110.jpg","0","","prediction_trial","1","","false","","1","false","false","true","true","false","false","[1]","001","110","0","","","","","","",""
"","","","","","image-keyboard-response","305","758554","0.0-280.0","651090beae417ded35c4ef2f","665500ab8938657b03fbdba8","6657929c681befa75ce9a0f7","646","stimuli/10011101.jpg"," ","","feedback_trial","1","","","","","","","","","","","","","","","","","","","","",""
"","","","","","image-keyboard-response","306","759874","0.0-281.0","651090beae417ded35c4ef2f","665500ab8938657b03fbdba8","6657929c681befa75ce9a0f7","1303","stimuli/2101101.jpg","0","","prediction_trial","0","","true","","2","false","false","false","false","false","false","[0,2]","101","101","1","","","","","","",""
"","","","","","image-keyboard-response","307","760563","0.0-282.0","651090beae417ded35c4ef2f","665500ab8938657b03fbdba8","6657929c681befa75ce9a0f7","686","stimuli/21011010.jpg"," ","","feedback_trial","0","","","","","","","","","","","","","","","","","","","","",""
"","","","","","image-keyboard-response","308","761808","0.0-283.0","651090beae417ded35c4ef2f","665500ab8938657b03fbdba8","6657929c681befa75ce9a0f7","1243","stimuli/1000010.jpg","1","","prediction_trial","1","","true","","1","false","true","true","true","false","true","[1]","000","010","1","","","","","","",""
"","","","","","image-keyboard-response","309","762490","0.0-284.0","651090beae417ded35c4ef2f","665500ab8938657b03fbdba8","6657929c681befa75ce9a0f7","680","stimuli/10000101.jpg"," ","","feedback_trial","1","","","","","","","","","","","","","","","","","","","","",""
"","","","","","image-keyboard-response","310","763314","0.0-285.0","651090beae417ded35c4ef2f","665500ab8938657b03fbdba8","6657929c681befa75ce9a0f7","822","stimuli/1101001.jpg","1","","prediction_trial","1","","true","","1","true","true","true","true","true","true","[1]","101","001","1","","","","","","",""
"","","","","","image-keyboard-response","311","764610","0.0-286.0","651090beae417ded35c4ef2f","665500ab8938657b03fbdba8","6657929c681befa75ce9a0f7","1294","stimuli/11010011.jpg"," ","","feedback_trial","1","","","","","","","","","","","","","","","","","","","","",""
"","","","","","image-keyboard-response","312","766058","0.0-287.0","651090beae417ded35c4ef2f","665500ab8938657b03fbdba8","6657929c681befa75ce9a0f7","1447","stimuli/2101011.jpg","1","","prediction_trial","0","","false","","2","false","false","false","false","false","false","[2,0]","101","011","0","","","","","","",""
"","","","","","image-keyboard-response","313","767874","0.0-288.0","651090beae417ded35c4ef2f","665500ab8938657b03fbdba8","6657929c681befa75ce9a0f7","1814","stimuli/21010110.jpg"," ","","feedback_trial","2","","","","","","","","","","","","","","","","","","","","",""
"","","","","","image-keyboard-response","314","768666","0.0-289.0","651090beae417ded35c4ef2f","665500ab8938657b03fbdba8","6657929c681befa75ce9a0f7","774","stimuli/2111110.jpg","2","","prediction_trial","2","","true","","2","true","true","false","false","false","false","[2,0,1]","111","110","1","","","","","","",""
"","","","","","image-keyboard-response","315","769203","0.0-290.0","651090beae417ded35c4ef2f","665500ab8938657b03fbdba8","6657929c681befa75ce9a0f7","535","stimuli/21111102.jpg"," ","","feedback_trial","2","","","","","","","","","","","","","","","","","","","","",""
"","","","","","image-keyboard-response","316","770234","0.0-291.0","651090beae417ded35c4ef2f","665500ab8938657b03fbdba8","6657929c681befa75ce9a0f7","1029","stimuli/2011001.jpg","2","","prediction_trial","1","","false","","2","false","true","false","false","false","false","[1,2]","011","001","0","","","","","","",""
"","","","","","image-keyboard-response","317","771879","0.0-292.0","651090beae417ded35c4ef2f","665500ab8938657b03fbdba8","6657929c681befa75ce9a0f7","1643","stimuli/20110011.jpg"," ","","feedback_trial","1","","","","","","","","","","","","","","","","","","","","",""
"","","","","","survey-html-form","318","799548","0.0-293.0","651090beae417ded35c4ef2f","665500ab8938657b03fbdba8","6657929c681befa75ce9a0f7","27664","","{""feedback"":""Just guessing mostely"",""age"":""72"",""gender"":""Female"",""other_gender"":"""",""race"":""White"",""other_race"":"""",""ethnicity"":""Non-Hispanic""}","","exit_survey","","","","","","","","","","","","","","","","Just guessing mostely","72","Non-Hispanic","Female","White","0.6180555555555556","0.6180555555555556"
