"success","timeout","failed_images","failed_audio","failed_video","trial_type","trial_index","time_elapsed","internal_node_id","prolific_id","prolific_study_id","prolific_session_id","rt","stimulus","response","view_history","trial","character_choice","stimulus_dict","accuracy","correct_response","ball_pos","ego_ball_visible","ego_can_infer","alter_ball_visible","alter_can_infer","collective_ball_visible","collective_can_infer","search_locations","alter_occluders","ego_occluders","accuracy_bool","feedback","age","ethnicity","gender","race","overall_accuracy","bonus"
"true","false","[]","[]","[]","preload","0","2481","0.0-0.0","5fc8a956800c80232e0b7a32","665500ab8938657b03fbdba8","66579243430fdfc33377c83a","","","","","","","","","","","","","","","","","","","","","","","","","","",""
"true","","","","","fullscreen","1","17739","0.0-1.0","5fc8a956800c80232e0b7a32","665500ab8938657b03fbdba8","66579243430fdfc33377c83a","","","","","","","","","","","","","","","","","","","","","","","","","","",""
"","","","","","html-button-response","2","25491","0.0-2.0","5fc8a956800c80232e0b7a32","665500ab8938657b03fbdba8","66579243430fdfc33377c83a","7752","<p><b>Consent Form</b></p> <div style=""text-align:left;background-color:lightgrey; padding:20px; max-width:900px;""><p>Please consider this information carefully before deciding whether to participate in this research.</p> <p>The purpose of this research is to examine which factors influence social judgment and decision-making. You will be asked to make judgements about individuals and actions in social scenarios. We are simply interested in your judgement. The study will take less than 1 hour to complete, and you will receive less than $20 on Prolific. Your compensation and time commitment are specified in the study description. There are no anticipated risks associated with participating in this study. The effects of participating should be comparable to those you would ordinarily experience from viewing a computer monitor and using a mouse or keyboard for a similar amount of time. At the end of the study, we will provide an explanation of the questions that motivate this line of research and will describe the potential implications. </p><p> Your participation in this study is completely voluntary and you may refuse to participate or you may choose to withdraw at any time without penalty or loss of benefits to you which are otherwise entitled. Your participation in this study will remain confidential. No personally identifiable information will be associated with your data. Also, all analyses of the data will be averaged across all the participants, so your individual responses will never be specifically analyzed. </p><p> If you have questions or concerns about your participation or payment, or want to request a summary of research findings, please contact Dr. Jonathan Phillips at Jonathan.S.Phillips@dartmouth.edu. </p><p> Please save a copy of this form for your records. </p><p><b>Agreement: </b>The nature and purpose of this research have been sufficiently explained and I agree to participate in this study. I understand that I am free to withdraw at any time without incurring any penalty. Please consent by clicking the button below to continue. Otherwise, please exit the study at any time. </p>","0","","","","","","","","","","","","","","","","","","","","","","","",""
"","","","","","instructions","3","68242","0.0-3.0-0.0","5fc8a956800c80232e0b7a32","665500ab8938657b03fbdba8","66579243430fdfc33377c83a","42750","","","[{""page_index"":0,""viewing_time"":1172},{""page_index"":1,""viewing_time"":1320},{""page_index"":2,""viewing_time"":1768},{""page_index"":3,""viewing_time"":3335},{""page_index"":4,""viewing_time"":1890},{""page_index"":5,""viewing_time"":2661},{""page_index"":6,""viewing_time"":3520},{""page_index"":7,""viewing_time"":1732},{""page_index"":8,""viewing_time"":4227},{""page_index"":9,""viewing_time"":1799},{""page_index"":10,""viewing_time"":8504},{""page_index"":11,""viewing_time"":3699},{""page_index"":12,""viewing_time"":5802},{""page_index"":13,""viewing_time"":1321}]","intro","","","","","","","","","","","","","","","","","","","","","",""
"","","","","","image-keyboard-response","4","69550","0.0-3.0-1.0","5fc8a956800c80232e0b7a32","665500ab8938657b03fbdba8","66579243430fdfc33377c83a","1307","stimuli/2111111.jpg","1","","prediction_practice","0","{""filepath"":""stimuli/2111111.jpg"",""ball_pos"":2,""ego_ball_visible"":false,""ego_can_infer"":false,""alter_ball_visible"":false,""alter_can_infer"":false,""collective_ball_visible"":false,""collective_can_infer"":false,""search_locations"":[2,0,1],""alter_occluders"":""111"",""ego_occluders"":""111""}","false","","","","","","","","","","","","","","","","","","",""
"","","","","","image-keyboard-response","5","71186","0.0-3.0-2.0","5fc8a956800c80232e0b7a32","665500ab8938657b03fbdba8","66579243430fdfc33377c83a","1635","stimuli/21111110.jpg"," ","","practrice_feedback","2","","","","","","","","","","","","","","","","","","","","",""
"","","","","","image-keyboard-response","6","75773","0.0-3.0-3.0","5fc8a956800c80232e0b7a32","665500ab8938657b03fbdba8","66579243430fdfc33377c83a","4586","stimuli/2111010.jpg","1","","prediction_practice","2","{""filepath"":""stimuli/2111010.jpg"",""ball_pos"":2,""ego_ball_visible"":true,""ego_can_infer"":true,""alter_ball_visible"":false,""alter_can_infer"":false,""collective_ball_visible"":false,""collective_can_infer"":false,""search_locations"":[1,0,2],""alter_occluders"":""111"",""ego_occluders"":""010""}","false","","","","","","","","","","","","","","","","","","",""
"","","","","","image-keyboard-response","7","77225","0.0-3.0-4.0","5fc8a956800c80232e0b7a32","665500ab8938657b03fbdba8","66579243430fdfc33377c83a","1451","stimuli/21110102.jpg"," ","","practrice_feedback","1","","","","","","","","","","","","","","","","","","","","",""
"","","","","","image-keyboard-response","8","78207","0.0-3.0-5.0","5fc8a956800c80232e0b7a32","665500ab8938657b03fbdba8","66579243430fdfc33377c83a","981","stimuli/2111101.jpg","1","","prediction_practice","1","{""filepath"":""stimuli/2111101.jpg"",""ball_pos"":2,""ego_ball_visible"":false,""ego_can_infer"":false,""alter_ball_visible"":false,""alter_can_infer"":false,""collective_ball_visible"":false,""collective_can_infer"":false,""search_locations"":[2,0,1],""alter_occluders"":""111"",""ego_occluders"":""101""}","true","","","","","","","","","","","","","","","","","","",""
"","","","","","image-keyboard-response","9","79653","0.0-3.0-6.0","5fc8a956800c80232e0b7a32","665500ab8938657b03fbdba8","66579243430fdfc33377c83a","1445","stimuli/21111011.jpg"," ","","practrice_feedback","2","","","","","","","","","","","","","","","","","","","","",""
"","","","","","image-keyboard-response","10","82261","0.0-3.0-7.0","5fc8a956800c80232e0b7a32","665500ab8938657b03fbdba8","66579243430fdfc33377c83a","2607","stimuli/0000110.jpg","0","","prediction_practice","0","{""filepath"":""stimuli/0000110.jpg"",""ball_pos"":0,""ego_ball_visible"":false,""ego_can_infer"":false,""alter_ball_visible"":true,""alter_can_infer"":true,""collective_ball_visible"":false,""collective_can_infer"":false,""search_locations"":[0],""alter_occluders"":""000"",""ego_occluders"":""110""}","true","","","","","","","","","","","","","","","","","","",""
"","","","","","image-keyboard-response","11","83518","0.0-3.0-8.0","5fc8a956800c80232e0b7a32","665500ab8938657b03fbdba8","66579243430fdfc33377c83a","1257","stimuli/00001100.jpg"," ","","practrice_feedback","0","","","","","","","","","","","","","","","","","","","","",""
"","","","","","image-keyboard-response","12","85890","0.0-3.0-9.0","5fc8a956800c80232e0b7a32","665500ab8938657b03fbdba8","66579243430fdfc33377c83a","2371","stimuli/0110111.jpg","1","","prediction_practice","1","{""filepath"":""stimuli/0110111.jpg"",""ball_pos"":0,""ego_ball_visible"":false,""ego_can_infer"":false,""alter_ball_visible"":false,""alter_can_infer"":false,""collective_ball_visible"":false,""collective_can_infer"":false,""search_locations"":[0,1],""alter_occluders"":""110"",""ego_occluders"":""111""}","true","","","","","","","","","","","","","","","","","","",""
"","","","","","image-keyboard-response","13","86921","0.0-3.0-10.0","5fc8a956800c80232e0b7a32","665500ab8938657b03fbdba8","66579243430fdfc33377c83a","1030","stimuli/01101111.jpg"," ","","practrice_feedback","0","","","","","","","","","","","","","","","","","","","","",""
"","","","","","image-keyboard-response","14","88094","0.0-3.0-11.0","5fc8a956800c80232e0b7a32","665500ab8938657b03fbdba8","66579243430fdfc33377c83a","1173","stimuli/0000000.jpg","0","","prediction_practice","0","{""filepath"":""stimuli/0000000.jpg"",""ball_pos"":0,""ego_ball_visible"":true,""ego_can_infer"":true,""alter_ball_visible"":true,""alter_can_infer"":true,""collective_ball_visible"":true,""collective_can_infer"":true,""search_locations"":[0],""alter_occluders"":""000"",""ego_occluders"":""000""}","true","","","","","","","","","","","","","","","","","","",""
"","","","","","image-keyboard-response","15","89271","0.0-3.0-12.0","5fc8a956800c80232e0b7a32","665500ab8938657b03fbdba8","66579243430fdfc33377c83a","1176","stimuli/00000000.jpg"," ","","practrice_feedback","0","","","","","","","","","","","","","","","","","","","","",""
"","","","","","image-keyboard-response","16","91167","0.0-3.0-13.0","5fc8a956800c80232e0b7a32","665500ab8938657b03fbdba8","66579243430fdfc33377c83a","1896","stimuli/1011011.jpg","1","","prediction_practice","2","{""filepath"":""stimuli/1011011.jpg"",""ball_pos"":1,""ego_ball_visible"":false,""ego_can_infer"":false,""alter_ball_visible"":false,""alter_can_infer"":false,""collective_ball_visible"":false,""collective_can_infer"":false,""search_locations"":[1,2],""alter_occluders"":""011"",""ego_occluders"":""011""}","false","","","","","","","","","","","","","","","","","","",""
"","","","","","image-keyboard-response","17","91940","0.0-3.0-14.0","5fc8a956800c80232e0b7a32","665500ab8938657b03fbdba8","66579243430fdfc33377c83a","772","stimuli/10110112.jpg"," ","","practrice_feedback","1","","","","","","","","","","","","","","","","","","","","",""
"","","","","","image-keyboard-response","18","97316","0.0-3.0-15.0","5fc8a956800c80232e0b7a32","665500ab8938657b03fbdba8","66579243430fdfc33377c83a","5375","stimuli/1011110.jpg","0","","prediction_practice","1","{""filepath"":""stimuli/1011110.jpg"",""ball_pos"":1,""ego_ball_visible"":false,""ego_can_infer"":false,""alter_ball_visible"":false,""alter_can_infer"":false,""collective_ball_visible"":false,""collective_can_infer"":false,""search_locations"":[1,2],""alter_occluders"":""011"",""ego_occluders"":""110""}","false","","","","","","","","","","","","","","","","","","",""
"","","","","","image-keyboard-response","19","98161","0.0-3.0-16.0","5fc8a956800c80232e0b7a32","665500ab8938657b03fbdba8","66579243430fdfc33377c83a","844","stimuli/10111101.jpg"," ","","practrice_feedback","1","","","","","","","","","","","","","","","","","","","","",""
"","","","","","image-keyboard-response","20","102595","0.0-3.0-17.0","5fc8a956800c80232e0b7a32","665500ab8938657b03fbdba8","66579243430fdfc33377c83a","4433","stimuli/1000011.jpg","1","","prediction_practice","1","{""filepath"":""stimuli/1000011.jpg"",""ball_pos"":1,""ego_ball_visible"":false,""ego_can_infer"":false,""alter_ball_visible"":true,""alter_can_infer"":true,""collective_ball_visible"":false,""collective_can_infer"":false,""search_locations"":[1],""alter_occluders"":""000"",""ego_occluders"":""011""}","true","","","","","","","","","","","","","","","","","","",""
"","","","","","image-keyboard-response","21","103490","0.0-3.0-18.0","5fc8a956800c80232e0b7a32","665500ab8938657b03fbdba8","66579243430fdfc33377c83a","894","stimuli/10000111.jpg"," ","","practrice_feedback","1","","","","","","","","","","","","","","","","","","","","",""
"","","","","","image-keyboard-response","22","109036","0.0-3.0-19.0","5fc8a956800c80232e0b7a32","665500ab8938657b03fbdba8","66579243430fdfc33377c83a","5544","stimuli/1111010.jpg","1","","prediction_practice","0","{""filepath"":""stimuli/1111010.jpg"",""ball_pos"":1,""ego_ball_visible"":false,""ego_can_infer"":true,""alter_ball_visible"":false,""alter_can_infer"":false,""collective_ball_visible"":false,""collective_can_infer"":false,""search_locations"":[0,1,2],""alter_occluders"":""111"",""ego_occluders"":""010""}","false","","","","","","","","","","","","","","","","","","",""
"","","","","","image-keyboard-response","23","109747","0.0-3.0-20.0","5fc8a956800c80232e0b7a32","665500ab8938657b03fbdba8","66579243430fdfc33377c83a","710","stimuli/11110100.jpg"," ","","practrice_feedback","0","","","","","","","","","","","","","","","","","","","","",""
"","","","","","html-button-response","24","111829","0.0-3.0-21.0","5fc8a956800c80232e0b7a32","665500ab8938657b03fbdba8","66579243430fdfc33377c83a","2081","Now that you've had some practice, you'll be tested with a couple of easy trials. If you correctly predict Sam's choice, you'll move on to complete the experiment!","0","","","","","","","","","","","","","","","","","","","","","","","",""
"","","","","","image-keyboard-response","25","113238","0.0-3.0-22.0-0.0","5fc8a956800c80232e0b7a32","665500ab8938657b03fbdba8","66579243430fdfc33377c83a","1409","stimuli/0000011.jpg","arrowleft","","comprehension_quiz","","","true","arrowleft","","","","","","","","","","","","","","","","","",""
"","","","","","image-keyboard-response","26","114656","0.0-3.0-22.0-1.0","5fc8a956800c80232e0b7a32","665500ab8938657b03fbdba8","66579243430fdfc33377c83a","1417","stimuli/00000110.jpg"," ","","comprehension_quiz","","","true"," ","","","","","","","","","","","","","","","","","",""
"","","","","","image-keyboard-response","27","116383","0.0-3.0-22.0-2.0","5fc8a956800c80232e0b7a32","665500ab8938657b03fbdba8","66579243430fdfc33377c83a","1727","stimuli/1010010.jpg","arrowdown","","comprehension_quiz","","","true","arrowdown","","","","","","","","","","","","","","","","","",""
"","","","","","image-keyboard-response","28","117152","0.0-3.0-22.0-3.0","5fc8a956800c80232e0b7a32","665500ab8938657b03fbdba8","66579243430fdfc33377c83a","768","stimuli/10100101.jpg"," ","","comprehension_quiz","","","true"," ","","","","","","","","","","","","","","","","","",""
"","","","","","html-button-response","29","118869","0.0-4.0","5fc8a956800c80232e0b7a32","665500ab8938657b03fbdba8","66579243430fdfc33377c83a","1716","The experiment will now begin.","0","","","","","","","","","","","","","","","","","","","","","","","",""
"","","","","","image-keyboard-response","30","122651","0.0-5.0","5fc8a956800c80232e0b7a32","665500ab8938657b03fbdba8","66579243430fdfc33377c83a","3780","stimuli/2101110.jpg","2","","prediction_trial","0","","false","","2","true","true","false","false","false","false","[2,0]","101","110","0","","","","","","",""
"","","","","","image-keyboard-response","31","123371","0.0-6.0","5fc8a956800c80232e0b7a32","665500ab8938657b03fbdba8","66579243430fdfc33377c83a","719","stimuli/21011100.jpg"," ","","feedback_trial","2","","","","","","","","","","","","","","","","","","","","",""
"","","","","","image-keyboard-response","32","125132","0.0-7.0","5fc8a956800c80232e0b7a32","665500ab8938657b03fbdba8","66579243430fdfc33377c83a","1760","stimuli/1000110.jpg","1","","prediction_trial","1","","true","","1","false","false","true","true","false","false","[1]","000","110","1","","","","","","",""
"","","","","","image-keyboard-response","33","125838","0.0-8.0","5fc8a956800c80232e0b7a32","665500ab8938657b03fbdba8","66579243430fdfc33377c83a","706","stimuli/10001101.jpg"," ","","feedback_trial","1","","","","","","","","","","","","","","","","","","","","",""
"","","","","","image-keyboard-response","34","128187","0.0-9.0","5fc8a956800c80232e0b7a32","665500ab8938657b03fbdba8","66579243430fdfc33377c83a","2348","stimuli/1001011.jpg","2","","prediction_trial","1","","false","","1","false","false","true","true","false","false","[1]","001","011","0","","","","","","",""
"","","","","","image-keyboard-response","35","128893","0.0-10.0","5fc8a956800c80232e0b7a32","665500ab8938657b03fbdba8","66579243430fdfc33377c83a","705","stimuli/10010111.jpg"," ","","feedback_trial","1","","","","","","","","","","","","","","","","","","","","",""
"","","","","","image-keyboard-response","36","131215","0.0-11.0","5fc8a956800c80232e0b7a32","665500ab8938657b03fbdba8","66579243430fdfc33377c83a","2322","stimuli/1110011.jpg","2","","prediction_trial","0","","false","","1","false","false","false","false","false","false","[1,0]","110","011","0","","","","","","",""
"","","","","","image-keyboard-response","37","131902","0.0-12.0","5fc8a956800c80232e0b7a32","665500ab8938657b03fbdba8","66579243430fdfc33377c83a","686","stimuli/11100110.jpg"," ","","feedback_trial","1","","","","","","","","","","","","","","","","","","","","",""
"","","","","","image-keyboard-response","38","133853","0.0-13.0","5fc8a956800c80232e0b7a32","665500ab8938657b03fbdba8","66579243430fdfc33377c83a","1950","stimuli/1100110.jpg","1","","prediction_trial","1","","true","","1","false","false","true","true","false","false","[1]","100","110","1","","","","","","",""
"","","","","","image-keyboard-response","39","134851","0.0-14.0","5fc8a956800c80232e0b7a32","665500ab8938657b03fbdba8","66579243430fdfc33377c83a","997","stimuli/11001101.jpg"," ","","feedback_trial","1","","","","","","","","","","","","","","","","","","","","",""
"","","","","","image-keyboard-response","40","136579","0.0-15.0","5fc8a956800c80232e0b7a32","665500ab8938657b03fbdba8","66579243430fdfc33377c83a","1727","stimuli/0101100.jpg","0","","prediction_trial","0","","true","","0","false","true","false","false","false","false","[2,0]","101","100","1","","","","","","",""
"","","","","","image-keyboard-response","41","137196","0.0-16.0","5fc8a956800c80232e0b7a32","665500ab8938657b03fbdba8","66579243430fdfc33377c83a","616","stimuli/01011000.jpg"," ","","feedback_trial","2","","","","","","","","","","","","","","","","","","","","",""
"","","","","","image-keyboard-response","42","138151","0.0-17.0","5fc8a956800c80232e0b7a32","665500ab8938657b03fbdba8","66579243430fdfc33377c83a","955","stimuli/0001011.jpg","0","","prediction_trial","0","","true","","0","true","true","true","true","true","true","[0]","001","011","1","","","","","","",""
"","","","","","image-keyboard-response","43","138809","0.0-18.0","5fc8a956800c80232e0b7a32","665500ab8938657b03fbdba8","66579243430fdfc33377c83a","657","stimuli/00010110.jpg"," ","","feedback_trial","0","","","","","","","","","","","","","","","","","","","","",""
"","","","","","image-keyboard-response","44","142742","0.0-19.0","5fc8a956800c80232e0b7a32","665500ab8938657b03fbdba8","66579243430fdfc33377c83a","3932","stimuli/0110001.jpg","0","","prediction_trial","1","","false","","0","true","true","false","false","false","false","[0,1]","110","001","0","","","","","","",""
"","","","","","image-keyboard-response","45","143464","0.0-20.0","5fc8a956800c80232e0b7a32","665500ab8938657b03fbdba8","66579243430fdfc33377c83a","721","stimuli/01100011.jpg"," ","","feedback_trial","0","","","","","","","","","","","","","","","","","","","","",""
"","","","","","image-keyboard-response","46","147255","0.0-21.0","5fc8a956800c80232e0b7a32","665500ab8938657b03fbdba8","66579243430fdfc33377c83a","3790","stimuli/2001010.jpg","2","","prediction_trial","2","","true","","2","true","true","false","true","false","true","[2]","001","010","1","","","","","","",""
"","","","","","image-keyboard-response","47","147897","0.0-22.0","5fc8a956800c80232e0b7a32","665500ab8938657b03fbdba8","66579243430fdfc33377c83a","641","stimuli/20010102.jpg"," ","","feedback_trial","2","","","","","","","","","","","","","","","","","","","","",""
"","","","","","image-keyboard-response","48","148795","0.0-23.0","5fc8a956800c80232e0b7a32","665500ab8938657b03fbdba8","66579243430fdfc33377c83a","897","stimuli/1101001.jpg","1","","prediction_trial","1","","true","","1","true","true","true","true","true","true","[1]","101","001","1","","","","","","",""
"","","","","","image-keyboard-response","49","149326","0.0-24.0","5fc8a956800c80232e0b7a32","665500ab8938657b03fbdba8","66579243430fdfc33377c83a","531","stimuli/11010011.jpg"," ","","feedback_trial","1","","","","","","","","","","","","","","","","","","","","",""
"","","","","","image-keyboard-response","50","151308","0.0-25.0","5fc8a956800c80232e0b7a32","665500ab8938657b03fbdba8","66579243430fdfc33377c83a","1981","stimuli/0110110.jpg","1","","prediction_trial","1","","true","","0","false","false","false","false","false","false","[0,1]","110","110","1","","","","","","",""
"","","","","","image-keyboard-response","51","151955","0.0-26.0","5fc8a956800c80232e0b7a32","665500ab8938657b03fbdba8","66579243430fdfc33377c83a","646","stimuli/01101101.jpg"," ","","feedback_trial","0","","","","","","","","","","","","","","","","","","","","",""
"","","","","","image-keyboard-response","52","152836","0.0-27.0","5fc8a956800c80232e0b7a32","665500ab8938657b03fbdba8","66579243430fdfc33377c83a","866","stimuli/2000110.jpg","2","","prediction_trial","2","","true","","2","true","true","true","true","true","true","[2]","000","110","1","","","","","","",""
"","","","","","image-keyboard-response","53","153371","0.0-28.0","5fc8a956800c80232e0b7a32","665500ab8938657b03fbdba8","66579243430fdfc33377c83a","535","stimuli/20001102.jpg"," ","","feedback_trial","2","","","","","","","","","","","","","","","","","","","","",""
"","","","","","image-keyboard-response","54","154608","0.0-29.0","5fc8a956800c80232e0b7a32","665500ab8938657b03fbdba8","66579243430fdfc33377c83a","1236","stimuli/1111101.jpg","1","","prediction_trial","0","","false","","1","true","true","false","false","false","false","[1,0,2]","111","101","0","","","","","","",""
"","","","","","image-keyboard-response","55","155094","0.0-30.0","5fc8a956800c80232e0b7a32","665500ab8938657b03fbdba8","66579243430fdfc33377c83a","485","stimuli/11111010.jpg"," ","","feedback_trial","1","","","","","","","","","","","","","","","","","","","","",""
"","","","","","image-keyboard-response","56","156681","0.0-31.0","5fc8a956800c80232e0b7a32","665500ab8938657b03fbdba8","66579243430fdfc33377c83a","1587","stimuli/2010011.jpg","1","","prediction_trial","2","","false","","2","false","false","true","true","false","false","[2]","010","011","0","","","","","","",""
"","","","","","image-keyboard-response","57","157180","0.0-32.0","5fc8a956800c80232e0b7a32","665500ab8938657b03fbdba8","66579243430fdfc33377c83a","498","stimuli/20100112.jpg"," ","","feedback_trial","2","","","","","","","","","","","","","","","","","","","","",""
"","","","","","image-keyboard-response","58","158051","0.0-33.0","5fc8a956800c80232e0b7a32","665500ab8938657b03fbdba8","66579243430fdfc33377c83a","870","stimuli/1010010.jpg","1","","prediction_trial","1","","true","","1","false","true","false","true","false","true","[1]","010","010","1","","","","","","",""
"","","","","","image-keyboard-response","59","158516","0.0-34.0","5fc8a956800c80232e0b7a32","665500ab8938657b03fbdba8","66579243430fdfc33377c83a","465","stimuli/10100101.jpg"," ","","feedback_trial","1","","","","","","","","","","","","","","","","","","","","",""
"","","","","","image-keyboard-response","60","160328","0.0-35.0","5fc8a956800c80232e0b7a32","665500ab8938657b03fbdba8","66579243430fdfc33377c83a","1812","stimuli/2101100.jpg","2","","prediction_trial","0","","false","","2","true","true","false","false","false","false","[2,0]","101","100","0","","","","","","",""
"","","","","","image-keyboard-response","61","160960","0.0-36.0","5fc8a956800c80232e0b7a32","665500ab8938657b03fbdba8","66579243430fdfc33377c83a","631","stimuli/21011000.jpg"," ","","feedback_trial","2","","","","","","","","","","","","","","","","","","","","",""
"","","","","","image-keyboard-response","62","162329","0.0-37.0","5fc8a956800c80232e0b7a32","665500ab8938657b03fbdba8","66579243430fdfc33377c83a","1368","stimuli/2111110.jpg","1","","prediction_trial","0","","false","","2","true","true","false","false","false","false","[1,0,2]","111","110","0","","","","","","",""
"","","","","","image-keyboard-response","63","162922","0.0-38.0","5fc8a956800c80232e0b7a32","665500ab8938657b03fbdba8","66579243430fdfc33377c83a","593","stimuli/21111100.jpg"," ","","feedback_trial","1","","","","","","","","","","","","","","","","","","","","",""
"","","","","","image-keyboard-response","64","164540","0.0-39.0","5fc8a956800c80232e0b7a32","665500ab8938657b03fbdba8","66579243430fdfc33377c83a","1617","stimuli/1101110.jpg","1","","prediction_trial","1","","true","","1","false","false","true","true","false","false","[1]","101","110","1","","","","","","",""
"","","","","","image-keyboard-response","65","165088","0.0-40.0","5fc8a956800c80232e0b7a32","665500ab8938657b03fbdba8","66579243430fdfc33377c83a","547","stimuli/11011101.jpg"," ","","feedback_trial","1","","","","","","","","","","","","","","","","","","","","",""
"","","","","","image-keyboard-response","66","166823","0.0-41.0","5fc8a956800c80232e0b7a32","665500ab8938657b03fbdba8","66579243430fdfc33377c83a","1735","stimuli/2011111.jpg","2","","prediction_trial","2","","true","","2","false","false","false","false","false","false","[1,2]","011","111","1","","","","","","",""
"","","","","","image-keyboard-response","67","167452","0.0-42.0","5fc8a956800c80232e0b7a32","665500ab8938657b03fbdba8","66579243430fdfc33377c83a","627","stimuli/20111112.jpg"," ","","feedback_trial","1","","","","","","","","","","","","","","","","","","","","",""
"","","","","","image-keyboard-response","68","168182","0.0-43.0","5fc8a956800c80232e0b7a32","665500ab8938657b03fbdba8","66579243430fdfc33377c83a","730","stimuli/1000001.jpg","1","","prediction_trial","1","","true","","1","true","true","true","true","true","true","[1]","000","001","1","","","","","","",""
"","","","","","image-keyboard-response","69","168576","0.0-44.0","5fc8a956800c80232e0b7a32","665500ab8938657b03fbdba8","66579243430fdfc33377c83a","392","stimuli/10000011.jpg"," ","","feedback_trial","1","","","","","","","","","","","","","","","","","","","","",""
"","","","","","image-keyboard-response","70","169571","0.0-45.0","5fc8a956800c80232e0b7a32","665500ab8938657b03fbdba8","66579243430fdfc33377c83a","995","stimuli/1100001.jpg","1","","prediction_trial","1","","true","","1","true","true","true","true","true","true","[1]","100","001","1","","","","","","",""
"","","","","","image-keyboard-response","71","170103","0.0-46.0","5fc8a956800c80232e0b7a32","665500ab8938657b03fbdba8","66579243430fdfc33377c83a","531","stimuli/11000011.jpg"," ","","feedback_trial","1","","","","","","","","","","","","","","","","","","","","",""
"","","","","","image-keyboard-response","72","170854","0.0-47.0","5fc8a956800c80232e0b7a32","665500ab8938657b03fbdba8","66579243430fdfc33377c83a","750","stimuli/2110100.jpg","2","","prediction_trial","2","","true","","2","true","true","true","true","true","true","[2]","110","100","1","","","","","","",""
"","","","","","image-keyboard-response","73","171260","0.0-48.0","5fc8a956800c80232e0b7a32","665500ab8938657b03fbdba8","66579243430fdfc33377c83a","406","stimuli/21101002.jpg"," ","","feedback_trial","2","","","","","","","","","","","","","","","","","","","","",""
"","","","","","image-keyboard-response","74","172799","0.0-49.0","5fc8a956800c80232e0b7a32","665500ab8938657b03fbdba8","66579243430fdfc33377c83a","1538","stimuli/2110101.jpg","2","","prediction_trial","2","","true","","2","false","false","true","true","false","false","[2]","110","101","1","","","","","","",""
"","","","","","image-keyboard-response","75","173283","0.0-50.0","5fc8a956800c80232e0b7a32","665500ab8938657b03fbdba8","66579243430fdfc33377c83a","483","stimuli/21101012.jpg"," ","","feedback_trial","2","","","","","","","","","","","","","","","","","","","","",""
"","","","","","image-keyboard-response","76","174503","0.0-51.0","5fc8a956800c80232e0b7a32","665500ab8938657b03fbdba8","66579243430fdfc33377c83a","1220","stimuli/1111000.jpg","1","","prediction_trial","0","","false","","1","true","true","false","false","false","false","[0,2,1]","111","000","0","","","","","","",""
"","","","","","image-keyboard-response","77","175030","0.0-52.0","5fc8a956800c80232e0b7a32","665500ab8938657b03fbdba8","66579243430fdfc33377c83a","526","stimuli/11110000.jpg"," ","","feedback_trial","0","","","","","","","","","","","","","","","","","","","","",""
"","","","","","image-keyboard-response","78","177084","0.0-53.0","5fc8a956800c80232e0b7a32","665500ab8938657b03fbdba8","66579243430fdfc33377c83a","2054","stimuli/0100100.jpg","0","","prediction_trial","0","","true","","0","false","true","false","true","false","true","[0]","100","100","1","","","","","","",""
"","","","","","image-keyboard-response","79","177713","0.0-54.0","5fc8a956800c80232e0b7a32","665500ab8938657b03fbdba8","66579243430fdfc33377c83a","628","stimuli/01001000.jpg"," ","","feedback_trial","0","","","","","","","","","","","","","","","","","","","","",""
"","","","","","image-keyboard-response","80","180138","0.0-55.0","5fc8a956800c80232e0b7a32","665500ab8938657b03fbdba8","66579243430fdfc33377c83a","2424","stimuli/1110001.jpg","1","","prediction_trial","1","","true","","1","true","true","false","false","false","false","[0,1]","110","001","1","","","","","","",""
"","","","","","image-keyboard-response","81","180653","0.0-56.0","5fc8a956800c80232e0b7a32","665500ab8938657b03fbdba8","66579243430fdfc33377c83a","514","stimuli/11100011.jpg"," ","","feedback_trial","0","","","","","","","","","","","","","","","","","","","","",""
"","","","","","image-keyboard-response","82","181333","0.0-57.0","5fc8a956800c80232e0b7a32","665500ab8938657b03fbdba8","66579243430fdfc33377c83a","680","stimuli/1000100.jpg","1","","prediction_trial","1","","true","","1","true","true","true","true","true","true","[1]","000","100","1","","","","","","",""
"","","","","","image-keyboard-response","83","181744","0.0-58.0","5fc8a956800c80232e0b7a32","665500ab8938657b03fbdba8","66579243430fdfc33377c83a","409","stimuli/10001001.jpg"," ","","feedback_trial","1","","","","","","","","","","","","","","","","","","","","",""
"","","","","","image-keyboard-response","84","183966","0.0-59.0","5fc8a956800c80232e0b7a32","665500ab8938657b03fbdba8","66579243430fdfc33377c83a","2221","stimuli/2111111.jpg","1","","prediction_trial","1","","true","","2","false","false","false","false","false","false","[2,0,1]","111","111","1","","","","","","",""
"","","","","","image-keyboard-response","85","184375","0.0-60.0","5fc8a956800c80232e0b7a32","665500ab8938657b03fbdba8","66579243430fdfc33377c83a","409","stimuli/21111111.jpg"," ","","feedback_trial","2","","","","","","","","","","","","","","","","","","","","",""
"","","","","","image-keyboard-response","86","185831","0.0-61.0","5fc8a956800c80232e0b7a32","665500ab8938657b03fbdba8","66579243430fdfc33377c83a","1454","stimuli/1011110.jpg","1","","prediction_trial","2","","false","","1","false","false","false","false","false","false","[1,2]","011","110","0","","","","","","",""
"","","","","","image-keyboard-response","87","186305","0.0-62.0","5fc8a956800c80232e0b7a32","665500ab8938657b03fbdba8","66579243430fdfc33377c83a","473","stimuli/10111102.jpg"," ","","feedback_trial","1","","","","","","","","","","","","","","","","","","","","",""
"","","","","","image-keyboard-response","88","187055","0.0-63.0","5fc8a956800c80232e0b7a32","665500ab8938657b03fbdba8","66579243430fdfc33377c83a","749","stimuli/0001000.jpg","0","","prediction_trial","0","","true","","0","true","true","true","true","true","true","[0]","001","000","1","","","","","","",""
"","","","","","image-keyboard-response","89","187370","0.0-64.0","5fc8a956800c80232e0b7a32","665500ab8938657b03fbdba8","66579243430fdfc33377c83a","314","stimuli/00010000.jpg"," ","","feedback_trial","0","","","","","","","","","","","","","","","","","","","","",""
"","","","","","image-keyboard-response","90","188110","0.0-65.0","5fc8a956800c80232e0b7a32","665500ab8938657b03fbdba8","66579243430fdfc33377c83a","739","stimuli/2010100.jpg","2","","prediction_trial","2","","true","","2","true","true","true","true","true","true","[2]","010","100","1","","","","","","",""
"","","","","","image-keyboard-response","91","188434","0.0-66.0","5fc8a956800c80232e0b7a32","665500ab8938657b03fbdba8","66579243430fdfc33377c83a","324","stimuli/20101002.jpg"," ","","feedback_trial","2","","","","","","","","","","","","","","","","","","","","",""
"","","","","","image-keyboard-response","92","190103","0.0-67.0","5fc8a956800c80232e0b7a32","665500ab8938657b03fbdba8","66579243430fdfc33377c83a","1668","stimuli/2001000.jpg","2","","prediction_trial","2","","true","","2","true","true","false","true","false","true","[2]","001","000","1","","","","","","",""
"","","","","","image-keyboard-response","93","190543","0.0-68.0","5fc8a956800c80232e0b7a32","665500ab8938657b03fbdba8","66579243430fdfc33377c83a","439","stimuli/20010002.jpg"," ","","feedback_trial","2","","","","","","","","","","","","","","","","","","","","",""
"","","","","","image-keyboard-response","94","192624","0.0-69.0","5fc8a956800c80232e0b7a32","665500ab8938657b03fbdba8","66579243430fdfc33377c83a","2080","stimuli/1001010.jpg","1","","prediction_trial","1","","true","","1","false","true","true","true","false","true","[1]","001","010","1","","","","","","",""
"","","","","","image-keyboard-response","95","193036","0.0-70.0","5fc8a956800c80232e0b7a32","665500ab8938657b03fbdba8","66579243430fdfc33377c83a","412","stimuli/10010101.jpg"," ","","feedback_trial","1","","","","","","","","","","","","","","","","","","","","",""
"","","","","","image-keyboard-response","96","194144","0.0-71.0","5fc8a956800c80232e0b7a32","665500ab8938657b03fbdba8","66579243430fdfc33377c83a","1107","stimuli/1111111.jpg","1","","prediction_trial","1","","true","","1","false","false","false","false","false","false","[1,2,0]","111","111","1","","","","","","",""
"","","","","","image-keyboard-response","97","194680","0.0-72.0","5fc8a956800c80232e0b7a32","665500ab8938657b03fbdba8","66579243430fdfc33377c83a","535","stimuli/11111111.jpg"," ","","feedback_trial","1","","","","","","","","","","","","","","","","","","","","",""
"","","","","","image-keyboard-response","98","195405","0.0-73.0","5fc8a956800c80232e0b7a32","665500ab8938657b03fbdba8","66579243430fdfc33377c83a","725","stimuli/0000000.jpg","0","","prediction_trial","0","","true","","0","true","true","true","true","true","true","[0]","000","000","1","","","","","","",""
"","","","","","image-keyboard-response","99","195685","0.0-74.0","5fc8a956800c80232e0b7a32","665500ab8938657b03fbdba8","66579243430fdfc33377c83a","279","stimuli/00000000.jpg"," ","","feedback_trial","0","","","","","","","","","","","","","","","","","","","","",""
"","","","","","image-keyboard-response","100","197135","0.0-75.0","5fc8a956800c80232e0b7a32","665500ab8938657b03fbdba8","66579243430fdfc33377c83a","1449","stimuli/0101101.jpg","0","","prediction_trial","0","","true","","0","false","false","false","false","false","false","[2,0]","101","101","1","","","","","","",""
"","","","","","image-keyboard-response","101","197699","0.0-76.0","5fc8a956800c80232e0b7a32","665500ab8938657b03fbdba8","66579243430fdfc33377c83a","564","stimuli/01011010.jpg"," ","","feedback_trial","2","","","","","","","","","","","","","","","","","","","","",""
"","","","","","image-keyboard-response","102","199297","0.0-77.0","5fc8a956800c80232e0b7a32","665500ab8938657b03fbdba8","66579243430fdfc33377c83a","1597","stimuli/2000111.jpg","1","","prediction_trial","2","","false","","2","false","false","true","true","false","false","[2]","000","111","0","","","","","","",""
"","","","","","image-keyboard-response","103","199794","0.0-78.0","5fc8a956800c80232e0b7a32","665500ab8938657b03fbdba8","66579243430fdfc33377c83a","496","stimuli/20001112.jpg"," ","","feedback_trial","2","","","","","","","","","","","","","","","","","","","","",""
"","","","","","image-keyboard-response","104","203551","0.0-79.0","5fc8a956800c80232e0b7a32","665500ab8938657b03fbdba8","66579243430fdfc33377c83a","3757","stimuli/0011110.jpg","1","","prediction_trial","0","","false","","0","false","false","true","true","false","false","[0]","011","110","0","","","","","","",""
"","","","","","image-keyboard-response","105","203963","0.0-80.0","5fc8a956800c80232e0b7a32","665500ab8938657b03fbdba8","66579243430fdfc33377c83a","411","stimuli/00111100.jpg"," ","","feedback_trial","0","","","","","","","","","","","","","","","","","","","","",""
"","","","","","image-keyboard-response","106","205833","0.0-81.0","5fc8a956800c80232e0b7a32","665500ab8938657b03fbdba8","66579243430fdfc33377c83a","1855","stimuli/1000111.jpg","2","","prediction_trial","1","","false","","1","false","false","true","true","false","false","[1]","000","111","0","","","","","","",""
"","","","","","image-keyboard-response","107","206268","0.0-82.0","5fc8a956800c80232e0b7a32","665500ab8938657b03fbdba8","66579243430fdfc33377c83a","435","stimuli/10001111.jpg"," ","","feedback_trial","1","","","","","","","","","","","","","","","","","","","","",""
"","","","","","image-keyboard-response","108","206775","0.0-83.0","5fc8a956800c80232e0b7a32","665500ab8938657b03fbdba8","66579243430fdfc33377c83a","505","stimuli/1101100.jpg","1","","prediction_trial","1","","true","","1","true","true","true","true","true","true","[1]","101","100","1","","","","","","",""
"","","","","","image-keyboard-response","109","207071","0.0-84.0","5fc8a956800c80232e0b7a32","665500ab8938657b03fbdba8","66579243430fdfc33377c83a","296","stimuli/11011001.jpg"," ","","feedback_trial","1","","","","","","","","","","","","","","","","","","","","",""
"","","","","","image-keyboard-response","110","208078","0.0-85.0","5fc8a956800c80232e0b7a32","665500ab8938657b03fbdba8","66579243430fdfc33377c83a","1006","stimuli/0100000.jpg","0","","prediction_trial","0","","true","","0","true","true","false","true","false","true","[0]","100","000","1","","","","","","",""
"","","","","","image-keyboard-response","111","208484","0.0-86.0","5fc8a956800c80232e0b7a32","665500ab8938657b03fbdba8","66579243430fdfc33377c83a","405","stimuli/01000000.jpg"," ","","feedback_trial","0","","","","","","","","","","","","","","","","","","","","",""
"","","","","","image-keyboard-response","112","209286","0.0-87.0","5fc8a956800c80232e0b7a32","665500ab8938657b03fbdba8","66579243430fdfc33377c83a","802","stimuli/1001100.jpg","1","","prediction_trial","1","","true","","1","true","true","true","true","true","true","[1]","001","100","1","","","","","","",""
"","","","","","image-keyboard-response","113","209623","0.0-88.0","5fc8a956800c80232e0b7a32","665500ab8938657b03fbdba8","66579243430fdfc33377c83a","336","stimuli/10011001.jpg"," ","","feedback_trial","1","","","","","","","","","","","","","","","","","","","","",""
"","","","","","image-keyboard-response","114","210975","0.0-89.0","5fc8a956800c80232e0b7a32","665500ab8938657b03fbdba8","66579243430fdfc33377c83a","1352","stimuli/2000101.jpg","0","","prediction_trial","2","","false","","2","false","false","true","true","false","false","[2]","000","101","0","","","","","","",""
"","","","","","image-keyboard-response","115","211403","0.0-90.0","5fc8a956800c80232e0b7a32","665500ab8938657b03fbdba8","66579243430fdfc33377c83a","428","stimuli/20001012.jpg"," ","","feedback_trial","2","","","","","","","","","","","","","","","","","","","","",""
"","","","","","image-keyboard-response","116","212502","0.0-91.0","5fc8a956800c80232e0b7a32","665500ab8938657b03fbdba8","66579243430fdfc33377c83a","1098","stimuli/1111011.jpg","2","","prediction_trial","1","","false","","1","false","false","false","false","false","false","[0,1,2]","111","011","0","","","","","","",""
"","","","","","image-keyboard-response","117","212928","0.0-92.0","5fc8a956800c80232e0b7a32","665500ab8938657b03fbdba8","66579243430fdfc33377c83a","426","stimuli/11110111.jpg"," ","","feedback_trial","0","","","","","","","","","","","","","","","","","","","","",""
"","","","","","image-keyboard-response","118","213864","0.0-93.0","5fc8a956800c80232e0b7a32","665500ab8938657b03fbdba8","66579243430fdfc33377c83a","935","stimuli/0001110.jpg","1","","prediction_trial","0","","false","","0","false","false","true","true","false","false","[0]","001","110","0","","","","","","",""
"","","","","","image-keyboard-response","119","214292","0.0-94.0","5fc8a956800c80232e0b7a32","665500ab8938657b03fbdba8","66579243430fdfc33377c83a","428","stimuli/00011100.jpg"," ","","feedback_trial","0","","","","","","","","","","","","","","","","","","","","",""
"","","","","","image-keyboard-response","120","216041","0.0-95.0","5fc8a956800c80232e0b7a32","665500ab8938657b03fbdba8","66579243430fdfc33377c83a","1748","stimuli/2101010.jpg","2","","prediction_trial","0","","false","","2","true","true","false","false","false","false","[2,0]","101","010","0","","","","","","",""
"","","","","","image-keyboard-response","121","216608","0.0-96.0","5fc8a956800c80232e0b7a32","665500ab8938657b03fbdba8","66579243430fdfc33377c83a","567","stimuli/21010100.jpg"," ","","feedback_trial","2","","","","","","","","","","","","","","","","","","","","",""
"","","","","","image-keyboard-response","122","217445","0.0-97.0","5fc8a956800c80232e0b7a32","665500ab8938657b03fbdba8","66579243430fdfc33377c83a","837","stimuli/0111101.jpg","2","","prediction_trial","1","","false","","0","false","false","false","false","false","false","[0,2,1]","111","101","0","","","","","","",""
"","","","","","image-keyboard-response","123","217948","0.0-98.0","5fc8a956800c80232e0b7a32","665500ab8938657b03fbdba8","66579243430fdfc33377c83a","503","stimuli/01111011.jpg"," ","","feedback_trial","0","","","","","","","","","","","","","","","","","","","","",""
"","","","","","image-keyboard-response","124","218666","0.0-99.0","5fc8a956800c80232e0b7a32","665500ab8938657b03fbdba8","66579243430fdfc33377c83a","717","stimuli/2100110.jpg","2","","prediction_trial","2","","true","","2","true","true","true","true","true","true","[2]","100","110","1","","","","","","",""
"","","","","","image-keyboard-response","125","218973","0.0-100.0","5fc8a956800c80232e0b7a32","665500ab8938657b03fbdba8","66579243430fdfc33377c83a","307","stimuli/21001102.jpg"," ","","feedback_trial","2","","","","","","","","","","","","","","","","","","","","",""
"","","","","","image-keyboard-response","126","219652","0.0-101.0","5fc8a956800c80232e0b7a32","665500ab8938657b03fbdba8","66579243430fdfc33377c83a","678","stimuli/2100001.jpg","2","","prediction_trial","2","","true","","2","false","true","true","true","false","true","[2]","100","001","1","","","","","","",""
"","","","","","image-keyboard-response","127","220299","0.0-102.0","5fc8a956800c80232e0b7a32","665500ab8938657b03fbdba8","66579243430fdfc33377c83a","646","stimuli/21000012.jpg"," ","","feedback_trial","2","","","","","","","","","","","","","","","","","","","","",""
"","","","","","image-keyboard-response","128","221268","0.0-103.0","5fc8a956800c80232e0b7a32","665500ab8938657b03fbdba8","66579243430fdfc33377c83a","969","stimuli/1001110.jpg","0","","prediction_trial","1","","false","","1","false","false","true","true","false","false","[1]","001","110","0","","","","","","",""
"","","","","","image-keyboard-response","129","221752","0.0-104.0","5fc8a956800c80232e0b7a32","665500ab8938657b03fbdba8","66579243430fdfc33377c83a","484","stimuli/10011101.jpg"," ","","feedback_trial","1","","","","","","","","","","","","","","","","","","","","",""
"","","","","","image-keyboard-response","130","222848","0.0-105.0","5fc8a956800c80232e0b7a32","665500ab8938657b03fbdba8","66579243430fdfc33377c83a","1095","stimuli/0101111.jpg","1","","prediction_trial","0","","false","","0","false","false","false","false","false","false","[0,2]","101","111","0","","","","","","",""
"","","","","","image-keyboard-response","131","223266","0.0-106.0","5fc8a956800c80232e0b7a32","665500ab8938657b03fbdba8","66579243430fdfc33377c83a","418","stimuli/01011110.jpg"," ","","feedback_trial","0","","","","","","","","","","","","","","","","","","","","",""
"","","","","","image-keyboard-response","132","224567","0.0-107.0","5fc8a956800c80232e0b7a32","665500ab8938657b03fbdba8","66579243430fdfc33377c83a","1301","stimuli/0110000.jpg","0","","prediction_trial","1","","false","","0","true","true","false","false","false","false","[0,1]","110","000","0","","","","","","",""
"","","","","","image-keyboard-response","133","224960","0.0-108.0","5fc8a956800c80232e0b7a32","665500ab8938657b03fbdba8","66579243430fdfc33377c83a","393","stimuli/01100001.jpg"," ","","feedback_trial","0","","","","","","","","","","","","","","","","","","","","",""
"","","","","","image-keyboard-response","134","226008","0.0-109.0","5fc8a956800c80232e0b7a32","665500ab8938657b03fbdba8","66579243430fdfc33377c83a","1047","stimuli/2010101.jpg","2","","prediction_trial","2","","true","","2","false","false","true","true","false","false","[2]","010","101","1","","","","","","",""
"","","","","","image-keyboard-response","135","226469","0.0-110.0","5fc8a956800c80232e0b7a32","665500ab8938657b03fbdba8","66579243430fdfc33377c83a","461","stimuli/20101012.jpg"," ","","feedback_trial","2","","","","","","","","","","","","","","","","","","","","",""
"","","","","","image-keyboard-response","136","227758","0.0-111.0","5fc8a956800c80232e0b7a32","665500ab8938657b03fbdba8","66579243430fdfc33377c83a","1288","stimuli/1100011.jpg","1","","prediction_trial","1","","true","","1","false","false","true","true","false","false","[1]","100","011","1","","","","","","",""
"","","","","","image-keyboard-response","137","228365","0.0-112.0","5fc8a956800c80232e0b7a32","665500ab8938657b03fbdba8","66579243430fdfc33377c83a","607","stimuli/11000111.jpg"," ","","feedback_trial","1","","","","","","","","","","","","","","","","","","","","",""
"","","","","","image-keyboard-response","138","229146","0.0-113.0","5fc8a956800c80232e0b7a32","665500ab8938657b03fbdba8","66579243430fdfc33377c83a","780","stimuli/0001010.jpg","0","","prediction_trial","0","","true","","0","true","true","true","true","true","true","[0]","001","010","1","","","","","","",""
"","","","","","image-keyboard-response","139","229526","0.0-114.0","5fc8a956800c80232e0b7a32","665500ab8938657b03fbdba8","66579243430fdfc33377c83a","379","stimuli/00010100.jpg"," ","","feedback_trial","0","","","","","","","","","","","","","","","","","","","","",""
"","","","","","image-keyboard-response","140","231982","0.0-115.0","5fc8a956800c80232e0b7a32","665500ab8938657b03fbdba8","66579243430fdfc33377c83a","2456","stimuli/0001100.jpg","0","","prediction_trial","0","","true","","0","false","true","true","true","false","true","[0]","001","100","1","","","","","","",""
"","","","","","image-keyboard-response","141","232500","0.0-116.0","5fc8a956800c80232e0b7a32","665500ab8938657b03fbdba8","66579243430fdfc33377c83a","518","stimuli/00011000.jpg"," ","","feedback_trial","0","","","","","","","","","","","","","","","","","","","","",""
"","","","","","image-keyboard-response","142","235285","0.0-117.0","5fc8a956800c80232e0b7a32","665500ab8938657b03fbdba8","66579243430fdfc33377c83a","2784","stimuli/2011110.jpg","2","","prediction_trial","1","","false","","2","true","true","false","false","false","false","[1,2]","011","110","0","","","","","","",""
"","","","","","image-keyboard-response","143","235749","0.0-118.0","5fc8a956800c80232e0b7a32","665500ab8938657b03fbdba8","66579243430fdfc33377c83a","463","stimuli/20111101.jpg"," ","","feedback_trial","1","","","","","","","","","","","","","","","","","","","","",""
"","","","","","image-keyboard-response","144","236749","0.0-119.0","5fc8a956800c80232e0b7a32","665500ab8938657b03fbdba8","66579243430fdfc33377c83a","986","stimuli/2110010.jpg","2","","prediction_trial","2","","true","","2","true","true","true","true","true","true","[2]","110","010","1","","","","","","",""
"","","","","","image-keyboard-response","145","237199","0.0-120.0","5fc8a956800c80232e0b7a32","665500ab8938657b03fbdba8","66579243430fdfc33377c83a","450","stimuli/21100102.jpg"," ","","feedback_trial","2","","","","","","","","","","","","","","","","","","","","",""
"","","","","","image-keyboard-response","146","237964","0.0-121.0","5fc8a956800c80232e0b7a32","665500ab8938657b03fbdba8","66579243430fdfc33377c83a","764","stimuli/2100010.jpg","2","","prediction_trial","2","","true","","2","true","true","true","true","true","true","[2]","100","010","1","","","","","","",""
"","","","","","image-keyboard-response","147","238305","0.0-122.0","5fc8a956800c80232e0b7a32","665500ab8938657b03fbdba8","66579243430fdfc33377c83a","341","stimuli/21000102.jpg"," ","","feedback_trial","2","","","","","","","","","","","","","","","","","","","","",""
"","","","","","image-keyboard-response","148","239554","0.0-123.0","5fc8a956800c80232e0b7a32","665500ab8938657b03fbdba8","66579243430fdfc33377c83a","1249","stimuli/2111100.jpg","2","","prediction_trial","0","","false","","2","true","true","false","false","false","false","[0,1,2]","111","100","0","","","","","","",""
"","","","","","image-keyboard-response","149","240006","0.0-124.0","5fc8a956800c80232e0b7a32","665500ab8938657b03fbdba8","66579243430fdfc33377c83a","452","stimuli/21111000.jpg"," ","","feedback_trial","0","","","","","","","","","","","","","","","","","","","","",""
"","","","","","image-keyboard-response","150","241024","0.0-125.0","5fc8a956800c80232e0b7a32","665500ab8938657b03fbdba8","66579243430fdfc33377c83a","1017","stimuli/1110110.jpg","1","","prediction_trial","0","","false","","1","false","false","false","false","false","false","[1,0]","110","110","0","","","","","","",""
"","","","","","image-keyboard-response","151","241424","0.0-126.0","5fc8a956800c80232e0b7a32","665500ab8938657b03fbdba8","66579243430fdfc33377c83a","400","stimuli/11101100.jpg"," ","","feedback_trial","1","","","","","","","","","","","","","","","","","","","","",""
"","","","","","image-keyboard-response","152","242465","0.0-127.0","5fc8a956800c80232e0b7a32","665500ab8938657b03fbdba8","66579243430fdfc33377c83a","1040","stimuli/1011011.jpg","1","","prediction_trial","2","","false","","1","false","false","false","false","false","false","[1,2]","011","011","0","","","","","","",""
"","","","","","image-keyboard-response","153","242926","0.0-128.0","5fc8a956800c80232e0b7a32","665500ab8938657b03fbdba8","66579243430fdfc33377c83a","461","stimuli/10110112.jpg"," ","","feedback_trial","1","","","","","","","","","","","","","","","","","","","","",""
"","","","","","image-keyboard-response","154","243741","0.0-129.0","5fc8a956800c80232e0b7a32","665500ab8938657b03fbdba8","66579243430fdfc33377c83a","815","stimuli/0011000.jpg","0","","prediction_trial","0","","true","","0","true","true","true","true","true","true","[0]","011","000","1","","","","","","",""
"","","","","","image-keyboard-response","155","244032","0.0-130.0","5fc8a956800c80232e0b7a32","665500ab8938657b03fbdba8","66579243430fdfc33377c83a","291","stimuli/00110000.jpg"," ","","feedback_trial","0","","","","","","","","","","","","","","","","","","","","",""
"","","","","","image-keyboard-response","156","246245","0.0-131.0","5fc8a956800c80232e0b7a32","665500ab8938657b03fbdba8","66579243430fdfc33377c83a","2200","stimuli/0110011.jpg","0","","prediction_trial","1","","false","","0","true","true","false","false","false","false","[0,1]","110","011","0","","","","","","",""
"","","","","","image-keyboard-response","157","246676","0.0-132.0","5fc8a956800c80232e0b7a32","665500ab8938657b03fbdba8","66579243430fdfc33377c83a","431","stimuli/01100111.jpg"," ","","feedback_trial","0","","","","","","","","","","","","","","","","","","","","",""
"","","","","","image-keyboard-response","158","250916","0.0-133.0","5fc8a956800c80232e0b7a32","665500ab8938657b03fbdba8","66579243430fdfc33377c83a","4239","stimuli/0010101.jpg","2","","prediction_trial","0","","false","","0","false","false","true","true","false","false","[0]","010","101","0","","","","","","",""
"","","","","","image-keyboard-response","159","251382","0.0-134.0","5fc8a956800c80232e0b7a32","665500ab8938657b03fbdba8","66579243430fdfc33377c83a","466","stimuli/00101010.jpg"," ","","feedback_trial","0","","","","","","","","","","","","","","","","","","","","",""
"","","","","","image-keyboard-response","160","252414","0.0-135.0","5fc8a956800c80232e0b7a32","665500ab8938657b03fbdba8","66579243430fdfc33377c83a","1031","stimuli/0101110.jpg","1","","prediction_trial","0","","false","","0","false","false","false","false","false","false","[2,0]","101","110","0","","","","","","",""
"","","","","","image-keyboard-response","161","252791","0.0-136.0","5fc8a956800c80232e0b7a32","665500ab8938657b03fbdba8","66579243430fdfc33377c83a","376","stimuli/01011100.jpg"," ","","feedback_trial","2","","","","","","","","","","","","","","","","","","","","",""
"","","","","","image-keyboard-response","162","253787","0.0-137.0","5fc8a956800c80232e0b7a32","665500ab8938657b03fbdba8","66579243430fdfc33377c83a","995","stimuli/1011100.jpg","1","","prediction_trial","2","","false","","1","true","true","false","false","false","false","[2,1]","011","100","0","","","","","","",""
"","","","","","image-keyboard-response","163","254175","0.0-138.0","5fc8a956800c80232e0b7a32","665500ab8938657b03fbdba8","66579243430fdfc33377c83a","388","stimuli/10111002.jpg"," ","","feedback_trial","2","","","","","","","","","","","","","","","","","","","","",""
"","","","","","image-keyboard-response","164","254951","0.0-139.0","5fc8a956800c80232e0b7a32","665500ab8938657b03fbdba8","66579243430fdfc33377c83a","762","stimuli/2000011.jpg","2","","prediction_trial","2","","true","","2","false","false","true","true","false","false","[2]","000","011","1","","","","","","",""
"","","","","","image-keyboard-response","165","255359","0.0-140.0","5fc8a956800c80232e0b7a32","665500ab8938657b03fbdba8","66579243430fdfc33377c83a","407","stimuli/20000112.jpg"," ","","feedback_trial","2","","","","","","","","","","","","","","","","","","","","",""
"","","","","","image-keyboard-response","166","257237","0.0-141.0","5fc8a956800c80232e0b7a32","665500ab8938657b03fbdba8","66579243430fdfc33377c83a","1878","stimuli/2001100.jpg","2","","prediction_trial","2","","true","","2","true","true","false","true","false","true","[2]","001","100","1","","","","","","",""
"","","","","","image-keyboard-response","167","257565","0.0-142.0","5fc8a956800c80232e0b7a32","665500ab8938657b03fbdba8","66579243430fdfc33377c83a","328","stimuli/20011002.jpg"," ","","feedback_trial","2","","","","","","","","","","","","","","","","","","","","",""
"","","","","","image-keyboard-response","168","258870","0.0-143.0","5fc8a956800c80232e0b7a32","665500ab8938657b03fbdba8","66579243430fdfc33377c83a","1291","stimuli/2110001.jpg","2","","prediction_trial","2","","true","","2","false","true","true","true","false","true","[2]","110","001","1","","","","","","",""
"","","","","","image-keyboard-response","169","259230","0.0-144.0","5fc8a956800c80232e0b7a32","665500ab8938657b03fbdba8","66579243430fdfc33377c83a","359","stimuli/21100012.jpg"," ","","feedback_trial","2","","","","","","","","","","","","","","","","","","","","",""
"","","","","","image-keyboard-response","170","261555","0.0-145.0","5fc8a956800c80232e0b7a32","665500ab8938657b03fbdba8","66579243430fdfc33377c83a","2310","stimuli/0100010.jpg","0","","prediction_trial","0","","true","","0","true","true","false","true","false","true","[0]","100","010","1","","","","","","",""
"","","","","","image-keyboard-response","171","261866","0.0-146.0","5fc8a956800c80232e0b7a32","665500ab8938657b03fbdba8","66579243430fdfc33377c83a","311","stimuli/01000100.jpg"," ","","feedback_trial","0","","","","","","","","","","","","","","","","","","","","",""
"","","","","","image-keyboard-response","172","263184","0.0-147.0","5fc8a956800c80232e0b7a32","665500ab8938657b03fbdba8","66579243430fdfc33377c83a","1317","stimuli/1100010.jpg","1","","prediction_trial","1","","true","","1","false","true","true","true","false","true","[1]","100","010","1","","","","","","",""
"","","","","","image-keyboard-response","173","263580","0.0-148.0","5fc8a956800c80232e0b7a32","665500ab8938657b03fbdba8","66579243430fdfc33377c83a","395","stimuli/11000101.jpg"," ","","feedback_trial","1","","","","","","","","","","","","","","","","","","","","",""
"","","","","","image-keyboard-response","174","264787","0.0-149.0","5fc8a956800c80232e0b7a32","665500ab8938657b03fbdba8","66579243430fdfc33377c83a","1207","stimuli/0010011.jpg","0","","prediction_trial","0","","true","","0","true","true","true","true","true","true","[0]","010","011","1","","","","","","",""
"","","","","","image-keyboard-response","175","265222","0.0-150.0","5fc8a956800c80232e0b7a32","665500ab8938657b03fbdba8","66579243430fdfc33377c83a","434","stimuli/00100110.jpg"," ","","feedback_trial","0","","","","","","","","","","","","","","","","","","","","",""
"","","","","","image-keyboard-response","176","266028","0.0-151.0","5fc8a956800c80232e0b7a32","665500ab8938657b03fbdba8","66579243430fdfc33377c83a","806","stimuli/2010010.jpg","2","","prediction_trial","2","","true","","2","true","true","true","true","true","true","[2]","010","010","1","","","","","","",""
"","","","","","image-keyboard-response","177","266362","0.0-152.0","5fc8a956800c80232e0b7a32","665500ab8938657b03fbdba8","66579243430fdfc33377c83a","334","stimuli/20100102.jpg"," ","","feedback_trial","2","","","","","","","","","","","","","","","","","","","","",""
"","","","","","image-keyboard-response","178","267519","0.0-153.0","5fc8a956800c80232e0b7a32","665500ab8938657b03fbdba8","66579243430fdfc33377c83a","1156","stimuli/2111011.jpg","2","","prediction_trial","0","","false","","2","false","false","false","false","false","false","[2,1,0]","111","011","0","","","","","","",""
"","","","","","image-keyboard-response","179","267954","0.0-154.0","5fc8a956800c80232e0b7a32","665500ab8938657b03fbdba8","66579243430fdfc33377c83a","435","stimuli/21110110.jpg"," ","","feedback_trial","2","","","","","","","","","","","","","","","","","","","","",""
"","","","","","image-keyboard-response","180","268702","0.0-155.0","5fc8a956800c80232e0b7a32","665500ab8938657b03fbdba8","66579243430fdfc33377c83a","735","stimuli/0000011.jpg","0","","prediction_trial","0","","true","","0","true","true","true","true","true","true","[0]","000","011","1","","","","","","",""
"","","","","","image-keyboard-response","181","268977","0.0-156.0","5fc8a956800c80232e0b7a32","665500ab8938657b03fbdba8","66579243430fdfc33377c83a","275","stimuli/00000110.jpg"," ","","feedback_trial","0","","","","","","","","","","","","","","","","","","","","",""
"","","","","","image-keyboard-response","182","269565","0.0-157.0","5fc8a956800c80232e0b7a32","665500ab8938657b03fbdba8","66579243430fdfc33377c83a","575","stimuli/0011011.jpg","0","","prediction_trial","0","","true","","0","true","true","true","true","true","true","[0]","011","011","1","","","","","","",""
"","","","","","image-keyboard-response","183","269932","0.0-158.0","5fc8a956800c80232e0b7a32","665500ab8938657b03fbdba8","66579243430fdfc33377c83a","366","stimuli/00110110.jpg"," ","","feedback_trial","0","","","","","","","","","","","","","","","","","","","","",""
"","","","","","image-keyboard-response","184","272065","0.0-159.0","5fc8a956800c80232e0b7a32","665500ab8938657b03fbdba8","66579243430fdfc33377c83a","2120","stimuli/0001111.jpg","1","","prediction_trial","0","","false","","0","false","false","true","true","false","false","[0]","001","111","0","","","","","","",""
"","","","","","image-keyboard-response","185","272551","0.0-160.0","5fc8a956800c80232e0b7a32","665500ab8938657b03fbdba8","66579243430fdfc33377c83a","485","stimuli/00011110.jpg"," ","","feedback_trial","0","","","","","","","","","","","","","","","","","","","","",""
"","","","","","image-keyboard-response","186","274905","0.0-161.0","5fc8a956800c80232e0b7a32","665500ab8938657b03fbdba8","66579243430fdfc33377c83a","2354","stimuli/0111011.jpg","0","","prediction_trial","0","","true","","0","true","true","false","false","false","false","[1,2,0]","111","011","1","","","","","","",""
"","","","","","image-keyboard-response","187","275345","0.0-162.0","5fc8a956800c80232e0b7a32","665500ab8938657b03fbdba8","66579243430fdfc33377c83a","439","stimuli/01110110.jpg"," ","","feedback_trial","1","","","","","","","","","","","","","","","","","","","","",""
"","","","","","image-keyboard-response","188","275987","0.0-163.0","5fc8a956800c80232e0b7a32","665500ab8938657b03fbdba8","66579243430fdfc33377c83a","642","stimuli/1000000.jpg","1","","prediction_trial","1","","true","","1","true","true","true","true","true","true","[1]","000","000","1","","","","","","",""
"","","","","","image-keyboard-response","189","276246","0.0-164.0","5fc8a956800c80232e0b7a32","665500ab8938657b03fbdba8","66579243430fdfc33377c83a","259","stimuli/10000001.jpg"," ","","feedback_trial","1","","","","","","","","","","","","","","","","","","","","",""
"","","","","","image-keyboard-response","190","277844","0.0-165.0","5fc8a956800c80232e0b7a32","665500ab8938657b03fbdba8","66579243430fdfc33377c83a","1598","stimuli/0001101.jpg","0","","prediction_trial","0","","true","","0","false","false","true","true","false","false","[0]","001","101","1","","","","","","",""
"","","","","","image-keyboard-response","191","278293","0.0-166.0","5fc8a956800c80232e0b7a32","665500ab8938657b03fbdba8","66579243430fdfc33377c83a","448","stimuli/00011010.jpg"," ","","feedback_trial","0","","","","","","","","","","","","","","","","","","","","",""
"","","","","","image-keyboard-response","192","280266","0.0-167.0","5fc8a956800c80232e0b7a32","665500ab8938657b03fbdba8","66579243430fdfc33377c83a","1972","stimuli/0110111.jpg","0","","prediction_trial","0","","true","","0","false","false","false","false","false","false","[0,1]","110","111","1","","","","","","",""
"","","","","","image-keyboard-response","193","280691","0.0-168.0","5fc8a956800c80232e0b7a32","665500ab8938657b03fbdba8","66579243430fdfc33377c83a","425","stimuli/01101110.jpg"," ","","feedback_trial","0","","","","","","","","","","","","","","","","","","","","",""
"","","","","","image-keyboard-response","194","281806","0.0-169.0","5fc8a956800c80232e0b7a32","665500ab8938657b03fbdba8","66579243430fdfc33377c83a","1115","stimuli/1110101.jpg","1","","prediction_trial","0","","false","","1","true","true","false","false","false","false","[0,1]","110","101","0","","","","","","",""
"","","","","","image-keyboard-response","195","282261","0.0-170.0","5fc8a956800c80232e0b7a32","665500ab8938657b03fbdba8","66579243430fdfc33377c83a","454","stimuli/11101010.jpg"," ","","feedback_trial","0","","","","","","","","","","","","","","","","","","","","",""
"","","","","","image-keyboard-response","196","283562","0.0-171.0","5fc8a956800c80232e0b7a32","665500ab8938657b03fbdba8","66579243430fdfc33377c83a","1300","stimuli/1010111.jpg","2","","prediction_trial","1","","false","","1","false","false","false","true","false","false","[1]","010","111","0","","","","","","",""
"","","","","","image-keyboard-response","197","284050","0.0-172.0","5fc8a956800c80232e0b7a32","665500ab8938657b03fbdba8","66579243430fdfc33377c83a","487","stimuli/10101111.jpg"," ","","feedback_trial","1","","","","","","","","","","","","","","","","","","","","",""
"","","","","","image-keyboard-response","198","285689","0.0-173.0","5fc8a956800c80232e0b7a32","665500ab8938657b03fbdba8","66579243430fdfc33377c83a","1639","stimuli/2010000.jpg","2","","prediction_trial","2","","true","","2","true","true","true","true","true","true","[2]","010","000","1","","","","","","",""
"","","","","","image-keyboard-response","199","286144","0.0-174.0","5fc8a956800c80232e0b7a32","665500ab8938657b03fbdba8","66579243430fdfc33377c83a","454","stimuli/20100002.jpg"," ","","feedback_trial","2","","","","","","","","","","","","","","","","","","","","",""
"","","","","","image-keyboard-response","200","287281","0.0-175.0","5fc8a956800c80232e0b7a32","665500ab8938657b03fbdba8","66579243430fdfc33377c83a","1136","stimuli/0000101.jpg","0","","prediction_trial","0","","true","","0","false","false","true","true","false","false","[0]","000","101","1","","","","","","",""
"","","","","","image-keyboard-response","201","287667","0.0-176.0","5fc8a956800c80232e0b7a32","665500ab8938657b03fbdba8","66579243430fdfc33377c83a","385","stimuli/00001010.jpg"," ","","feedback_trial","0","","","","","","","","","","","","","","","","","","","","",""
"","","","","","image-keyboard-response","202","288914","0.0-177.0","5fc8a956800c80232e0b7a32","665500ab8938657b03fbdba8","66579243430fdfc33377c83a","1247","stimuli/1010101.jpg","1","","prediction_trial","1","","true","","1","true","true","false","true","false","true","[1]","010","101","1","","","","","","",""
"","","","","","image-keyboard-response","203","289272","0.0-178.0","5fc8a956800c80232e0b7a32","665500ab8938657b03fbdba8","66579243430fdfc33377c83a","357","stimuli/10101011.jpg"," ","","feedback_trial","1","","","","","","","","","","","","","","","","","","","","",""
"","","","","","image-keyboard-response","204","290204","0.0-179.0","5fc8a956800c80232e0b7a32","665500ab8938657b03fbdba8","66579243430fdfc33377c83a","932","stimuli/2100000.jpg","2","","prediction_trial","2","","true","","2","true","true","true","true","true","true","[2]","100","000","1","","","","","","",""
"","","","","","image-keyboard-response","205","290438","0.0-180.0","5fc8a956800c80232e0b7a32","665500ab8938657b03fbdba8","66579243430fdfc33377c83a","233","stimuli/21000002.jpg"," ","","feedback_trial","2","","","","","","","","","","","","","","","","","","","","",""
"","","","","","image-keyboard-response","206","290979","0.0-181.0","5fc8a956800c80232e0b7a32","665500ab8938657b03fbdba8","66579243430fdfc33377c83a","541","stimuli/0000001.jpg","0","","prediction_trial","0","","true","","0","true","true","true","true","true","true","[0]","000","001","1","","","","","","",""
"","","","","","image-keyboard-response","207","291144","0.0-182.0","5fc8a956800c80232e0b7a32","665500ab8938657b03fbdba8","66579243430fdfc33377c83a","165","stimuli/00000010.jpg"," ","","feedback_trial","0","","","","","","","","","","","","","","","","","","","","",""
"","","","","","image-keyboard-response","208","293371","0.0-183.0","5fc8a956800c80232e0b7a32","665500ab8938657b03fbdba8","66579243430fdfc33377c83a","2227","stimuli/0011111.jpg","1","","prediction_trial","0","","false","","0","false","false","true","true","false","false","[0]","011","111","0","","","","","","",""
"","","","","","image-keyboard-response","209","293798","0.0-184.0","5fc8a956800c80232e0b7a32","665500ab8938657b03fbdba8","66579243430fdfc33377c83a","427","stimuli/00111110.jpg"," ","","feedback_trial","0","","","","","","","","","","","","","","","","","","","","",""
"","","","","","image-keyboard-response","210","294780","0.0-185.0","5fc8a956800c80232e0b7a32","665500ab8938657b03fbdba8","66579243430fdfc33377c83a","968","stimuli/2111001.jpg","2","","prediction_trial","0","","false","","2","false","true","false","false","false","false","[0,2,1]","111","001","0","","","","","","",""
"","","","","","image-keyboard-response","211","295203","0.0-186.0","5fc8a956800c80232e0b7a32","665500ab8938657b03fbdba8","66579243430fdfc33377c83a","422","stimuli/21110010.jpg"," ","","feedback_trial","0","","","","","","","","","","","","","","","","","","","","",""
"","","","","","image-keyboard-response","212","296957","0.0-187.0","5fc8a956800c80232e0b7a32","665500ab8938657b03fbdba8","66579243430fdfc33377c83a","1754","stimuli/1011000.jpg","1","","prediction_trial","1","","true","","1","true","true","false","false","false","false","[1,2]","011","000","1","","","","","","",""
"","","","","","image-keyboard-response","213","297346","0.0-188.0","5fc8a956800c80232e0b7a32","665500ab8938657b03fbdba8","66579243430fdfc33377c83a","388","stimuli/10110001.jpg"," ","","feedback_trial","1","","","","","","","","","","","","","","","","","","","","",""
"","","","","","image-keyboard-response","214","298137","0.0-189.0","5fc8a956800c80232e0b7a32","665500ab8938657b03fbdba8","66579243430fdfc33377c83a","790","stimuli/1011001.jpg","1","","prediction_trial","2","","false","","1","true","true","false","false","false","false","[1,2]","011","001","0","","","","","","",""
"","","","","","image-keyboard-response","215","298607","0.0-190.0","5fc8a956800c80232e0b7a32","665500ab8938657b03fbdba8","66579243430fdfc33377c83a","469","stimuli/10110012.jpg"," ","","feedback_trial","1","","","","","","","","","","","","","","","","","","","","",""
"","","","","","image-keyboard-response","216","299825","0.0-191.0","5fc8a956800c80232e0b7a32","665500ab8938657b03fbdba8","66579243430fdfc33377c83a","1218","stimuli/2101000.jpg","2","","prediction_trial","0","","false","","2","true","true","false","false","false","false","[2,0]","101","000","0","","","","","","",""
"","","","","","image-keyboard-response","217","300198","0.0-192.0","5fc8a956800c80232e0b7a32","665500ab8938657b03fbdba8","66579243430fdfc33377c83a","373","stimuli/21010000.jpg"," ","","feedback_trial","2","","","","","","","","","","","","","","","","","","","","",""
"","","","","","image-keyboard-response","218","301187","0.0-193.0","5fc8a956800c80232e0b7a32","665500ab8938657b03fbdba8","66579243430fdfc33377c83a","976","stimuli/1010011.jpg","2","","prediction_trial","1","","false","","1","false","false","false","true","false","false","[1]","010","011","0","","","","","","",""
"","","","","","image-keyboard-response","219","301550","0.0-194.0","5fc8a956800c80232e0b7a32","665500ab8938657b03fbdba8","66579243430fdfc33377c83a","362","stimuli/10100111.jpg"," ","","feedback_trial","1","","","","","","","","","","","","","","","","","","","","",""
"","","","","","image-keyboard-response","220","302996","0.0-195.0","5fc8a956800c80232e0b7a32","665500ab8938657b03fbdba8","66579243430fdfc33377c83a","1446","stimuli/2001011.jpg","1","","prediction_trial","2","","false","","2","false","false","false","true","false","false","[2]","001","011","0","","","","","","",""
"","","","","","image-keyboard-response","221","303475","0.0-196.0","5fc8a956800c80232e0b7a32","665500ab8938657b03fbdba8","66579243430fdfc33377c83a","478","stimuli/20010112.jpg"," ","","feedback_trial","2","","","","","","","","","","","","","","","","","","","","",""
"","","","","","image-keyboard-response","222","304617","0.0-197.0","5fc8a956800c80232e0b7a32","665500ab8938657b03fbdba8","66579243430fdfc33377c83a","1142","stimuli/1110100.jpg","1","","prediction_trial","1","","true","","1","true","true","false","false","false","false","[1,0]","110","100","1","","","","","","",""
"","","","","","image-keyboard-response","223","304965","0.0-198.0","5fc8a956800c80232e0b7a32","665500ab8938657b03fbdba8","66579243430fdfc33377c83a","347","stimuli/11101001.jpg"," ","","feedback_trial","1","","","","","","","","","","","","","","","","","","","","",""
"","","","","","image-keyboard-response","224","305519","0.0-199.0","5fc8a956800c80232e0b7a32","665500ab8938657b03fbdba8","66579243430fdfc33377c83a","553","stimuli/1100100.jpg","1","","prediction_trial","1","","true","","1","true","true","true","true","true","true","[1]","100","100","1","","","","","","",""
"","","","","","image-keyboard-response","225","305775","0.0-200.0","5fc8a956800c80232e0b7a32","665500ab8938657b03fbdba8","66579243430fdfc33377c83a","255","stimuli/11001001.jpg"," ","","feedback_trial","1","","","","","","","","","","","","","","","","","","","","",""
"","","","","","image-keyboard-response","226","306371","0.0-201.0","5fc8a956800c80232e0b7a32","665500ab8938657b03fbdba8","66579243430fdfc33377c83a","596","stimuli/2000010.jpg","2","","prediction_trial","2","","true","","2","true","true","true","true","true","true","[2]","000","010","1","","","","","","",""
"","","","","","image-keyboard-response","227","306546","0.0-202.0","5fc8a956800c80232e0b7a32","665500ab8938657b03fbdba8","66579243430fdfc33377c83a","174","stimuli/20000102.jpg"," ","","feedback_trial","2","","","","","","","","","","","","","","","","","","","","",""
"","","","","","image-keyboard-response","228","307730","0.0-203.0","5fc8a956800c80232e0b7a32","665500ab8938657b03fbdba8","66579243430fdfc33377c83a","1183","stimuli/0111010.jpg","1","","prediction_trial","2","","false","","0","true","true","false","false","false","false","[1,0,2]","111","010","0","","","","","","",""
"","","","","","image-keyboard-response","229","308274","0.0-204.0","5fc8a956800c80232e0b7a32","665500ab8938657b03fbdba8","66579243430fdfc33377c83a","544","stimuli/01110102.jpg"," ","","feedback_trial","1","","","","","","","","","","","","","","","","","","","","",""
"","","","","","image-keyboard-response","230","309644","0.0-205.0","5fc8a956800c80232e0b7a32","665500ab8938657b03fbdba8","66579243430fdfc33377c83a","1370","stimuli/0111000.jpg","0","","prediction_trial","0","","true","","0","true","true","false","false","false","false","[1,2,0]","111","000","1","","","","","","",""
"","","","","","image-keyboard-response","231","310063","0.0-206.0","5fc8a956800c80232e0b7a32","665500ab8938657b03fbdba8","66579243430fdfc33377c83a","419","stimuli/01110000.jpg"," ","","feedback_trial","1","","","","","","","","","","","","","","","","","","","","",""
"","","","","","image-keyboard-response","232","310751","0.0-207.0","5fc8a956800c80232e0b7a32","665500ab8938657b03fbdba8","66579243430fdfc33377c83a","687","stimuli/2110000.jpg","2","","prediction_trial","2","","true","","2","true","true","true","true","true","true","[2]","110","000","1","","","","","","",""
"","","","","","image-keyboard-response","233","311101","0.0-208.0","5fc8a956800c80232e0b7a32","665500ab8938657b03fbdba8","66579243430fdfc33377c83a","350","stimuli/21100002.jpg"," ","","feedback_trial","2","","","","","","","","","","","","","","","","","","","","",""
"","","","","","image-keyboard-response","234","311906","0.0-209.0","5fc8a956800c80232e0b7a32","665500ab8938657b03fbdba8","66579243430fdfc33377c83a","804","stimuli/1010000.jpg","1","","prediction_trial","1","","true","","1","true","true","false","true","false","true","[1]","010","000","1","","","","","","",""
"","","","","","image-keyboard-response","235","312246","0.0-210.0","5fc8a956800c80232e0b7a32","665500ab8938657b03fbdba8","66579243430fdfc33377c83a","340","stimuli/10100001.jpg"," ","","feedback_trial","1","","","","","","","","","","","","","","","","","","","","",""
"","","","","","image-keyboard-response","236","313401","0.0-211.0","5fc8a956800c80232e0b7a32","665500ab8938657b03fbdba8","66579243430fdfc33377c83a","1142","stimuli/1010001.jpg","1","","prediction_trial","1","","true","","1","true","true","false","true","false","true","[1]","010","001","1","","","","","","",""
"","","","","","image-keyboard-response","237","313752","0.0-212.0","5fc8a956800c80232e0b7a32","665500ab8938657b03fbdba8","66579243430fdfc33377c83a","350","stimuli/10100011.jpg"," ","","feedback_trial","1","","","","","","","","","","","","","","","","","","","","",""
"","","","","","image-keyboard-response","238","315022","0.0-213.0","5fc8a956800c80232e0b7a32","665500ab8938657b03fbdba8","66579243430fdfc33377c83a","1269","stimuli/0011100.jpg","0","","prediction_trial","0","","true","","0","false","true","true","true","false","true","[0]","011","100","1","","","","","","",""
"","","","","","image-keyboard-response","239","315347","0.0-214.0","5fc8a956800c80232e0b7a32","665500ab8938657b03fbdba8","66579243430fdfc33377c83a","324","stimuli/00111000.jpg"," ","","feedback_trial","0","","","","","","","","","","","","","","","","","","","","",""
"","","","","","image-keyboard-response","240","317611","0.0-215.0","5fc8a956800c80232e0b7a32","665500ab8938657b03fbdba8","66579243430fdfc33377c83a","2264","stimuli/2011001.jpg","2","","prediction_trial","2","","true","","2","false","true","false","false","false","false","[1,2]","011","001","1","","","","","","",""
"","","","","","image-keyboard-response","241","318006","0.0-216.0","5fc8a956800c80232e0b7a32","665500ab8938657b03fbdba8","66579243430fdfc33377c83a","393","stimuli/20110012.jpg"," ","","feedback_trial","1","","","","","","","","","","","","","","","","","","","","",""
"","","","","","image-keyboard-response","242","319858","0.0-217.0","5fc8a956800c80232e0b7a32","665500ab8938657b03fbdba8","66579243430fdfc33377c83a","1851","stimuli/1001111.jpg","1","","prediction_trial","1","","true","","1","false","false","true","true","false","false","[1]","001","111","1","","","","","","",""
"","","","","","image-keyboard-response","243","320285","0.0-218.0","5fc8a956800c80232e0b7a32","665500ab8938657b03fbdba8","66579243430fdfc33377c83a","426","stimuli/10011111.jpg"," ","","feedback_trial","1","","","","","","","","","","","","","","","","","","","","",""
"","","","","","image-keyboard-response","244","321408","0.0-219.0","5fc8a956800c80232e0b7a32","665500ab8938657b03fbdba8","66579243430fdfc33377c83a","1123","stimuli/0010111.jpg","0","","prediction_trial","0","","true","","0","false","false","true","true","false","false","[0]","010","111","1","","","","","","",""
"","","","","","image-keyboard-response","245","321806","0.0-220.0","5fc8a956800c80232e0b7a32","665500ab8938657b03fbdba8","66579243430fdfc33377c83a","397","stimuli/00101110.jpg"," ","","feedback_trial","0","","","","","","","","","","","","","","","","","","","","",""
"","","","","","image-keyboard-response","246","322996","0.0-221.0","5fc8a956800c80232e0b7a32","665500ab8938657b03fbdba8","66579243430fdfc33377c83a","1190","stimuli/2001001.jpg","2","","prediction_trial","2","","true","","2","false","true","false","true","false","true","[2]","001","001","1","","","","","","",""
"","","","","","image-keyboard-response","247","323455","0.0-222.0","5fc8a956800c80232e0b7a32","665500ab8938657b03fbdba8","66579243430fdfc33377c83a","458","stimuli/20010012.jpg"," ","","feedback_trial","2","","","","","","","","","","","","","","","","","","","","",""
"","","","","","image-keyboard-response","248","324273","0.0-223.0","5fc8a956800c80232e0b7a32","665500ab8938657b03fbdba8","66579243430fdfc33377c83a","817","stimuli/0011010.jpg","0","","prediction_trial","0","","true","","0","true","true","true","true","true","true","[0]","011","010","1","","","","","","",""
"","","","","","image-keyboard-response","249","324557","0.0-224.0","5fc8a956800c80232e0b7a32","665500ab8938657b03fbdba8","66579243430fdfc33377c83a","284","stimuli/00110100.jpg"," ","","feedback_trial","0","","","","","","","","","","","","","","","","","","","","",""
"","","","","","image-keyboard-response","250","325741","0.0-225.0","5fc8a956800c80232e0b7a32","665500ab8938657b03fbdba8","66579243430fdfc33377c83a","1184","stimuli/2110111.jpg","0","","prediction_trial","2","","false","","2","false","false","true","true","false","false","[2]","110","111","0","","","","","","",""
"","","","","","image-keyboard-response","251","326149","0.0-226.0","5fc8a956800c80232e0b7a32","665500ab8938657b03fbdba8","66579243430fdfc33377c83a","407","stimuli/21101112.jpg"," ","","feedback_trial","2","","","","","","","","","","","","","","","","","","","","",""
"","","","","","image-keyboard-response","252","326753","0.0-227.0","5fc8a956800c80232e0b7a32","665500ab8938657b03fbdba8","66579243430fdfc33377c83a","603","stimuli/0010010.jpg","0","","prediction_trial","0","","true","","0","true","true","true","true","true","true","[0]","010","010","1","","","","","","",""
"","","","","","image-keyboard-response","253","327008","0.0-228.0","5fc8a956800c80232e0b7a32","665500ab8938657b03fbdba8","66579243430fdfc33377c83a","255","stimuli/00100100.jpg"," ","","feedback_trial","0","","","","","","","","","","","","","","","","","","","","",""
"","","","","","image-keyboard-response","254","327911","0.0-229.0","5fc8a956800c80232e0b7a32","665500ab8938657b03fbdba8","66579243430fdfc33377c83a","902","stimuli/2010001.jpg","2","","prediction_trial","2","","true","","2","false","true","true","true","false","true","[2]","010","001","1","","","","","","",""
"","","","","","image-keyboard-response","255","328257","0.0-230.0","5fc8a956800c80232e0b7a32","665500ab8938657b03fbdba8","66579243430fdfc33377c83a","346","stimuli/20100012.jpg"," ","","feedback_trial","2","","","","","","","","","","","","","","","","","","","","",""
"","","","","","image-keyboard-response","256","328988","0.0-231.0","5fc8a956800c80232e0b7a32","665500ab8938657b03fbdba8","66579243430fdfc33377c83a","730","stimuli/0000100.jpg","0","","prediction_trial","0","","true","","0","false","true","true","true","false","true","[0]","000","100","1","","","","","","",""
"","","","","","image-keyboard-response","257","329276","0.0-232.0","5fc8a956800c80232e0b7a32","665500ab8938657b03fbdba8","66579243430fdfc33377c83a","288","stimuli/00001000.jpg"," ","","feedback_trial","0","","","","","","","","","","","","","","","","","","","","",""
"","","","","","image-keyboard-response","258","329891","0.0-233.0","5fc8a956800c80232e0b7a32","665500ab8938657b03fbdba8","66579243430fdfc33377c83a","614","stimuli/1010100.jpg","1","","prediction_trial","1","","true","","1","true","true","false","true","false","true","[1]","010","100","1","","","","","","",""
"","","","","","image-keyboard-response","259","330277","0.0-234.0","5fc8a956800c80232e0b7a32","665500ab8938657b03fbdba8","66579243430fdfc33377c83a","386","stimuli/10101001.jpg"," ","","feedback_trial","1","","","","","","","","","","","","","","","","","","","","",""
"","","","","","image-keyboard-response","260","331643","0.0-235.0","5fc8a956800c80232e0b7a32","665500ab8938657b03fbdba8","66579243430fdfc33377c83a","1365","stimuli/0000110.jpg","0","","prediction_trial","0","","true","","0","false","false","true","true","false","false","[0]","000","110","1","","","","","","",""
"","","","","","image-keyboard-response","261","332054","0.0-236.0","5fc8a956800c80232e0b7a32","665500ab8938657b03fbdba8","66579243430fdfc33377c83a","411","stimuli/00001100.jpg"," ","","feedback_trial","0","","","","","","","","","","","","","","","","","","","","",""
"","","","","","image-keyboard-response","262","332929","0.0-237.0","5fc8a956800c80232e0b7a32","665500ab8938657b03fbdba8","66579243430fdfc33377c83a","862","stimuli/1011101.jpg","1","","prediction_trial","2","","false","","1","true","true","false","false","false","false","[2,1]","011","101","0","","","","","","",""
"","","","","","image-keyboard-response","263","333386","0.0-238.0","5fc8a956800c80232e0b7a32","665500ab8938657b03fbdba8","66579243430fdfc33377c83a","457","stimuli/10111012.jpg"," ","","feedback_trial","2","","","","","","","","","","","","","","","","","","","","",""
"","","","","","image-keyboard-response","264","334408","0.0-239.0","5fc8a956800c80232e0b7a32","665500ab8938657b03fbdba8","66579243430fdfc33377c83a","1021","stimuli/1110000.jpg","1","","prediction_trial","1","","true","","1","true","true","false","false","false","false","[1,0]","110","000","1","","","","","","",""
"","","","","","image-keyboard-response","265","334805","0.0-240.0","5fc8a956800c80232e0b7a32","665500ab8938657b03fbdba8","66579243430fdfc33377c83a","397","stimuli/11100001.jpg"," ","","feedback_trial","1","","","","","","","","","","","","","","","","","","","","",""
"","","","","","image-keyboard-response","266","336315","0.0-241.0","5fc8a956800c80232e0b7a32","665500ab8938657b03fbdba8","66579243430fdfc33377c83a","1510","stimuli/2010111.jpg","1","","prediction_trial","2","","false","","2","false","false","true","true","false","false","[2]","010","111","0","","","","","","",""
"","","","","","image-keyboard-response","267","336735","0.0-242.0","5fc8a956800c80232e0b7a32","665500ab8938657b03fbdba8","66579243430fdfc33377c83a","420","stimuli/20101112.jpg"," ","","feedback_trial","2","","","","","","","","","","","","","","","","","","","","",""
"","","","","","image-keyboard-response","268","337276","0.0-243.0","5fc8a956800c80232e0b7a32","665500ab8938657b03fbdba8","66579243430fdfc33377c83a","540","stimuli/2110110.jpg","2","","prediction_trial","2","","true","","2","true","true","true","true","true","true","[2]","110","110","1","","","","","","",""
"","","","","","image-keyboard-response","269","337570","0.0-244.0","5fc8a956800c80232e0b7a32","665500ab8938657b03fbdba8","66579243430fdfc33377c83a","294","stimuli/21101102.jpg"," ","","feedback_trial","2","","","","","","","","","","","","","","","","","","","","",""
"","","","","","image-keyboard-response","270","338612","0.0-245.0","5fc8a956800c80232e0b7a32","665500ab8938657b03fbdba8","66579243430fdfc33377c83a","1041","stimuli/1111110.jpg","0","","prediction_trial","1","","false","","1","false","false","false","false","false","false","[0,1,2]","111","110","0","","","","","","",""
"","","","","","image-keyboard-response","271","338991","0.0-246.0","5fc8a956800c80232e0b7a32","665500ab8938657b03fbdba8","66579243430fdfc33377c83a","378","stimuli/11111101.jpg"," ","","feedback_trial","0","","","","","","","","","","","","","","","","","","","","",""
"","","","","","image-keyboard-response","272","339888","0.0-247.0","5fc8a956800c80232e0b7a32","665500ab8938657b03fbdba8","66579243430fdfc33377c83a","897","stimuli/0100011.jpg","0","","prediction_trial","0","","true","","0","true","true","false","true","false","true","[0]","100","011","1","","","","","","",""
"","","","","","image-keyboard-response","273","340248","0.0-248.0","5fc8a956800c80232e0b7a32","665500ab8938657b03fbdba8","66579243430fdfc33377c83a","359","stimuli/01000110.jpg"," ","","feedback_trial","0","","","","","","","","","","","","","","","","","","","","",""
"","","","","","image-keyboard-response","274","342052","0.0-249.0","5fc8a956800c80232e0b7a32","665500ab8938657b03fbdba8","66579243430fdfc33377c83a","1804","stimuli/1010110.jpg","1","","prediction_trial","1","","true","","1","false","false","false","true","false","false","[1]","010","110","1","","","","","","",""
"","","","","","image-keyboard-response","275","342483","0.0-250.0","5fc8a956800c80232e0b7a32","665500ab8938657b03fbdba8","66579243430fdfc33377c83a","431","stimuli/10101101.jpg"," ","","feedback_trial","1","","","","","","","","","","","","","","","","","","","","",""
"","","","","","image-keyboard-response","276","343614","0.0-251.0","5fc8a956800c80232e0b7a32","665500ab8938657b03fbdba8","66579243430fdfc33377c83a","1130","stimuli/2011011.jpg","1","","prediction_trial","1","","true","","2","false","false","false","false","false","false","[1,2]","011","011","1","","","","","","",""
"","","","","","image-keyboard-response","277","344009","0.0-252.0","5fc8a956800c80232e0b7a32","665500ab8938657b03fbdba8","66579243430fdfc33377c83a","395","stimuli/20110111.jpg"," ","","feedback_trial","1","","","","","","","","","","","","","","","","","","","","",""
"","","","","","image-keyboard-response","278","345007","0.0-253.0","5fc8a956800c80232e0b7a32","665500ab8938657b03fbdba8","66579243430fdfc33377c83a","997","stimuli/2101101.jpg","0","","prediction_trial","0","","true","","2","false","false","false","false","false","false","[2,0]","101","101","1","","","","","","",""
"","","","","","image-keyboard-response","279","345483","0.0-254.0","5fc8a956800c80232e0b7a32","665500ab8938657b03fbdba8","66579243430fdfc33377c83a","476","stimuli/21011010.jpg"," ","","feedback_trial","2","","","","","","","","","","","","","","","","","","","","",""
"","","","","","image-keyboard-response","280","345990","0.0-255.0","5fc8a956800c80232e0b7a32","665500ab8938657b03fbdba8","66579243430fdfc33377c83a","506","stimuli/2010110.jpg","2","","prediction_trial","2","","true","","2","true","true","true","true","true","true","[2]","010","110","1","","","","","","",""
"","","","","","image-keyboard-response","281","346297","0.0-256.0","5fc8a956800c80232e0b7a32","665500ab8938657b03fbdba8","66579243430fdfc33377c83a","308","stimuli/20101102.jpg"," ","","feedback_trial","2","","","","","","","","","","","","","","","","","","","","",""
"","","","","","image-keyboard-response","282","346993","0.0-257.0","5fc8a956800c80232e0b7a32","665500ab8938657b03fbdba8","66579243430fdfc33377c83a","696","stimuli/2011000.jpg","2","","prediction_trial","1","","false","","2","true","true","false","false","false","false","[2,1]","011","000","0","","","","","","",""
"","","","","","image-keyboard-response","283","347560","0.0-258.0","5fc8a956800c80232e0b7a32","665500ab8938657b03fbdba8","66579243430fdfc33377c83a","566","stimuli/20110001.jpg"," ","","feedback_trial","2","","","","","","","","","","","","","","","","","","","","",""
"","","","","","image-keyboard-response","284","348362","0.0-259.0","5fc8a956800c80232e0b7a32","665500ab8938657b03fbdba8","66579243430fdfc33377c83a","801","stimuli/0110100.jpg","0","","prediction_trial","0","","true","","0","false","true","false","false","false","false","[1,0]","110","100","1","","","","","","",""
"","","","","","image-keyboard-response","285","348753","0.0-260.0","5fc8a956800c80232e0b7a32","665500ab8938657b03fbdba8","66579243430fdfc33377c83a","391","stimuli/01101000.jpg"," ","","feedback_trial","1","","","","","","","","","","","","","","","","","","","","",""
"","","","","","image-keyboard-response","286","349689","0.0-261.0","5fc8a956800c80232e0b7a32","665500ab8938657b03fbdba8","66579243430fdfc33377c83a","936","stimuli/1011010.jpg","1","","prediction_trial","2","","false","","1","false","true","false","false","false","false","[2,1]","011","010","0","","","","","","",""
"","","","","","image-keyboard-response","287","350108","0.0-262.0","5fc8a956800c80232e0b7a32","665500ab8938657b03fbdba8","66579243430fdfc33377c83a","418","stimuli/10110102.jpg"," ","","feedback_trial","2","","","","","","","","","","","","","","","","","","","","",""
"","","","","","image-keyboard-response","288","350865","0.0-263.0","5fc8a956800c80232e0b7a32","665500ab8938657b03fbdba8","66579243430fdfc33377c83a","756","stimuli/1110010.jpg","1","","prediction_trial","0","","false","","1","false","true","false","false","false","false","[0,1]","110","010","0","","","","","","",""
"","","","","","image-keyboard-response","289","351272","0.0-264.0","5fc8a956800c80232e0b7a32","665500ab8938657b03fbdba8","66579243430fdfc33377c83a","407","stimuli/11100100.jpg"," ","","feedback_trial","0","","","","","","","","","","","","","","","","","","","","",""
"","","","","","image-keyboard-response","290","353119","0.0-265.0","5fc8a956800c80232e0b7a32","665500ab8938657b03fbdba8","66579243430fdfc33377c83a","1847","stimuli/2101001.jpg","2","","prediction_trial","2","","true","","2","false","true","false","false","false","false","[0,2]","101","001","1","","","","","","",""
"","","","","","image-keyboard-response","291","353545","0.0-266.0","5fc8a956800c80232e0b7a32","665500ab8938657b03fbdba8","66579243430fdfc33377c83a","426","stimuli/21010012.jpg"," ","","feedback_trial","0","","","","","","","","","","","","","","","","","","","","",""
"","","","","","image-keyboard-response","292","355230","0.0-267.0","5fc8a956800c80232e0b7a32","665500ab8938657b03fbdba8","66579243430fdfc33377c83a","1684","stimuli/2101111.jpg","1","","prediction_trial","0","","false","","2","false","false","false","false","false","false","[2,0]","101","111","0","","","","","","",""
"","","","","","image-keyboard-response","293","355625","0.0-268.0","5fc8a956800c80232e0b7a32","665500ab8938657b03fbdba8","66579243430fdfc33377c83a","395","stimuli/21011110.jpg"," ","","feedback_trial","2","","","","","","","","","","","","","","","","","","","","",""
"","","","","","image-keyboard-response","294","356207","0.0-269.0","5fc8a956800c80232e0b7a32","665500ab8938657b03fbdba8","66579243430fdfc33377c83a","569","stimuli/2001110.jpg","2","","prediction_trial","2","","true","","2","true","true","false","true","false","true","[2]","001","110","1","","","","","","",""
"","","","","","image-keyboard-response","295","356601","0.0-270.0","5fc8a956800c80232e0b7a32","665500ab8938657b03fbdba8","66579243430fdfc33377c83a","393","stimuli/20011102.jpg"," ","","feedback_trial","2","","","","","","","","","","","","","","","","","","","","",""
"","","","","","image-keyboard-response","296","358661","0.0-271.0","5fc8a956800c80232e0b7a32","665500ab8938657b03fbdba8","66579243430fdfc33377c83a","2059","stimuli/0000111.jpg","0","","prediction_trial","0","","true","","0","false","false","true","true","false","false","[0]","000","111","1","","","","","","",""
"","","","","","image-keyboard-response","297","359169","0.0-272.0","5fc8a956800c80232e0b7a32","665500ab8938657b03fbdba8","66579243430fdfc33377c83a","508","stimuli/00001110.jpg"," ","","feedback_trial","0","","","","","","","","","","","","","","","","","","","","",""
"","","","","","image-keyboard-response","298","359845","0.0-273.0","5fc8a956800c80232e0b7a32","665500ab8938657b03fbdba8","66579243430fdfc33377c83a","675","stimuli/1011111.jpg","0","","prediction_trial","2","","false","","1","false","false","false","false","false","false","[2,1]","011","111","0","","","","","","",""
"","","","","","image-keyboard-response","299","360274","0.0-274.0","5fc8a956800c80232e0b7a32","665500ab8938657b03fbdba8","66579243430fdfc33377c83a","428","stimuli/10111112.jpg"," ","","feedback_trial","2","","","","","","","","","","","","","","","","","","","","",""
"","","","","","image-keyboard-response","300","361072","0.0-275.0","5fc8a956800c80232e0b7a32","665500ab8938657b03fbdba8","66579243430fdfc33377c83a","797","stimuli/1111010.jpg","1","","prediction_trial","1","","true","","1","false","true","false","false","false","false","[0,1,2]","111","010","1","","","","","","",""
"","","","","","image-keyboard-response","301","361461","0.0-276.0","5fc8a956800c80232e0b7a32","665500ab8938657b03fbdba8","66579243430fdfc33377c83a","389","stimuli/11110101.jpg"," ","","feedback_trial","0","","","","","","","","","","","","","","","","","","","","",""
"","","","","","image-keyboard-response","302","362474","0.0-277.0","5fc8a956800c80232e0b7a32","665500ab8938657b03fbdba8","66579243430fdfc33377c83a","1013","stimuli/0100101.jpg","0","","prediction_trial","0","","true","","0","false","false","false","true","false","false","[0]","100","101","1","","","","","","",""
"","","","","","image-keyboard-response","303","362815","0.0-278.0","5fc8a956800c80232e0b7a32","665500ab8938657b03fbdba8","66579243430fdfc33377c83a","340","stimuli/01001010.jpg"," ","","feedback_trial","0","","","","","","","","","","","","","","","","","","","","",""
"","","","","","image-keyboard-response","304","363613","0.0-279.0","5fc8a956800c80232e0b7a32","665500ab8938657b03fbdba8","66579243430fdfc33377c83a","797","stimuli/2100100.jpg","2","","prediction_trial","2","","true","","2","true","true","true","true","true","true","[2]","100","100","1","","","","","","",""
"","","","","","image-keyboard-response","305","363861","0.0-280.0","5fc8a956800c80232e0b7a32","665500ab8938657b03fbdba8","66579243430fdfc33377c83a","248","stimuli/21001002.jpg"," ","","feedback_trial","2","","","","","","","","","","","","","","","","","","","","",""
"","","","","","image-keyboard-response","306","364474","0.0-281.0","5fc8a956800c80232e0b7a32","665500ab8938657b03fbdba8","66579243430fdfc33377c83a","613","stimuli/2000000.jpg","2","","prediction_trial","2","","true","","2","true","true","true","true","true","true","[2]","000","000","1","","","","","","",""
"","","","","","image-keyboard-response","307","364627","0.0-282.0","5fc8a956800c80232e0b7a32","665500ab8938657b03fbdba8","66579243430fdfc33377c83a","152","stimuli/20000002.jpg"," ","","feedback_trial","2","","","","","","","","","","","","","","","","","","","","",""
"","","","","","image-keyboard-response","308","365468","0.0-283.0","5fc8a956800c80232e0b7a32","665500ab8938657b03fbdba8","66579243430fdfc33377c83a","840","stimuli/1101011.jpg","1","","prediction_trial","1","","true","","1","false","false","true","true","false","false","[1]","101","011","1","","","","","","",""
"","","","","","image-keyboard-response","309","365836","0.0-284.0","5fc8a956800c80232e0b7a32","665500ab8938657b03fbdba8","66579243430fdfc33377c83a","367","stimuli/11010111.jpg"," ","","feedback_trial","1","","","","","","","","","","","","","","","","","","","","",""
"","","","","","image-keyboard-response","310","367651","0.0-285.0","5fc8a956800c80232e0b7a32","665500ab8938657b03fbdba8","66579243430fdfc33377c83a","1815","stimuli/0111110.jpg","1","","prediction_trial","1","","true","","0","false","false","false","false","false","false","[2,1,0]","111","110","1","","","","","","",""
"","","","","","image-keyboard-response","311","368041","0.0-286.0","5fc8a956800c80232e0b7a32","665500ab8938657b03fbdba8","66579243430fdfc33377c83a","389","stimuli/01111101.jpg"," ","","feedback_trial","2","","","","","","","","","","","","","","","","","","","","",""
"","","","","","image-keyboard-response","312","368901","0.0-287.0","5fc8a956800c80232e0b7a32","665500ab8938657b03fbdba8","66579243430fdfc33377c83a","845","stimuli/1100101.jpg","1","","prediction_trial","1","","true","","1","true","true","true","true","true","true","[1]","100","101","1","","","","","","",""
"","","","","","image-keyboard-response","313","369298","0.0-288.0","5fc8a956800c80232e0b7a32","665500ab8938657b03fbdba8","66579243430fdfc33377c83a","397","stimuli/11001011.jpg"," ","","feedback_trial","1","","","","","","","","","","","","","","","","","","","","",""
"","","","","","image-keyboard-response","314","369921","0.0-289.0","5fc8a956800c80232e0b7a32","665500ab8938657b03fbdba8","66579243430fdfc33377c83a","622","stimuli/0000010.jpg","0","","prediction_trial","0","","true","","0","true","true","true","true","true","true","[0]","000","010","1","","","","","","",""
"","","","","","image-keyboard-response","315","370166","0.0-290.0","5fc8a956800c80232e0b7a32","665500ab8938657b03fbdba8","66579243430fdfc33377c83a","244","stimuli/00000100.jpg"," ","","feedback_trial","0","","","","","","","","","","","","","","","","","","","","",""
"","","","","","image-keyboard-response","316","370957","0.0-291.0","5fc8a956800c80232e0b7a32","665500ab8938657b03fbdba8","66579243430fdfc33377c83a","777","stimuli/0010001.jpg","0","","prediction_trial","0","","true","","0","true","true","true","true","true","true","[0]","010","001","1","","","","","","",""
"","","","","","image-keyboard-response","317","371126","0.0-292.0","5fc8a956800c80232e0b7a32","665500ab8938657b03fbdba8","66579243430fdfc33377c83a","169","stimuli/00100010.jpg"," ","","feedback_trial","0","","","","","","","","","","","","","","","","","","","","",""
"","","","","","survey-html-form","318","420756","0.0-293.0","5fc8a956800c80232e0b7a32","665500ab8938657b03fbdba8","66579243430fdfc33377c83a","49627","","{""feedback"":""I just guessed on the trials where I couldn't see where the ball was, and then tried to imagine myself as Sam, and chose the one I felt was correct."",""age"":""29"",""gender"":""Female"",""other_gender"":"""",""race"":""Asian"",""other_race"":"""",""ethnicity"":""Non-Hispanic""}","","exit_survey","","","","","","","","","","","","","","","","I just guessed on the trials where I couldn't see where the ball was, and then tried to imagine myself as Sam, and chose the one I felt was correct.","29","Non-Hispanic","Female","Asian","0.6597222222222222","0.6597222222222222"
