"success","timeout","failed_images","failed_audio","failed_video","trial_type","trial_index","time_elapsed","internal_node_id","prolific_id","prolific_study_id","prolific_session_id","rt","stimulus","response","view_history","trial","character_choice","stimulus_dict","accuracy","correct_response","ball_pos","ego_ball_visible","ego_can_infer","alter_ball_visible","alter_can_infer","collective_ball_visible","collective_can_infer","search_locations","alter_occluders","ego_occluders","accuracy_bool","feedback","age","ethnicity","gender","race","overall_accuracy","bonus"
"true","false","[]","[]","[]","preload","0","1344","0.0-0.0","61003bb158741c6a1d79903b","665500ab8938657b03fbdba8","6657932507def77763fb3f0f","","","","","","","","","","","","","","","","","","","","","","","","","","",""
"true","","","","","fullscreen","1","5163","0.0-1.0","61003bb158741c6a1d79903b","665500ab8938657b03fbdba8","6657932507def77763fb3f0f","","","","","","","","","","","","","","","","","","","","","","","","","","",""
"","","","","","html-button-response","2","7934","0.0-2.0","61003bb158741c6a1d79903b","665500ab8938657b03fbdba8","6657932507def77763fb3f0f","2766","<p><b>Consent Form</b></p> <div style=""text-align:left;background-color:lightgrey; padding:20px; max-width:900px;""><p>Please consider this information carefully before deciding whether to participate in this research.</p> <p>The purpose of this research is to examine which factors influence social judgment and decision-making. You will be asked to make judgements about individuals and actions in social scenarios. We are simply interested in your judgement. The study will take less than 1 hour to complete, and you will receive less than $20 on Prolific. Your compensation and time commitment are specified in the study description. There are no anticipated risks associated with participating in this study. The effects of participating should be comparable to those you would ordinarily experience from viewing a computer monitor and using a mouse or keyboard for a similar amount of time. At the end of the study, we will provide an explanation of the questions that motivate this line of research and will describe the potential implications. </p><p> Your participation in this study is completely voluntary and you may refuse to participate or you may choose to withdraw at any time without penalty or loss of benefits to you which are otherwise entitled. Your participation in this study will remain confidential. No personally identifiable information will be associated with your data. Also, all analyses of the data will be averaged across all the participants, so your individual responses will never be specifically analyzed. </p><p> If you have questions or concerns about your participation or payment, or want to request a summary of research findings, please contact Dr. Jonathan Phillips at Jonathan.S.Phillips@dartmouth.edu. </p><p> Please save a copy of this form for your records. </p><p><b>Agreement: </b>The nature and purpose of this research have been sufficiently explained and I agree to participate in this study. I understand that I am free to withdraw at any time without incurring any penalty. Please consent by clicking the button below to continue. Otherwise, please exit the study at any time. </p>","0","","","","","","","","","","","","","","","","","","","","","","","",""
"","","","","","instructions","3","131310","0.0-3.0-0.0","61003bb158741c6a1d79903b","665500ab8938657b03fbdba8","6657932507def77763fb3f0f","123374","","","[{""page_index"":0,""viewing_time"":2886},{""page_index"":1,""viewing_time"":2543},{""page_index"":2,""viewing_time"":9090},{""page_index"":3,""viewing_time"":4452},{""page_index"":4,""viewing_time"":5952},{""page_index"":5,""viewing_time"":4956},{""page_index"":6,""viewing_time"":5716},{""page_index"":7,""viewing_time"":5336},{""page_index"":8,""viewing_time"":8380},{""page_index"":9,""viewing_time"":4435},{""page_index"":10,""viewing_time"":44858},{""page_index"":11,""viewing_time"":13714},{""page_index"":12,""viewing_time"":6064},{""page_index"":13,""viewing_time"":4992}]","intro","","","","","","","","","","","","","","","","","","","","","",""
"","","","","","image-keyboard-response","4","135422","0.0-3.0-1.0","61003bb158741c6a1d79903b","665500ab8938657b03fbdba8","6657932507def77763fb3f0f","4073","stimuli/1000100.jpg","2","","prediction_practice","1","{""filepath"":""stimuli/1000100.jpg"",""ball_pos"":1,""ego_ball_visible"":true,""ego_can_infer"":true,""alter_ball_visible"":true,""alter_can_infer"":true,""collective_ball_visible"":true,""collective_can_infer"":true,""search_locations"":[1],""alter_occluders"":""000"",""ego_occluders"":""100""}","false","","","","","","","","","","","","","","","","","","",""
"","","","","","image-keyboard-response","5","142421","0.0-3.0-2.0","61003bb158741c6a1d79903b","665500ab8938657b03fbdba8","6657932507def77763fb3f0f","6995","stimuli/10001001.jpg"," ","","practrice_feedback","1","","","","","","","","","","","","","","","","","","","","",""
"","","","","","image-keyboard-response","6","144991","0.0-3.0-3.0","61003bb158741c6a1d79903b","665500ab8938657b03fbdba8","6657932507def77763fb3f0f","2568","stimuli/1011110.jpg","1","","prediction_practice","1","{""filepath"":""stimuli/1011110.jpg"",""ball_pos"":1,""ego_ball_visible"":false,""ego_can_infer"":false,""alter_ball_visible"":false,""alter_can_infer"":false,""collective_ball_visible"":false,""collective_can_infer"":false,""search_locations"":[2,1],""alter_occluders"":""011"",""ego_occluders"":""110""}","true","","","","","","","","","","","","","","","","","","",""
"","","","","","image-keyboard-response","7","146710","0.0-3.0-4.0","61003bb158741c6a1d79903b","665500ab8938657b03fbdba8","6657932507def77763fb3f0f","1717","stimuli/10111101.jpg"," ","","practrice_feedback","2","","","","","","","","","","","","","","","","","","","","",""
"","","","","","image-keyboard-response","8","148331","0.0-3.0-5.0","61003bb158741c6a1d79903b","665500ab8938657b03fbdba8","6657932507def77763fb3f0f","1619","stimuli/2110000.jpg","2","","prediction_practice","2","{""filepath"":""stimuli/2110000.jpg"",""ball_pos"":2,""ego_ball_visible"":true,""ego_can_infer"":true,""alter_ball_visible"":true,""alter_can_infer"":true,""collective_ball_visible"":true,""collective_can_infer"":true,""search_locations"":[2],""alter_occluders"":""110"",""ego_occluders"":""000""}","true","","","","","","","","","","","","","","","","","","",""
"","","","","","image-keyboard-response","9","149790","0.0-3.0-6.0","61003bb158741c6a1d79903b","665500ab8938657b03fbdba8","6657932507def77763fb3f0f","1457","stimuli/21100002.jpg"," ","","practrice_feedback","2","","","","","","","","","","","","","","","","","","","","",""
"","","","","","image-keyboard-response","10","151620","0.0-3.0-7.0","61003bb158741c6a1d79903b","665500ab8938657b03fbdba8","6657932507def77763fb3f0f","1828","stimuli/1000000.jpg","1","","prediction_practice","1","{""filepath"":""stimuli/1000000.jpg"",""ball_pos"":1,""ego_ball_visible"":true,""ego_can_infer"":true,""alter_ball_visible"":true,""alter_can_infer"":true,""collective_ball_visible"":true,""collective_can_infer"":true,""search_locations"":[1],""alter_occluders"":""000"",""ego_occluders"":""000""}","true","","","","","","","","","","","","","","","","","","",""
"","","","","","image-keyboard-response","11","152050","0.0-3.0-8.0","61003bb158741c6a1d79903b","665500ab8938657b03fbdba8","6657932507def77763fb3f0f","428","stimuli/10000001.jpg"," ","","practrice_feedback","1","","","","","","","","","","","","","","","","","","","","",""
"","","","","","image-keyboard-response","12","153281","0.0-3.0-9.0","61003bb158741c6a1d79903b","665500ab8938657b03fbdba8","6657932507def77763fb3f0f","1219","stimuli/0111110.jpg","1","","prediction_practice","1","{""filepath"":""stimuli/0111110.jpg"",""ball_pos"":0,""ego_ball_visible"":false,""ego_can_infer"":false,""alter_ball_visible"":false,""alter_can_infer"":false,""collective_ball_visible"":false,""collective_can_infer"":false,""search_locations"":[1,0,2],""alter_occluders"":""111"",""ego_occluders"":""110""}","true","","","","","","","","","","","","","","","","","","",""
"","","","","","image-keyboard-response","13","153500","0.0-3.0-10.0","61003bb158741c6a1d79903b","665500ab8938657b03fbdba8","6657932507def77763fb3f0f","217","stimuli/01111101.jpg"," ","","practrice_feedback","1","","","","","","","","","","","","","","","","","","","","",""
"","","","","","image-keyboard-response","14","156220","0.0-3.0-11.0","61003bb158741c6a1d79903b","665500ab8938657b03fbdba8","6657932507def77763fb3f0f","2718","stimuli/2000011.jpg","2","","prediction_practice","2","{""filepath"":""stimuli/2000011.jpg"",""ball_pos"":2,""ego_ball_visible"":false,""ego_can_infer"":false,""alter_ball_visible"":true,""alter_can_infer"":true,""collective_ball_visible"":false,""collective_can_infer"":false,""search_locations"":[2],""alter_occluders"":""000"",""ego_occluders"":""011""}","true","","","","","","","","","","","","","","","","","","",""
"","","","","","image-keyboard-response","15","156430","0.0-3.0-12.0","61003bb158741c6a1d79903b","665500ab8938657b03fbdba8","6657932507def77763fb3f0f","208","stimuli/20000112.jpg"," ","","practrice_feedback","2","","","","","","","","","","","","","","","","","","","","",""
"","","","","","image-keyboard-response","16","158930","0.0-3.0-13.0","61003bb158741c6a1d79903b","665500ab8938657b03fbdba8","6657932507def77763fb3f0f","2498","stimuli/0111011.jpg","0","","prediction_practice","0","{""filepath"":""stimuli/0111011.jpg"",""ball_pos"":0,""ego_ball_visible"":true,""ego_can_infer"":true,""alter_ball_visible"":false,""alter_can_infer"":false,""collective_ball_visible"":false,""collective_can_infer"":false,""search_locations"":[1,2,0],""alter_occluders"":""111"",""ego_occluders"":""011""}","true","","","","","","","","","","","","","","","","","","",""
"","","","","","image-keyboard-response","17","159130","0.0-3.0-14.0","61003bb158741c6a1d79903b","665500ab8938657b03fbdba8","6657932507def77763fb3f0f","198","stimuli/01110110.jpg"," ","","practrice_feedback","1","","","","","","","","","","","","","","","","","","","","",""
"","","","","","image-keyboard-response","18","161241","0.0-3.0-15.0","61003bb158741c6a1d79903b","665500ab8938657b03fbdba8","6657932507def77763fb3f0f","2109","stimuli/1010111.jpg","1","","prediction_practice","1","{""filepath"":""stimuli/1010111.jpg"",""ball_pos"":1,""ego_ball_visible"":false,""ego_can_infer"":false,""alter_ball_visible"":false,""alter_can_infer"":true,""collective_ball_visible"":false,""collective_can_infer"":false,""search_locations"":[1],""alter_occluders"":""010"",""ego_occluders"":""111""}","true","","","","","","","","","","","","","","","","","","",""
"","","","","","image-keyboard-response","19","163011","0.0-3.0-16.0","61003bb158741c6a1d79903b","665500ab8938657b03fbdba8","6657932507def77763fb3f0f","1767","stimuli/10101111.jpg"," ","","practrice_feedback","1","","","","","","","","","","","","","","","","","","","","",""
"","","","","","image-keyboard-response","20","165899","0.0-3.0-17.0","61003bb158741c6a1d79903b","665500ab8938657b03fbdba8","6657932507def77763fb3f0f","2887","stimuli/0010101.jpg","2","","prediction_practice","0","{""filepath"":""stimuli/0010101.jpg"",""ball_pos"":0,""ego_ball_visible"":false,""ego_can_infer"":false,""alter_ball_visible"":true,""alter_can_infer"":true,""collective_ball_visible"":false,""collective_can_infer"":false,""search_locations"":[0],""alter_occluders"":""010"",""ego_occluders"":""101""}","false","","","","","","","","","","","","","","","","","","",""
"","","","","","image-keyboard-response","21","167501","0.0-3.0-18.0","61003bb158741c6a1d79903b","665500ab8938657b03fbdba8","6657932507def77763fb3f0f","1600","stimuli/00101010.jpg"," ","","practrice_feedback","0","","","","","","","","","","","","","","","","","","","","",""
"","","","","","image-keyboard-response","22","169051","0.0-3.0-19.0","61003bb158741c6a1d79903b","665500ab8938657b03fbdba8","6657932507def77763fb3f0f","1548","stimuli/0001010.jpg","0","","prediction_practice","0","{""filepath"":""stimuli/0001010.jpg"",""ball_pos"":0,""ego_ball_visible"":true,""ego_can_infer"":true,""alter_ball_visible"":true,""alter_can_infer"":true,""collective_ball_visible"":true,""collective_can_infer"":true,""search_locations"":[0],""alter_occluders"":""001"",""ego_occluders"":""010""}","true","","","","","","","","","","","","","","","","","","",""
"","","","","","image-keyboard-response","23","170130","0.0-3.0-20.0","61003bb158741c6a1d79903b","665500ab8938657b03fbdba8","6657932507def77763fb3f0f","1077","stimuli/00010100.jpg"," ","","practrice_feedback","0","","","","","","","","","","","","","","","","","","","","",""
"","","","","","html-button-response","24","176303","0.0-3.0-21.0","61003bb158741c6a1d79903b","665500ab8938657b03fbdba8","6657932507def77763fb3f0f","6171","Now that you've had some practice, you'll be tested with a couple of easy trials. If you correctly predict Sam's choice, you'll move on to complete the experiment!","0","","","","","","","","","","","","","","","","","","","","","","","",""
"","","","","","image-keyboard-response","25","178850","0.0-3.0-22.0-0.0","61003bb158741c6a1d79903b","665500ab8938657b03fbdba8","6657932507def77763fb3f0f","2545","stimuli/0000011.jpg","arrowleft","","comprehension_quiz","","","true","arrowleft","","","","","","","","","","","","","","","","","",""
"","","","","","image-keyboard-response","26","179811","0.0-3.0-22.0-1.0","61003bb158741c6a1d79903b","665500ab8938657b03fbdba8","6657932507def77763fb3f0f","959","stimuli/00000110.jpg"," ","","comprehension_quiz","","","true"," ","","","","","","","","","","","","","","","","","",""
"","","","","","image-keyboard-response","27","182640","0.0-3.0-22.0-2.0","61003bb158741c6a1d79903b","665500ab8938657b03fbdba8","6657932507def77763fb3f0f","2828","stimuli/1010010.jpg","arrowdown","","comprehension_quiz","","","true","arrowdown","","","","","","","","","","","","","","","","","",""
"","","","","","image-keyboard-response","28","182950","0.0-3.0-22.0-3.0","61003bb158741c6a1d79903b","665500ab8938657b03fbdba8","6657932507def77763fb3f0f","307","stimuli/10100101.jpg"," ","","comprehension_quiz","","","true"," ","","","","","","","","","","","","","","","","","",""
"","","","","","html-button-response","29","185008","0.0-4.0","61003bb158741c6a1d79903b","665500ab8938657b03fbdba8","6657932507def77763fb3f0f","2054","The experiment will now begin.","0","","","","","","","","","","","","","","","","","","","","","","","",""
"","","","","","image-keyboard-response","30","186420","0.0-5.0","61003bb158741c6a1d79903b","665500ab8938657b03fbdba8","6657932507def77763fb3f0f","1410","stimuli/2110001.jpg","2","","prediction_trial","2","","true","","2","false","true","true","true","false","true","[2]","110","001","1","","","","","","",""
"","","","","","image-keyboard-response","31","187620","0.0-6.0","61003bb158741c6a1d79903b","665500ab8938657b03fbdba8","6657932507def77763fb3f0f","1197","stimuli/21100012.jpg"," ","","feedback_trial","2","","","","","","","","","","","","","","","","","","","","",""
"","","","","","image-keyboard-response","32","188990","0.0-7.0","61003bb158741c6a1d79903b","665500ab8938657b03fbdba8","6657932507def77763fb3f0f","1360","stimuli/1010000.jpg","0","","prediction_trial","1","","false","","1","true","true","false","true","false","true","[1]","010","000","0","","","","","","",""
"","","","","","image-keyboard-response","33","190430","0.0-8.0","61003bb158741c6a1d79903b","665500ab8938657b03fbdba8","6657932507def77763fb3f0f","1437","stimuli/10100001.jpg"," ","","feedback_trial","1","","","","","","","","","","","","","","","","","","","","",""
"","","","","","image-keyboard-response","34","191669","0.0-9.0","61003bb158741c6a1d79903b","665500ab8938657b03fbdba8","6657932507def77763fb3f0f","1238","stimuli/1101101.jpg","1","","prediction_trial","1","","true","","1","true","true","true","true","true","true","[1]","101","101","1","","","","","","",""
"","","","","","image-keyboard-response","35","191909","0.0-10.0","61003bb158741c6a1d79903b","665500ab8938657b03fbdba8","6657932507def77763fb3f0f","238","stimuli/11011011.jpg"," ","","feedback_trial","1","","","","","","","","","","","","","","","","","","","","",""
"","","","","","image-keyboard-response","36","192930","0.0-11.0","61003bb158741c6a1d79903b","665500ab8938657b03fbdba8","6657932507def77763fb3f0f","1018","stimuli/0011001.jpg","0","","prediction_trial","0","","true","","0","true","true","true","true","true","true","[0]","011","001","1","","","","","","",""
"","","","","","image-keyboard-response","37","193290","0.0-12.0","61003bb158741c6a1d79903b","665500ab8938657b03fbdba8","6657932507def77763fb3f0f","358","stimuli/00110010.jpg"," ","","feedback_trial","0","","","","","","","","","","","","","","","","","","","","",""
"","","","","","image-keyboard-response","38","194459","0.0-13.0","61003bb158741c6a1d79903b","665500ab8938657b03fbdba8","6657932507def77763fb3f0f","1168","stimuli/1100100.jpg","2","","prediction_trial","1","","false","","1","true","true","true","true","true","true","[1]","100","100","0","","","","","","",""
"","","","","","image-keyboard-response","39","197240","0.0-14.0","61003bb158741c6a1d79903b","665500ab8938657b03fbdba8","6657932507def77763fb3f0f","2779","stimuli/11001001.jpg"," ","","feedback_trial","1","","","","","","","","","","","","","","","","","","","","",""
"","","","","","image-keyboard-response","40","198609","0.0-15.0","61003bb158741c6a1d79903b","665500ab8938657b03fbdba8","6657932507def77763fb3f0f","1367","stimuli/2000010.jpg","2","","prediction_trial","2","","true","","2","true","true","true","true","true","true","[2]","000","010","1","","","","","","",""
"","","","","","image-keyboard-response","41","199540","0.0-16.0","61003bb158741c6a1d79903b","665500ab8938657b03fbdba8","6657932507def77763fb3f0f","927","stimuli/20000102.jpg"," ","","feedback_trial","2","","","","","","","","","","","","","","","","","","","","",""
"","","","","","image-keyboard-response","42","202949","0.0-17.0","61003bb158741c6a1d79903b","665500ab8938657b03fbdba8","6657932507def77763fb3f0f","3408","stimuli/2100001.jpg","2","","prediction_trial","2","","true","","2","false","true","true","true","false","true","[2]","100","001","1","","","","","","",""
"","","","","","image-keyboard-response","43","204080","0.0-18.0","61003bb158741c6a1d79903b","665500ab8938657b03fbdba8","6657932507def77763fb3f0f","1128","stimuli/21000012.jpg"," ","","feedback_trial","2","","","","","","","","","","","","","","","","","","","","",""
"","","","","","image-keyboard-response","44","206049","0.0-19.0","61003bb158741c6a1d79903b","665500ab8938657b03fbdba8","6657932507def77763fb3f0f","1968","stimuli/1100110.jpg","0","","prediction_trial","1","","false","","1","false","false","true","true","false","false","[1]","100","110","0","","","","","","",""
"","","","","","image-keyboard-response","45","207470","0.0-20.0","61003bb158741c6a1d79903b","665500ab8938657b03fbdba8","6657932507def77763fb3f0f","1418","stimuli/11001101.jpg"," ","","feedback_trial","1","","","","","","","","","","","","","","","","","","","","",""
"","","","","","image-keyboard-response","46","213769","0.0-21.0","61003bb158741c6a1d79903b","665500ab8938657b03fbdba8","6657932507def77763fb3f0f","6297","stimuli/1000111.jpg","1","","prediction_trial","1","","true","","1","false","false","true","true","false","false","[1]","000","111","1","","","","","","",""
"","","","","","image-keyboard-response","47","214440","0.0-22.0","61003bb158741c6a1d79903b","665500ab8938657b03fbdba8","6657932507def77763fb3f0f","668","stimuli/10001111.jpg"," ","","feedback_trial","1","","","","","","","","","","","","","","","","","","","","",""
"","","","","","image-keyboard-response","48","216129","0.0-23.0","61003bb158741c6a1d79903b","665500ab8938657b03fbdba8","6657932507def77763fb3f0f","1687","stimuli/2001001.jpg","2","","prediction_trial","2","","true","","2","false","true","false","true","false","true","[2]","001","001","1","","","","","","",""
"","","","","","image-keyboard-response","49","217500","0.0-24.0","61003bb158741c6a1d79903b","665500ab8938657b03fbdba8","6657932507def77763fb3f0f","1368","stimuli/20010012.jpg"," ","","feedback_trial","2","","","","","","","","","","","","","","","","","","","","",""
"","","","","","image-keyboard-response","50","220389","0.0-25.0","61003bb158741c6a1d79903b","665500ab8938657b03fbdba8","6657932507def77763fb3f0f","2887","stimuli/0101100.jpg","0","","prediction_trial","2","","false","","0","false","true","false","false","false","false","[0,2]","101","100","0","","","","","","",""
"","","","","","image-keyboard-response","51","225470","0.0-26.0","61003bb158741c6a1d79903b","665500ab8938657b03fbdba8","6657932507def77763fb3f0f","5078","stimuli/01011002.jpg"," ","","feedback_trial","0","","","","","","","","","","","","","","","","","","","","",""
"","","","","","image-keyboard-response","52","227029","0.0-27.0","61003bb158741c6a1d79903b","665500ab8938657b03fbdba8","6657932507def77763fb3f0f","1557","stimuli/1011001.jpg","0","","prediction_trial","1","","false","","1","true","true","false","false","false","false","[1,2]","011","001","0","","","","","","",""
"","","","","","image-keyboard-response","53","229670","0.0-28.0","61003bb158741c6a1d79903b","665500ab8938657b03fbdba8","6657932507def77763fb3f0f","2639","stimuli/10110011.jpg"," ","","feedback_trial","1","","","","","","","","","","","","","","","","","","","","",""
"","","","","","image-keyboard-response","54","234509","0.0-29.0","61003bb158741c6a1d79903b","665500ab8938657b03fbdba8","6657932507def77763fb3f0f","4837","stimuli/2100011.jpg","2","","prediction_trial","2","","true","","2","false","false","true","true","false","false","[2]","100","011","1","","","","","","",""
"","","","","","image-keyboard-response","55","235239","0.0-30.0","61003bb158741c6a1d79903b","665500ab8938657b03fbdba8","6657932507def77763fb3f0f","728","stimuli/21000112.jpg"," ","","feedback_trial","2","","","","","","","","","","","","","","","","","","","","",""
"","","","","","image-keyboard-response","56","236619","0.0-31.0","61003bb158741c6a1d79903b","665500ab8938657b03fbdba8","6657932507def77763fb3f0f","1378","stimuli/1110010.jpg","1","","prediction_trial","0","","false","","1","false","true","false","false","false","false","[0,1]","110","010","0","","","","","","",""
"","","","","","image-keyboard-response","57","236850","0.0-32.0","61003bb158741c6a1d79903b","665500ab8938657b03fbdba8","6657932507def77763fb3f0f","228","stimuli/11100100.jpg"," ","","feedback_trial","0","","","","","","","","","","","","","","","","","","","","",""
"","","","","","image-keyboard-response","58","237859","0.0-33.0","61003bb158741c6a1d79903b","665500ab8938657b03fbdba8","6657932507def77763fb3f0f","1008","stimuli/2101100.jpg","2","","prediction_trial","0","","false","","2","true","true","false","false","false","false","[2,0]","101","100","0","","","","","","",""
"","","","","","image-keyboard-response","59","241810","0.0-34.0","61003bb158741c6a1d79903b","665500ab8938657b03fbdba8","6657932507def77763fb3f0f","3948","stimuli/21011000.jpg"," ","","feedback_trial","2","","","","","","","","","","","","","","","","","","","","",""
"","","","","","image-keyboard-response","60","243140","0.0-35.0","61003bb158741c6a1d79903b","665500ab8938657b03fbdba8","6657932507def77763fb3f0f","1328","stimuli/1000010.jpg","1","","prediction_trial","1","","true","","1","false","true","true","true","false","true","[1]","000","010","1","","","","","","",""
"","","","","","image-keyboard-response","61","243530","0.0-36.0","61003bb158741c6a1d79903b","665500ab8938657b03fbdba8","6657932507def77763fb3f0f","387","stimuli/10000101.jpg"," ","","feedback_trial","1","","","","","","","","","","","","","","","","","","","","",""
"","","","","","image-keyboard-response","62","244889","0.0-37.0","61003bb158741c6a1d79903b","665500ab8938657b03fbdba8","6657932507def77763fb3f0f","1358","stimuli/1010111.jpg","1","","prediction_trial","1","","true","","1","false","false","false","true","false","false","[1]","010","111","1","","","","","","",""
"","","","","","image-keyboard-response","63","245159","0.0-38.0","61003bb158741c6a1d79903b","665500ab8938657b03fbdba8","6657932507def77763fb3f0f","267","stimuli/10101111.jpg"," ","","feedback_trial","1","","","","","","","","","","","","","","","","","","","","",""
"","","","","","image-keyboard-response","64","247209","0.0-39.0","61003bb158741c6a1d79903b","665500ab8938657b03fbdba8","6657932507def77763fb3f0f","2048","stimuli/0001000.jpg","0","","prediction_trial","0","","true","","0","true","true","true","true","true","true","[0]","001","000","1","","","","","","",""
"","","","","","image-keyboard-response","65","247639","0.0-40.0","61003bb158741c6a1d79903b","665500ab8938657b03fbdba8","6657932507def77763fb3f0f","428","stimuli/00010000.jpg"," ","","feedback_trial","0","","","","","","","","","","","","","","","","","","","","",""
"","","","","","image-keyboard-response","66","250540","0.0-41.0","61003bb158741c6a1d79903b","665500ab8938657b03fbdba8","6657932507def77763fb3f0f","2899","stimuli/2111101.jpg","2","","prediction_trial","2","","true","","2","false","false","false","false","false","false","[0,1,2]","111","101","1","","","","","","",""
"","","","","","image-keyboard-response","67","251429","0.0-42.0","61003bb158741c6a1d79903b","665500ab8938657b03fbdba8","6657932507def77763fb3f0f","887","stimuli/21111012.jpg"," ","","feedback_trial","0","","","","","","","","","","","","","","","","","","","","",""
"","","","","","image-keyboard-response","68","253150","0.0-43.0","61003bb158741c6a1d79903b","665500ab8938657b03fbdba8","6657932507def77763fb3f0f","1710","stimuli/2101111.jpg","1","","prediction_trial","2","","false","","2","false","false","false","false","false","false","[0,2]","101","111","0","","","","","","",""
"","","","","","image-keyboard-response","69","253399","0.0-44.0","61003bb158741c6a1d79903b","665500ab8938657b03fbdba8","6657932507def77763fb3f0f","247","stimuli/21011112.jpg"," ","","feedback_trial","0","","","","","","","","","","","","","","","","","","","","",""
"","","","","","image-keyboard-response","70","256259","0.0-45.0","61003bb158741c6a1d79903b","665500ab8938657b03fbdba8","6657932507def77763fb3f0f","2857","stimuli/1011110.jpg","1","","prediction_trial","1","","true","","1","false","false","false","false","false","false","[2,1]","011","110","1","","","","","","",""
"","","","","","image-keyboard-response","71","256468","0.0-46.0","61003bb158741c6a1d79903b","665500ab8938657b03fbdba8","6657932507def77763fb3f0f","207","stimuli/10111101.jpg"," ","","feedback_trial","2","","","","","","","","","","","","","","","","","","","","",""
"","","","","","image-keyboard-response","72","257818","0.0-47.0","61003bb158741c6a1d79903b","665500ab8938657b03fbdba8","6657932507def77763fb3f0f","1348","stimuli/0100001.jpg","0","","prediction_trial","0","","true","","0","true","true","false","true","false","true","[0]","100","001","1","","","","","","",""
"","","","","","image-keyboard-response","73","259308","0.0-48.0","61003bb158741c6a1d79903b","665500ab8938657b03fbdba8","6657932507def77763fb3f0f","1488","stimuli/01000010.jpg"," ","","feedback_trial","0","","","","","","","","","","","","","","","","","","","","",""
"","","","","","image-keyboard-response","74","261348","0.0-49.0","61003bb158741c6a1d79903b","665500ab8938657b03fbdba8","6657932507def77763fb3f0f","2038","stimuli/0101101.jpg","2","","prediction_trial","0","","false","","0","false","false","false","false","false","false","[2,0]","101","101","0","","","","","","",""
"","","","","","image-keyboard-response","75","266988","0.0-50.0","61003bb158741c6a1d79903b","665500ab8938657b03fbdba8","6657932507def77763fb3f0f","5638","stimuli/01011010.jpg"," ","","feedback_trial","2","","","","","","","","","","","","","","","","","","","","",""
"","","","","","image-keyboard-response","76","268868","0.0-51.0","61003bb158741c6a1d79903b","665500ab8938657b03fbdba8","6657932507def77763fb3f0f","1878","stimuli/1001100.jpg","1","","prediction_trial","1","","true","","1","true","true","true","true","true","true","[1]","001","100","1","","","","","","",""
"","","","","","image-keyboard-response","77","269118","0.0-52.0","61003bb158741c6a1d79903b","665500ab8938657b03fbdba8","6657932507def77763fb3f0f","247","stimuli/10011001.jpg"," ","","feedback_trial","1","","","","","","","","","","","","","","","","","","","","",""
"","","","","","image-keyboard-response","78","270808","0.0-53.0","61003bb158741c6a1d79903b","665500ab8938657b03fbdba8","6657932507def77763fb3f0f","1688","stimuli/2000001.jpg","2","","prediction_trial","2","","true","","2","false","true","true","true","false","true","[2]","000","001","1","","","","","","",""
"","","","","","image-keyboard-response","79","271058","0.0-54.0","61003bb158741c6a1d79903b","665500ab8938657b03fbdba8","6657932507def77763fb3f0f","248","stimuli/20000012.jpg"," ","","feedback_trial","2","","","","","","","","","","","","","","","","","","","","",""
"","","","","","image-keyboard-response","80","273128","0.0-55.0","61003bb158741c6a1d79903b","665500ab8938657b03fbdba8","6657932507def77763fb3f0f","2068","stimuli/1010010.jpg","1","","prediction_trial","1","","true","","1","false","true","false","true","false","true","[1]","010","010","1","","","","","","",""
"","","","","","image-keyboard-response","81","273348","0.0-56.0","61003bb158741c6a1d79903b","665500ab8938657b03fbdba8","6657932507def77763fb3f0f","218","stimuli/10100101.jpg"," ","","feedback_trial","1","","","","","","","","","","","","","","","","","","","","",""
"","","","","","image-keyboard-response","82","274788","0.0-57.0","61003bb158741c6a1d79903b","665500ab8938657b03fbdba8","6657932507def77763fb3f0f","1438","stimuli/2011111.jpg","1","","prediction_trial","2","","false","","2","false","false","false","false","false","false","[2,1]","011","111","0","","","","","","",""
"","","","","","image-keyboard-response","83","274999","0.0-58.0","61003bb158741c6a1d79903b","665500ab8938657b03fbdba8","6657932507def77763fb3f0f","208","stimuli/20111112.jpg"," ","","feedback_trial","2","","","","","","","","","","","","","","","","","","","","",""
"","","","","","image-keyboard-response","84","278228","0.0-59.0","61003bb158741c6a1d79903b","665500ab8938657b03fbdba8","6657932507def77763fb3f0f","3228","stimuli/2100111.jpg","2","","prediction_trial","2","","true","","2","false","false","true","true","false","false","[2]","100","111","1","","","","","","",""
"","","","","","image-keyboard-response","85","280169","0.0-60.0","61003bb158741c6a1d79903b","665500ab8938657b03fbdba8","6657932507def77763fb3f0f","1938","stimuli/21001112.jpg"," ","","feedback_trial","2","","","","","","","","","","","","","","","","","","","","",""
"","","","","","image-keyboard-response","86","281988","0.0-61.0","61003bb158741c6a1d79903b","665500ab8938657b03fbdba8","6657932507def77763fb3f0f","1817","stimuli/1010110.jpg","0","","prediction_trial","1","","false","","1","false","false","false","true","false","false","[1]","010","110","0","","","","","","",""
"","","","","","image-keyboard-response","87","282949","0.0-62.0","61003bb158741c6a1d79903b","665500ab8938657b03fbdba8","6657932507def77763fb3f0f","958","stimuli/10101101.jpg"," ","","feedback_trial","1","","","","","","","","","","","","","","","","","","","","",""
"","","","","","image-keyboard-response","88","284468","0.0-63.0","61003bb158741c6a1d79903b","665500ab8938657b03fbdba8","6657932507def77763fb3f0f","1518","stimuli/2011101.jpg","2","","prediction_trial","2","","true","","2","false","false","false","false","false","false","[1,2]","011","101","1","","","","","","",""
"","","","","","image-keyboard-response","89","284838","0.0-64.0","61003bb158741c6a1d79903b","665500ab8938657b03fbdba8","6657932507def77763fb3f0f","368","stimuli/20111012.jpg"," ","","feedback_trial","1","","","","","","","","","","","","","","","","","","","","",""
"","","","","","image-keyboard-response","90","286468","0.0-65.0","61003bb158741c6a1d79903b","665500ab8938657b03fbdba8","6657932507def77763fb3f0f","1628","stimuli/2001010.jpg","2","","prediction_trial","2","","true","","2","true","true","false","true","false","true","[2]","001","010","1","","","","","","",""
"","","","","","image-keyboard-response","91","286698","0.0-66.0","61003bb158741c6a1d79903b","665500ab8938657b03fbdba8","6657932507def77763fb3f0f","228","stimuli/20010102.jpg"," ","","feedback_trial","2","","","","","","","","","","","","","","","","","","","","",""
"","","","","","image-keyboard-response","92","288378","0.0-67.0","61003bb158741c6a1d79903b","665500ab8938657b03fbdba8","6657932507def77763fb3f0f","1678","stimuli/0001001.jpg","0","","prediction_trial","0","","true","","0","true","true","true","true","true","true","[0]","001","001","1","","","","","","",""
"","","","","","image-keyboard-response","93","292219","0.0-68.0","61003bb158741c6a1d79903b","665500ab8938657b03fbdba8","6657932507def77763fb3f0f","3838","stimuli/00010010.jpg"," ","","feedback_trial","0","","","","","","","","","","","","","","","","","","","","",""
"","","","","","image-keyboard-response","94","293329","0.0-69.0","61003bb158741c6a1d79903b","665500ab8938657b03fbdba8","6657932507def77763fb3f0f","1108","stimuli/2011100.jpg","2","","prediction_trial","1","","false","","2","true","true","false","false","false","false","[1,2]","011","100","0","","","","","","",""
"","","","","","image-keyboard-response","95","296229","0.0-70.0","61003bb158741c6a1d79903b","665500ab8938657b03fbdba8","6657932507def77763fb3f0f","2897","stimuli/20111001.jpg"," ","","feedback_trial","1","","","","","","","","","","","","","","","","","","","","",""
"","","","","","image-keyboard-response","96","297698","0.0-71.0","61003bb158741c6a1d79903b","665500ab8938657b03fbdba8","6657932507def77763fb3f0f","1468","stimuli/0101011.jpg","0","","prediction_trial","0","","true","","0","true","true","false","false","false","false","[2,0]","101","011","1","","","","","","",""
"","","","","","image-keyboard-response","97","298139","0.0-72.0","61003bb158741c6a1d79903b","665500ab8938657b03fbdba8","6657932507def77763fb3f0f","438","stimuli/01010110.jpg"," ","","feedback_trial","2","","","","","","","","","","","","","","","","","","","","",""
"","","","","","image-keyboard-response","98","299678","0.0-73.0","61003bb158741c6a1d79903b","665500ab8938657b03fbdba8","6657932507def77763fb3f0f","1538","stimuli/1111110.jpg","1","","prediction_trial","2","","false","","1","false","false","false","false","false","false","[0,1,2]","111","110","0","","","","","","",""
"","","","","","image-keyboard-response","99","299908","0.0-74.0","61003bb158741c6a1d79903b","665500ab8938657b03fbdba8","6657932507def77763fb3f0f","229","stimuli/11111102.jpg"," ","","feedback_trial","0","","","","","","","","","","","","","","","","","","","","",""
"","","","","","image-keyboard-response","100","302668","0.0-75.0","61003bb158741c6a1d79903b","665500ab8938657b03fbdba8","6657932507def77763fb3f0f","2758","stimuli/2011001.jpg","2","","prediction_trial","1","","false","","2","false","true","false","false","false","false","[1,2]","011","001","0","","","","","","",""
"","","","","","image-keyboard-response","101","302908","0.0-76.0","61003bb158741c6a1d79903b","665500ab8938657b03fbdba8","6657932507def77763fb3f0f","238","stimuli/20110011.jpg"," ","","feedback_trial","1","","","","","","","","","","","","","","","","","","","","",""
"","","","","","image-keyboard-response","102","304979","0.0-77.0","61003bb158741c6a1d79903b","665500ab8938657b03fbdba8","6657932507def77763fb3f0f","2068","stimuli/2010011.jpg","1","","prediction_trial","2","","false","","2","false","false","true","true","false","false","[2]","010","011","0","","","","","","",""
"","","","","","image-keyboard-response","103","305219","0.0-78.0","61003bb158741c6a1d79903b","665500ab8938657b03fbdba8","6657932507def77763fb3f0f","238","stimuli/20100112.jpg"," ","","feedback_trial","2","","","","","","","","","","","","","","","","","","","","",""
"","","","","","image-keyboard-response","104","306399","0.0-79.0","61003bb158741c6a1d79903b","665500ab8938657b03fbdba8","6657932507def77763fb3f0f","1178","stimuli/2010010.jpg","2","","prediction_trial","2","","true","","2","true","true","true","true","true","true","[2]","010","010","1","","","","","","",""
"","","","","","image-keyboard-response","105","307309","0.0-80.0","61003bb158741c6a1d79903b","665500ab8938657b03fbdba8","6657932507def77763fb3f0f","908","stimuli/20100102.jpg"," ","","feedback_trial","2","","","","","","","","","","","","","","","","","","","","",""
"","","","","","image-keyboard-response","106","308549","0.0-81.0","61003bb158741c6a1d79903b","665500ab8938657b03fbdba8","6657932507def77763fb3f0f","1238","stimuli/0111000.jpg","0","","prediction_trial","2","","false","","0","true","true","false","false","false","false","[1,2,0]","111","000","0","","","","","","",""
"","","","","","image-keyboard-response","107","312789","0.0-82.0","61003bb158741c6a1d79903b","665500ab8938657b03fbdba8","6657932507def77763fb3f0f","4239","stimuli/01110002.jpg"," ","","feedback_trial","1","","","","","","","","","","","","","","","","","","","","",""
"","","","","","image-keyboard-response","108","313909","0.0-83.0","61003bb158741c6a1d79903b","665500ab8938657b03fbdba8","6657932507def77763fb3f0f","1118","stimuli/2101101.jpg","2","","prediction_trial","0","","false","","2","false","false","false","false","false","false","[2,0]","101","101","0","","","","","","",""
"","","","","","image-keyboard-response","109","315839","0.0-84.0","61003bb158741c6a1d79903b","665500ab8938657b03fbdba8","6657932507def77763fb3f0f","1928","stimuli/21011010.jpg"," ","","feedback_trial","2","","","","","","","","","","","","","","","","","","","","",""
"","","","","","image-keyboard-response","110","318099","0.0-85.0","61003bb158741c6a1d79903b","665500ab8938657b03fbdba8","6657932507def77763fb3f0f","2258","stimuli/0000111.jpg","1","","prediction_trial","0","","false","","0","false","false","true","true","false","false","[0]","000","111","0","","","","","","",""
"","","","","","image-keyboard-response","111","318399","0.0-86.0","61003bb158741c6a1d79903b","665500ab8938657b03fbdba8","6657932507def77763fb3f0f","298","stimuli/00001110.jpg"," ","","feedback_trial","0","","","","","","","","","","","","","","","","","","","","",""
"","","","","","image-keyboard-response","112","321609","0.0-87.0","61003bb158741c6a1d79903b","665500ab8938657b03fbdba8","6657932507def77763fb3f0f","3209","stimuli/1001011.jpg","1","","prediction_trial","1","","true","","1","false","false","true","true","false","false","[1]","001","011","1","","","","","","",""
"","","","","","image-keyboard-response","113","321849","0.0-88.0","61003bb158741c6a1d79903b","665500ab8938657b03fbdba8","6657932507def77763fb3f0f","236","stimuli/10010111.jpg"," ","","feedback_trial","1","","","","","","","","","","","","","","","","","","","","",""
"","","","","","image-keyboard-response","114","323199","0.0-89.0","61003bb158741c6a1d79903b","665500ab8938657b03fbdba8","6657932507def77763fb3f0f","1348","stimuli/2001101.jpg","2","","prediction_trial","2","","true","","2","false","false","false","true","false","false","[2]","001","101","1","","","","","","",""
"","","","","","image-keyboard-response","115","323570","0.0-90.0","61003bb158741c6a1d79903b","665500ab8938657b03fbdba8","6657932507def77763fb3f0f","368","stimuli/20011012.jpg"," ","","feedback_trial","2","","","","","","","","","","","","","","","","","","","","",""
"","","","","","image-keyboard-response","116","325508","0.0-91.0","61003bb158741c6a1d79903b","665500ab8938657b03fbdba8","6657932507def77763fb3f0f","1936","stimuli/2010001.jpg","2","","prediction_trial","2","","true","","2","false","true","true","true","false","true","[2]","010","001","1","","","","","","",""
"","","","","","image-keyboard-response","117","325808","0.0-92.0","61003bb158741c6a1d79903b","665500ab8938657b03fbdba8","6657932507def77763fb3f0f","297","stimuli/20100012.jpg"," ","","feedback_trial","2","","","","","","","","","","","","","","","","","","","","",""
"","","","","","image-keyboard-response","118","328978","0.0-93.0","61003bb158741c6a1d79903b","665500ab8938657b03fbdba8","6657932507def77763fb3f0f","3168","stimuli/0010110.jpg","1","","prediction_trial","0","","false","","0","false","false","true","true","false","false","[0]","010","110","0","","","","","","",""
"","","","","","image-keyboard-response","119","329208","0.0-94.0","61003bb158741c6a1d79903b","665500ab8938657b03fbdba8","6657932507def77763fb3f0f","228","stimuli/00101100.jpg"," ","","feedback_trial","0","","","","","","","","","","","","","","","","","","","","",""
"","","","","","image-keyboard-response","120","332088","0.0-95.0","61003bb158741c6a1d79903b","665500ab8938657b03fbdba8","6657932507def77763fb3f0f","2878","stimuli/0111100.jpg","0","","prediction_trial","2","","false","","0","false","true","false","false","false","false","[0,1,2]","111","100","0","","","","","","",""
"","","","","","image-keyboard-response","121","332248","0.0-96.0","61003bb158741c6a1d79903b","665500ab8938657b03fbdba8","6657932507def77763fb3f0f","157","stimuli/01111002.jpg"," ","","feedback_trial","0","","","","","","","","","","","","","","","","","","","","",""
"","","","","","image-keyboard-response","122","336168","0.0-97.0","61003bb158741c6a1d79903b","665500ab8938657b03fbdba8","6657932507def77763fb3f0f","3917","stimuli/0101111.jpg","1","","prediction_trial","2","","false","","0","false","false","false","false","false","false","[0,2]","101","111","0","","","","","","",""
"","","","","","image-keyboard-response","123","336438","0.0-98.0","61003bb158741c6a1d79903b","665500ab8938657b03fbdba8","6657932507def77763fb3f0f","268","stimuli/01011112.jpg"," ","","feedback_trial","0","","","","","","","","","","","","","","","","","","","","",""
"","","","","","image-keyboard-response","124","337698","0.0-99.0","61003bb158741c6a1d79903b","665500ab8938657b03fbdba8","6657932507def77763fb3f0f","1258","stimuli/0110001.jpg","0","","prediction_trial","0","","true","","0","true","true","false","false","false","false","[1,0]","110","001","1","","","","","","",""
"","","","","","image-keyboard-response","125","338048","0.0-100.0","61003bb158741c6a1d79903b","665500ab8938657b03fbdba8","6657932507def77763fb3f0f","348","stimuli/01100010.jpg"," ","","feedback_trial","1","","","","","","","","","","","","","","","","","","","","",""
"","","","","","image-keyboard-response","126","339678","0.0-101.0","61003bb158741c6a1d79903b","665500ab8938657b03fbdba8","6657932507def77763fb3f0f","1628","stimuli/2110010.jpg","2","","prediction_trial","2","","true","","2","true","true","true","true","true","true","[2]","110","010","1","","","","","","",""
"","","","","","image-keyboard-response","127","340248","0.0-102.0","61003bb158741c6a1d79903b","665500ab8938657b03fbdba8","6657932507def77763fb3f0f","568","stimuli/21100102.jpg"," ","","feedback_trial","2","","","","","","","","","","","","","","","","","","","","",""
"","","","","","image-keyboard-response","128","341458","0.0-103.0","61003bb158741c6a1d79903b","665500ab8938657b03fbdba8","6657932507def77763fb3f0f","1208","stimuli/1101100.jpg","1","","prediction_trial","1","","true","","1","true","true","true","true","true","true","[1]","101","100","1","","","","","","",""
"","","","","","image-keyboard-response","129","341888","0.0-104.0","61003bb158741c6a1d79903b","665500ab8938657b03fbdba8","6657932507def77763fb3f0f","428","stimuli/11011001.jpg"," ","","feedback_trial","1","","","","","","","","","","","","","","","","","","","","",""
"","","","","","image-keyboard-response","130","342798","0.0-105.0","61003bb158741c6a1d79903b","665500ab8938657b03fbdba8","6657932507def77763fb3f0f","908","stimuli/0110010.jpg","0","","prediction_trial","1","","false","","0","true","true","false","false","false","false","[0,1]","110","010","0","","","","","","",""
"","","","","","image-keyboard-response","131","344828","0.0-106.0","61003bb158741c6a1d79903b","665500ab8938657b03fbdba8","6657932507def77763fb3f0f","2027","stimuli/01100101.jpg"," ","","feedback_trial","0","","","","","","","","","","","","","","","","","","","","",""
"","","","","","image-keyboard-response","132","346998","0.0-107.0","61003bb158741c6a1d79903b","665500ab8938657b03fbdba8","6657932507def77763fb3f0f","2169","stimuli/0001011.jpg","0","","prediction_trial","0","","true","","0","true","true","true","true","true","true","[0]","001","011","1","","","","","","",""
"","","","","","image-keyboard-response","133","347298","0.0-108.0","61003bb158741c6a1d79903b","665500ab8938657b03fbdba8","6657932507def77763fb3f0f","297","stimuli/00010110.jpg"," ","","feedback_trial","0","","","","","","","","","","","","","","","","","","","","",""
"","","","","","image-keyboard-response","134","351088","0.0-109.0","61003bb158741c6a1d79903b","665500ab8938657b03fbdba8","6657932507def77763fb3f0f","3788","stimuli/0100111.jpg","2","","prediction_trial","0","","false","","0","false","false","false","true","false","false","[0]","100","111","0","","","","","","",""
"","","","","","image-keyboard-response","135","351908","0.0-110.0","61003bb158741c6a1d79903b","665500ab8938657b03fbdba8","6657932507def77763fb3f0f","818","stimuli/01001110.jpg"," ","","feedback_trial","0","","","","","","","","","","","","","","","","","","","","",""
"","","","","","image-keyboard-response","136","353697","0.0-111.0","61003bb158741c6a1d79903b","665500ab8938657b03fbdba8","6657932507def77763fb3f0f","1788","stimuli/1100111.jpg","1","","prediction_trial","1","","true","","1","false","false","true","true","false","false","[1]","100","111","1","","","","","","",""
"","","","","","image-keyboard-response","137","353988","0.0-112.0","61003bb158741c6a1d79903b","665500ab8938657b03fbdba8","6657932507def77763fb3f0f","289","stimuli/11001111.jpg"," ","","feedback_trial","1","","","","","","","","","","","","","","","","","","","","",""
"","","","","","image-keyboard-response","138","355158","0.0-113.0","61003bb158741c6a1d79903b","665500ab8938657b03fbdba8","6657932507def77763fb3f0f","1168","stimuli/2000100.jpg","2","","prediction_trial","2","","true","","2","true","true","true","true","true","true","[2]","000","100","1","","","","","","",""
"","","","","","image-keyboard-response","139","355508","0.0-114.0","61003bb158741c6a1d79903b","665500ab8938657b03fbdba8","6657932507def77763fb3f0f","348","stimuli/20001002.jpg"," ","","feedback_trial","2","","","","","","","","","","","","","","","","","","","","",""
"","","","","","image-keyboard-response","140","357177","0.0-115.0","61003bb158741c6a1d79903b","665500ab8938657b03fbdba8","6657932507def77763fb3f0f","1667","stimuli/2111011.jpg","0","","prediction_trial","2","","false","","2","false","false","false","false","false","false","[2,0,1]","111","011","0","","","","","","",""
"","","","","","image-keyboard-response","141","360268","0.0-116.0","61003bb158741c6a1d79903b","665500ab8938657b03fbdba8","6657932507def77763fb3f0f","3088","stimuli/21110112.jpg"," ","","feedback_trial","2","","","","","","","","","","","","","","","","","","","","",""
"","","","","","image-keyboard-response","142","362988","0.0-117.0","61003bb158741c6a1d79903b","665500ab8938657b03fbdba8","6657932507def77763fb3f0f","2718","stimuli/2110011.jpg","1","","prediction_trial","2","","false","","2","false","false","true","true","false","false","[2]","110","011","0","","","","","","",""
"","","","","","image-keyboard-response","143","365087","0.0-118.0","61003bb158741c6a1d79903b","665500ab8938657b03fbdba8","6657932507def77763fb3f0f","2098","stimuli/21100112.jpg"," ","","feedback_trial","2","","","","","","","","","","","","","","","","","","","","",""
"","","","","","image-keyboard-response","144","366507","0.0-119.0","61003bb158741c6a1d79903b","665500ab8938657b03fbdba8","6657932507def77763fb3f0f","1418","stimuli/0101010.jpg","0","","prediction_trial","2","","false","","0","true","true","false","false","false","false","[2,0]","101","010","0","","","","","","",""
"","","","","","image-keyboard-response","145","367477","0.0-120.0","61003bb158741c6a1d79903b","665500ab8938657b03fbdba8","6657932507def77763fb3f0f","968","stimuli/01010102.jpg"," ","","feedback_trial","2","","","","","","","","","","","","","","","","","","","","",""
"","","","","","image-keyboard-response","146","371167","0.0-121.0","61003bb158741c6a1d79903b","665500ab8938657b03fbdba8","6657932507def77763fb3f0f","3688","stimuli/0001110.jpg","1","","prediction_trial","0","","false","","0","false","false","true","true","false","false","[0]","001","110","0","","","","","","",""
"","","","","","image-keyboard-response","147","371477","0.0-122.0","61003bb158741c6a1d79903b","665500ab8938657b03fbdba8","6657932507def77763fb3f0f","308","stimuli/00011100.jpg"," ","","feedback_trial","0","","","","","","","","","","","","","","","","","","","","",""
"","","","","","image-keyboard-response","148","372377","0.0-123.0","61003bb158741c6a1d79903b","665500ab8938657b03fbdba8","6657932507def77763fb3f0f","898","stimuli/1101000.jpg","1","","prediction_trial","1","","true","","1","true","true","true","true","true","true","[1]","101","000","1","","","","","","",""
"","","","","","image-keyboard-response","149","372638","0.0-124.0","61003bb158741c6a1d79903b","665500ab8938657b03fbdba8","6657932507def77763fb3f0f","258","stimuli/11010001.jpg"," ","","feedback_trial","1","","","","","","","","","","","","","","","","","","","","",""
"","","","","","image-keyboard-response","150","373647","0.0-125.0","61003bb158741c6a1d79903b","665500ab8938657b03fbdba8","6657932507def77763fb3f0f","1007","stimuli/2110110.jpg","2","","prediction_trial","2","","true","","2","true","true","true","true","true","true","[2]","110","110","1","","","","","","",""
"","","","","","image-keyboard-response","151","374087","0.0-126.0","61003bb158741c6a1d79903b","665500ab8938657b03fbdba8","6657932507def77763fb3f0f","438","stimuli/21101102.jpg"," ","","feedback_trial","2","","","","","","","","","","","","","","","","","","","","",""
"","","","","","image-keyboard-response","152","375617","0.0-127.0","61003bb158741c6a1d79903b","665500ab8938657b03fbdba8","6657932507def77763fb3f0f","1528","stimuli/1110001.jpg","0","","prediction_trial","1","","false","","1","true","true","false","false","false","false","[1,0]","110","001","0","","","","","","",""
"","","","","","image-keyboard-response","153","377346","0.0-128.0","61003bb158741c6a1d79903b","665500ab8938657b03fbdba8","6657932507def77763fb3f0f","1727","stimuli/11100011.jpg"," ","","feedback_trial","1","","","","","","","","","","","","","","","","","","","","",""
"","","","","","image-keyboard-response","154","379796","0.0-129.0","61003bb158741c6a1d79903b","665500ab8938657b03fbdba8","6657932507def77763fb3f0f","2449","stimuli/1010101.jpg","2","","prediction_trial","1","","false","","1","true","true","false","true","false","true","[1]","010","101","0","","","","","","",""
"","","","","","image-keyboard-response","155","380256","0.0-130.0","61003bb158741c6a1d79903b","665500ab8938657b03fbdba8","6657932507def77763fb3f0f","459","stimuli/10101011.jpg"," ","","feedback_trial","1","","","","","","","","","","","","","","","","","","","","",""
"","","","","","image-keyboard-response","156","381806","0.0-131.0","61003bb158741c6a1d79903b","665500ab8938657b03fbdba8","6657932507def77763fb3f0f","1549","stimuli/0110011.jpg","0","","prediction_trial","0","","true","","0","true","true","false","false","false","false","[0,1]","110","011","1","","","","","","",""
"","","","","","image-keyboard-response","157","382286","0.0-132.0","61003bb158741c6a1d79903b","665500ab8938657b03fbdba8","6657932507def77763fb3f0f","479","stimuli/01100110.jpg"," ","","feedback_trial","0","","","","","","","","","","","","","","","","","","","","",""
"","","","","","image-keyboard-response","158","383256","0.0-133.0","61003bb158741c6a1d79903b","665500ab8938657b03fbdba8","6657932507def77763fb3f0f","963","stimuli/1100001.jpg","1","","prediction_trial","1","","true","","1","true","true","true","true","true","true","[1]","100","001","1","","","","","","",""
"","","","","","image-keyboard-response","159","383686","0.0-134.0","61003bb158741c6a1d79903b","665500ab8938657b03fbdba8","6657932507def77763fb3f0f","429","stimuli/11000011.jpg"," ","","feedback_trial","1","","","","","","","","","","","","","","","","","","","","",""
"","","","","","image-keyboard-response","160","385016","0.0-135.0","61003bb158741c6a1d79903b","665500ab8938657b03fbdba8","6657932507def77763fb3f0f","1329","stimuli/0100010.jpg","0","","prediction_trial","0","","true","","0","true","true","false","true","false","true","[0]","100","010","1","","","","","","",""
"","","","","","image-keyboard-response","161","385376","0.0-136.0","61003bb158741c6a1d79903b","665500ab8938657b03fbdba8","6657932507def77763fb3f0f","359","stimuli/01000100.jpg"," ","","feedback_trial","0","","","","","","","","","","","","","","","","","","","","",""
"","","","","","image-keyboard-response","162","386308","0.0-137.0","61003bb158741c6a1d79903b","665500ab8938657b03fbdba8","6657932507def77763fb3f0f","930","stimuli/2001000.jpg","2","","prediction_trial","2","","true","","2","true","true","false","true","false","true","[2]","001","000","1","","","","","","",""
"","","","","","image-keyboard-response","163","387097","0.0-138.0","61003bb158741c6a1d79903b","665500ab8938657b03fbdba8","6657932507def77763fb3f0f","788","stimuli/20010002.jpg"," ","","feedback_trial","2","","","","","","","","","","","","","","","","","","","","",""
"","","","","","image-keyboard-response","164","388806","0.0-139.0","61003bb158741c6a1d79903b","665500ab8938657b03fbdba8","6657932507def77763fb3f0f","1707","stimuli/2111000.jpg","2","","prediction_trial","1","","false","","2","true","true","false","false","false","false","[1,2,0]","111","000","0","","","","","","",""
"","","","","","image-keyboard-response","165","389997","0.0-140.0","61003bb158741c6a1d79903b","665500ab8938657b03fbdba8","6657932507def77763fb3f0f","1189","stimuli/21110001.jpg"," ","","feedback_trial","1","","","","","","","","","","","","","","","","","","","","",""
"","","","","","image-keyboard-response","166","392547","0.0-141.0","61003bb158741c6a1d79903b","665500ab8938657b03fbdba8","6657932507def77763fb3f0f","2548","stimuli/0110000.jpg","0","","prediction_trial","0","","true","","0","true","true","false","false","false","false","[0,1]","110","000","1","","","","","","",""
"","","","","","image-keyboard-response","167","393008","0.0-142.0","61003bb158741c6a1d79903b","665500ab8938657b03fbdba8","6657932507def77763fb3f0f","458","stimuli/01100000.jpg"," ","","feedback_trial","0","","","","","","","","","","","","","","","","","","","","",""
"","","","","","image-keyboard-response","168","394407","0.0-143.0","61003bb158741c6a1d79903b","665500ab8938657b03fbdba8","6657932507def77763fb3f0f","1398","stimuli/0001111.jpg","1","","prediction_trial","0","","false","","0","false","false","true","true","false","false","[0]","001","111","0","","","","","","",""
"","","","","","image-keyboard-response","169","396857","0.0-144.0","61003bb158741c6a1d79903b","665500ab8938657b03fbdba8","6657932507def77763fb3f0f","2448","stimuli/00011110.jpg"," ","","feedback_trial","0","","","","","","","","","","","","","","","","","","","","",""
"","","","","","image-keyboard-response","170","398726","0.0-145.0","61003bb158741c6a1d79903b","665500ab8938657b03fbdba8","6657932507def77763fb3f0f","1867","stimuli/1011111.jpg","2","","prediction_trial","1","","false","","1","false","false","false","false","false","false","[2,1]","011","111","0","","","","","","",""
"","","","","","image-keyboard-response","171","399797","0.0-146.0","61003bb158741c6a1d79903b","665500ab8938657b03fbdba8","6657932507def77763fb3f0f","1069","stimuli/10111111.jpg"," ","","feedback_trial","2","","","","","","","","","","","","","","","","","","","","",""
"","","","","","image-keyboard-response","172","400686","0.0-147.0","61003bb158741c6a1d79903b","665500ab8938657b03fbdba8","6657932507def77763fb3f0f","887","stimuli/2100010.jpg","2","","prediction_trial","2","","true","","2","true","true","true","true","true","true","[2]","100","010","1","","","","","","",""
"","","","","","image-keyboard-response","173","401116","0.0-148.0","61003bb158741c6a1d79903b","665500ab8938657b03fbdba8","6657932507def77763fb3f0f","428","stimuli/21000102.jpg"," ","","feedback_trial","2","","","","","","","","","","","","","","","","","","","","",""
"","","","","","image-keyboard-response","174","402396","0.0-149.0","61003bb158741c6a1d79903b","665500ab8938657b03fbdba8","6657932507def77763fb3f0f","1278","stimuli/1111100.jpg","1","","prediction_trial","1","","true","","1","true","true","false","false","false","false","[1,0,2]","111","100","1","","","","","","",""
"","","","","","image-keyboard-response","175","403326","0.0-150.0","61003bb158741c6a1d79903b","665500ab8938657b03fbdba8","6657932507def77763fb3f0f","928","stimuli/11111001.jpg"," ","","feedback_trial","1","","","","","","","","","","","","","","","","","","","","",""
"","","","","","image-keyboard-response","176","404567","0.0-151.0","61003bb158741c6a1d79903b","665500ab8938657b03fbdba8","6657932507def77763fb3f0f","1238","stimuli/0100101.jpg","2","","prediction_trial","0","","false","","0","false","false","false","true","false","false","[0]","100","101","0","","","","","","",""
"","","","","","image-keyboard-response","177","405496","0.0-152.0","61003bb158741c6a1d79903b","665500ab8938657b03fbdba8","6657932507def77763fb3f0f","928","stimuli/01001010.jpg"," ","","feedback_trial","0","","","","","","","","","","","","","","","","","","","","",""
"","","","","","image-keyboard-response","178","406826","0.0-153.0","61003bb158741c6a1d79903b","665500ab8938657b03fbdba8","6657932507def77763fb3f0f","1327","stimuli/0011010.jpg","0","","prediction_trial","0","","true","","0","true","true","true","true","true","true","[0]","011","010","1","","","","","","",""
"","","","","","image-keyboard-response","179","407267","0.0-154.0","61003bb158741c6a1d79903b","665500ab8938657b03fbdba8","6657932507def77763fb3f0f","439","stimuli/00110100.jpg"," ","","feedback_trial","0","","","","","","","","","","","","","","","","","","","","",""
"","","","","","image-keyboard-response","180","408586","0.0-155.0","61003bb158741c6a1d79903b","665500ab8938657b03fbdba8","6657932507def77763fb3f0f","1318","stimuli/1011000.jpg","1","","prediction_trial","1","","true","","1","true","true","false","false","false","false","[1,2]","011","000","1","","","","","","",""
"","","","","","image-keyboard-response","181","409006","0.0-156.0","61003bb158741c6a1d79903b","665500ab8938657b03fbdba8","6657932507def77763fb3f0f","418","stimuli/10110001.jpg"," ","","feedback_trial","1","","","","","","","","","","","","","","","","","","","","",""
"","","","","","image-keyboard-response","182","411406","0.0-157.0","61003bb158741c6a1d79903b","665500ab8938657b03fbdba8","6657932507def77763fb3f0f","2398","stimuli/1110100.jpg","2","","prediction_trial","1","","false","","1","true","true","false","false","false","false","[0,1]","110","100","0","","","","","","",""
"","","","","","image-keyboard-response","183","414356","0.0-158.0","61003bb158741c6a1d79903b","665500ab8938657b03fbdba8","6657932507def77763fb3f0f","2948","stimuli/11101001.jpg"," ","","feedback_trial","0","","","","","","","","","","","","","","","","","","","","",""
"","","","","","image-keyboard-response","184","416066","0.0-159.0","61003bb158741c6a1d79903b","665500ab8938657b03fbdba8","6657932507def77763fb3f0f","1708","stimuli/2110101.jpg","2","","prediction_trial","2","","true","","2","false","false","true","true","false","false","[2]","110","101","1","","","","","","",""
"","","","","","image-keyboard-response","185","416316","0.0-160.0","61003bb158741c6a1d79903b","665500ab8938657b03fbdba8","6657932507def77763fb3f0f","247","stimuli/21101012.jpg"," ","","feedback_trial","2","","","","","","","","","","","","","","","","","","","","",""
"","","","","","image-keyboard-response","186","418927","0.0-161.0","61003bb158741c6a1d79903b","665500ab8938657b03fbdba8","6657932507def77763fb3f0f","2608","stimuli/0001101.jpg","2","","prediction_trial","0","","false","","0","false","false","true","true","false","false","[0]","001","101","0","","","","","","",""
"","","","","","image-keyboard-response","187","419726","0.0-162.0","61003bb158741c6a1d79903b","665500ab8938657b03fbdba8","6657932507def77763fb3f0f","798","stimuli/00011010.jpg"," ","","feedback_trial","0","","","","","","","","","","","","","","","","","","","","",""
"","","","","","image-keyboard-response","188","421286","0.0-163.0","61003bb158741c6a1d79903b","665500ab8938657b03fbdba8","6657932507def77763fb3f0f","1558","stimuli/2111100.jpg","2","","prediction_trial","0","","false","","2","true","true","false","false","false","false","[1,0,2]","111","100","0","","","","","","",""
"","","","","","image-keyboard-response","189","422796","0.0-164.0","61003bb158741c6a1d79903b","665500ab8938657b03fbdba8","6657932507def77763fb3f0f","1508","stimuli/21111000.jpg"," ","","feedback_trial","1","","","","","","","","","","","","","","","","","","","","",""
"","","","","","image-keyboard-response","190","423506","0.0-165.0","61003bb158741c6a1d79903b","665500ab8938657b03fbdba8","6657932507def77763fb3f0f","708","stimuli/0011101.jpg","2","","prediction_trial","0","","false","","0","false","false","true","true","false","false","[0]","011","101","0","","","","","","",""
"","","","","","image-keyboard-response","191","424406","0.0-166.0","61003bb158741c6a1d79903b","665500ab8938657b03fbdba8","6657932507def77763fb3f0f","898","stimuli/00111010.jpg"," ","","feedback_trial","0","","","","","","","","","","","","","","","","","","","","",""
"","","","","","image-keyboard-response","192","425426","0.0-167.0","61003bb158741c6a1d79903b","665500ab8938657b03fbdba8","6657932507def77763fb3f0f","1018","stimuli/1101111.jpg","0","","prediction_trial","1","","false","","1","false","false","true","true","false","false","[1]","101","111","0","","","","","","",""
"","","","","","image-keyboard-response","193","426396","0.0-168.0","61003bb158741c6a1d79903b","665500ab8938657b03fbdba8","6657932507def77763fb3f0f","968","stimuli/11011111.jpg"," ","","feedback_trial","1","","","","","","","","","","","","","","","","","","","","",""
"","","","","","image-keyboard-response","194","427396","0.0-169.0","61003bb158741c6a1d79903b","665500ab8938657b03fbdba8","6657932507def77763fb3f0f","990","stimuli/2111110.jpg","0","","prediction_trial","2","","false","","2","true","true","false","false","false","false","[1,0,2]","111","110","0","","","","","","",""
"","","","","","image-keyboard-response","195","427916","0.0-170.0","61003bb158741c6a1d79903b","665500ab8938657b03fbdba8","6657932507def77763fb3f0f","518","stimuli/21111102.jpg"," ","","feedback_trial","1","","","","","","","","","","","","","","","","","","","","",""
"","","","","","image-keyboard-response","196","431697","0.0-171.0","61003bb158741c6a1d79903b","665500ab8938657b03fbdba8","6657932507def77763fb3f0f","3779","stimuli/2010110.jpg","0","","prediction_trial","2","","false","","2","true","true","true","true","true","true","[2]","010","110","0","","","","","","",""
"","","","","","image-keyboard-response","197","433285","0.0-172.0","61003bb158741c6a1d79903b","665500ab8938657b03fbdba8","6657932507def77763fb3f0f","1586","stimuli/20101102.jpg"," ","","feedback_trial","2","","","","","","","","","","","","","","","","","","","","",""
"","","","","","image-keyboard-response","198","435346","0.0-173.0","61003bb158741c6a1d79903b","665500ab8938657b03fbdba8","6657932507def77763fb3f0f","2059","stimuli/1111001.jpg","1","","prediction_trial","2","","false","","1","true","true","false","false","false","false","[2,1,0]","111","001","0","","","","","","",""
"","","","","","image-keyboard-response","199","437216","0.0-174.0","61003bb158741c6a1d79903b","665500ab8938657b03fbdba8","6657932507def77763fb3f0f","1868","stimuli/11110012.jpg"," ","","feedback_trial","2","","","","","","","","","","","","","","","","","","","","",""
"","","","","","image-keyboard-response","200","438186","0.0-175.0","61003bb158741c6a1d79903b","665500ab8938657b03fbdba8","6657932507def77763fb3f0f","968","stimuli/2000111.jpg","1","","prediction_trial","2","","false","","2","false","false","true","true","false","false","[2]","000","111","0","","","","","","",""
"","","","","","image-keyboard-response","201","439266","0.0-176.0","61003bb158741c6a1d79903b","665500ab8938657b03fbdba8","6657932507def77763fb3f0f","1078","stimuli/20001112.jpg"," ","","feedback_trial","2","","","","","","","","","","","","","","","","","","","","",""
"","","","","","image-keyboard-response","202","441006","0.0-177.0","61003bb158741c6a1d79903b","665500ab8938657b03fbdba8","6657932507def77763fb3f0f","1738","stimuli/0000100.jpg","0","","prediction_trial","0","","true","","0","false","true","true","true","false","true","[0]","000","100","1","","","","","","",""
"","","","","","image-keyboard-response","203","441806","0.0-178.0","61003bb158741c6a1d79903b","665500ab8938657b03fbdba8","6657932507def77763fb3f0f","797","stimuli/00001000.jpg"," ","","feedback_trial","0","","","","","","","","","","","","","","","","","","","","",""
"","","","","","image-keyboard-response","204","444026","0.0-179.0","61003bb158741c6a1d79903b","665500ab8938657b03fbdba8","6657932507def77763fb3f0f","2218","stimuli/1110000.jpg","1","","prediction_trial","1","","true","","1","true","true","false","false","false","false","[1,0]","110","000","1","","","","","","",""
"","","","","","image-keyboard-response","205","444857","0.0-180.0","61003bb158741c6a1d79903b","665500ab8938657b03fbdba8","6657932507def77763fb3f0f","828","stimuli/11100001.jpg"," ","","feedback_trial","1","","","","","","","","","","","","","","","","","","","","",""
"","","","","","image-keyboard-response","206","446046","0.0-181.0","61003bb158741c6a1d79903b","665500ab8938657b03fbdba8","6657932507def77763fb3f0f","1188","stimuli/1111101.jpg","1","","prediction_trial","1","","true","","1","true","true","false","false","false","false","[0,1,2]","111","101","1","","","","","","",""
"","","","","","image-keyboard-response","207","446426","0.0-182.0","61003bb158741c6a1d79903b","665500ab8938657b03fbdba8","6657932507def77763fb3f0f","378","stimuli/11111011.jpg"," ","","feedback_trial","0","","","","","","","","","","","","","","","","","","","","",""
"","","","","","image-keyboard-response","208","447656","0.0-183.0","61003bb158741c6a1d79903b","665500ab8938657b03fbdba8","6657932507def77763fb3f0f","1228","stimuli/1000001.jpg","1","","prediction_trial","1","","true","","1","true","true","true","true","true","true","[1]","000","001","1","","","","","","",""
"","","","","","image-keyboard-response","209","448046","0.0-184.0","61003bb158741c6a1d79903b","665500ab8938657b03fbdba8","6657932507def77763fb3f0f","388","stimuli/10000011.jpg"," ","","feedback_trial","1","","","","","","","","","","","","","","","","","","","","",""
"","","","","","image-keyboard-response","210","450856","0.0-185.0","61003bb158741c6a1d79903b","665500ab8938657b03fbdba8","6657932507def77763fb3f0f","2808","stimuli/1000011.jpg","2","","prediction_trial","1","","false","","1","false","false","true","true","false","false","[1]","000","011","0","","","","","","",""
"","","","","","image-keyboard-response","211","451867","0.0-186.0","61003bb158741c6a1d79903b","665500ab8938657b03fbdba8","6657932507def77763fb3f0f","1008","stimuli/10000111.jpg"," ","","feedback_trial","1","","","","","","","","","","","","","","","","","","","","",""
"","","","","","image-keyboard-response","212","452996","0.0-187.0","61003bb158741c6a1d79903b","665500ab8938657b03fbdba8","6657932507def77763fb3f0f","1127","stimuli/0010111.jpg","2","","prediction_trial","0","","false","","0","false","false","true","true","false","false","[0]","010","111","0","","","","","","",""
"","","","","","image-keyboard-response","213","453756","0.0-188.0","61003bb158741c6a1d79903b","665500ab8938657b03fbdba8","6657932507def77763fb3f0f","758","stimuli/00101110.jpg"," ","","feedback_trial","0","","","","","","","","","","","","","","","","","","","","",""
"","","","","","image-keyboard-response","214","455666","0.0-189.0","61003bb158741c6a1d79903b","665500ab8938657b03fbdba8","6657932507def77763fb3f0f","1908","stimuli/1111111.jpg","2","","prediction_trial","0","","false","","1","false","false","false","false","false","false","[0,2,1]","111","111","0","","","","","","",""
"","","","","","image-keyboard-response","215","456496","0.0-190.0","61003bb158741c6a1d79903b","665500ab8938657b03fbdba8","6657932507def77763fb3f0f","828","stimuli/11111110.jpg"," ","","feedback_trial","0","","","","","","","","","","","","","","","","","","","","",""
"","","","","","image-keyboard-response","216","458736","0.0-191.0","61003bb158741c6a1d79903b","665500ab8938657b03fbdba8","6657932507def77763fb3f0f","2238","stimuli/0101001.jpg","0","","prediction_trial","0","","true","","0","true","true","false","false","false","false","[0,2]","101","001","1","","","","","","",""
"","","","","","image-keyboard-response","217","461516","0.0-192.0","61003bb158741c6a1d79903b","665500ab8938657b03fbdba8","6657932507def77763fb3f0f","2778","stimuli/01010010.jpg"," ","","feedback_trial","0","","","","","","","","","","","","","","","","","","","","",""
"","","","","","image-keyboard-response","218","463027","0.0-193.0","61003bb158741c6a1d79903b","665500ab8938657b03fbdba8","6657932507def77763fb3f0f","1509","stimuli/2100101.jpg","2","","prediction_trial","2","","true","","2","false","false","true","true","false","false","[2]","100","101","1","","","","","","",""
"","","","","","image-keyboard-response","219","465487","0.0-194.0","61003bb158741c6a1d79903b","665500ab8938657b03fbdba8","6657932507def77763fb3f0f","2458","stimuli/21001012.jpg"," ","","feedback_trial","2","","","","","","","","","","","","","","","","","","","","",""
"","","","","","image-keyboard-response","220","467156","0.0-195.0","61003bb158741c6a1d79903b","665500ab8938657b03fbdba8","6657932507def77763fb3f0f","1668","stimuli/1001110.jpg","1","","prediction_trial","1","","true","","1","false","false","true","true","false","false","[1]","001","110","1","","","","","","",""
"","","","","","image-keyboard-response","221","467767","0.0-196.0","61003bb158741c6a1d79903b","665500ab8938657b03fbdba8","6657932507def77763fb3f0f","607","stimuli/10011101.jpg"," ","","feedback_trial","1","","","","","","","","","","","","","","","","","","","","",""
"","","","","","image-keyboard-response","222","468636","0.0-197.0","61003bb158741c6a1d79903b","665500ab8938657b03fbdba8","6657932507def77763fb3f0f","868","stimuli/2011000.jpg","2","","prediction_trial","1","","false","","2","true","true","false","false","false","false","[2,1]","011","000","0","","","","","","",""
"","","","","","image-keyboard-response","223","470586","0.0-198.0","61003bb158741c6a1d79903b","665500ab8938657b03fbdba8","6657932507def77763fb3f0f","1948","stimuli/20110001.jpg"," ","","feedback_trial","2","","","","","","","","","","","","","","","","","","","","",""
"","","","","","image-keyboard-response","224","471786","0.0-199.0","61003bb158741c6a1d79903b","665500ab8938657b03fbdba8","6657932507def77763fb3f0f","1198","stimuli/0110111.jpg","2","","prediction_trial","0","","false","","0","false","false","false","false","false","false","[1,0]","110","111","0","","","","","","",""
"","","","","","image-keyboard-response","225","472567","0.0-200.0","61003bb158741c6a1d79903b","665500ab8938657b03fbdba8","6657932507def77763fb3f0f","778","stimuli/01101110.jpg"," ","","feedback_trial","1","","","","","","","","","","","","","","","","","","","","",""
"","","","","","image-keyboard-response","226","473335","0.0-201.0","61003bb158741c6a1d79903b","665500ab8938657b03fbdba8","6657932507def77763fb3f0f","767","stimuli/2011110.jpg","2","","prediction_trial","1","","false","","2","true","true","false","false","false","false","[1,2]","011","110","0","","","","","","",""
"","","","","","image-keyboard-response","227","474125","0.0-202.0","61003bb158741c6a1d79903b","665500ab8938657b03fbdba8","6657932507def77763fb3f0f","788","stimuli/20111101.jpg"," ","","feedback_trial","1","","","","","","","","","","","","","","","","","","","","",""
"","","","","","image-keyboard-response","228","475695","0.0-203.0","61003bb158741c6a1d79903b","665500ab8938657b03fbdba8","6657932507def77763fb3f0f","1567","stimuli/0010000.jpg","0","","prediction_trial","0","","true","","0","true","true","true","true","true","true","[0]","010","000","1","","","","","","",""
"","","","","","image-keyboard-response","229","476155","0.0-204.0","61003bb158741c6a1d79903b","665500ab8938657b03fbdba8","6657932507def77763fb3f0f","458","stimuli/00100000.jpg"," ","","feedback_trial","0","","","","","","","","","","","","","","","","","","","","",""
"","","","","","image-keyboard-response","230","477235","0.0-205.0","61003bb158741c6a1d79903b","665500ab8938657b03fbdba8","6657932507def77763fb3f0f","1078","stimuli/2111010.jpg","2","","prediction_trial","1","","false","","2","true","true","false","false","false","false","[0,2,1]","111","010","0","","","","","","",""
"","","","","","image-keyboard-response","231","479285","0.0-206.0","61003bb158741c6a1d79903b","665500ab8938657b03fbdba8","6657932507def77763fb3f0f","2048","stimuli/21110101.jpg"," ","","feedback_trial","0","","","","","","","","","","","","","","","","","","","","",""
"","","","","","image-keyboard-response","232","480525","0.0-207.0","61003bb158741c6a1d79903b","665500ab8938657b03fbdba8","6657932507def77763fb3f0f","1238","stimuli/0010011.jpg","0","","prediction_trial","0","","true","","0","true","true","true","true","true","true","[0]","010","011","1","","","","","","",""
"","","","","","image-keyboard-response","233","480965","0.0-208.0","61003bb158741c6a1d79903b","665500ab8938657b03fbdba8","6657932507def77763fb3f0f","438","stimuli/00100110.jpg"," ","","feedback_trial","0","","","","","","","","","","","","","","","","","","","","",""
"","","","","","image-keyboard-response","234","482245","0.0-209.0","61003bb158741c6a1d79903b","665500ab8938657b03fbdba8","6657932507def77763fb3f0f","1278","stimuli/0000010.jpg","0","","prediction_trial","0","","true","","0","true","true","true","true","true","true","[0]","000","010","1","","","","","","",""
"","","","","","image-keyboard-response","235","482595","0.0-210.0","61003bb158741c6a1d79903b","665500ab8938657b03fbdba8","6657932507def77763fb3f0f","348","stimuli/00000100.jpg"," ","","feedback_trial","0","","","","","","","","","","","","","","","","","","","","",""
"","","","","","image-keyboard-response","236","484346","0.0-211.0","61003bb158741c6a1d79903b","665500ab8938657b03fbdba8","6657932507def77763fb3f0f","1748","stimuli/1110011.jpg","2","","prediction_trial","0","","false","","1","false","false","false","false","false","false","[0,1]","110","011","0","","","","","","",""
"","","","","","image-keyboard-response","237","485135","0.0-212.0","61003bb158741c6a1d79903b","665500ab8938657b03fbdba8","6657932507def77763fb3f0f","788","stimuli/11100110.jpg"," ","","feedback_trial","0","","","","","","","","","","","","","","","","","","","","",""
"","","","","","image-keyboard-response","238","485875","0.0-213.0","61003bb158741c6a1d79903b","665500ab8938657b03fbdba8","6657932507def77763fb3f0f","738","stimuli/2010101.jpg","2","","prediction_trial","2","","true","","2","false","false","true","true","false","false","[2]","010","101","1","","","","","","",""
"","","","","","image-keyboard-response","239","486566","0.0-214.0","61003bb158741c6a1d79903b","665500ab8938657b03fbdba8","6657932507def77763fb3f0f","688","stimuli/20101012.jpg"," ","","feedback_trial","2","","","","","","","","","","","","","","","","","","","","",""
"","","","","","image-keyboard-response","240","488076","0.0-215.0","61003bb158741c6a1d79903b","665500ab8938657b03fbdba8","6657932507def77763fb3f0f","1507","stimuli/2011011.jpg","1","","prediction_trial","1","","true","","2","false","false","false","false","false","false","[1,2]","011","011","1","","","","","","",""
"","","","","","image-keyboard-response","241","488406","0.0-216.0","61003bb158741c6a1d79903b","665500ab8938657b03fbdba8","6657932507def77763fb3f0f","328","stimuli/20110111.jpg"," ","","feedback_trial","1","","","","","","","","","","","","","","","","","","","","",""
"","","","","","image-keyboard-response","242","489985","0.0-217.0","61003bb158741c6a1d79903b","665500ab8938657b03fbdba8","6657932507def77763fb3f0f","1578","stimuli/1011010.jpg","1","","prediction_trial","2","","false","","1","false","true","false","false","false","false","[1,2]","011","010","0","","","","","","",""
"","","","","","image-keyboard-response","243","490416","0.0-218.0","61003bb158741c6a1d79903b","665500ab8938657b03fbdba8","6657932507def77763fb3f0f","428","stimuli/10110102.jpg"," ","","feedback_trial","1","","","","","","","","","","","","","","","","","","","","",""
"","","","","","image-keyboard-response","244","496236","0.0-219.0","61003bb158741c6a1d79903b","665500ab8938657b03fbdba8","6657932507def77763fb3f0f","5818","stimuli/1010011.jpg","1","","prediction_trial","1","","true","","1","false","false","false","true","false","false","[1]","010","011","1","","","","","","",""
"","","","","","image-keyboard-response","245","497186","0.0-220.0","61003bb158741c6a1d79903b","665500ab8938657b03fbdba8","6657932507def77763fb3f0f","948","stimuli/10100111.jpg"," ","","feedback_trial","1","","","","","","","","","","","","","","","","","","","","",""
"","","","","","image-keyboard-response","246","498386","0.0-221.0","61003bb158741c6a1d79903b","665500ab8938657b03fbdba8","6657932507def77763fb3f0f","1198","stimuli/0110101.jpg","0","","prediction_trial","0","","true","","0","false","false","false","false","false","false","[0,1]","110","101","1","","","","","","",""
"","","","","","image-keyboard-response","247","499976","0.0-222.0","61003bb158741c6a1d79903b","665500ab8938657b03fbdba8","6657932507def77763fb3f0f","1588","stimuli/01101010.jpg"," ","","feedback_trial","0","","","","","","","","","","","","","","","","","","","","",""
"","","","","","image-keyboard-response","248","503636","0.0-223.0","61003bb158741c6a1d79903b","665500ab8938657b03fbdba8","6657932507def77763fb3f0f","3657","stimuli/2000101.jpg","0","","prediction_trial","2","","false","","2","false","false","true","true","false","false","[2]","000","101","0","","","","","","",""
"","","","","","image-keyboard-response","249","506336","0.0-224.0","61003bb158741c6a1d79903b","665500ab8938657b03fbdba8","6657932507def77763fb3f0f","2698","stimuli/20001012.jpg"," ","","feedback_trial","2","","","","","","","","","","","","","","","","","","","","",""
"","","","","","image-keyboard-response","250","511266","0.0-225.0","61003bb158741c6a1d79903b","665500ab8938657b03fbdba8","6657932507def77763fb3f0f","4928","stimuli/1101011.jpg","2","","prediction_trial","1","","false","","1","false","false","true","true","false","false","[1]","101","011","0","","","","","","",""
"","","","","","image-keyboard-response","251","512226","0.0-226.0","61003bb158741c6a1d79903b","665500ab8938657b03fbdba8","6657932507def77763fb3f0f","958","stimuli/11010111.jpg"," ","","feedback_trial","1","","","","","","","","","","","","","","","","","","","","",""
"","","","","","image-keyboard-response","252","515856","0.0-227.0","61003bb158741c6a1d79903b","665500ab8938657b03fbdba8","6657932507def77763fb3f0f","3628","stimuli/0000110.jpg","1","","prediction_trial","0","","false","","0","false","false","true","true","false","false","[0]","000","110","0","","","","","","",""
"","","","","","image-keyboard-response","253","516186","0.0-228.0","61003bb158741c6a1d79903b","665500ab8938657b03fbdba8","6657932507def77763fb3f0f","328","stimuli/00001100.jpg"," ","","feedback_trial","0","","","","","","","","","","","","","","","","","","","","",""
"","","","","","image-keyboard-response","254","517126","0.0-229.0","61003bb158741c6a1d79903b","665500ab8938657b03fbdba8","6657932507def77763fb3f0f","938","stimuli/0100000.jpg","0","","prediction_trial","0","","true","","0","true","true","false","true","false","true","[0]","100","000","1","","","","","","",""
"","","","","","image-keyboard-response","255","517486","0.0-230.0","61003bb158741c6a1d79903b","665500ab8938657b03fbdba8","6657932507def77763fb3f0f","358","stimuli/01000000.jpg"," ","","feedback_trial","0","","","","","","","","","","","","","","","","","","","","",""
"","","","","","image-keyboard-response","256","520296","0.0-231.0","61003bb158741c6a1d79903b","665500ab8938657b03fbdba8","6657932507def77763fb3f0f","2808","stimuli/0011110.jpg","1","","prediction_trial","0","","false","","0","false","false","true","true","false","false","[0]","011","110","0","","","","","","",""
"","","","","","image-keyboard-response","257","520956","0.0-232.0","61003bb158741c6a1d79903b","665500ab8938657b03fbdba8","6657932507def77763fb3f0f","657","stimuli/00111100.jpg"," ","","feedback_trial","0","","","","","","","","","","","","","","","","","","","","",""
"","","","","","image-keyboard-response","258","523246","0.0-233.0","61003bb158741c6a1d79903b","665500ab8938657b03fbdba8","6657932507def77763fb3f0f","2287","stimuli/1100000.jpg","1","","prediction_trial","1","","true","","1","true","true","true","true","true","true","[1]","100","000","1","","","","","","",""
"","","","","","image-keyboard-response","259","523696","0.0-234.0","61003bb158741c6a1d79903b","665500ab8938657b03fbdba8","6657932507def77763fb3f0f","448","stimuli/11000001.jpg"," ","","feedback_trial","1","","","","","","","","","","","","","","","","","","","","",""
"","","","","","image-keyboard-response","260","524616","0.0-235.0","61003bb158741c6a1d79903b","665500ab8938657b03fbdba8","6657932507def77763fb3f0f","918","stimuli/0001010.jpg","0","","prediction_trial","0","","true","","0","true","true","true","true","true","true","[0]","001","010","1","","","","","","",""
"","","","","","image-keyboard-response","261","524996","0.0-236.0","61003bb158741c6a1d79903b","665500ab8938657b03fbdba8","6657932507def77763fb3f0f","378","stimuli/00010100.jpg"," ","","feedback_trial","0","","","","","","","","","","","","","","","","","","","","",""
"","","","","","image-keyboard-response","262","527026","0.0-237.0","61003bb158741c6a1d79903b","665500ab8938657b03fbdba8","6657932507def77763fb3f0f","2028","stimuli/0101000.jpg","0","","prediction_trial","0","","true","","0","true","true","false","false","false","false","[0,2]","101","000","1","","","","","","",""
"","","","","","image-keyboard-response","263","527666","0.0-238.0","61003bb158741c6a1d79903b","665500ab8938657b03fbdba8","6657932507def77763fb3f0f","638","stimuli/01010000.jpg"," ","","feedback_trial","0","","","","","","","","","","","","","","","","","","","","",""
"","","","","","image-keyboard-response","264","528746","0.0-239.0","61003bb158741c6a1d79903b","665500ab8938657b03fbdba8","6657932507def77763fb3f0f","1078","stimuli/2001011.jpg","1","","prediction_trial","2","","false","","2","false","false","false","true","false","false","[2]","001","011","0","","","","","","",""
"","","","","","image-keyboard-response","265","530396","0.0-240.0","61003bb158741c6a1d79903b","665500ab8938657b03fbdba8","6657932507def77763fb3f0f","1648","stimuli/20010112.jpg"," ","","feedback_trial","2","","","","","","","","","","","","","","","","","","","","",""
"","","","","","image-keyboard-response","266","531234","0.0-241.0","61003bb158741c6a1d79903b","665500ab8938657b03fbdba8","6657932507def77763fb3f0f","837","stimuli/1101110.jpg","1","","prediction_trial","1","","true","","1","false","false","true","true","false","false","[1]","101","110","1","","","","","","",""
"","","","","","image-keyboard-response","267","531796","0.0-242.0","61003bb158741c6a1d79903b","665500ab8938657b03fbdba8","6657932507def77763fb3f0f","560","stimuli/11011101.jpg"," ","","feedback_trial","1","","","","","","","","","","","","","","","","","","","","",""
"","","","","","image-keyboard-response","268","538227","0.0-243.0","61003bb158741c6a1d79903b","665500ab8938657b03fbdba8","6657932507def77763fb3f0f","6429","stimuli/2111001.jpg","0","","prediction_trial","0","","true","","2","false","true","false","false","false","false","[1,0,2]","111","001","1","","","","","","",""
"","","","","","image-keyboard-response","269","539366","0.0-244.0","61003bb158741c6a1d79903b","665500ab8938657b03fbdba8","6657932507def77763fb3f0f","1137","stimuli/21110010.jpg"," ","","feedback_trial","1","","","","","","","","","","","","","","","","","","","","",""
"","","","","","image-keyboard-response","270","540186","0.0-245.0","61003bb158741c6a1d79903b","665500ab8938657b03fbdba8","6657932507def77763fb3f0f","818","stimuli/1000100.jpg","1","","prediction_trial","1","","true","","1","true","true","true","true","true","true","[1]","000","100","1","","","","","","",""
"","","","","","image-keyboard-response","271","542235","0.0-246.0","61003bb158741c6a1d79903b","665500ab8938657b03fbdba8","6657932507def77763fb3f0f","2047","stimuli/10001001.jpg"," ","","feedback_trial","1","","","","","","","","","","","","","","","","","","","","",""
"","","","","","image-keyboard-response","272","543486","0.0-247.0","61003bb158741c6a1d79903b","665500ab8938657b03fbdba8","6657932507def77763fb3f0f","1249","stimuli/0111101.jpg","2","","prediction_trial","1","","false","","0","false","false","false","false","false","false","[2,0,1]","111","101","0","","","","","","",""
"","","","","","image-keyboard-response","273","544346","0.0-248.0","61003bb158741c6a1d79903b","665500ab8938657b03fbdba8","6657932507def77763fb3f0f","858","stimuli/01111011.jpg"," ","","feedback_trial","2","","","","","","","","","","","","","","","","","","","","",""
"","","","","","image-keyboard-response","274","545385","0.0-249.0","61003bb158741c6a1d79903b","665500ab8938657b03fbdba8","6657932507def77763fb3f0f","1037","stimuli/2001110.jpg","2","","prediction_trial","2","","true","","2","true","true","false","true","false","true","[2]","001","110","1","","","","","","",""
"","","","","","image-keyboard-response","275","545865","0.0-250.0","61003bb158741c6a1d79903b","665500ab8938657b03fbdba8","6657932507def77763fb3f0f","478","stimuli/20011102.jpg"," ","","feedback_trial","2","","","","","","","","","","","","","","","","","","","","",""
"","","","","","image-keyboard-response","276","546944","0.0-251.0","61003bb158741c6a1d79903b","665500ab8938657b03fbdba8","6657932507def77763fb3f0f","1078","stimuli/1000000.jpg","1","","prediction_trial","1","","true","","1","true","true","true","true","true","true","[1]","000","000","1","","","","","","",""
"","","","","","image-keyboard-response","277","547435","0.0-252.0","61003bb158741c6a1d79903b","665500ab8938657b03fbdba8","6657932507def77763fb3f0f","488","stimuli/10000001.jpg"," ","","feedback_trial","1","","","","","","","","","","","","","","","","","","","","",""
"","","","","","image-keyboard-response","278","551504","0.0-253.0","61003bb158741c6a1d79903b","665500ab8938657b03fbdba8","6657932507def77763fb3f0f","4068","stimuli/0111110.jpg","1","","prediction_trial","2","","false","","0","false","false","false","false","false","false","[1,0,2]","111","110","0","","","","","","",""
"","","","","","image-keyboard-response","279","551924","0.0-254.0","61003bb158741c6a1d79903b","665500ab8938657b03fbdba8","6657932507def77763fb3f0f","418","stimuli/01111102.jpg"," ","","feedback_trial","1","","","","","","","","","","","","","","","","","","","","",""
"","","","","","image-keyboard-response","280","553313","0.0-255.0","61003bb158741c6a1d79903b","665500ab8938657b03fbdba8","6657932507def77763fb3f0f","1387","stimuli/0011111.jpg","1","","prediction_trial","0","","false","","0","false","false","true","true","false","false","[0]","011","111","0","","","","","","",""
"","","","","","image-keyboard-response","281","554124","0.0-256.0","61003bb158741c6a1d79903b","665500ab8938657b03fbdba8","6657932507def77763fb3f0f","809","stimuli/00111110.jpg"," ","","feedback_trial","0","","","","","","","","","","","","","","","","","","","","",""
"","","","","","image-keyboard-response","282","555554","0.0-257.0","61003bb158741c6a1d79903b","665500ab8938657b03fbdba8","6657932507def77763fb3f0f","1428","stimuli/1100011.jpg","1","","prediction_trial","1","","true","","1","false","false","true","true","false","false","[1]","100","011","1","","","","","","",""
"","","","","","image-keyboard-response","283","556114","0.0-258.0","61003bb158741c6a1d79903b","665500ab8938657b03fbdba8","6657932507def77763fb3f0f","558","stimuli/11000111.jpg"," ","","feedback_trial","1","","","","","","","","","","","","","","","","","","","","",""
"","","","","","image-keyboard-response","284","557164","0.0-259.0","61003bb158741c6a1d79903b","665500ab8938657b03fbdba8","6657932507def77763fb3f0f","1048","stimuli/1011101.jpg","1","","prediction_trial","1","","true","","1","true","true","false","false","false","false","[2,1]","011","101","1","","","","","","",""
"","","","","","image-keyboard-response","285","557474","0.0-260.0","61003bb158741c6a1d79903b","665500ab8938657b03fbdba8","6657932507def77763fb3f0f","308","stimuli/10111011.jpg"," ","","feedback_trial","2","","","","","","","","","","","","","","","","","","","","",""
"","","","","","image-keyboard-response","286","560744","0.0-261.0","61003bb158741c6a1d79903b","665500ab8938657b03fbdba8","6657932507def77763fb3f0f","3268","stimuli/2001111.jpg","1","","prediction_trial","2","","false","","2","false","false","false","true","false","false","[2]","001","111","0","","","","","","",""
"","","","","","image-keyboard-response","287","562275","0.0-262.0","61003bb158741c6a1d79903b","665500ab8938657b03fbdba8","6657932507def77763fb3f0f","1528","stimuli/20011112.jpg"," ","","feedback_trial","2","","","","","","","","","","","","","","","","","","","","",""
"","","","","","image-keyboard-response","288","563485","0.0-263.0","61003bb158741c6a1d79903b","665500ab8938657b03fbdba8","6657932507def77763fb3f0f","1208","stimuli/0111001.jpg","0","","prediction_trial","2","","false","","0","true","true","false","false","false","false","[2,0,1]","111","001","0","","","","","","",""
"","","","","","image-keyboard-response","289","566014","0.0-264.0","61003bb158741c6a1d79903b","665500ab8938657b03fbdba8","6657932507def77763fb3f0f","2528","stimuli/01110012.jpg"," ","","feedback_trial","2","","","","","","","","","","","","","","","","","","","","",""
"","","","","","image-keyboard-response","290","567565","0.0-265.0","61003bb158741c6a1d79903b","665500ab8938657b03fbdba8","6657932507def77763fb3f0f","1548","stimuli/1010001.jpg","0","","prediction_trial","1","","false","","1","true","true","false","true","false","true","[1]","010","001","0","","","","","","",""
"","","","","","image-keyboard-response","291","571035","0.0-266.0","61003bb158741c6a1d79903b","665500ab8938657b03fbdba8","6657932507def77763fb3f0f","3467","stimuli/10100011.jpg"," ","","feedback_trial","1","","","","","","","","","","","","","","","","","","","","",""
"","","","","","image-keyboard-response","292","572084","0.0-267.0","61003bb158741c6a1d79903b","665500ab8938657b03fbdba8","6657932507def77763fb3f0f","1048","stimuli/0011011.jpg","0","","prediction_trial","0","","true","","0","true","true","true","true","true","true","[0]","011","011","1","","","","","","",""
"","","","","","image-keyboard-response","293","572655","0.0-268.0","61003bb158741c6a1d79903b","665500ab8938657b03fbdba8","6657932507def77763fb3f0f","568","stimuli/00110110.jpg"," ","","feedback_trial","0","","","","","","","","","","","","","","","","","","","","",""
"","","","","","image-keyboard-response","294","578014","0.0-269.0","61003bb158741c6a1d79903b","665500ab8938657b03fbdba8","6657932507def77763fb3f0f","5357","stimuli/1000110.jpg","0","","prediction_trial","1","","false","","1","false","false","true","true","false","false","[1]","000","110","0","","","","","","",""
"","","","","","image-keyboard-response","295","578924","0.0-270.0","61003bb158741c6a1d79903b","665500ab8938657b03fbdba8","6657932507def77763fb3f0f","908","stimuli/10001101.jpg"," ","","feedback_trial","1","","","","","","","","","","","","","","","","","","","","",""
"","","","","","image-keyboard-response","296","580064","0.0-271.0","61003bb158741c6a1d79903b","665500ab8938657b03fbdba8","6657932507def77763fb3f0f","1138","stimuli/2100100.jpg","2","","prediction_trial","2","","true","","2","true","true","true","true","true","true","[2]","100","100","1","","","","","","",""
"","","","","","image-keyboard-response","297","581294","0.0-272.0","61003bb158741c6a1d79903b","665500ab8938657b03fbdba8","6657932507def77763fb3f0f","1228","stimuli/21001002.jpg"," ","","feedback_trial","2","","","","","","","","","","","","","","","","","","","","",""
"","","","","","image-keyboard-response","298","586294","0.0-273.0","61003bb158741c6a1d79903b","665500ab8938657b03fbdba8","6657932507def77763fb3f0f","4998","stimuli/2110111.jpg","2","","prediction_trial","2","","true","","2","false","false","true","true","false","false","[2]","110","111","1","","","","","","",""
"","","","","","image-keyboard-response","299","586594","0.0-274.0","61003bb158741c6a1d79903b","665500ab8938657b03fbdba8","6657932507def77763fb3f0f","298","stimuli/21101112.jpg"," ","","feedback_trial","2","","","","","","","","","","","","","","","","","","","","",""
"","","","","","image-keyboard-response","300","591194","0.0-275.0","61003bb158741c6a1d79903b","665500ab8938657b03fbdba8","6657932507def77763fb3f0f","4598","stimuli/0111111.jpg","0","","prediction_trial","0","","true","","0","false","false","false","false","false","false","[1,2,0]","111","111","1","","","","","","",""
"","","","","","image-keyboard-response","301","591474","0.0-276.0","61003bb158741c6a1d79903b","665500ab8938657b03fbdba8","6657932507def77763fb3f0f","278","stimuli/01111110.jpg"," ","","feedback_trial","1","","","","","","","","","","","","","","","","","","","","",""
"","","","","","image-keyboard-response","302","593494","0.0-277.0","61003bb158741c6a1d79903b","665500ab8938657b03fbdba8","6657932507def77763fb3f0f","2018","stimuli/0010001.jpg","0","","prediction_trial","0","","true","","0","true","true","true","true","true","true","[0]","010","001","1","","","","","","",""
"","","","","","image-keyboard-response","303","594074","0.0-278.0","61003bb158741c6a1d79903b","665500ab8938657b03fbdba8","6657932507def77763fb3f0f","577","stimuli/00100010.jpg"," ","","feedback_trial","0","","","","","","","","","","","","","","","","","","","","",""
"","","","","","image-keyboard-response","304","596725","0.0-279.0","61003bb158741c6a1d79903b","665500ab8938657b03fbdba8","6657932507def77763fb3f0f","2648","stimuli/1011011.jpg","0","","prediction_trial","1","","false","","1","false","false","false","false","false","false","[1,2]","011","011","0","","","","","","",""
"","","","","","image-keyboard-response","305","597705","0.0-280.0","61003bb158741c6a1d79903b","665500ab8938657b03fbdba8","6657932507def77763fb3f0f","978","stimuli/10110111.jpg"," ","","feedback_trial","1","","","","","","","","","","","","","","","","","","","","",""
"","","","","","image-keyboard-response","306","599634","0.0-281.0","61003bb158741c6a1d79903b","665500ab8938657b03fbdba8","6657932507def77763fb3f0f","1927","stimuli/1110111.jpg","2","","prediction_trial","1","","false","","1","false","false","false","false","false","false","[1,0]","110","111","0","","","","","","",""
"","","","","","image-keyboard-response","307","600794","0.0-282.0","61003bb158741c6a1d79903b","665500ab8938657b03fbdba8","6657932507def77763fb3f0f","1158","stimuli/11101111.jpg"," ","","feedback_trial","1","","","","","","","","","","","","","","","","","","","","",""
"","","","","","image-keyboard-response","308","601774","0.0-283.0","61003bb158741c6a1d79903b","665500ab8938657b03fbdba8","6657932507def77763fb3f0f","978","stimuli/0011000.jpg","0","","prediction_trial","0","","true","","0","true","true","true","true","true","true","[0]","011","000","1","","","","","","",""
"","","","","","image-keyboard-response","309","602313","0.0-284.0","61003bb158741c6a1d79903b","665500ab8938657b03fbdba8","6657932507def77763fb3f0f","537","stimuli/00110000.jpg"," ","","feedback_trial","0","","","","","","","","","","","","","","","","","","","","",""
"","","","","","image-keyboard-response","310","603314","0.0-285.0","61003bb158741c6a1d79903b","665500ab8938657b03fbdba8","6657932507def77763fb3f0f","1000","stimuli/2000110.jpg","2","","prediction_trial","2","","true","","2","true","true","true","true","true","true","[2]","000","110","1","","","","","","",""
"","","","","","image-keyboard-response","311","603955","0.0-286.0","61003bb158741c6a1d79903b","665500ab8938657b03fbdba8","6657932507def77763fb3f0f","638","stimuli/20001102.jpg"," ","","feedback_trial","2","","","","","","","","","","","","","","","","","","","","",""
"","","","","","image-keyboard-response","312","605434","0.0-287.0","61003bb158741c6a1d79903b","665500ab8938657b03fbdba8","6657932507def77763fb3f0f","1477","stimuli/1111000.jpg","1","","prediction_trial","1","","true","","1","true","true","false","false","false","false","[2,0,1]","111","000","1","","","","","","",""
"","","","","","image-keyboard-response","313","605894","0.0-288.0","61003bb158741c6a1d79903b","665500ab8938657b03fbdba8","6657932507def77763fb3f0f","458","stimuli/11110001.jpg"," ","","feedback_trial","2","","","","","","","","","","","","","","","","","","","","",""
"","","","","","image-keyboard-response","314","606774","0.0-289.0","61003bb158741c6a1d79903b","665500ab8938657b03fbdba8","6657932507def77763fb3f0f","878","stimuli/2110100.jpg","2","","prediction_trial","2","","true","","2","true","true","true","true","true","true","[2]","110","100","1","","","","","","",""
"","","","","","image-keyboard-response","315","607174","0.0-290.0","61003bb158741c6a1d79903b","665500ab8938657b03fbdba8","6657932507def77763fb3f0f","398","stimuli/21101002.jpg"," ","","feedback_trial","2","","","","","","","","","","","","","","","","","","","","",""
"","","","","","image-keyboard-response","316","609533","0.0-291.0","61003bb158741c6a1d79903b","665500ab8938657b03fbdba8","6657932507def77763fb3f0f","2358","stimuli/0000101.jpg","2","","prediction_trial","0","","false","","0","false","false","true","true","false","false","[0]","000","101","0","","","","","","",""
"","","","","","image-keyboard-response","317","611424","0.0-292.0","61003bb158741c6a1d79903b","665500ab8938657b03fbdba8","6657932507def77763fb3f0f","1888","stimuli/00001010.jpg"," ","","feedback_trial","0","","","","","","","","","","","","","","","","","","","","",""
"","","","","","survey-html-form","318","641125","0.0-293.0","61003bb158741c6a1d79903b","665500ab8938657b03fbdba8","6657932507def77763fb3f0f","29673","","{""feedback"":""no"",""age"":""50"",""gender"":""Female"",""other_gender"":"""",""race"":""Asian"",""other_race"":"""",""ethnicity"":""Non-Hispanic""}","","exit_survey","","","","","","","","","","","","","","","","no","50","Non-Hispanic","Female","Asian","0.5416666666666666","0.5416666666666666"
