"success","timeout","failed_images","failed_audio","failed_video","trial_type","trial_index","time_elapsed","internal_node_id","prolific_id","prolific_study_id","prolific_session_id","rt","stimulus","response","view_history","trial","character_choice","stimulus_dict","accuracy","correct_response","ball_pos","ego_ball_visible","ego_can_infer","alter_ball_visible","alter_can_infer","collective_ball_visible","collective_can_infer","search_locations","alter_occluders","ego_occluders","accuracy_bool","feedback","age","ethnicity","gender","race","overall_accuracy","bonus"
"true","false","[]","[]","[]","preload","0","21299","0.0-0.0","62749fbd70a9fa9d1450f775","665500ab8938657b03fbdba8","66577e791f5820de30e93a65","","","","","","","","","","","","","","","","","","","","","","","","","","",""
"true","","","","","fullscreen","1","29418","0.0-1.0","62749fbd70a9fa9d1450f775","665500ab8938657b03fbdba8","66577e791f5820de30e93a65","","","","","","","","","","","","","","","","","","","","","","","","","","",""
"","","","","","html-button-response","2","35321","0.0-2.0","62749fbd70a9fa9d1450f775","665500ab8938657b03fbdba8","66577e791f5820de30e93a65","5902","<p><b>Consent Form</b></p> <div style=""text-align:left;background-color:lightgrey; padding:20px; max-width:900px;""><p>Please consider this information carefully before deciding whether to participate in this research.</p> <p>The purpose of this research is to examine which factors influence social judgment and decision-making. You will be asked to make judgements about individuals and actions in social scenarios. We are simply interested in your judgement. The study will take less than 1 hour to complete, and you will receive less than $20 on Prolific. Your compensation and time commitment are specified in the study description. There are no anticipated risks associated with participating in this study. The effects of participating should be comparable to those you would ordinarily experience from viewing a computer monitor and using a mouse or keyboard for a similar amount of time. At the end of the study, we will provide an explanation of the questions that motivate this line of research and will describe the potential implications. </p><p> Your participation in this study is completely voluntary and you may refuse to participate or you may choose to withdraw at any time without penalty or loss of benefits to you which are otherwise entitled. Your participation in this study will remain confidential. No personally identifiable information will be associated with your data. Also, all analyses of the data will be averaged across all the participants, so your individual responses will never be specifically analyzed. </p><p> If you have questions or concerns about your participation or payment, or want to request a summary of research findings, please contact Dr. Jonathan Phillips at Jonathan.S.Phillips@dartmouth.edu. </p><p> Please save a copy of this form for your records. </p><p><b>Agreement: </b>The nature and purpose of this research have been sufficiently explained and I agree to participate in this study. I understand that I am free to withdraw at any time without incurring any penalty. Please consent by clicking the button below to continue. Otherwise, please exit the study at any time. </p>","0","","","","","","","","","","","","","","","","","","","","","","","",""
"","","","","","instructions","3","108773","0.0-3.0-0.0","62749fbd70a9fa9d1450f775","665500ab8938657b03fbdba8","66577e791f5820de30e93a65","73452","","","[{""page_index"":0,""viewing_time"":3022},{""page_index"":1,""viewing_time"":2279},{""page_index"":2,""viewing_time"":3106},{""page_index"":3,""viewing_time"":4897},{""page_index"":4,""viewing_time"":3080},{""page_index"":5,""viewing_time"":7530},{""page_index"":6,""viewing_time"":6120},{""page_index"":7,""viewing_time"":4961},{""page_index"":8,""viewing_time"":3784},{""page_index"":9,""viewing_time"":2585},{""page_index"":10,""viewing_time"":11781},{""page_index"":11,""viewing_time"":9241},{""page_index"":12,""viewing_time"":9497},{""page_index"":13,""viewing_time"":1568}]","intro","","","","","","","","","","","","","","","","","","","","","",""
"","","","","","image-keyboard-response","4","122051","0.0-3.0-1.0","62749fbd70a9fa9d1450f775","665500ab8938657b03fbdba8","66577e791f5820de30e93a65","13276","stimuli/2010101.jpg","1","","prediction_practice","2","{""filepath"":""stimuli/2010101.jpg"",""ball_pos"":2,""ego_ball_visible"":false,""ego_can_infer"":false,""alter_ball_visible"":true,""alter_can_infer"":true,""collective_ball_visible"":false,""collective_can_infer"":false,""search_locations"":[2],""alter_occluders"":""010"",""ego_occluders"":""101""}","false","","","","","","","","","","","","","","","","","","",""
"","","","","","image-keyboard-response","5","126507","0.0-3.0-2.0","62749fbd70a9fa9d1450f775","665500ab8938657b03fbdba8","66577e791f5820de30e93a65","4454","stimuli/20101012.jpg"," ","","practrice_feedback","2","","","","","","","","","","","","","","","","","","","","",""
"","","","","","image-keyboard-response","6","128323","0.0-3.0-3.0","62749fbd70a9fa9d1450f775","665500ab8938657b03fbdba8","66577e791f5820de30e93a65","1815","stimuli/0000000.jpg","0","","prediction_practice","0","{""filepath"":""stimuli/0000000.jpg"",""ball_pos"":0,""ego_ball_visible"":true,""ego_can_infer"":true,""alter_ball_visible"":true,""alter_can_infer"":true,""collective_ball_visible"":true,""collective_can_infer"":true,""search_locations"":[0],""alter_occluders"":""000"",""ego_occluders"":""000""}","true","","","","","","","","","","","","","","","","","","",""
"","","","","","image-keyboard-response","7","129947","0.0-3.0-4.0","62749fbd70a9fa9d1450f775","665500ab8938657b03fbdba8","66577e791f5820de30e93a65","1623","stimuli/00000000.jpg"," ","","practrice_feedback","0","","","","","","","","","","","","","","","","","","","","",""
"","","","","","image-keyboard-response","8","131195","0.0-3.0-5.0","62749fbd70a9fa9d1450f775","665500ab8938657b03fbdba8","66577e791f5820de30e93a65","1247","stimuli/2110110.jpg","2","","prediction_practice","2","{""filepath"":""stimuli/2110110.jpg"",""ball_pos"":2,""ego_ball_visible"":true,""ego_can_infer"":true,""alter_ball_visible"":true,""alter_can_infer"":true,""collective_ball_visible"":true,""collective_can_infer"":true,""search_locations"":[2],""alter_occluders"":""110"",""ego_occluders"":""110""}","true","","","","","","","","","","","","","","","","","","",""
"","","","","","image-keyboard-response","9","132466","0.0-3.0-6.0","62749fbd70a9fa9d1450f775","665500ab8938657b03fbdba8","66577e791f5820de30e93a65","1270","stimuli/21101102.jpg"," ","","practrice_feedback","2","","","","","","","","","","","","","","","","","","","","",""
"","","","","","image-keyboard-response","10","136299","0.0-3.0-7.0","62749fbd70a9fa9d1450f775","665500ab8938657b03fbdba8","66577e791f5820de30e93a65","3832","stimuli/0001010.jpg","0","","prediction_practice","0","{""filepath"":""stimuli/0001010.jpg"",""ball_pos"":0,""ego_ball_visible"":true,""ego_can_infer"":true,""alter_ball_visible"":true,""alter_can_infer"":true,""collective_ball_visible"":true,""collective_can_infer"":true,""search_locations"":[0],""alter_occluders"":""001"",""ego_occluders"":""010""}","true","","","","","","","","","","","","","","","","","","",""
"","","","","","image-keyboard-response","11","137706","0.0-3.0-8.0","62749fbd70a9fa9d1450f775","665500ab8938657b03fbdba8","66577e791f5820de30e93a65","1406","stimuli/00010100.jpg"," ","","practrice_feedback","0","","","","","","","","","","","","","","","","","","","","",""
"","","","","","image-keyboard-response","12","138667","0.0-3.0-9.0","62749fbd70a9fa9d1450f775","665500ab8938657b03fbdba8","66577e791f5820de30e93a65","960","stimuli/2100010.jpg","2","","prediction_practice","2","{""filepath"":""stimuli/2100010.jpg"",""ball_pos"":2,""ego_ball_visible"":true,""ego_can_infer"":true,""alter_ball_visible"":true,""alter_can_infer"":true,""collective_ball_visible"":true,""collective_can_infer"":true,""search_locations"":[2],""alter_occluders"":""100"",""ego_occluders"":""010""}","true","","","","","","","","","","","","","","","","","","",""
"","","","","","image-keyboard-response","13","139651","0.0-3.0-10.0","62749fbd70a9fa9d1450f775","665500ab8938657b03fbdba8","66577e791f5820de30e93a65","983","stimuli/21000102.jpg"," ","","practrice_feedback","2","","","","","","","","","","","","","","","","","","","","",""
"","","","","","image-keyboard-response","14","143963","0.0-3.0-11.0","62749fbd70a9fa9d1450f775","665500ab8938657b03fbdba8","66577e791f5820de30e93a65","4311","stimuli/2011000.jpg","2","","prediction_practice","2","{""filepath"":""stimuli/2011000.jpg"",""ball_pos"":2,""ego_ball_visible"":true,""ego_can_infer"":true,""alter_ball_visible"":false,""alter_can_infer"":false,""collective_ball_visible"":false,""collective_can_infer"":false,""search_locations"":[1,2],""alter_occluders"":""011"",""ego_occluders"":""000""}","true","","","","","","","","","","","","","","","","","","",""
"","","","","","image-keyboard-response","15","144874","0.0-3.0-12.0","62749fbd70a9fa9d1450f775","665500ab8938657b03fbdba8","66577e791f5820de30e93a65","909","stimuli/20110002.jpg"," ","","practrice_feedback","1","","","","","","","","","","","","","","","","","","","","",""
"","","","","","image-keyboard-response","16","148099","0.0-3.0-13.0","62749fbd70a9fa9d1450f775","665500ab8938657b03fbdba8","66577e791f5820de30e93a65","3225","stimuli/1111111.jpg","1","","prediction_practice","1","{""filepath"":""stimuli/1111111.jpg"",""ball_pos"":1,""ego_ball_visible"":false,""ego_can_infer"":false,""alter_ball_visible"":false,""alter_can_infer"":false,""collective_ball_visible"":false,""collective_can_infer"":false,""search_locations"":[2,0,1],""alter_occluders"":""111"",""ego_occluders"":""111""}","true","","","","","","","","","","","","","","","","","","",""
"","","","","","image-keyboard-response","17","149279","0.0-3.0-14.0","62749fbd70a9fa9d1450f775","665500ab8938657b03fbdba8","66577e791f5820de30e93a65","1179","stimuli/11111111.jpg"," ","","practrice_feedback","2","","","","","","","","","","","","","","","","","","","","",""
"","","","","","image-keyboard-response","18","151837","0.0-3.0-15.0","62749fbd70a9fa9d1450f775","665500ab8938657b03fbdba8","66577e791f5820de30e93a65","2558","stimuli/2101101.jpg","2","","prediction_practice","0","{""filepath"":""stimuli/2101101.jpg"",""ball_pos"":2,""ego_ball_visible"":false,""ego_can_infer"":false,""alter_ball_visible"":false,""alter_can_infer"":false,""collective_ball_visible"":false,""collective_can_infer"":false,""search_locations"":[2,0],""alter_occluders"":""101"",""ego_occluders"":""101""}","false","","","","","","","","","","","","","","","","","","",""
"","","","","","image-keyboard-response","19","153111","0.0-3.0-16.0","62749fbd70a9fa9d1450f775","665500ab8938657b03fbdba8","66577e791f5820de30e93a65","1273","stimuli/21011010.jpg"," ","","practrice_feedback","2","","","","","","","","","","","","","","","","","","","","",""
"","","","","","image-keyboard-response","20","157039","0.0-3.0-17.0","62749fbd70a9fa9d1450f775","665500ab8938657b03fbdba8","66577e791f5820de30e93a65","3928","stimuli/2101111.jpg","2","","prediction_practice","0","{""filepath"":""stimuli/2101111.jpg"",""ball_pos"":2,""ego_ball_visible"":false,""ego_can_infer"":false,""alter_ball_visible"":false,""alter_can_infer"":false,""collective_ball_visible"":false,""collective_can_infer"":false,""search_locations"":[0,2],""alter_occluders"":""101"",""ego_occluders"":""111""}","false","","","","","","","","","","","","","","","","","","",""
"","","","","","image-keyboard-response","21","157983","0.0-3.0-18.0","62749fbd70a9fa9d1450f775","665500ab8938657b03fbdba8","66577e791f5820de30e93a65","942","stimuli/21011110.jpg"," ","","practrice_feedback","0","","","","","","","","","","","","","","","","","","","","",""
"","","","","","image-keyboard-response","22","159046","0.0-3.0-19.0","62749fbd70a9fa9d1450f775","665500ab8938657b03fbdba8","66577e791f5820de30e93a65","1063","stimuli/2000110.jpg","2","","prediction_practice","2","{""filepath"":""stimuli/2000110.jpg"",""ball_pos"":2,""ego_ball_visible"":true,""ego_can_infer"":true,""alter_ball_visible"":true,""alter_can_infer"":true,""collective_ball_visible"":true,""collective_can_infer"":true,""search_locations"":[2],""alter_occluders"":""000"",""ego_occluders"":""110""}","true","","","","","","","","","","","","","","","","","","",""
"","","","","","image-keyboard-response","23","160119","0.0-3.0-20.0","62749fbd70a9fa9d1450f775","665500ab8938657b03fbdba8","66577e791f5820de30e93a65","1071","stimuli/20001102.jpg"," ","","practrice_feedback","2","","","","","","","","","","","","","","","","","","","","",""
"","","","","","html-button-response","24","167459","0.0-3.0-21.0","62749fbd70a9fa9d1450f775","665500ab8938657b03fbdba8","66577e791f5820de30e93a65","7339","Now that you've had some practice, you'll be tested with a couple of easy trials. If you correctly predict Sam's choice, you'll move on to complete the experiment!","0","","","","","","","","","","","","","","","","","","","","","","","",""
"","","","","","image-keyboard-response","25","169055","0.0-3.0-22.0-0.0","62749fbd70a9fa9d1450f775","665500ab8938657b03fbdba8","66577e791f5820de30e93a65","1595","stimuli/0000011.jpg","arrowleft","","comprehension_quiz","","","true","arrowleft","","","","","","","","","","","","","","","","","",""
"","","","","","image-keyboard-response","26","169991","0.0-3.0-22.0-1.0","62749fbd70a9fa9d1450f775","665500ab8938657b03fbdba8","66577e791f5820de30e93a65","934","stimuli/00000110.jpg"," ","","comprehension_quiz","","","true"," ","","","","","","","","","","","","","","","","","",""
"","","","","","image-keyboard-response","27","172459","0.0-3.0-22.0-2.0","62749fbd70a9fa9d1450f775","665500ab8938657b03fbdba8","66577e791f5820de30e93a65","2467","stimuli/1010010.jpg","arrowdown","","comprehension_quiz","","","true","arrowdown","","","","","","","","","","","","","","","","","",""
"","","","","","image-keyboard-response","28","173151","0.0-3.0-22.0-3.0","62749fbd70a9fa9d1450f775","665500ab8938657b03fbdba8","66577e791f5820de30e93a65","691","stimuli/10100101.jpg"," ","","comprehension_quiz","","","true"," ","","","","","","","","","","","","","","","","","",""
"","","","","","html-button-response","29","175171","0.0-4.0","62749fbd70a9fa9d1450f775","665500ab8938657b03fbdba8","66577e791f5820de30e93a65","2017","The experiment will now begin.","0","","","","","","","","","","","","","","","","","","","","","","","",""
"","","","","","image-keyboard-response","30","177643","0.0-5.0","62749fbd70a9fa9d1450f775","665500ab8938657b03fbdba8","66577e791f5820de30e93a65","2472","stimuli/1010100.jpg","1","","prediction_trial","1","","true","","1","true","true","false","true","false","true","[1]","010","100","1","","","","","","",""
"","","","","","image-keyboard-response","31","178595","0.0-6.0","62749fbd70a9fa9d1450f775","665500ab8938657b03fbdba8","66577e791f5820de30e93a65","949","stimuli/10101001.jpg"," ","","feedback_trial","1","","","","","","","","","","","","","","","","","","","","",""
"","","","","","image-keyboard-response","32","180519","0.0-7.0","62749fbd70a9fa9d1450f775","665500ab8938657b03fbdba8","66577e791f5820de30e93a65","1923","stimuli/2011001.jpg","2","","prediction_trial","1","","false","","2","false","true","false","false","false","false","[1,2]","011","001","0","","","","","","",""
"","","","","","image-keyboard-response","33","181483","0.0-8.0","62749fbd70a9fa9d1450f775","665500ab8938657b03fbdba8","66577e791f5820de30e93a65","963","stimuli/20110011.jpg"," ","","feedback_trial","1","","","","","","","","","","","","","","","","","","","","",""
"","","","","","image-keyboard-response","34","184635","0.0-9.0","62749fbd70a9fa9d1450f775","665500ab8938657b03fbdba8","66577e791f5820de30e93a65","3151","stimuli/1111010.jpg","1","","prediction_trial","2","","false","","1","false","true","false","false","false","false","[0,1,2]","111","010","0","","","","","","",""
"","","","","","image-keyboard-response","35","185611","0.0-10.0","62749fbd70a9fa9d1450f775","665500ab8938657b03fbdba8","66577e791f5820de30e93a65","975","stimuli/11110102.jpg"," ","","feedback_trial","0","","","","","","","","","","","","","","","","","","","","",""
"","","","","","image-keyboard-response","36","186547","0.0-11.0","62749fbd70a9fa9d1450f775","665500ab8938657b03fbdba8","66577e791f5820de30e93a65","935","stimuli/0100000.jpg","0","","prediction_trial","0","","true","","0","true","true","false","true","false","true","[0]","100","000","1","","","","","","",""
"","","","","","image-keyboard-response","37","187387","0.0-12.0","62749fbd70a9fa9d1450f775","665500ab8938657b03fbdba8","66577e791f5820de30e93a65","839","stimuli/01000000.jpg"," ","","feedback_trial","0","","","","","","","","","","","","","","","","","","","","",""
"","","","","","image-keyboard-response","38","189706","0.0-13.0","62749fbd70a9fa9d1450f775","665500ab8938657b03fbdba8","66577e791f5820de30e93a65","2319","stimuli/2101011.jpg","1","","prediction_trial","2","","false","","2","false","false","false","false","false","false","[0,2]","101","011","0","","","","","","",""
"","","","","","image-keyboard-response","39","190834","0.0-14.0","62749fbd70a9fa9d1450f775","665500ab8938657b03fbdba8","66577e791f5820de30e93a65","1127","stimuli/21010112.jpg"," ","","feedback_trial","0","","","","","","","","","","","","","","","","","","","","",""
"","","","","","image-keyboard-response","40","192019","0.0-15.0","62749fbd70a9fa9d1450f775","665500ab8938657b03fbdba8","66577e791f5820de30e93a65","1184","stimuli/0001010.jpg","0","","prediction_trial","0","","true","","0","true","true","true","true","true","true","[0]","001","010","1","","","","","","",""
"","","","","","image-keyboard-response","41","193171","0.0-16.0","62749fbd70a9fa9d1450f775","665500ab8938657b03fbdba8","66577e791f5820de30e93a65","1151","stimuli/00010100.jpg"," ","","feedback_trial","0","","","","","","","","","","","","","","","","","","","","",""
"","","","","","image-keyboard-response","42","199451","0.0-17.0","62749fbd70a9fa9d1450f775","665500ab8938657b03fbdba8","66577e791f5820de30e93a65","6279","stimuli/0010111.jpg","1","","prediction_trial","0","","false","","0","false","false","true","true","false","false","[0]","010","111","0","","","","","","",""
"","","","","","image-keyboard-response","43","200219","0.0-18.0","62749fbd70a9fa9d1450f775","665500ab8938657b03fbdba8","66577e791f5820de30e93a65","768","stimuli/00101110.jpg"," ","","feedback_trial","0","","","","","","","","","","","","","","","","","","","","",""
"","","","","","image-keyboard-response","44","201891","0.0-19.0","62749fbd70a9fa9d1450f775","665500ab8938657b03fbdba8","66577e791f5820de30e93a65","1671","stimuli/1010111.jpg","1","","prediction_trial","1","","true","","1","false","false","false","true","false","false","[1]","010","111","1","","","","","","",""
"","","","","","image-keyboard-response","45","202562","0.0-20.0","62749fbd70a9fa9d1450f775","665500ab8938657b03fbdba8","66577e791f5820de30e93a65","670","stimuli/10101111.jpg"," ","","feedback_trial","1","","","","","","","","","","","","","","","","","","","","",""
"","","","","","image-keyboard-response","46","204331","0.0-21.0","62749fbd70a9fa9d1450f775","665500ab8938657b03fbdba8","66577e791f5820de30e93a65","1768","stimuli/2001011.jpg","1","","prediction_trial","2","","false","","2","false","false","false","true","false","false","[2]","001","011","0","","","","","","",""
"","","","","","image-keyboard-response","47","205275","0.0-22.0","62749fbd70a9fa9d1450f775","665500ab8938657b03fbdba8","66577e791f5820de30e93a65","943","stimuli/20010112.jpg"," ","","feedback_trial","2","","","","","","","","","","","","","","","","","","","","",""
"","","","","","image-keyboard-response","48","206371","0.0-23.0","62749fbd70a9fa9d1450f775","665500ab8938657b03fbdba8","66577e791f5820de30e93a65","1095","stimuli/2111111.jpg","1","","prediction_trial","1","","true","","2","false","false","false","false","false","false","[0,1,2]","111","111","1","","","","","","",""
"","","","","","image-keyboard-response","49","207459","0.0-24.0","62749fbd70a9fa9d1450f775","665500ab8938657b03fbdba8","66577e791f5820de30e93a65","1087","stimuli/21111111.jpg"," ","","feedback_trial","0","","","","","","","","","","","","","","","","","","","","",""
"","","","","","image-keyboard-response","50","208766","0.0-25.0","62749fbd70a9fa9d1450f775","665500ab8938657b03fbdba8","66577e791f5820de30e93a65","1306","stimuli/2110110.jpg","2","","prediction_trial","2","","true","","2","true","true","true","true","true","true","[2]","110","110","1","","","","","","",""
"","","","","","image-keyboard-response","51","209487","0.0-26.0","62749fbd70a9fa9d1450f775","665500ab8938657b03fbdba8","66577e791f5820de30e93a65","720","stimuli/21101102.jpg"," ","","feedback_trial","2","","","","","","","","","","","","","","","","","","","","",""
"","","","","","image-keyboard-response","52","210511","0.0-27.0","62749fbd70a9fa9d1450f775","665500ab8938657b03fbdba8","66577e791f5820de30e93a65","1023","stimuli/1000001.jpg","1","","prediction_trial","1","","true","","1","true","true","true","true","true","true","[1]","000","001","1","","","","","","",""
"","","","","","image-keyboard-response","53","211023","0.0-28.0","62749fbd70a9fa9d1450f775","665500ab8938657b03fbdba8","66577e791f5820de30e93a65","511","stimuli/10000011.jpg"," ","","feedback_trial","1","","","","","","","","","","","","","","","","","","","","",""
"","","","","","image-keyboard-response","54","211887","0.0-29.0","62749fbd70a9fa9d1450f775","665500ab8938657b03fbdba8","66577e791f5820de30e93a65","863","stimuli/2000010.jpg","2","","prediction_trial","2","","true","","2","true","true","true","true","true","true","[2]","000","010","1","","","","","","",""
"","","","","","image-keyboard-response","55","212383","0.0-30.0","62749fbd70a9fa9d1450f775","665500ab8938657b03fbdba8","66577e791f5820de30e93a65","495","stimuli/20000102.jpg"," ","","feedback_trial","2","","","","","","","","","","","","","","","","","","","","",""
"","","","","","image-keyboard-response","56","214079","0.0-31.0","62749fbd70a9fa9d1450f775","665500ab8938657b03fbdba8","66577e791f5820de30e93a65","1695","stimuli/1100111.jpg","1","","prediction_trial","1","","true","","1","false","false","true","true","false","false","[1]","100","111","1","","","","","","",""
"","","","","","image-keyboard-response","57","214814","0.0-32.0","62749fbd70a9fa9d1450f775","665500ab8938657b03fbdba8","66577e791f5820de30e93a65","734","stimuli/11001111.jpg"," ","","feedback_trial","1","","","","","","","","","","","","","","","","","","","","",""
"","","","","","image-keyboard-response","58","215639","0.0-33.0","62749fbd70a9fa9d1450f775","665500ab8938657b03fbdba8","66577e791f5820de30e93a65","824","stimuli/2000000.jpg","2","","prediction_trial","2","","true","","2","true","true","true","true","true","true","[2]","000","000","1","","","","","","",""
"","","","","","image-keyboard-response","59","216127","0.0-34.0","62749fbd70a9fa9d1450f775","665500ab8938657b03fbdba8","66577e791f5820de30e93a65","487","stimuli/20000002.jpg"," ","","feedback_trial","2","","","","","","","","","","","","","","","","","","","","",""
"","","","","","image-keyboard-response","60","218103","0.0-35.0","62749fbd70a9fa9d1450f775","665500ab8938657b03fbdba8","66577e791f5820de30e93a65","1975","stimuli/2111010.jpg","2","","prediction_trial","2","","true","","2","true","true","false","false","false","false","[0,2,1]","111","010","1","","","","","","",""
"","","","","","image-keyboard-response","61","218798","0.0-36.0","62749fbd70a9fa9d1450f775","665500ab8938657b03fbdba8","66577e791f5820de30e93a65","694","stimuli/21110102.jpg"," ","","feedback_trial","0","","","","","","","","","","","","","","","","","","","","",""
"","","","","","image-keyboard-response","62","221087","0.0-37.0","62749fbd70a9fa9d1450f775","665500ab8938657b03fbdba8","66577e791f5820de30e93a65","2289","stimuli/1001011.jpg","1","","prediction_trial","1","","true","","1","false","false","true","true","false","false","[1]","001","011","1","","","","","","",""
"","","","","","image-keyboard-response","63","221799","0.0-38.0","62749fbd70a9fa9d1450f775","665500ab8938657b03fbdba8","66577e791f5820de30e93a65","711","stimuli/10010111.jpg"," ","","feedback_trial","1","","","","","","","","","","","","","","","","","","","","",""
"","","","","","image-keyboard-response","64","225239","0.0-39.0","62749fbd70a9fa9d1450f775","665500ab8938657b03fbdba8","66577e791f5820de30e93a65","3439","stimuli/2001100.jpg","2","","prediction_trial","2","","true","","2","true","true","false","true","false","true","[2]","001","100","1","","","","","","",""
"","","","","","image-keyboard-response","65","225893","0.0-40.0","62749fbd70a9fa9d1450f775","665500ab8938657b03fbdba8","66577e791f5820de30e93a65","654","stimuli/20011002.jpg"," ","","feedback_trial","2","","","","","","","","","","","","","","","","","","","","",""
"","","","","","image-keyboard-response","66","230063","0.0-41.0","62749fbd70a9fa9d1450f775","665500ab8938657b03fbdba8","66577e791f5820de30e93a65","4169","stimuli/2001111.jpg","1","","prediction_trial","2","","false","","2","false","false","false","true","false","false","[2]","001","111","0","","","","","","",""
"","","","","","image-keyboard-response","67","231007","0.0-42.0","62749fbd70a9fa9d1450f775","665500ab8938657b03fbdba8","66577e791f5820de30e93a65","943","stimuli/20011112.jpg"," ","","feedback_trial","2","","","","","","","","","","","","","","","","","","","","",""
"","","","","","image-keyboard-response","68","232206","0.0-43.0","62749fbd70a9fa9d1450f775","665500ab8938657b03fbdba8","66577e791f5820de30e93a65","1199","stimuli/2111000.jpg","2","","prediction_trial","2","","true","","2","true","true","false","false","false","false","[1,2,0]","111","000","1","","","","","","",""
"","","","","","image-keyboard-response","69","232959","0.0-44.0","62749fbd70a9fa9d1450f775","665500ab8938657b03fbdba8","66577e791f5820de30e93a65","752","stimuli/21110002.jpg"," ","","feedback_trial","1","","","","","","","","","","","","","","","","","","","","",""
"","","","","","image-keyboard-response","70","235603","0.0-45.0","62749fbd70a9fa9d1450f775","665500ab8938657b03fbdba8","66577e791f5820de30e93a65","2643","stimuli/1011111.jpg","1","","prediction_trial","2","","false","","1","false","false","false","false","false","false","[2,1]","011","111","0","","","","","","",""
"","","","","","image-keyboard-response","71","236327","0.0-46.0","62749fbd70a9fa9d1450f775","665500ab8938657b03fbdba8","66577e791f5820de30e93a65","723","stimuli/10111112.jpg"," ","","feedback_trial","2","","","","","","","","","","","","","","","","","","","","",""
"","","","","","image-keyboard-response","72","238151","0.0-47.0","62749fbd70a9fa9d1450f775","665500ab8938657b03fbdba8","66577e791f5820de30e93a65","1823","stimuli/1101111.jpg","2","","prediction_trial","1","","false","","1","false","false","true","true","false","false","[1]","101","111","0","","","","","","",""
"","","","","","image-keyboard-response","73","239203","0.0-48.0","62749fbd70a9fa9d1450f775","665500ab8938657b03fbdba8","66577e791f5820de30e93a65","1051","stimuli/11011111.jpg"," ","","feedback_trial","1","","","","","","","","","","","","","","","","","","","","",""
"","","","","","image-keyboard-response","74","240939","0.0-49.0","62749fbd70a9fa9d1450f775","665500ab8938657b03fbdba8","66577e791f5820de30e93a65","1735","stimuli/0000010.jpg","0","","prediction_trial","0","","true","","0","true","true","true","true","true","true","[0]","000","010","1","","","","","","",""
"","","","","","image-keyboard-response","75","241851","0.0-50.0","62749fbd70a9fa9d1450f775","665500ab8938657b03fbdba8","66577e791f5820de30e93a65","911","stimuli/00000100.jpg"," ","","feedback_trial","0","","","","","","","","","","","","","","","","","","","","",""
"","","","","","image-keyboard-response","76","244890","0.0-51.0","62749fbd70a9fa9d1450f775","665500ab8938657b03fbdba8","66577e791f5820de30e93a65","3038","stimuli/1011100.jpg","1","","prediction_trial","2","","false","","1","true","true","false","false","false","false","[2,1]","011","100","0","","","","","","",""
"","","","","","image-keyboard-response","77","245627","0.0-52.0","62749fbd70a9fa9d1450f775","665500ab8938657b03fbdba8","66577e791f5820de30e93a65","737","stimuli/10111002.jpg"," ","","feedback_trial","2","","","","","","","","","","","","","","","","","","","","",""
"","","","","","image-keyboard-response","78","246675","0.0-53.0","62749fbd70a9fa9d1450f775","665500ab8938657b03fbdba8","66577e791f5820de30e93a65","1047","stimuli/1101101.jpg","1","","prediction_trial","1","","true","","1","true","true","true","true","true","true","[1]","101","101","1","","","","","","",""
"","","","","","image-keyboard-response","79","247170","0.0-54.0","62749fbd70a9fa9d1450f775","665500ab8938657b03fbdba8","66577e791f5820de30e93a65","494","stimuli/11011011.jpg"," ","","feedback_trial","1","","","","","","","","","","","","","","","","","","","","",""
"","","","","","image-keyboard-response","80","249883","0.0-55.0","62749fbd70a9fa9d1450f775","665500ab8938657b03fbdba8","66577e791f5820de30e93a65","2712","stimuli/2000101.jpg","0","","prediction_trial","2","","false","","2","false","false","true","true","false","false","[2]","000","101","0","","","","","","",""
"","","","","","image-keyboard-response","81","250779","0.0-56.0","62749fbd70a9fa9d1450f775","665500ab8938657b03fbdba8","66577e791f5820de30e93a65","896","stimuli/20001012.jpg"," ","","feedback_trial","2","","","","","","","","","","","","","","","","","","","","",""
"","","","","","image-keyboard-response","82","253523","0.0-57.0","62749fbd70a9fa9d1450f775","665500ab8938657b03fbdba8","66577e791f5820de30e93a65","2743","stimuli/0001110.jpg","0","","prediction_trial","0","","true","","0","false","false","true","true","false","false","[0]","001","110","1","","","","","","",""
"","","","","","image-keyboard-response","83","254139","0.0-58.0","62749fbd70a9fa9d1450f775","665500ab8938657b03fbdba8","66577e791f5820de30e93a65","615","stimuli/00011100.jpg"," ","","feedback_trial","0","","","","","","","","","","","","","","","","","","","","",""
"","","","","","image-keyboard-response","84","256868","0.0-59.0","62749fbd70a9fa9d1450f775","665500ab8938657b03fbdba8","66577e791f5820de30e93a65","2727","stimuli/1010110.jpg","0","","prediction_trial","1","","false","","1","false","false","false","true","false","false","[1]","010","110","0","","","","","","",""
"","","","","","image-keyboard-response","85","257642","0.0-60.0","62749fbd70a9fa9d1450f775","665500ab8938657b03fbdba8","66577e791f5820de30e93a65","774","stimuli/10101101.jpg"," ","","feedback_trial","1","","","","","","","","","","","","","","","","","","","","",""
"","","","","","image-keyboard-response","86","259346","0.0-61.0","62749fbd70a9fa9d1450f775","665500ab8938657b03fbdba8","66577e791f5820de30e93a65","1704","stimuli/1000010.jpg","1","","prediction_trial","1","","true","","1","false","true","true","true","false","true","[1]","000","010","1","","","","","","",""
"","","","","","image-keyboard-response","87","260667","0.0-62.0","62749fbd70a9fa9d1450f775","665500ab8938657b03fbdba8","66577e791f5820de30e93a65","1320","stimuli/10000101.jpg"," ","","feedback_trial","1","","","","","","","","","","","","","","","","","","","","",""
"","","","","","image-keyboard-response","88","264499","0.0-63.0","62749fbd70a9fa9d1450f775","665500ab8938657b03fbdba8","66577e791f5820de30e93a65","3831","stimuli/2010101.jpg","2","","prediction_trial","2","","true","","2","false","false","true","true","false","false","[2]","010","101","1","","","","","","",""
"","","","","","image-keyboard-response","89","265987","0.0-64.0","62749fbd70a9fa9d1450f775","665500ab8938657b03fbdba8","66577e791f5820de30e93a65","1488","stimuli/20101012.jpg"," ","","feedback_trial","2","","","","","","","","","","","","","","","","","","","","",""
"","","","","","image-keyboard-response","90","268028","0.0-65.0","62749fbd70a9fa9d1450f775","665500ab8938657b03fbdba8","66577e791f5820de30e93a65","2039","stimuli/2001001.jpg","2","","prediction_trial","2","","true","","2","false","true","false","true","false","true","[2]","001","001","1","","","","","","",""
"","","","","","image-keyboard-response","91","269003","0.0-66.0","62749fbd70a9fa9d1450f775","665500ab8938657b03fbdba8","66577e791f5820de30e93a65","975","stimuli/20010012.jpg"," ","","feedback_trial","2","","","","","","","","","","","","","","","","","","","","",""
"","","","","","image-keyboard-response","92","272255","0.0-67.0","62749fbd70a9fa9d1450f775","665500ab8938657b03fbdba8","66577e791f5820de30e93a65","3251","stimuli/2000011.jpg","1","","prediction_trial","2","","false","","2","false","false","true","true","false","false","[2]","000","011","0","","","","","","",""
"","","","","","image-keyboard-response","93","272914","0.0-68.0","62749fbd70a9fa9d1450f775","665500ab8938657b03fbdba8","66577e791f5820de30e93a65","658","stimuli/20000112.jpg"," ","","feedback_trial","2","","","","","","","","","","","","","","","","","","","","",""
"","","","","","image-keyboard-response","94","277574","0.0-69.0","62749fbd70a9fa9d1450f775","665500ab8938657b03fbdba8","66577e791f5820de30e93a65","4660","stimuli/0100111.jpg","1","","prediction_trial","0","","false","","0","false","false","false","true","false","false","[0]","100","111","0","","","","","","",""
"","","","","","image-keyboard-response","95","278350","0.0-70.0","62749fbd70a9fa9d1450f775","665500ab8938657b03fbdba8","66577e791f5820de30e93a65","775","stimuli/01001110.jpg"," ","","feedback_trial","0","","","","","","","","","","","","","","","","","","","","",""
"","","","","","image-keyboard-response","96","280070","0.0-71.0","62749fbd70a9fa9d1450f775","665500ab8938657b03fbdba8","66577e791f5820de30e93a65","1719","stimuli/2010010.jpg","2","","prediction_trial","2","","true","","2","true","true","true","true","true","true","[2]","010","010","1","","","","","","",""
"","","","","","image-keyboard-response","97","280807","0.0-72.0","62749fbd70a9fa9d1450f775","665500ab8938657b03fbdba8","66577e791f5820de30e93a65","737","stimuli/20100102.jpg"," ","","feedback_trial","2","","","","","","","","","","","","","","","","","","","","",""
"","","","","","image-keyboard-response","98","281511","0.0-73.0","62749fbd70a9fa9d1450f775","665500ab8938657b03fbdba8","66577e791f5820de30e93a65","703","stimuli/0011010.jpg","0","","prediction_trial","0","","true","","0","true","true","true","true","true","true","[0]","011","010","1","","","","","","",""
"","","","","","image-keyboard-response","99","282791","0.0-74.0","62749fbd70a9fa9d1450f775","665500ab8938657b03fbdba8","66577e791f5820de30e93a65","1279","stimuli/00110100.jpg"," ","","feedback_trial","0","","","","","","","","","","","","","","","","","","","","",""
"","","","","","image-keyboard-response","100","285742","0.0-75.0","62749fbd70a9fa9d1450f775","665500ab8938657b03fbdba8","66577e791f5820de30e93a65","2950","stimuli/1110010.jpg","1","","prediction_trial","1","","true","","1","false","true","false","false","false","false","[0,1]","110","010","1","","","","","","",""
"","","","","","image-keyboard-response","101","286382","0.0-76.0","62749fbd70a9fa9d1450f775","665500ab8938657b03fbdba8","66577e791f5820de30e93a65","640","stimuli/11100101.jpg"," ","","feedback_trial","0","","","","","","","","","","","","","","","","","","","","",""
"","","","","","image-keyboard-response","102","287399","0.0-77.0","62749fbd70a9fa9d1450f775","665500ab8938657b03fbdba8","66577e791f5820de30e93a65","1016","stimuli/2100000.jpg","2","","prediction_trial","2","","true","","2","true","true","true","true","true","true","[2]","100","000","1","","","","","","",""
"","","","","","image-keyboard-response","103","288111","0.0-78.0","62749fbd70a9fa9d1450f775","665500ab8938657b03fbdba8","66577e791f5820de30e93a65","711","stimuli/21000002.jpg"," ","","feedback_trial","2","","","","","","","","","","","","","","","","","","","","",""
"","","","","","image-keyboard-response","104","288936","0.0-79.0","62749fbd70a9fa9d1450f775","665500ab8938657b03fbdba8","66577e791f5820de30e93a65","824","stimuli/2110010.jpg","2","","prediction_trial","2","","true","","2","true","true","true","true","true","true","[2]","110","010","1","","","","","","",""
"","","","","","image-keyboard-response","105","289487","0.0-80.0","62749fbd70a9fa9d1450f775","665500ab8938657b03fbdba8","66577e791f5820de30e93a65","551","stimuli/21100102.jpg"," ","","feedback_trial","2","","","","","","","","","","","","","","","","","","","","",""
"","","","","","image-keyboard-response","106","291359","0.0-81.0","62749fbd70a9fa9d1450f775","665500ab8938657b03fbdba8","66577e791f5820de30e93a65","1871","stimuli/2001010.jpg","2","","prediction_trial","2","","true","","2","true","true","false","true","false","true","[2]","001","010","1","","","","","","",""
"","","","","","image-keyboard-response","107","292255","0.0-82.0","62749fbd70a9fa9d1450f775","665500ab8938657b03fbdba8","66577e791f5820de30e93a65","895","stimuli/20010102.jpg"," ","","feedback_trial","2","","","","","","","","","","","","","","","","","","","","",""
"","","","","","image-keyboard-response","108","293655","0.0-83.0","62749fbd70a9fa9d1450f775","665500ab8938657b03fbdba8","66577e791f5820de30e93a65","1399","stimuli/2001110.jpg","2","","prediction_trial","2","","true","","2","true","true","false","true","false","true","[2]","001","110","1","","","","","","",""
"","","","","","image-keyboard-response","109","294527","0.0-84.0","62749fbd70a9fa9d1450f775","665500ab8938657b03fbdba8","66577e791f5820de30e93a65","871","stimuli/20011102.jpg"," ","","feedback_trial","2","","","","","","","","","","","","","","","","","","","","",""
"","","","","","image-keyboard-response","110","298043","0.0-85.0","62749fbd70a9fa9d1450f775","665500ab8938657b03fbdba8","66577e791f5820de30e93a65","3515","stimuli/2101111.jpg","2","","prediction_trial","2","","true","","2","false","false","false","false","false","false","[0,2]","101","111","1","","","","","","",""
"","","","","","image-keyboard-response","111","298870","0.0-86.0","62749fbd70a9fa9d1450f775","665500ab8938657b03fbdba8","66577e791f5820de30e93a65","826","stimuli/21011112.jpg"," ","","feedback_trial","0","","","","","","","","","","","","","","","","","","","","",""
"","","","","","image-keyboard-response","112","300368","0.0-87.0","62749fbd70a9fa9d1450f775","665500ab8938657b03fbdba8","66577e791f5820de30e93a65","1497","stimuli/0101001.jpg","0","","prediction_trial","2","","false","","0","true","true","false","false","false","false","[0,2]","101","001","0","","","","","","",""
"","","","","","image-keyboard-response","113","301187","0.0-88.0","62749fbd70a9fa9d1450f775","665500ab8938657b03fbdba8","66577e791f5820de30e93a65","819","stimuli/01010012.jpg"," ","","feedback_trial","0","","","","","","","","","","","","","","","","","","","","",""
"","","","","","image-keyboard-response","114","304179","0.0-89.0","62749fbd70a9fa9d1450f775","665500ab8938657b03fbdba8","66577e791f5820de30e93a65","2991","stimuli/1110011.jpg","2","","prediction_trial","1","","false","","1","false","false","false","false","false","false","[0,1]","110","011","0","","","","","","",""
"","","","","","image-keyboard-response","115","305107","0.0-90.0","62749fbd70a9fa9d1450f775","665500ab8938657b03fbdba8","66577e791f5820de30e93a65","927","stimuli/11100111.jpg"," ","","feedback_trial","0","","","","","","","","","","","","","","","","","","","","",""
"","","","","","image-keyboard-response","116","306107","0.0-91.0","62749fbd70a9fa9d1450f775","665500ab8938657b03fbdba8","66577e791f5820de30e93a65","999","stimuli/0001001.jpg","0","","prediction_trial","0","","true","","0","true","true","true","true","true","true","[0]","001","001","1","","","","","","",""
"","","","","","image-keyboard-response","117","306939","0.0-92.0","62749fbd70a9fa9d1450f775","665500ab8938657b03fbdba8","66577e791f5820de30e93a65","831","stimuli/00010010.jpg"," ","","feedback_trial","0","","","","","","","","","","","","","","","","","","","","",""
"","","","","","image-keyboard-response","118","308899","0.0-93.0","62749fbd70a9fa9d1450f775","665500ab8938657b03fbdba8","66577e791f5820de30e93a65","1959","stimuli/2010001.jpg","2","","prediction_trial","2","","true","","2","false","true","true","true","false","true","[2]","010","001","1","","","","","","",""
"","","","","","image-keyboard-response","119","309762","0.0-94.0","62749fbd70a9fa9d1450f775","665500ab8938657b03fbdba8","66577e791f5820de30e93a65","862","stimuli/20100012.jpg"," ","","feedback_trial","2","","","","","","","","","","","","","","","","","","","","",""
"","","","","","image-keyboard-response","120","311547","0.0-95.0","62749fbd70a9fa9d1450f775","665500ab8938657b03fbdba8","66577e791f5820de30e93a65","1785","stimuli/2001000.jpg","2","","prediction_trial","2","","true","","2","true","true","false","true","false","true","[2]","001","000","1","","","","","","",""
"","","","","","image-keyboard-response","121","312131","0.0-96.0","62749fbd70a9fa9d1450f775","665500ab8938657b03fbdba8","66577e791f5820de30e93a65","583","stimuli/20010002.jpg"," ","","feedback_trial","2","","","","","","","","","","","","","","","","","","","","",""
"","","","","","image-keyboard-response","122","312962","0.0-97.0","62749fbd70a9fa9d1450f775","665500ab8938657b03fbdba8","66577e791f5820de30e93a65","830","stimuli/2100010.jpg","2","","prediction_trial","2","","true","","2","true","true","true","true","true","true","[2]","100","010","1","","","","","","",""
"","","","","","image-keyboard-response","123","313659","0.0-98.0","62749fbd70a9fa9d1450f775","665500ab8938657b03fbdba8","66577e791f5820de30e93a65","696","stimuli/21000102.jpg"," ","","feedback_trial","2","","","","","","","","","","","","","","","","","","","","",""
"","","","","","image-keyboard-response","124","314947","0.0-99.0","62749fbd70a9fa9d1450f775","665500ab8938657b03fbdba8","66577e791f5820de30e93a65","1287","stimuli/2011110.jpg","2","","prediction_trial","1","","false","","2","true","true","false","false","false","false","[2,1]","011","110","0","","","","","","",""
"","","","","","image-keyboard-response","125","317650","0.0-100.0","62749fbd70a9fa9d1450f775","665500ab8938657b03fbdba8","66577e791f5820de30e93a65","2702","stimuli/20111101.jpg"," ","","feedback_trial","2","","","","","","","","","","","","","","","","","","","","",""
"","","","","","image-keyboard-response","126","319306","0.0-101.0","62749fbd70a9fa9d1450f775","665500ab8938657b03fbdba8","66577e791f5820de30e93a65","1656","stimuli/0011101.jpg","0","","prediction_trial","0","","true","","0","false","false","true","true","false","false","[0]","011","101","1","","","","","","",""
"","","","","","image-keyboard-response","127","320267","0.0-102.0","62749fbd70a9fa9d1450f775","665500ab8938657b03fbdba8","66577e791f5820de30e93a65","961","stimuli/00111010.jpg"," ","","feedback_trial","0","","","","","","","","","","","","","","","","","","","","",""
"","","","","","image-keyboard-response","128","321546","0.0-103.0","62749fbd70a9fa9d1450f775","665500ab8938657b03fbdba8","66577e791f5820de30e93a65","1279","stimuli/0101010.jpg","0","","prediction_trial","2","","false","","0","true","true","false","false","false","false","[2,0]","101","010","0","","","","","","",""
"","","","","","image-keyboard-response","129","322596","0.0-104.0","62749fbd70a9fa9d1450f775","665500ab8938657b03fbdba8","66577e791f5820de30e93a65","1049","stimuli/01010102.jpg"," ","","feedback_trial","2","","","","","","","","","","","","","","","","","","","","",""
"","","","","","image-keyboard-response","130","323910","0.0-105.0","62749fbd70a9fa9d1450f775","665500ab8938657b03fbdba8","66577e791f5820de30e93a65","1314","stimuli/1111001.jpg","1","","prediction_trial","0","","false","","1","true","true","false","false","false","false","[0,2,1]","111","001","0","","","","","","",""
"","","","","","image-keyboard-response","131","324779","0.0-106.0","62749fbd70a9fa9d1450f775","665500ab8938657b03fbdba8","66577e791f5820de30e93a65","869","stimuli/11110010.jpg"," ","","feedback_trial","0","","","","","","","","","","","","","","","","","","","","",""
"","","","","","image-keyboard-response","132","325403","0.0-107.0","62749fbd70a9fa9d1450f775","665500ab8938657b03fbdba8","66577e791f5820de30e93a65","623","stimuli/2000110.jpg","2","","prediction_trial","2","","true","","2","true","true","true","true","true","true","[2]","000","110","1","","","","","","",""
"","","","","","image-keyboard-response","133","326098","0.0-108.0","62749fbd70a9fa9d1450f775","665500ab8938657b03fbdba8","66577e791f5820de30e93a65","695","stimuli/20001102.jpg"," ","","feedback_trial","2","","","","","","","","","","","","","","","","","","","","",""
"","","","","","image-keyboard-response","134","326970","0.0-109.0","62749fbd70a9fa9d1450f775","665500ab8938657b03fbdba8","66577e791f5820de30e93a65","871","stimuli/0111000.jpg","0","","prediction_trial","0","","true","","0","true","true","false","false","false","false","[0,1,2]","111","000","1","","","","","","",""
"","","","","","image-keyboard-response","135","327787","0.0-110.0","62749fbd70a9fa9d1450f775","665500ab8938657b03fbdba8","66577e791f5820de30e93a65","816","stimuli/01110000.jpg"," ","","feedback_trial","0","","","","","","","","","","","","","","","","","","","","",""
"","","","","","image-keyboard-response","136","329799","0.0-111.0","62749fbd70a9fa9d1450f775","665500ab8938657b03fbdba8","66577e791f5820de30e93a65","2011","stimuli/0010100.jpg","0","","prediction_trial","0","","true","","0","false","true","true","true","false","true","[0]","010","100","1","","","","","","",""
"","","","","","image-keyboard-response","137","330630","0.0-112.0","62749fbd70a9fa9d1450f775","665500ab8938657b03fbdba8","66577e791f5820de30e93a65","830","stimuli/00101000.jpg"," ","","feedback_trial","0","","","","","","","","","","","","","","","","","","","","",""
"","","","","","image-keyboard-response","138","331759","0.0-113.0","62749fbd70a9fa9d1450f775","665500ab8938657b03fbdba8","66577e791f5820de30e93a65","1129","stimuli/2111100.jpg","2","","prediction_trial","1","","false","","2","true","true","false","false","false","false","[2,1,0]","111","100","0","","","","","","",""
"","","","","","image-keyboard-response","139","333066","0.0-114.0","62749fbd70a9fa9d1450f775","665500ab8938657b03fbdba8","66577e791f5820de30e93a65","1307","stimuli/21111001.jpg"," ","","feedback_trial","2","","","","","","","","","","","","","","","","","","","","",""
"","","","","","image-keyboard-response","140","334623","0.0-115.0","62749fbd70a9fa9d1450f775","665500ab8938657b03fbdba8","66577e791f5820de30e93a65","1556","stimuli/2101001.jpg","2","","prediction_trial","2","","true","","2","false","true","false","false","false","false","[0,2]","101","001","1","","","","","","",""
"","","","","","image-keyboard-response","141","335422","0.0-116.0","62749fbd70a9fa9d1450f775","665500ab8938657b03fbdba8","66577e791f5820de30e93a65","799","stimuli/21010012.jpg"," ","","feedback_trial","0","","","","","","","","","","","","","","","","","","","","",""
"","","","","","image-keyboard-response","142","338551","0.0-117.0","62749fbd70a9fa9d1450f775","665500ab8938657b03fbdba8","66577e791f5820de30e93a65","3128","stimuli/2000001.jpg","2","","prediction_trial","2","","true","","2","false","true","true","true","false","true","[2]","000","001","1","","","","","","",""
"","","","","","image-keyboard-response","143","339095","0.0-118.0","62749fbd70a9fa9d1450f775","665500ab8938657b03fbdba8","66577e791f5820de30e93a65","543","stimuli/20000012.jpg"," ","","feedback_trial","2","","","","","","","","","","","","","","","","","","","","",""
"","","","","","image-keyboard-response","144","343806","0.0-119.0","62749fbd70a9fa9d1450f775","665500ab8938657b03fbdba8","66577e791f5820de30e93a65","4710","stimuli/0110111.jpg","2","","prediction_trial","1","","false","","0","false","false","false","false","false","false","[0,1]","110","111","0","","","","","","",""
"","","","","","image-keyboard-response","145","345278","0.0-120.0","62749fbd70a9fa9d1450f775","665500ab8938657b03fbdba8","66577e791f5820de30e93a65","1471","stimuli/01101111.jpg"," ","","feedback_trial","0","","","","","","","","","","","","","","","","","","","","",""
"","","","","","image-keyboard-response","146","348159","0.0-121.0","62749fbd70a9fa9d1450f775","665500ab8938657b03fbdba8","66577e791f5820de30e93a65","2881","stimuli/0101101.jpg","2","","prediction_trial","2","","true","","0","false","false","false","false","false","false","[2,0]","101","101","1","","","","","","",""
"","","","","","image-keyboard-response","147","349582","0.0-122.0","62749fbd70a9fa9d1450f775","665500ab8938657b03fbdba8","66577e791f5820de30e93a65","1422","stimuli/01011012.jpg"," ","","feedback_trial","2","","","","","","","","","","","","","","","","","","","","",""
"","","","","","image-keyboard-response","148","350847","0.0-123.0","62749fbd70a9fa9d1450f775","665500ab8938657b03fbdba8","66577e791f5820de30e93a65","1265","stimuli/1110000.jpg","1","","prediction_trial","0","","false","","1","true","true","false","false","false","false","[0,1]","110","000","0","","","","","","",""
"","","","","","image-keyboard-response","149","351615","0.0-124.0","62749fbd70a9fa9d1450f775","665500ab8938657b03fbdba8","66577e791f5820de30e93a65","767","stimuli/11100000.jpg"," ","","feedback_trial","0","","","","","","","","","","","","","","","","","","","","",""
"","","","","","image-keyboard-response","150","353335","0.0-125.0","62749fbd70a9fa9d1450f775","665500ab8938657b03fbdba8","66577e791f5820de30e93a65","1719","stimuli/0010101.jpg","2","","prediction_trial","0","","false","","0","false","false","true","true","false","false","[0]","010","101","0","","","","","","",""
"","","","","","image-keyboard-response","151","354175","0.0-126.0","62749fbd70a9fa9d1450f775","665500ab8938657b03fbdba8","66577e791f5820de30e93a65","840","stimuli/00101010.jpg"," ","","feedback_trial","0","","","","","","","","","","","","","","","","","","","","",""
"","","","","","image-keyboard-response","152","355302","0.0-127.0","62749fbd70a9fa9d1450f775","665500ab8938657b03fbdba8","66577e791f5820de30e93a65","1126","stimuli/0110001.jpg","0","","prediction_trial","1","","false","","0","true","true","false","false","false","false","[1,0]","110","001","0","","","","","","",""
"","","","","","image-keyboard-response","153","356040","0.0-128.0","62749fbd70a9fa9d1450f775","665500ab8938657b03fbdba8","66577e791f5820de30e93a65","737","stimuli/01100011.jpg"," ","","feedback_trial","1","","","","","","","","","","","","","","","","","","","","",""
"","","","","","image-keyboard-response","154","358431","0.0-129.0","62749fbd70a9fa9d1450f775","665500ab8938657b03fbdba8","66577e791f5820de30e93a65","2390","stimuli/1111110.jpg","1","","prediction_trial","0","","false","","1","false","false","false","false","false","false","[2,0,1]","111","110","0","","","","","","",""
"","","","","","image-keyboard-response","155","359159","0.0-130.0","62749fbd70a9fa9d1450f775","665500ab8938657b03fbdba8","66577e791f5820de30e93a65","727","stimuli/11111100.jpg"," ","","feedback_trial","2","","","","","","","","","","","","","","","","","","","","",""
"","","","","","image-keyboard-response","156","360055","0.0-131.0","62749fbd70a9fa9d1450f775","665500ab8938657b03fbdba8","66577e791f5820de30e93a65","895","stimuli/1100100.jpg","1","","prediction_trial","1","","true","","1","true","true","true","true","true","true","[1]","100","100","1","","","","","","",""
"","","","","","image-keyboard-response","157","360591","0.0-132.0","62749fbd70a9fa9d1450f775","665500ab8938657b03fbdba8","66577e791f5820de30e93a65","535","stimuli/11001001.jpg"," ","","feedback_trial","1","","","","","","","","","","","","","","","","","","","","",""
"","","","","","image-keyboard-response","158","362723","0.0-133.0","62749fbd70a9fa9d1450f775","665500ab8938657b03fbdba8","66577e791f5820de30e93a65","2131","stimuli/0111100.jpg","1","","prediction_trial","1","","true","","0","false","true","false","false","false","false","[0,2,1]","111","100","1","","","","","","",""
"","","","","","image-keyboard-response","159","363699","0.0-134.0","62749fbd70a9fa9d1450f775","665500ab8938657b03fbdba8","66577e791f5820de30e93a65","975","stimuli/01111001.jpg"," ","","feedback_trial","0","","","","","","","","","","","","","","","","","","","","",""
"","","","","","image-keyboard-response","160","368819","0.0-135.0","62749fbd70a9fa9d1450f775","665500ab8938657b03fbdba8","66577e791f5820de30e93a65","5119","stimuli/1010010.jpg","1","","prediction_trial","1","","true","","1","false","true","false","true","false","true","[1]","010","010","1","","","","","","",""
"","","","","","image-keyboard-response","161","369435","0.0-136.0","62749fbd70a9fa9d1450f775","665500ab8938657b03fbdba8","66577e791f5820de30e93a65","615","stimuli/10100101.jpg"," ","","feedback_trial","1","","","","","","","","","","","","","","","","","","","","",""
"","","","","","image-keyboard-response","162","371338","0.0-137.0","62749fbd70a9fa9d1450f775","665500ab8938657b03fbdba8","66577e791f5820de30e93a65","1903","stimuli/0011100.jpg","0","","prediction_trial","0","","true","","0","false","true","true","true","false","true","[0]","011","100","1","","","","","","",""
"","","","","","image-keyboard-response","163","371995","0.0-138.0","62749fbd70a9fa9d1450f775","665500ab8938657b03fbdba8","66577e791f5820de30e93a65","655","stimuli/00111000.jpg"," ","","feedback_trial","0","","","","","","","","","","","","","","","","","","","","",""
"","","","","","image-keyboard-response","164","374218","0.0-139.0","62749fbd70a9fa9d1450f775","665500ab8938657b03fbdba8","66577e791f5820de30e93a65","2223","stimuli/0110010.jpg","0","","prediction_trial","0","","true","","0","true","true","false","false","false","false","[0,1]","110","010","1","","","","","","",""
"","","","","","image-keyboard-response","165","374882","0.0-140.0","62749fbd70a9fa9d1450f775","665500ab8938657b03fbdba8","66577e791f5820de30e93a65","663","stimuli/01100100.jpg"," ","","feedback_trial","0","","","","","","","","","","","","","","","","","","","","",""
"","","","","","image-keyboard-response","166","378195","0.0-141.0","62749fbd70a9fa9d1450f775","665500ab8938657b03fbdba8","66577e791f5820de30e93a65","3311","stimuli/0110101.jpg","0","","prediction_trial","0","","true","","0","false","false","false","false","false","false","[0,1]","110","101","1","","","","","","",""
"","","","","","image-keyboard-response","167","379035","0.0-142.0","62749fbd70a9fa9d1450f775","665500ab8938657b03fbdba8","66577e791f5820de30e93a65","839","stimuli/01101010.jpg"," ","","feedback_trial","0","","","","","","","","","","","","","","","","","","","","",""
"","","","","","image-keyboard-response","168","380763","0.0-143.0","62749fbd70a9fa9d1450f775","665500ab8938657b03fbdba8","66577e791f5820de30e93a65","1727","stimuli/1100001.jpg","1","","prediction_trial","1","","true","","1","true","true","true","true","true","true","[1]","100","001","1","","","","","","",""
"","","","","","image-keyboard-response","169","381435","0.0-144.0","62749fbd70a9fa9d1450f775","665500ab8938657b03fbdba8","66577e791f5820de30e93a65","671","stimuli/11000011.jpg"," ","","feedback_trial","1","","","","","","","","","","","","","","","","","","","","",""
"","","","","","image-keyboard-response","170","386283","0.0-145.0","62749fbd70a9fa9d1450f775","665500ab8938657b03fbdba8","66577e791f5820de30e93a65","4847","stimuli/0100110.jpg","0","","prediction_trial","0","","true","","0","false","false","false","true","false","false","[0]","100","110","1","","","","","","",""
"","","","","","image-keyboard-response","171","387339","0.0-146.0","62749fbd70a9fa9d1450f775","665500ab8938657b03fbdba8","66577e791f5820de30e93a65","1055","stimuli/01001100.jpg"," ","","feedback_trial","0","","","","","","","","","","","","","","","","","","","","",""
"","","","","","image-keyboard-response","172","390026","0.0-147.0","62749fbd70a9fa9d1450f775","665500ab8938657b03fbdba8","66577e791f5820de30e93a65","2686","stimuli/1100011.jpg","1","","prediction_trial","1","","true","","1","false","false","true","true","false","false","[1]","100","011","1","","","","","","",""
"","","","","","image-keyboard-response","173","390899","0.0-148.0","62749fbd70a9fa9d1450f775","665500ab8938657b03fbdba8","66577e791f5820de30e93a65","872","stimuli/11000111.jpg"," ","","feedback_trial","1","","","","","","","","","","","","","","","","","","","","",""
"","","","","","image-keyboard-response","174","392822","0.0-149.0","62749fbd70a9fa9d1450f775","665500ab8938657b03fbdba8","66577e791f5820de30e93a65","1923","stimuli/0000101.jpg","2","","prediction_trial","0","","false","","0","false","false","true","true","false","false","[0]","000","101","0","","","","","","",""
"","","","","","image-keyboard-response","175","398639","0.0-150.0","62749fbd70a9fa9d1450f775","665500ab8938657b03fbdba8","66577e791f5820de30e93a65","5815","stimuli/00001010.jpg"," ","","feedback_trial","0","","","","","","","","","","","","","","","","","","","","",""
"","","","","","image-keyboard-response","176","400342","0.0-151.0","62749fbd70a9fa9d1450f775","665500ab8938657b03fbdba8","66577e791f5820de30e93a65","1702","stimuli/1101011.jpg","1","","prediction_trial","1","","true","","1","false","false","true","true","false","false","[1]","101","011","1","","","","","","",""
"","","","","","image-keyboard-response","177","401111","0.0-152.0","62749fbd70a9fa9d1450f775","665500ab8938657b03fbdba8","66577e791f5820de30e93a65","769","stimuli/11010111.jpg"," ","","feedback_trial","1","","","","","","","","","","","","","","","","","","","","",""
"","","","","","image-keyboard-response","178","402503","0.0-153.0","62749fbd70a9fa9d1450f775","665500ab8938657b03fbdba8","66577e791f5820de30e93a65","1391","stimuli/0111101.jpg","2","","prediction_trial","0","","false","","0","false","false","false","false","false","false","[0,2,1]","111","101","0","","","","","","",""
"","","","","","image-keyboard-response","179","403303","0.0-154.0","62749fbd70a9fa9d1450f775","665500ab8938657b03fbdba8","66577e791f5820de30e93a65","799","stimuli/01111010.jpg"," ","","feedback_trial","0","","","","","","","","","","","","","","","","","","","","",""
"","","","","","image-keyboard-response","180","404686","0.0-155.0","62749fbd70a9fa9d1450f775","665500ab8938657b03fbdba8","66577e791f5820de30e93a65","1383","stimuli/0100010.jpg","0","","prediction_trial","0","","true","","0","true","true","false","true","false","true","[0]","100","010","1","","","","","","",""
"","","","","","image-keyboard-response","181","405406","0.0-156.0","62749fbd70a9fa9d1450f775","665500ab8938657b03fbdba8","66577e791f5820de30e93a65","719","stimuli/01000100.jpg"," ","","feedback_trial","0","","","","","","","","","","","","","","","","","","","","",""
"","","","","","image-keyboard-response","182","406294","0.0-157.0","62749fbd70a9fa9d1450f775","665500ab8938657b03fbdba8","66577e791f5820de30e93a65","887","stimuli/1000000.jpg","1","","prediction_trial","1","","true","","1","true","true","true","true","true","true","[1]","000","000","1","","","","","","",""
"","","","","","image-keyboard-response","183","407135","0.0-158.0","62749fbd70a9fa9d1450f775","665500ab8938657b03fbdba8","66577e791f5820de30e93a65","840","stimuli/10000001.jpg"," ","","feedback_trial","1","","","","","","","","","","","","","","","","","","","","",""
"","","","","","image-keyboard-response","184","407901","0.0-159.0","62749fbd70a9fa9d1450f775","665500ab8938657b03fbdba8","66577e791f5820de30e93a65","766","stimuli/0101000.jpg","0","","prediction_trial","2","","false","","0","true","true","false","false","false","false","[2,0]","101","000","0","","","","","","",""
"","","","","","image-keyboard-response","185","409389","0.0-160.0","62749fbd70a9fa9d1450f775","665500ab8938657b03fbdba8","66577e791f5820de30e93a65","1488","stimuli/01010002.jpg"," ","","feedback_trial","2","","","","","","","","","","","","","","","","","","","","",""
"","","","","","image-keyboard-response","186","410551","0.0-161.0","62749fbd70a9fa9d1450f775","665500ab8938657b03fbdba8","66577e791f5820de30e93a65","1161","stimuli/1111101.jpg","1","","prediction_trial","2","","false","","1","true","true","false","false","false","false","[0,1,2]","111","101","0","","","","","","",""
"","","","","","image-keyboard-response","187","412199","0.0-162.0","62749fbd70a9fa9d1450f775","665500ab8938657b03fbdba8","66577e791f5820de30e93a65","1647","stimuli/11111012.jpg"," ","","feedback_trial","0","","","","","","","","","","","","","","","","","","","","",""
"","","","","","image-keyboard-response","188","412949","0.0-163.0","62749fbd70a9fa9d1450f775","665500ab8938657b03fbdba8","66577e791f5820de30e93a65","750","stimuli/0000000.jpg","0","","prediction_trial","0","","true","","0","true","true","true","true","true","true","[0]","000","000","1","","","","","","",""
"","","","","","image-keyboard-response","189","413534","0.0-164.0","62749fbd70a9fa9d1450f775","665500ab8938657b03fbdba8","66577e791f5820de30e93a65","584","stimuli/00000000.jpg"," ","","feedback_trial","0","","","","","","","","","","","","","","","","","","","","",""
"","","","","","image-keyboard-response","190","414759","0.0-165.0","62749fbd70a9fa9d1450f775","665500ab8938657b03fbdba8","66577e791f5820de30e93a65","1225","stimuli/1100000.jpg","1","","prediction_trial","1","","true","","1","true","true","true","true","true","true","[1]","100","000","1","","","","","","",""
"","","","","","image-keyboard-response","191","418511","0.0-166.0","62749fbd70a9fa9d1450f775","665500ab8938657b03fbdba8","66577e791f5820de30e93a65","3751","stimuli/11000001.jpg"," ","","feedback_trial","1","","","","","","","","","","","","","","","","","","","","",""
"","","","","","image-keyboard-response","192","419222","0.0-167.0","62749fbd70a9fa9d1450f775","665500ab8938657b03fbdba8","66577e791f5820de30e93a65","711","stimuli/1001100.jpg","1","","prediction_trial","1","","true","","1","true","true","true","true","true","true","[1]","001","100","1","","","","","","",""
"","","","","","image-keyboard-response","193","419727","0.0-168.0","62749fbd70a9fa9d1450f775","665500ab8938657b03fbdba8","66577e791f5820de30e93a65","503","stimuli/10011001.jpg"," ","","feedback_trial","1","","","","","","","","","","","","","","","","","","","","",""
"","","","","","image-keyboard-response","194","420719","0.0-169.0","62749fbd70a9fa9d1450f775","665500ab8938657b03fbdba8","66577e791f5820de30e93a65","992","stimuli/1111100.jpg","1","","prediction_trial","2","","false","","1","true","true","false","false","false","false","[2,0,1]","111","100","0","","","","","","",""
"","","","","","image-keyboard-response","195","421970","0.0-170.0","62749fbd70a9fa9d1450f775","665500ab8938657b03fbdba8","66577e791f5820de30e93a65","1251","stimuli/11111002.jpg"," ","","feedback_trial","2","","","","","","","","","","","","","","","","","","","","",""
"","","","","","image-keyboard-response","196","425698","0.0-171.0","62749fbd70a9fa9d1450f775","665500ab8938657b03fbdba8","66577e791f5820de30e93a65","3727","stimuli/0101111.jpg","2","","prediction_trial","0","","false","","0","false","false","false","false","false","false","[2,0]","101","111","0","","","","","","",""
"","","","","","image-keyboard-response","197","426473","0.0-172.0","62749fbd70a9fa9d1450f775","665500ab8938657b03fbdba8","66577e791f5820de30e93a65","774","stimuli/01011110.jpg"," ","","feedback_trial","2","","","","","","","","","","","","","","","","","","","","",""
"","","","","","image-keyboard-response","198","429474","0.0-173.0","62749fbd70a9fa9d1450f775","665500ab8938657b03fbdba8","66577e791f5820de30e93a65","3000","stimuli/0111010.jpg","1","","prediction_trial","0","","false","","0","true","true","false","false","false","false","[1,0,2]","111","010","0","","","","","","",""
"","","","","","image-keyboard-response","199","431393","0.0-174.0","62749fbd70a9fa9d1450f775","665500ab8938657b03fbdba8","66577e791f5820de30e93a65","1919","stimuli/01110100.jpg"," ","","feedback_trial","1","","","","","","","","","","","","","","","","","","","","",""
"","","","","","image-keyboard-response","200","434794","0.0-175.0","62749fbd70a9fa9d1450f775","665500ab8938657b03fbdba8","66577e791f5820de30e93a65","3400","stimuli/0111110.jpg","0","","prediction_trial","1","","false","","0","false","false","false","false","false","false","[1,0,2]","111","110","0","","","","","","",""
"","","","","","image-keyboard-response","201","436866","0.0-176.0","62749fbd70a9fa9d1450f775","665500ab8938657b03fbdba8","66577e791f5820de30e93a65","2071","stimuli/01111101.jpg"," ","","feedback_trial","1","","","","","","","","","","","","","","","","","","","","",""
"","","","","","image-keyboard-response","202","438506","0.0-177.0","62749fbd70a9fa9d1450f775","665500ab8938657b03fbdba8","66577e791f5820de30e93a65","1639","stimuli/0010010.jpg","0","","prediction_trial","0","","true","","0","true","true","true","true","true","true","[0]","010","010","1","","","","","","",""
"","","","","","image-keyboard-response","203","439017","0.0-178.0","62749fbd70a9fa9d1450f775","665500ab8938657b03fbdba8","66577e791f5820de30e93a65","510","stimuli/00100100.jpg"," ","","feedback_trial","0","","","","","","","","","","","","","","","","","","","","",""
"","","","","","image-keyboard-response","204","443738","0.0-179.0","62749fbd70a9fa9d1450f775","665500ab8938657b03fbdba8","66577e791f5820de30e93a65","4721","stimuli/1101110.jpg","0","","prediction_trial","1","","false","","1","false","false","true","true","false","false","[1]","101","110","0","","","","","","",""
"","","","","","image-keyboard-response","205","444770","0.0-180.0","62749fbd70a9fa9d1450f775","665500ab8938657b03fbdba8","66577e791f5820de30e93a65","1031","stimuli/11011101.jpg"," ","","feedback_trial","1","","","","","","","","","","","","","","","","","","","","",""
"","","","","","image-keyboard-response","206","447218","0.0-181.0","62749fbd70a9fa9d1450f775","665500ab8938657b03fbdba8","66577e791f5820de30e93a65","2447","stimuli/2100101.jpg","2","","prediction_trial","2","","true","","2","false","false","true","true","false","false","[2]","100","101","1","","","","","","",""
"","","","","","image-keyboard-response","207","448138","0.0-182.0","62749fbd70a9fa9d1450f775","665500ab8938657b03fbdba8","66577e791f5820de30e93a65","919","stimuli/21001012.jpg"," ","","feedback_trial","2","","","","","","","","","","","","","","","","","","","","",""
"","","","","","image-keyboard-response","208","452526","0.0-183.0","62749fbd70a9fa9d1450f775","665500ab8938657b03fbdba8","66577e791f5820de30e93a65","4387","stimuli/0101110.jpg","1","","prediction_trial","0","","false","","0","false","false","false","false","false","false","[2,0]","101","110","0","","","","","","",""
"","","","","","image-keyboard-response","209","454006","0.0-184.0","62749fbd70a9fa9d1450f775","665500ab8938657b03fbdba8","66577e791f5820de30e93a65","1480","stimuli/01011100.jpg"," ","","feedback_trial","2","","","","","","","","","","","","","","","","","","","","",""
"","","","","","image-keyboard-response","210","455174","0.0-185.0","62749fbd70a9fa9d1450f775","665500ab8938657b03fbdba8","66577e791f5820de30e93a65","1167","stimuli/1101100.jpg","1","","prediction_trial","1","","true","","1","true","true","true","true","true","true","[1]","101","100","1","","","","","","",""
"","","","","","image-keyboard-response","211","456341","0.0-186.0","62749fbd70a9fa9d1450f775","665500ab8938657b03fbdba8","66577e791f5820de30e93a65","1166","stimuli/11011001.jpg"," ","","feedback_trial","1","","","","","","","","","","","","","","","","","","","","",""
"","","","","","image-keyboard-response","212","461614","0.0-187.0","62749fbd70a9fa9d1450f775","665500ab8938657b03fbdba8","66577e791f5820de30e93a65","5273","stimuli/1000110.jpg","1","","prediction_trial","1","","true","","1","false","false","true","true","false","false","[1]","000","110","1","","","","","","",""
"","","","","","image-keyboard-response","213","463229","0.0-188.0","62749fbd70a9fa9d1450f775","665500ab8938657b03fbdba8","66577e791f5820de30e93a65","1614","stimuli/10001101.jpg"," ","","feedback_trial","1","","","","","","","","","","","","","","","","","","","","",""
"","","","","","image-keyboard-response","214","464462","0.0-189.0","62749fbd70a9fa9d1450f775","665500ab8938657b03fbdba8","66577e791f5820de30e93a65","1233","stimuli/2010100.jpg","2","","prediction_trial","2","","true","","2","true","true","true","true","true","true","[2]","010","100","1","","","","","","",""
"","","","","","image-keyboard-response","215","465254","0.0-190.0","62749fbd70a9fa9d1450f775","665500ab8938657b03fbdba8","66577e791f5820de30e93a65","791","stimuli/20101002.jpg"," ","","feedback_trial","2","","","","","","","","","","","","","","","","","","","","",""
"","","","","","image-keyboard-response","216","466942","0.0-191.0","62749fbd70a9fa9d1450f775","665500ab8938657b03fbdba8","66577e791f5820de30e93a65","1687","stimuli/0000110.jpg","1","","prediction_trial","0","","false","","0","false","false","true","true","false","false","[0]","000","110","0","","","","","","",""
"","","","","","image-keyboard-response","217","467869","0.0-192.0","62749fbd70a9fa9d1450f775","665500ab8938657b03fbdba8","66577e791f5820de30e93a65","927","stimuli/00001100.jpg"," ","","feedback_trial","0","","","","","","","","","","","","","","","","","","","","",""
"","","","","","image-keyboard-response","218","472741","0.0-193.0","62749fbd70a9fa9d1450f775","665500ab8938657b03fbdba8","66577e791f5820de30e93a65","4872","stimuli/2110011.jpg","1","","prediction_trial","2","","false","","2","false","false","true","true","false","false","[2]","110","011","0","","","","","","",""
"","","","","","image-keyboard-response","219","473814","0.0-194.0","62749fbd70a9fa9d1450f775","665500ab8938657b03fbdba8","66577e791f5820de30e93a65","1072","stimuli/21100112.jpg"," ","","feedback_trial","2","","","","","","","","","","","","","","","","","","","","",""
"","","","","","image-keyboard-response","220","475399","0.0-195.0","62749fbd70a9fa9d1450f775","665500ab8938657b03fbdba8","66577e791f5820de30e93a65","1584","stimuli/2110100.jpg","2","","prediction_trial","2","","true","","2","true","true","true","true","true","true","[2]","110","100","1","","","","","","",""
"","","","","","image-keyboard-response","221","477030","0.0-196.0","62749fbd70a9fa9d1450f775","665500ab8938657b03fbdba8","66577e791f5820de30e93a65","1630","stimuli/21101002.jpg"," ","","feedback_trial","2","","","","","","","","","","","","","","","","","","","","",""
"","","","","","image-keyboard-response","222","478020","0.0-197.0","62749fbd70a9fa9d1450f775","665500ab8938657b03fbdba8","66577e791f5820de30e93a65","990","stimuli/2100110.jpg","2","","prediction_trial","2","","true","","2","true","true","true","true","true","true","[2]","100","110","1","","","","","","",""
"","","","","","image-keyboard-response","223","478894","0.0-198.0","62749fbd70a9fa9d1450f775","665500ab8938657b03fbdba8","66577e791f5820de30e93a65","873","stimuli/21001102.jpg"," ","","feedback_trial","2","","","","","","","","","","","","","","","","","","","","",""
"","","","","","image-keyboard-response","224","480014","0.0-199.0","62749fbd70a9fa9d1450f775","665500ab8938657b03fbdba8","66577e791f5820de30e93a65","1119","stimuli/0100100.jpg","0","","prediction_trial","0","","true","","0","false","true","false","true","false","true","[0]","100","100","1","","","","","","",""
"","","","","","image-keyboard-response","225","480862","0.0-200.0","62749fbd70a9fa9d1450f775","665500ab8938657b03fbdba8","66577e791f5820de30e93a65","847","stimuli/01001000.jpg"," ","","feedback_trial","0","","","","","","","","","","","","","","","","","","","","",""
"","","","","","image-keyboard-response","226","481878","0.0-201.0","62749fbd70a9fa9d1450f775","665500ab8938657b03fbdba8","66577e791f5820de30e93a65","1015","stimuli/0000001.jpg","0","","prediction_trial","0","","true","","0","true","true","true","true","true","true","[0]","000","001","1","","","","","","",""
"","","","","","image-keyboard-response","227","482518","0.0-202.0","62749fbd70a9fa9d1450f775","665500ab8938657b03fbdba8","66577e791f5820de30e93a65","639","stimuli/00000010.jpg"," ","","feedback_trial","0","","","","","","","","","","","","","","","","","","","","",""
"","","","","","image-keyboard-response","228","488666","0.0-203.0","62749fbd70a9fa9d1450f775","665500ab8938657b03fbdba8","66577e791f5820de30e93a65","6147","stimuli/1100010.jpg","1","","prediction_trial","1","","true","","1","false","true","true","true","false","true","[1]","100","010","1","","","","","","",""
"","","","","","image-keyboard-response","229","489362","0.0-204.0","62749fbd70a9fa9d1450f775","665500ab8938657b03fbdba8","66577e791f5820de30e93a65","695","stimuli/11000101.jpg"," ","","feedback_trial","1","","","","","","","","","","","","","","","","","","","","",""
"","","","","","image-keyboard-response","230","490163","0.0-205.0","62749fbd70a9fa9d1450f775","665500ab8938657b03fbdba8","66577e791f5820de30e93a65","799","stimuli/2000100.jpg","2","","prediction_trial","2","","true","","2","true","true","true","true","true","true","[2]","000","100","1","","","","","","",""
"","","","","","image-keyboard-response","231","490795","0.0-206.0","62749fbd70a9fa9d1450f775","665500ab8938657b03fbdba8","66577e791f5820de30e93a65","631","stimuli/20001002.jpg"," ","","feedback_trial","2","","","","","","","","","","","","","","","","","","","","",""
"","","","","","image-keyboard-response","232","492418","0.0-207.0","62749fbd70a9fa9d1450f775","665500ab8938657b03fbdba8","66577e791f5820de30e93a65","1623","stimuli/0000100.jpg","0","","prediction_trial","0","","true","","0","false","true","true","true","false","true","[0]","000","100","1","","","","","","",""
"","","","","","image-keyboard-response","233","492985","0.0-208.0","62749fbd70a9fa9d1450f775","665500ab8938657b03fbdba8","66577e791f5820de30e93a65","565","stimuli/00001000.jpg"," ","","feedback_trial","0","","","","","","","","","","","","","","","","","","","","",""
"","","","","","image-keyboard-response","234","495346","0.0-209.0","62749fbd70a9fa9d1450f775","665500ab8938657b03fbdba8","66577e791f5820de30e93a65","2361","stimuli/2111011.jpg","0","","prediction_trial","0","","true","","2","false","false","false","false","false","false","[2,0,1]","111","011","1","","","","","","",""
"","","","","","image-keyboard-response","235","496242","0.0-210.0","62749fbd70a9fa9d1450f775","665500ab8938657b03fbdba8","66577e791f5820de30e93a65","895","stimuli/21110110.jpg"," ","","feedback_trial","2","","","","","","","","","","","","","","","","","","","","",""
"","","","","","image-keyboard-response","236","499291","0.0-211.0","62749fbd70a9fa9d1450f775","665500ab8938657b03fbdba8","66577e791f5820de30e93a65","3047","stimuli/2100111.jpg","1","","prediction_trial","2","","false","","2","false","false","true","true","false","false","[2]","100","111","0","","","","","","",""
"","","","","","image-keyboard-response","237","499978","0.0-212.0","62749fbd70a9fa9d1450f775","665500ab8938657b03fbdba8","66577e791f5820de30e93a65","687","stimuli/21001112.jpg"," ","","feedback_trial","2","","","","","","","","","","","","","","","","","","","","",""
"","","","","","image-keyboard-response","238","501865","0.0-213.0","62749fbd70a9fa9d1450f775","665500ab8938657b03fbdba8","66577e791f5820de30e93a65","1886","stimuli/0110100.jpg","0","","prediction_trial","1","","false","","0","false","true","false","false","false","false","[1,0]","110","100","0","","","","","","",""
"","","","","","image-keyboard-response","239","502522","0.0-214.0","62749fbd70a9fa9d1450f775","665500ab8938657b03fbdba8","66577e791f5820de30e93a65","657","stimuli/01101001.jpg"," ","","feedback_trial","1","","","","","","","","","","","","","","","","","","","","",""
"","","","","","image-keyboard-response","240","507593","0.0-215.0","62749fbd70a9fa9d1450f775","665500ab8938657b03fbdba8","66577e791f5820de30e93a65","5070","stimuli/0011110.jpg","0","","prediction_trial","0","","true","","0","false","false","true","true","false","false","[0]","011","110","1","","","","","","",""
"","","","","","image-keyboard-response","241","509398","0.0-216.0","62749fbd70a9fa9d1450f775","665500ab8938657b03fbdba8","66577e791f5820de30e93a65","1804","stimuli/00111100.jpg"," ","","feedback_trial","0","","","","","","","","","","","","","","","","","","","","",""
"","","","","","image-keyboard-response","242","511262","0.0-217.0","62749fbd70a9fa9d1450f775","665500ab8938657b03fbdba8","66577e791f5820de30e93a65","1864","stimuli/1000100.jpg","1","","prediction_trial","1","","true","","1","true","true","true","true","true","true","[1]","000","100","1","","","","","","",""
"","","","","","image-keyboard-response","243","512198","0.0-218.0","62749fbd70a9fa9d1450f775","665500ab8938657b03fbdba8","66577e791f5820de30e93a65","935","stimuli/10001001.jpg"," ","","feedback_trial","1","","","","","","","","","","","","","","","","","","","","",""
"","","","","","image-keyboard-response","244","516102","0.0-219.0","62749fbd70a9fa9d1450f775","665500ab8938657b03fbdba8","66577e791f5820de30e93a65","3902","stimuli/2010111.jpg","0","","prediction_trial","2","","false","","2","false","false","true","true","false","false","[2]","010","111","0","","","","","","",""
"","","","","","image-keyboard-response","245","516966","0.0-220.0","62749fbd70a9fa9d1450f775","665500ab8938657b03fbdba8","66577e791f5820de30e93a65","864","stimuli/20101112.jpg"," ","","feedback_trial","2","","","","","","","","","","","","","","","","","","","","",""
"","","","","","image-keyboard-response","246","518390","0.0-221.0","62749fbd70a9fa9d1450f775","665500ab8938657b03fbdba8","66577e791f5820de30e93a65","1423","stimuli/0010000.jpg","0","","prediction_trial","0","","true","","0","true","true","true","true","true","true","[0]","010","000","1","","","","","","",""
"","","","","","image-keyboard-response","247","519287","0.0-222.0","62749fbd70a9fa9d1450f775","665500ab8938657b03fbdba8","66577e791f5820de30e93a65","895","stimuli/00100000.jpg"," ","","feedback_trial","0","","","","","","","","","","","","","","","","","","","","",""
"","","","","","image-keyboard-response","248","521351","0.0-223.0","62749fbd70a9fa9d1450f775","665500ab8938657b03fbdba8","66577e791f5820de30e93a65","2063","stimuli/0100011.jpg","0","","prediction_trial","0","","true","","0","true","true","false","true","false","true","[0]","100","011","1","","","","","","",""
"","","","","","image-keyboard-response","249","522182","0.0-224.0","62749fbd70a9fa9d1450f775","665500ab8938657b03fbdba8","66577e791f5820de30e93a65","830","stimuli/01000110.jpg"," ","","feedback_trial","0","","","","","","","","","","","","","","","","","","","","",""
"","","","","","image-keyboard-response","250","526590","0.0-225.0","62749fbd70a9fa9d1450f775","665500ab8938657b03fbdba8","66577e791f5820de30e93a65","4408","stimuli/1100110.jpg","1","","prediction_trial","1","","true","","1","false","false","true","true","false","false","[1]","100","110","1","","","","","","",""
"","","","","","image-keyboard-response","251","527454","0.0-226.0","62749fbd70a9fa9d1450f775","665500ab8938657b03fbdba8","66577e791f5820de30e93a65","863","stimuli/11001101.jpg"," ","","feedback_trial","1","","","","","","","","","","","","","","","","","","","","",""
"","","","","","image-keyboard-response","252","531487","0.0-227.0","62749fbd70a9fa9d1450f775","665500ab8938657b03fbdba8","66577e791f5820de30e93a65","4031","stimuli/0110011.jpg","0","","prediction_trial","0","","true","","0","true","true","false","false","false","false","[0,1]","110","011","1","","","","","","",""
"","","","","","image-keyboard-response","253","532702","0.0-228.0","62749fbd70a9fa9d1450f775","665500ab8938657b03fbdba8","66577e791f5820de30e93a65","1214","stimuli/01100110.jpg"," ","","feedback_trial","0","","","","","","","","","","","","","","","","","","","","",""
"","","","","","image-keyboard-response","254","533663","0.0-229.0","62749fbd70a9fa9d1450f775","665500ab8938657b03fbdba8","66577e791f5820de30e93a65","959","stimuli/1101001.jpg","1","","prediction_trial","1","","true","","1","true","true","true","true","true","true","[1]","101","001","1","","","","","","",""
"","","","","","image-keyboard-response","255","534382","0.0-230.0","62749fbd70a9fa9d1450f775","665500ab8938657b03fbdba8","66577e791f5820de30e93a65","719","stimuli/11010011.jpg"," ","","feedback_trial","1","","","","","","","","","","","","","","","","","","","","",""
"","","","","","image-keyboard-response","256","537262","0.0-231.0","62749fbd70a9fa9d1450f775","665500ab8938657b03fbdba8","66577e791f5820de30e93a65","2879","stimuli/1010011.jpg","1","","prediction_trial","1","","true","","1","false","false","false","true","false","false","[1]","010","011","1","","","","","","",""
"","","","","","image-keyboard-response","257","538054","0.0-232.0","62749fbd70a9fa9d1450f775","665500ab8938657b03fbdba8","66577e791f5820de30e93a65","791","stimuli/10100111.jpg"," ","","feedback_trial","1","","","","","","","","","","","","","","","","","","","","",""
"","","","","","image-keyboard-response","258","539566","0.0-233.0","62749fbd70a9fa9d1450f775","665500ab8938657b03fbdba8","66577e791f5820de30e93a65","1511","stimuli/2101110.jpg","2","","prediction_trial","2","","true","","2","true","true","false","false","false","false","[2,0]","101","110","1","","","","","","",""
"","","","","","image-keyboard-response","259","540318","0.0-234.0","62749fbd70a9fa9d1450f775","665500ab8938657b03fbdba8","66577e791f5820de30e93a65","751","stimuli/21011102.jpg"," ","","feedback_trial","2","","","","","","","","","","","","","","","","","","","","",""
"","","","","","image-keyboard-response","260","541545","0.0-235.0","62749fbd70a9fa9d1450f775","665500ab8938657b03fbdba8","66577e791f5820de30e93a65","1226","stimuli/1111111.jpg","1","","prediction_trial","1","","true","","1","false","false","false","false","false","false","[2,0,1]","111","111","1","","","","","","",""
"","","","","","image-keyboard-response","261","542334","0.0-236.0","62749fbd70a9fa9d1450f775","665500ab8938657b03fbdba8","66577e791f5820de30e93a65","788","stimuli/11111111.jpg"," ","","feedback_trial","2","","","","","","","","","","","","","","","","","","","","",""
"","","","","","image-keyboard-response","262","546162","0.0-237.0","62749fbd70a9fa9d1450f775","665500ab8938657b03fbdba8","66577e791f5820de30e93a65","3827","stimuli/0010110.jpg","1","","prediction_trial","0","","false","","0","false","false","true","true","false","false","[0]","010","110","0","","","","","","",""
"","","","","","image-keyboard-response","263","546834","0.0-238.0","62749fbd70a9fa9d1450f775","665500ab8938657b03fbdba8","66577e791f5820de30e93a65","671","stimuli/00101100.jpg"," ","","feedback_trial","0","","","","","","","","","","","","","","","","","","","","",""
"","","","","","image-keyboard-response","264","548850","0.0-239.0","62749fbd70a9fa9d1450f775","665500ab8938657b03fbdba8","66577e791f5820de30e93a65","2015","stimuli/1111000.jpg","1","","prediction_trial","0","","false","","1","true","true","false","false","false","false","[1,0,2]","111","000","0","","","","","","",""
"","","","","","image-keyboard-response","265","549674","0.0-240.0","62749fbd70a9fa9d1450f775","665500ab8938657b03fbdba8","66577e791f5820de30e93a65","823","stimuli/11110000.jpg"," ","","feedback_trial","1","","","","","","","","","","","","","","","","","","","","",""
"","","","","","image-keyboard-response","266","553627","0.0-241.0","62749fbd70a9fa9d1450f775","665500ab8938657b03fbdba8","66577e791f5820de30e93a65","3952","stimuli/2011101.jpg","0","","prediction_trial","2","","false","","2","false","false","false","false","false","false","[1,2]","011","101","0","","","","","","",""
"","","","","","image-keyboard-response","267","554474","0.0-242.0","62749fbd70a9fa9d1450f775","665500ab8938657b03fbdba8","66577e791f5820de30e93a65","847","stimuli/20111012.jpg"," ","","feedback_trial","1","","","","","","","","","","","","","","","","","","","","",""
"","","","","","image-keyboard-response","268","557289","0.0-243.0","62749fbd70a9fa9d1450f775","665500ab8938657b03fbdba8","66577e791f5820de30e93a65","2814","stimuli/1000011.jpg","1","","prediction_trial","1","","true","","1","false","false","true","true","false","false","[1]","000","011","1","","","","","","",""
"","","","","","image-keyboard-response","269","558402","0.0-244.0","62749fbd70a9fa9d1450f775","665500ab8938657b03fbdba8","66577e791f5820de30e93a65","1112","stimuli/10000111.jpg"," ","","feedback_trial","1","","","","","","","","","","","","","","","","","","","","",""
"","","","","","image-keyboard-response","270","559978","0.0-245.0","62749fbd70a9fa9d1450f775","665500ab8938657b03fbdba8","66577e791f5820de30e93a65","1575","stimuli/0111011.jpg","0","","prediction_trial","0","","true","","0","true","true","false","false","false","false","[1,0,2]","111","011","1","","","","","","",""
"","","","","","image-keyboard-response","271","560610","0.0-246.0","62749fbd70a9fa9d1450f775","665500ab8938657b03fbdba8","66577e791f5820de30e93a65","631","stimuli/01110110.jpg"," ","","feedback_trial","1","","","","","","","","","","","","","","","","","","","","",""
"","","","","","image-keyboard-response","272","564417","0.0-247.0","62749fbd70a9fa9d1450f775","665500ab8938657b03fbdba8","66577e791f5820de30e93a65","3806","stimuli/2101010.jpg","2","","prediction_trial","0","","false","","2","true","true","false","false","false","false","[2,0]","101","010","0","","","","","","",""
"","","","","","image-keyboard-response","273","565058","0.0-248.0","62749fbd70a9fa9d1450f775","665500ab8938657b03fbdba8","66577e791f5820de30e93a65","641","stimuli/21010100.jpg"," ","","feedback_trial","2","","","","","","","","","","","","","","","","","","","","",""
"","","","","","image-keyboard-response","274","567050","0.0-249.0","62749fbd70a9fa9d1450f775","665500ab8938657b03fbdba8","66577e791f5820de30e93a65","1991","stimuli/0001011.jpg","0","","prediction_trial","0","","true","","0","true","true","true","true","true","true","[0]","001","011","1","","","","","","",""
"","","","","","image-keyboard-response","275","568377","0.0-250.0","62749fbd70a9fa9d1450f775","665500ab8938657b03fbdba8","66577e791f5820de30e93a65","1326","stimuli/00010110.jpg"," ","","feedback_trial","0","","","","","","","","","","","","","","","","","","","","",""
"","","","","","image-keyboard-response","276","570954","0.0-251.0","62749fbd70a9fa9d1450f775","665500ab8938657b03fbdba8","66577e791f5820de30e93a65","2576","stimuli/2101100.jpg","0","","prediction_trial","0","","true","","2","true","true","false","false","false","false","[2,0]","101","100","1","","","","","","",""
"","","","","","image-keyboard-response","277","571849","0.0-252.0","62749fbd70a9fa9d1450f775","665500ab8938657b03fbdba8","66577e791f5820de30e93a65","894","stimuli/21011000.jpg"," ","","feedback_trial","2","","","","","","","","","","","","","","","","","","","","",""
"","","","","","image-keyboard-response","278","573874","0.0-253.0","62749fbd70a9fa9d1450f775","665500ab8938657b03fbdba8","66577e791f5820de30e93a65","2025","stimuli/2111110.jpg","0","","prediction_trial","2","","false","","2","true","true","false","false","false","false","[0,1,2]","111","110","0","","","","","","",""
"","","","","","image-keyboard-response","279","577495","0.0-254.0","62749fbd70a9fa9d1450f775","665500ab8938657b03fbdba8","66577e791f5820de30e93a65","3620","stimuli/21111102.jpg"," ","","feedback_trial","0","","","","","","","","","","","","","","","","","","","","",""
"","","","","","image-keyboard-response","280","580582","0.0-255.0","62749fbd70a9fa9d1450f775","665500ab8938657b03fbdba8","66577e791f5820de30e93a65","3086","stimuli/1011001.jpg","1","","prediction_trial","1","","true","","1","true","true","false","false","false","false","[2,1]","011","001","1","","","","","","",""
"","","","","","image-keyboard-response","281","581853","0.0-256.0","62749fbd70a9fa9d1450f775","665500ab8938657b03fbdba8","66577e791f5820de30e93a65","1270","stimuli/10110011.jpg"," ","","feedback_trial","2","","","","","","","","","","","","","","","","","","","","",""
"","","","","","image-keyboard-response","282","582757","0.0-257.0","62749fbd70a9fa9d1450f775","665500ab8938657b03fbdba8","66577e791f5820de30e93a65","903","stimuli/1100101.jpg","1","","prediction_trial","1","","true","","1","true","true","true","true","true","true","[1]","100","101","1","","","","","","",""
"","","","","","image-keyboard-response","283","583398","0.0-258.0","62749fbd70a9fa9d1450f775","665500ab8938657b03fbdba8","66577e791f5820de30e93a65","641","stimuli/11001011.jpg"," ","","feedback_trial","1","","","","","","","","","","","","","","","","","","","","",""
"","","","","","image-keyboard-response","284","586630","0.0-259.0","62749fbd70a9fa9d1450f775","665500ab8938657b03fbdba8","66577e791f5820de30e93a65","3231","stimuli/0011111.jpg","1","","prediction_trial","0","","false","","0","false","false","true","true","false","false","[0]","011","111","0","","","","","","",""
"","","","","","image-keyboard-response","285","587374","0.0-260.0","62749fbd70a9fa9d1450f775","665500ab8938657b03fbdba8","66577e791f5820de30e93a65","743","stimuli/00111110.jpg"," ","","feedback_trial","0","","","","","","","","","","","","","","","","","","","","",""
"","","","","","image-keyboard-response","286","591127","0.0-261.0","62749fbd70a9fa9d1450f775","665500ab8938657b03fbdba8","66577e791f5820de30e93a65","3752","stimuli/0100101.jpg","0","","prediction_trial","0","","true","","0","false","false","false","true","false","false","[0]","100","101","1","","","","","","",""
"","","","","","image-keyboard-response","287","592821","0.0-262.0","62749fbd70a9fa9d1450f775","665500ab8938657b03fbdba8","66577e791f5820de30e93a65","1694","stimuli/01001010.jpg"," ","","feedback_trial","0","","","","","","","","","","","","","","","","","","","","",""
"","","","","","image-keyboard-response","288","593646","0.0-263.0","62749fbd70a9fa9d1450f775","665500ab8938657b03fbdba8","66577e791f5820de30e93a65","824","stimuli/1001000.jpg","1","","prediction_trial","1","","true","","1","true","true","true","true","true","true","[1]","001","000","1","","","","","","",""
"","","","","","image-keyboard-response","289","594206","0.0-264.0","62749fbd70a9fa9d1450f775","665500ab8938657b03fbdba8","66577e791f5820de30e93a65","559","stimuli/10010001.jpg"," ","","feedback_trial","1","","","","","","","","","","","","","","","","","","","","",""
"","","","","","image-keyboard-response","290","595646","0.0-265.0","62749fbd70a9fa9d1450f775","665500ab8938657b03fbdba8","66577e791f5820de30e93a65","1439","stimuli/2111001.jpg","0","","prediction_trial","2","","false","","2","false","true","false","false","false","false","[2,1,0]","111","001","0","","","","","","",""
"","","","","","image-keyboard-response","291","596413","0.0-266.0","62749fbd70a9fa9d1450f775","665500ab8938657b03fbdba8","66577e791f5820de30e93a65","766","stimuli/21110012.jpg"," ","","feedback_trial","2","","","","","","","","","","","","","","","","","","","","",""
"","","","","","image-keyboard-response","292","598198","0.0-267.0","62749fbd70a9fa9d1450f775","665500ab8938657b03fbdba8","66577e791f5820de30e93a65","1785","stimuli/2000111.jpg","0","","prediction_trial","2","","false","","2","false","false","true","true","false","false","[2]","000","111","0","","","","","","",""
"","","","","","image-keyboard-response","293","599182","0.0-268.0","62749fbd70a9fa9d1450f775","665500ab8938657b03fbdba8","66577e791f5820de30e93a65","983","stimuli/20001112.jpg"," ","","feedback_trial","2","","","","","","","","","","","","","","","","","","","","",""
"","","","","","image-keyboard-response","294","599917","0.0-269.0","62749fbd70a9fa9d1450f775","665500ab8938657b03fbdba8","66577e791f5820de30e93a65","734","stimuli/0010011.jpg","0","","prediction_trial","0","","true","","0","true","true","true","true","true","true","[0]","010","011","1","","","","","","",""
"","","","","","image-keyboard-response","295","600518","0.0-270.0","62749fbd70a9fa9d1450f775","665500ab8938657b03fbdba8","66577e791f5820de30e93a65","600","stimuli/00100110.jpg"," ","","feedback_trial","0","","","","","","","","","","","","","","","","","","","","",""
"","","","","","image-keyboard-response","296","602173","0.0-271.0","62749fbd70a9fa9d1450f775","665500ab8938657b03fbdba8","66577e791f5820de30e93a65","1654","stimuli/2110111.jpg","0","","prediction_trial","2","","false","","2","false","false","true","true","false","false","[2]","110","111","0","","","","","","",""
"","","","","","image-keyboard-response","297","603117","0.0-272.0","62749fbd70a9fa9d1450f775","665500ab8938657b03fbdba8","66577e791f5820de30e93a65","943","stimuli/21101112.jpg"," ","","feedback_trial","2","","","","","","","","","","","","","","","","","","","","",""
"","","","","","image-keyboard-response","298","605530","0.0-273.0","62749fbd70a9fa9d1450f775","665500ab8938657b03fbdba8","66577e791f5820de30e93a65","2413","stimuli/1001010.jpg","1","","prediction_trial","1","","true","","1","false","true","true","true","false","true","[1]","001","010","1","","","","","","",""
"","","","","","image-keyboard-response","299","606306","0.0-274.0","62749fbd70a9fa9d1450f775","665500ab8938657b03fbdba8","66577e791f5820de30e93a65","775","stimuli/10010101.jpg"," ","","feedback_trial","1","","","","","","","","","","","","","","","","","","","","",""
"","","","","","image-keyboard-response","300","608722","0.0-275.0","62749fbd70a9fa9d1450f775","665500ab8938657b03fbdba8","66577e791f5820de30e93a65","2415","stimuli/1010101.jpg","1","","prediction_trial","1","","true","","1","true","true","false","true","false","true","[1]","010","101","1","","","","","","",""
"","","","","","image-keyboard-response","301","609690","0.0-276.0","62749fbd70a9fa9d1450f775","665500ab8938657b03fbdba8","66577e791f5820de30e93a65","967","stimuli/10101011.jpg"," ","","feedback_trial","1","","","","","","","","","","","","","","","","","","","","",""
"","","","","","image-keyboard-response","302","611674","0.0-277.0","62749fbd70a9fa9d1450f775","665500ab8938657b03fbdba8","66577e791f5820de30e93a65","1983","stimuli/1010000.jpg","1","","prediction_trial","1","","true","","1","true","true","false","true","false","true","[1]","010","000","1","","","","","","",""
"","","","","","image-keyboard-response","303","612299","0.0-278.0","62749fbd70a9fa9d1450f775","665500ab8938657b03fbdba8","66577e791f5820de30e93a65","624","stimuli/10100001.jpg"," ","","feedback_trial","1","","","","","","","","","","","","","","","","","","","","",""
"","","","","","image-keyboard-response","304","613353","0.0-279.0","62749fbd70a9fa9d1450f775","665500ab8938657b03fbdba8","66577e791f5820de30e93a65","1053","stimuli/1001101.jpg","1","","prediction_trial","1","","true","","1","true","true","true","true","true","true","[1]","001","101","1","","","","","","",""
"","","","","","image-keyboard-response","305","614241","0.0-280.0","62749fbd70a9fa9d1450f775","665500ab8938657b03fbdba8","66577e791f5820de30e93a65","888","stimuli/10011011.jpg"," ","","feedback_trial","1","","","","","","","","","","","","","","","","","","","","",""
"","","","","","image-keyboard-response","306","615682","0.0-281.0","62749fbd70a9fa9d1450f775","665500ab8938657b03fbdba8","66577e791f5820de30e93a65","1441","stimuli/1101000.jpg","1","","prediction_trial","1","","true","","1","true","true","true","true","true","true","[1]","101","000","1","","","","","","",""
"","","","","","image-keyboard-response","307","616842","0.0-282.0","62749fbd70a9fa9d1450f775","665500ab8938657b03fbdba8","66577e791f5820de30e93a65","1159","stimuli/11010001.jpg"," ","","feedback_trial","1","","","","","","","","","","","","","","","","","","","","",""
"","","","","","image-keyboard-response","308","619873","0.0-283.0","62749fbd70a9fa9d1450f775","665500ab8938657b03fbdba8","66577e791f5820de30e93a65","3030","stimuli/2011100.jpg","1","","prediction_trial","1","","true","","2","true","true","false","false","false","false","[2,1]","011","100","1","","","","","","",""
"","","","","","image-keyboard-response","309","620793","0.0-284.0","62749fbd70a9fa9d1450f775","665500ab8938657b03fbdba8","66577e791f5820de30e93a65","920","stimuli/20111001.jpg"," ","","feedback_trial","2","","","","","","","","","","","","","","","","","","","","",""
"","","","","","image-keyboard-response","310","623066","0.0-285.0","62749fbd70a9fa9d1450f775","665500ab8938657b03fbdba8","66577e791f5820de30e93a65","2273","stimuli/0110000.jpg","1","","prediction_trial","0","","false","","0","true","true","false","false","false","false","[0,1]","110","000","0","","","","","","",""
"","","","","","image-keyboard-response","311","624122","0.0-286.0","62749fbd70a9fa9d1450f775","665500ab8938657b03fbdba8","66577e791f5820de30e93a65","1055","stimuli/01100000.jpg"," ","","feedback_trial","0","","","","","","","","","","","","","","","","","","","","",""
"","","","","","image-keyboard-response","312","626674","0.0-287.0","62749fbd70a9fa9d1450f775","665500ab8938657b03fbdba8","66577e791f5820de30e93a65","2551","stimuli/1011011.jpg","2","","prediction_trial","2","","true","","1","false","false","false","false","false","false","[2,1]","011","011","1","","","","","","",""
"","","","","","image-keyboard-response","313","627753","0.0-288.0","62749fbd70a9fa9d1450f775","665500ab8938657b03fbdba8","66577e791f5820de30e93a65","1078","stimuli/10110112.jpg"," ","","feedback_trial","2","","","","","","","","","","","","","","","","","","","","",""
"","","","","","image-keyboard-response","314","631058","0.0-289.0","62749fbd70a9fa9d1450f775","665500ab8938657b03fbdba8","66577e791f5820de30e93a65","3305","stimuli/1111011.jpg","1","","prediction_trial","1","","true","","1","false","false","false","false","false","false","[0,2,1]","111","011","1","","","","","","",""
"","","","","","image-keyboard-response","315","631929","0.0-290.0","62749fbd70a9fa9d1450f775","665500ab8938657b03fbdba8","66577e791f5820de30e93a65","871","stimuli/11110111.jpg"," ","","feedback_trial","0","","","","","","","","","","","","","","","","","","","","",""
"","","","","","image-keyboard-response","316","633555","0.0-291.0","62749fbd70a9fa9d1450f775","665500ab8938657b03fbdba8","66577e791f5820de30e93a65","1624","stimuli/0100001.jpg","0","","prediction_trial","0","","true","","0","true","true","false","true","false","true","[0]","100","001","1","","","","","","",""
"","","","","","image-keyboard-response","317","634333","0.0-292.0","62749fbd70a9fa9d1450f775","665500ab8938657b03fbdba8","66577e791f5820de30e93a65","777","stimuli/01000010.jpg"," ","","feedback_trial","0","","","","","","","","","","","","","","","","","","","","",""
"","","","","","survey-html-form","318","744612","0.0-293.0","62749fbd70a9fa9d1450f775","665500ab8938657b03fbdba8","66577e791f5820de30e93a65","110278","","{""feedback"":""I guess he would pick middle or left when he had to guess. I lean towards more of middle bias."",""age"":""43"",""gender"":""Male"",""other_gender"":"""",""race"":""Asian"",""other_race"":"""",""ethnicity"":""Non-Hispanic""}","","exit_survey","","","","","","","","","","","","","","","","I guess he would pick middle or left when he had to guess. I lean towards more of middle bias.","43","Non-Hispanic","Male","Asian","0.6597222222222222","0.6597222222222222"
