"success","timeout","failed_images","failed_audio","failed_video","trial_type","trial_index","time_elapsed","internal_node_id","prolific_id","prolific_study_id","prolific_session_id","rt","stimulus","response","view_history","trial","character_choice","stimulus_dict","accuracy","correct_response","ball_pos","ego_ball_visible","ego_can_infer","alter_ball_visible","alter_can_infer","collective_ball_visible","collective_can_infer","search_locations","alter_occluders","ego_occluders","accuracy_bool","feedback","age","ethnicity","gender","race","overall_accuracy","bonus"
"true","false","[]","[]","[]","preload","0","4726","0.0-0.0","5d2df745da13f60018d14b64","665500ab8938657b03fbdba8","665792df916558ed86d82a6d","","","","","","","","","","","","","","","","","","","","","","","","","","",""
"true","","","","","fullscreen","1","8994","0.0-1.0","5d2df745da13f60018d14b64","665500ab8938657b03fbdba8","665792df916558ed86d82a6d","","","","","","","","","","","","","","","","","","","","","","","","","","",""
"","","","","","html-button-response","2","13099","0.0-2.0","5d2df745da13f60018d14b64","665500ab8938657b03fbdba8","665792df916558ed86d82a6d","4104","<p><b>Consent Form</b></p> <div style=""text-align:left;background-color:lightgrey; padding:20px; max-width:900px;""><p>Please consider this information carefully before deciding whether to participate in this research.</p> <p>The purpose of this research is to examine which factors influence social judgment and decision-making. You will be asked to make judgements about individuals and actions in social scenarios. We are simply interested in your judgement. The study will take less than 1 hour to complete, and you will receive less than $20 on Prolific. Your compensation and time commitment are specified in the study description. There are no anticipated risks associated with participating in this study. The effects of participating should be comparable to those you would ordinarily experience from viewing a computer monitor and using a mouse or keyboard for a similar amount of time. At the end of the study, we will provide an explanation of the questions that motivate this line of research and will describe the potential implications. </p><p> Your participation in this study is completely voluntary and you may refuse to participate or you may choose to withdraw at any time without penalty or loss of benefits to you which are otherwise entitled. Your participation in this study will remain confidential. No personally identifiable information will be associated with your data. Also, all analyses of the data will be averaged across all the participants, so your individual responses will never be specifically analyzed. </p><p> If you have questions or concerns about your participation or payment, or want to request a summary of research findings, please contact Dr. Jonathan Phillips at Jonathan.S.Phillips@dartmouth.edu. </p><p> Please save a copy of this form for your records. </p><p><b>Agreement: </b>The nature and purpose of this research have been sufficiently explained and I agree to participate in this study. I understand that I am free to withdraw at any time without incurring any penalty. Please consent by clicking the button below to continue. Otherwise, please exit the study at any time. </p>","0","","","","","","","","","","","","","","","","","","","","","","","",""
"","","","","","instructions","3","53882","0.0-3.0-0.0","5d2df745da13f60018d14b64","665500ab8938657b03fbdba8","665792df916558ed86d82a6d","40783","","","[{""page_index"":0,""viewing_time"":1038},{""page_index"":1,""viewing_time"":1568},{""page_index"":2,""viewing_time"":1304},{""page_index"":3,""viewing_time"":2617},{""page_index"":4,""viewing_time"":2362},{""page_index"":5,""viewing_time"":1590},{""page_index"":6,""viewing_time"":2488},{""page_index"":7,""viewing_time"":1623},{""page_index"":8,""viewing_time"":3392},{""page_index"":9,""viewing_time"":1737},{""page_index"":10,""viewing_time"":10288},{""page_index"":11,""viewing_time"":5200},{""page_index"":12,""viewing_time"":4688},{""page_index"":13,""viewing_time"":888}]","intro","","","","","","","","","","","","","","","","","","","","","",""
"","","","","","image-keyboard-response","4","57603","0.0-3.0-1.0","5d2df745da13f60018d14b64","665500ab8938657b03fbdba8","665792df916558ed86d82a6d","3718","stimuli/1001011.jpg","1","","prediction_practice","1","{""filepath"":""stimuli/1001011.jpg"",""ball_pos"":1,""ego_ball_visible"":false,""ego_can_infer"":false,""alter_ball_visible"":true,""alter_can_infer"":true,""collective_ball_visible"":false,""collective_can_infer"":false,""search_locations"":[1],""alter_occluders"":""001"",""ego_occluders"":""011""}","true","","","","","","","","","","","","","","","","","","",""
"","","","","","image-keyboard-response","5","59491","0.0-3.0-2.0","5d2df745da13f60018d14b64","665500ab8938657b03fbdba8","665792df916558ed86d82a6d","1882","stimuli/10010111.jpg"," ","","practrice_feedback","1","","","","","","","","","","","","","","","","","","","","",""
"","","","","","image-keyboard-response","6","62707","0.0-3.0-3.0","5d2df745da13f60018d14b64","665500ab8938657b03fbdba8","665792df916558ed86d82a6d","3215","stimuli/1001010.jpg","1","","prediction_practice","1","{""filepath"":""stimuli/1001010.jpg"",""ball_pos"":1,""ego_ball_visible"":false,""ego_can_infer"":true,""alter_ball_visible"":true,""alter_can_infer"":true,""collective_ball_visible"":false,""collective_can_infer"":true,""search_locations"":[1],""alter_occluders"":""001"",""ego_occluders"":""010""}","true","","","","","","","","","","","","","","","","","","",""
"","","","","","image-keyboard-response","7","63475","0.0-3.0-4.0","5d2df745da13f60018d14b64","665500ab8938657b03fbdba8","665792df916558ed86d82a6d","767","stimuli/10010101.jpg"," ","","practrice_feedback","1","","","","","","","","","","","","","","","","","","","","",""
"","","","","","image-keyboard-response","8","65667","0.0-3.0-5.0","5d2df745da13f60018d14b64","665500ab8938657b03fbdba8","665792df916558ed86d82a6d","2191","stimuli/1110110.jpg","1","","prediction_practice","1","{""filepath"":""stimuli/1110110.jpg"",""ball_pos"":1,""ego_ball_visible"":false,""ego_can_infer"":false,""alter_ball_visible"":false,""alter_can_infer"":false,""collective_ball_visible"":false,""collective_can_infer"":false,""search_locations"":[1,0],""alter_occluders"":""110"",""ego_occluders"":""110""}","true","","","","","","","","","","","","","","","","","","",""
"","","","","","image-keyboard-response","9","66419","0.0-3.0-6.0","5d2df745da13f60018d14b64","665500ab8938657b03fbdba8","665792df916558ed86d82a6d","751","stimuli/11101101.jpg"," ","","practrice_feedback","1","","","","","","","","","","","","","","","","","","","","",""
"","","","","","image-keyboard-response","10","68979","0.0-3.0-7.0","5d2df745da13f60018d14b64","665500ab8938657b03fbdba8","665792df916558ed86d82a6d","2556","stimuli/0110011.jpg","0","","prediction_practice","0","{""filepath"":""stimuli/0110011.jpg"",""ball_pos"":0,""ego_ball_visible"":true,""ego_can_infer"":true,""alter_ball_visible"":false,""alter_can_infer"":false,""collective_ball_visible"":false,""collective_can_infer"":false,""search_locations"":[1,0],""alter_occluders"":""110"",""ego_occluders"":""011""}","true","","","","","","","","","","","","","","","","","","",""
"","","","","","image-keyboard-response","11","69747","0.0-3.0-8.0","5d2df745da13f60018d14b64","665500ab8938657b03fbdba8","665792df916558ed86d82a6d","767","stimuli/01100110.jpg"," ","","practrice_feedback","1","","","","","","","","","","","","","","","","","","","","",""
"","","","","","image-keyboard-response","12","72164","0.0-3.0-9.0","5d2df745da13f60018d14b64","665500ab8938657b03fbdba8","665792df916558ed86d82a6d","2416","stimuli/2001111.jpg","1","","prediction_practice","2","{""filepath"":""stimuli/2001111.jpg"",""ball_pos"":2,""ego_ball_visible"":false,""ego_can_infer"":false,""alter_ball_visible"":false,""alter_can_infer"":true,""collective_ball_visible"":false,""collective_can_infer"":false,""search_locations"":[2],""alter_occluders"":""001"",""ego_occluders"":""111""}","false","","","","","","","","","","","","","","","","","","",""
"","","","","","image-keyboard-response","13","75155","0.0-3.0-10.0","5d2df745da13f60018d14b64","665500ab8938657b03fbdba8","665792df916558ed86d82a6d","2991","stimuli/20011112.jpg"," ","","practrice_feedback","2","","","","","","","","","","","","","","","","","","","","",""
"","","","","","image-keyboard-response","14","76436","0.0-3.0-11.0","5d2df745da13f60018d14b64","665500ab8938657b03fbdba8","665792df916558ed86d82a6d","1279","stimuli/2111100.jpg","2","","prediction_practice","1","{""filepath"":""stimuli/2111100.jpg"",""ball_pos"":2,""ego_ball_visible"":true,""ego_can_infer"":true,""alter_ball_visible"":false,""alter_can_infer"":false,""collective_ball_visible"":false,""collective_can_infer"":false,""search_locations"":[0,1,2],""alter_occluders"":""111"",""ego_occluders"":""100""}","false","","","","","","","","","","","","","","","","","","",""
"","","","","","image-keyboard-response","15","77267","0.0-3.0-12.0","5d2df745da13f60018d14b64","665500ab8938657b03fbdba8","665792df916558ed86d82a6d","830","stimuli/21111001.jpg"," ","","practrice_feedback","0","","","","","","","","","","","","","","","","","","","","",""
"","","","","","image-keyboard-response","16","79635","0.0-3.0-13.0","5d2df745da13f60018d14b64","665500ab8938657b03fbdba8","665792df916558ed86d82a6d","2364","stimuli/0100100.jpg","0","","prediction_practice","0","{""filepath"":""stimuli/0100100.jpg"",""ball_pos"":0,""ego_ball_visible"":false,""ego_can_infer"":true,""alter_ball_visible"":false,""alter_can_infer"":true,""collective_ball_visible"":false,""collective_can_infer"":true,""search_locations"":[0],""alter_occluders"":""100"",""ego_occluders"":""100""}","true","","","","","","","","","","","","","","","","","","",""
"","","","","","image-keyboard-response","17","80291","0.0-3.0-14.0","5d2df745da13f60018d14b64","665500ab8938657b03fbdba8","665792df916558ed86d82a6d","655","stimuli/01001000.jpg"," ","","practrice_feedback","0","","","","","","","","","","","","","","","","","","","","",""
"","","","","","image-keyboard-response","18","82995","0.0-3.0-15.0","5d2df745da13f60018d14b64","665500ab8938657b03fbdba8","665792df916558ed86d82a6d","2704","stimuli/1010111.jpg","1","","prediction_practice","1","{""filepath"":""stimuli/1010111.jpg"",""ball_pos"":1,""ego_ball_visible"":false,""ego_can_infer"":false,""alter_ball_visible"":false,""alter_can_infer"":true,""collective_ball_visible"":false,""collective_can_infer"":false,""search_locations"":[1],""alter_occluders"":""010"",""ego_occluders"":""111""}","true","","","","","","","","","","","","","","","","","","",""
"","","","","","image-keyboard-response","19","83619","0.0-3.0-16.0","5d2df745da13f60018d14b64","665500ab8938657b03fbdba8","665792df916558ed86d82a6d","623","stimuli/10101111.jpg"," ","","practrice_feedback","1","","","","","","","","","","","","","","","","","","","","",""
"","","","","","image-keyboard-response","20","85363","0.0-3.0-17.0","5d2df745da13f60018d14b64","665500ab8938657b03fbdba8","665792df916558ed86d82a6d","1743","stimuli/0101001.jpg","0","","prediction_practice","0","{""filepath"":""stimuli/0101001.jpg"",""ball_pos"":0,""ego_ball_visible"":true,""ego_can_infer"":true,""alter_ball_visible"":false,""alter_can_infer"":false,""collective_ball_visible"":false,""collective_can_infer"":false,""search_locations"":[2,0],""alter_occluders"":""101"",""ego_occluders"":""001""}","true","","","","","","","","","","","","","","","","","","",""
"","","","","","image-keyboard-response","21","86115","0.0-3.0-18.0","5d2df745da13f60018d14b64","665500ab8938657b03fbdba8","665792df916558ed86d82a6d","751","stimuli/01010010.jpg"," ","","practrice_feedback","2","","","","","","","","","","","","","","","","","","","","",""
"","","","","","image-keyboard-response","22","87043","0.0-3.0-19.0","5d2df745da13f60018d14b64","665500ab8938657b03fbdba8","665792df916558ed86d82a6d","924","stimuli/1000001.jpg","1","","prediction_practice","1","{""filepath"":""stimuli/1000001.jpg"",""ball_pos"":1,""ego_ball_visible"":true,""ego_can_infer"":true,""alter_ball_visible"":true,""alter_can_infer"":true,""collective_ball_visible"":true,""collective_can_infer"":true,""search_locations"":[1],""alter_occluders"":""000"",""ego_occluders"":""001""}","true","","","","","","","","","","","","","","","","","","",""
"","","","","","image-keyboard-response","23","87955","0.0-3.0-20.0","5d2df745da13f60018d14b64","665500ab8938657b03fbdba8","665792df916558ed86d82a6d","911","stimuli/10000011.jpg"," ","","practrice_feedback","1","","","","","","","","","","","","","","","","","","","","",""
"","","","","","html-button-response","24","100779","0.0-3.0-21.0","5d2df745da13f60018d14b64","665500ab8938657b03fbdba8","665792df916558ed86d82a6d","12824","Now that you've had some practice, you'll be tested with a couple of easy trials. If you correctly predict Sam's choice, you'll move on to complete the experiment!","0","","","","","","","","","","","","","","","","","","","","","","","",""
"","","","","","image-keyboard-response","25","102707","0.0-3.0-22.0-0.0","5d2df745da13f60018d14b64","665500ab8938657b03fbdba8","665792df916558ed86d82a6d","1927","stimuli/0000011.jpg","arrowleft","","comprehension_quiz","","","true","arrowleft","","","","","","","","","","","","","","","","","",""
"","","","","","image-keyboard-response","26","103571","0.0-3.0-22.0-1.0","5d2df745da13f60018d14b64","665500ab8938657b03fbdba8","665792df916558ed86d82a6d","862","stimuli/00000110.jpg"," ","","comprehension_quiz","","","true"," ","","","","","","","","","","","","","","","","","",""
"","","","","","image-keyboard-response","27","104835","0.0-3.0-22.0-2.0","5d2df745da13f60018d14b64","665500ab8938657b03fbdba8","665792df916558ed86d82a6d","1264","stimuli/1010010.jpg","arrowdown","","comprehension_quiz","","","true","arrowdown","","","","","","","","","","","","","","","","","",""
"","","","","","image-keyboard-response","28","105203","0.0-3.0-22.0-3.0","5d2df745da13f60018d14b64","665500ab8938657b03fbdba8","665792df916558ed86d82a6d","367","stimuli/10100101.jpg"," ","","comprehension_quiz","","","true"," ","","","","","","","","","","","","","","","","","",""
"","","","","","html-button-response","29","107156","0.0-4.0","5d2df745da13f60018d14b64","665500ab8938657b03fbdba8","665792df916558ed86d82a6d","1952","The experiment will now begin.","0","","","","","","","","","","","","","","","","","","","","","","","",""
"","","","","","image-keyboard-response","30","109363","0.0-5.0","5d2df745da13f60018d14b64","665500ab8938657b03fbdba8","665792df916558ed86d82a6d","2202","stimuli/0101001.jpg","0","","prediction_trial","0","","true","","0","true","true","false","false","false","false","[2,0]","101","001","1","","","","","","",""
"","","","","","image-keyboard-response","31","110035","0.0-6.0","5d2df745da13f60018d14b64","665500ab8938657b03fbdba8","665792df916558ed86d82a6d","671","stimuli/01010010.jpg"," ","","feedback_trial","2","","","","","","","","","","","","","","","","","","","","",""
"","","","","","image-keyboard-response","32","111283","0.0-7.0","5d2df745da13f60018d14b64","665500ab8938657b03fbdba8","665792df916558ed86d82a6d","1247","stimuli/1110111.jpg","2","","prediction_trial","1","","false","","1","false","false","false","false","false","false","[0,1]","110","111","0","","","","","","",""
"","","","","","image-keyboard-response","33","111955","0.0-8.0","5d2df745da13f60018d14b64","665500ab8938657b03fbdba8","665792df916558ed86d82a6d","672","stimuli/11101111.jpg"," ","","feedback_trial","0","","","","","","","","","","","","","","","","","","","","",""
"","","","","","image-keyboard-response","34","113459","0.0-9.0","5d2df745da13f60018d14b64","665500ab8938657b03fbdba8","665792df916558ed86d82a6d","1503","stimuli/0000110.jpg","1","","prediction_trial","0","","false","","0","false","false","true","true","false","false","[0]","000","110","0","","","","","","",""
"","","","","","image-keyboard-response","35","114531","0.0-10.0","5d2df745da13f60018d14b64","665500ab8938657b03fbdba8","665792df916558ed86d82a6d","1071","stimuli/00001100.jpg"," ","","feedback_trial","0","","","","","","","","","","","","","","","","","","","","",""
"","","","","","image-keyboard-response","36","115843","0.0-11.0","5d2df745da13f60018d14b64","665500ab8938657b03fbdba8","665792df916558ed86d82a6d","1307","stimuli/0100011.jpg","0","","prediction_trial","0","","true","","0","true","true","false","true","false","true","[0]","100","011","1","","","","","","",""
"","","","","","image-keyboard-response","37","116355","0.0-12.0","5d2df745da13f60018d14b64","665500ab8938657b03fbdba8","665792df916558ed86d82a6d","512","stimuli/01000110.jpg"," ","","feedback_trial","0","","","","","","","","","","","","","","","","","","","","",""
"","","","","","image-keyboard-response","38","118002","0.0-13.0","5d2df745da13f60018d14b64","665500ab8938657b03fbdba8","665792df916558ed86d82a6d","1647","stimuli/2010011.jpg","0","","prediction_trial","2","","false","","2","false","false","true","true","false","false","[2]","010","011","0","","","","","","",""
"","","","","","image-keyboard-response","39","118563","0.0-14.0","5d2df745da13f60018d14b64","665500ab8938657b03fbdba8","665792df916558ed86d82a6d","560","stimuli/20100112.jpg"," ","","feedback_trial","2","","","","","","","","","","","","","","","","","","","","",""
"","","","","","image-keyboard-response","40","119698","0.0-15.0","5d2df745da13f60018d14b64","665500ab8938657b03fbdba8","665792df916558ed86d82a6d","1135","stimuli/0111100.jpg","0","","prediction_trial","1","","false","","0","false","true","false","false","false","false","[1,0,2]","111","100","0","","","","","","",""
"","","","","","image-keyboard-response","41","120258","0.0-16.0","5d2df745da13f60018d14b64","665500ab8938657b03fbdba8","665792df916558ed86d82a6d","560","stimuli/01111001.jpg"," ","","feedback_trial","1","","","","","","","","","","","","","","","","","","","","",""
"","","","","","image-keyboard-response","42","122418","0.0-17.0","5d2df745da13f60018d14b64","665500ab8938657b03fbdba8","665792df916558ed86d82a6d","2159","stimuli/1101110.jpg","1","","prediction_trial","1","","true","","1","false","false","true","true","false","false","[1]","101","110","1","","","","","","",""
"","","","","","image-keyboard-response","43","123090","0.0-18.0","5d2df745da13f60018d14b64","665500ab8938657b03fbdba8","665792df916558ed86d82a6d","671","stimuli/11011101.jpg"," ","","feedback_trial","1","","","","","","","","","","","","","","","","","","","","",""
"","","","","","image-keyboard-response","44","123858","0.0-19.0","5d2df745da13f60018d14b64","665500ab8938657b03fbdba8","665792df916558ed86d82a6d","768","stimuli/2110010.jpg","2","","prediction_trial","2","","true","","2","true","true","true","true","true","true","[2]","110","010","1","","","","","","",""
"","","","","","image-keyboard-response","45","124418","0.0-20.0","5d2df745da13f60018d14b64","665500ab8938657b03fbdba8","665792df916558ed86d82a6d","559","stimuli/21100102.jpg"," ","","feedback_trial","2","","","","","","","","","","","","","","","","","","","","",""
"","","","","","image-keyboard-response","46","125938","0.0-21.0","5d2df745da13f60018d14b64","665500ab8938657b03fbdba8","665792df916558ed86d82a6d","1519","stimuli/2101110.jpg","2","","prediction_trial","2","","true","","2","true","true","false","false","false","false","[0,2]","101","110","1","","","","","","",""
"","","","","","image-keyboard-response","47","126434","0.0-22.0","5d2df745da13f60018d14b64","665500ab8938657b03fbdba8","665792df916558ed86d82a6d","495","stimuli/21011102.jpg"," ","","feedback_trial","0","","","","","","","","","","","","","","","","","","","","",""
"","","","","","image-keyboard-response","48","127090","0.0-23.0","5d2df745da13f60018d14b64","665500ab8938657b03fbdba8","665792df916558ed86d82a6d","655","stimuli/1001101.jpg","1","","prediction_trial","1","","true","","1","true","true","true","true","true","true","[1]","001","101","1","","","","","","",""
"","","","","","image-keyboard-response","49","127666","0.0-24.0","5d2df745da13f60018d14b64","665500ab8938657b03fbdba8","665792df916558ed86d82a6d","575","stimuli/10011011.jpg"," ","","feedback_trial","1","","","","","","","","","","","","","","","","","","","","",""
"","","","","","image-keyboard-response","50","128947","0.0-25.0","5d2df745da13f60018d14b64","665500ab8938657b03fbdba8","665792df916558ed86d82a6d","1281","stimuli/0000111.jpg","0","","prediction_trial","0","","true","","0","false","false","true","true","false","false","[0]","000","111","1","","","","","","",""
"","","","","","image-keyboard-response","51","129602","0.0-26.0","5d2df745da13f60018d14b64","665500ab8938657b03fbdba8","665792df916558ed86d82a6d","654","stimuli/00001110.jpg"," ","","feedback_trial","0","","","","","","","","","","","","","","","","","","","","",""
"","","","","","image-keyboard-response","52","130594","0.0-27.0","5d2df745da13f60018d14b64","665500ab8938657b03fbdba8","665792df916558ed86d82a6d","991","stimuli/2111101.jpg","0","","prediction_trial","2","","false","","2","false","false","false","false","false","false","[1,2,0]","111","101","0","","","","","","",""
"","","","","","image-keyboard-response","53","131122","0.0-28.0","5d2df745da13f60018d14b64","665500ab8938657b03fbdba8","665792df916558ed86d82a6d","527","stimuli/21111012.jpg"," ","","feedback_trial","1","","","","","","","","","","","","","","","","","","","","",""
"","","","","","image-keyboard-response","54","132258","0.0-29.0","5d2df745da13f60018d14b64","665500ab8938657b03fbdba8","665792df916558ed86d82a6d","1136","stimuli/1111110.jpg","0","","prediction_trial","2","","false","","1","false","false","false","false","false","false","[1,0,2]","111","110","0","","","","","","",""
"","","","","","image-keyboard-response","55","132802","0.0-30.0","5d2df745da13f60018d14b64","665500ab8938657b03fbdba8","665792df916558ed86d82a6d","543","stimuli/11111102.jpg"," ","","feedback_trial","1","","","","","","","","","","","","","","","","","","","","",""
"","","","","","image-keyboard-response","56","133858","0.0-31.0","5d2df745da13f60018d14b64","665500ab8938657b03fbdba8","665792df916558ed86d82a6d","1055","stimuli/1000101.jpg","1","","prediction_trial","1","","true","","1","true","true","true","true","true","true","[1]","000","101","1","","","","","","",""
"","","","","","image-keyboard-response","57","134274","0.0-32.0","5d2df745da13f60018d14b64","665500ab8938657b03fbdba8","665792df916558ed86d82a6d","415","stimuli/10001011.jpg"," ","","feedback_trial","1","","","","","","","","","","","","","","","","","","","","",""
"","","","","","image-keyboard-response","58","134882","0.0-33.0","5d2df745da13f60018d14b64","665500ab8938657b03fbdba8","665792df916558ed86d82a6d","607","stimuli/0011011.jpg","0","","prediction_trial","0","","true","","0","true","true","true","true","true","true","[0]","011","011","1","","","","","","",""
"","","","","","image-keyboard-response","59","135411","0.0-34.0","5d2df745da13f60018d14b64","665500ab8938657b03fbdba8","665792df916558ed86d82a6d","529","stimuli/00110110.jpg"," ","","feedback_trial","0","","","","","","","","","","","","","","","","","","","","",""
"","","","","","image-keyboard-response","60","136466","0.0-35.0","5d2df745da13f60018d14b64","665500ab8938657b03fbdba8","665792df916558ed86d82a6d","1050","stimuli/0001111.jpg","1","","prediction_trial","0","","false","","0","false","false","true","true","false","false","[0]","001","111","0","","","","","","",""
"","","","","","image-keyboard-response","61","137073","0.0-36.0","5d2df745da13f60018d14b64","665500ab8938657b03fbdba8","665792df916558ed86d82a6d","607","stimuli/00011110.jpg"," ","","feedback_trial","0","","","","","","","","","","","","","","","","","","","","",""
"","","","","","image-keyboard-response","62","138306","0.0-37.0","5d2df745da13f60018d14b64","665500ab8938657b03fbdba8","665792df916558ed86d82a6d","1232","stimuli/0000100.jpg","0","","prediction_trial","0","","true","","0","false","true","true","true","false","true","[0]","000","100","1","","","","","","",""
"","","","","","image-keyboard-response","63","138738","0.0-38.0","5d2df745da13f60018d14b64","665500ab8938657b03fbdba8","665792df916558ed86d82a6d","431","stimuli/00001000.jpg"," ","","feedback_trial","0","","","","","","","","","","","","","","","","","","","","",""
"","","","","","image-keyboard-response","64","139986","0.0-39.0","5d2df745da13f60018d14b64","665500ab8938657b03fbdba8","665792df916558ed86d82a6d","1246","stimuli/0110100.jpg","0","","prediction_trial","0","","true","","0","false","true","false","false","false","false","[1,0]","110","100","1","","","","","","",""
"","","","","","image-keyboard-response","65","140450","0.0-40.0","5d2df745da13f60018d14b64","665500ab8938657b03fbdba8","665792df916558ed86d82a6d","463","stimuli/01101000.jpg"," ","","feedback_trial","1","","","","","","","","","","","","","","","","","","","","",""
"","","","","","image-keyboard-response","66","141426","0.0-41.0","5d2df745da13f60018d14b64","665500ab8938657b03fbdba8","665792df916558ed86d82a6d","975","stimuli/2001110.jpg","2","","prediction_trial","2","","true","","2","true","true","false","true","false","true","[2]","001","110","1","","","","","","",""
"","","","","","image-keyboard-response","67","141986","0.0-42.0","5d2df745da13f60018d14b64","665500ab8938657b03fbdba8","665792df916558ed86d82a6d","559","stimuli/20011102.jpg"," ","","feedback_trial","2","","","","","","","","","","","","","","","","","","","","",""
"","","","","","image-keyboard-response","68","142994","0.0-43.0","5d2df745da13f60018d14b64","665500ab8938657b03fbdba8","665792df916558ed86d82a6d","1007","stimuli/1010101.jpg","1","","prediction_trial","1","","true","","1","true","true","false","true","false","true","[1]","010","101","1","","","","","","",""
"","","","","","image-keyboard-response","69","143506","0.0-44.0","5d2df745da13f60018d14b64","665500ab8938657b03fbdba8","665792df916558ed86d82a6d","510","stimuli/10101011.jpg"," ","","feedback_trial","1","","","","","","","","","","","","","","","","","","","","",""
"","","","","","image-keyboard-response","70","144417","0.0-45.0","5d2df745da13f60018d14b64","665500ab8938657b03fbdba8","665792df916558ed86d82a6d","911","stimuli/2111000.jpg","2","","prediction_trial","1","","false","","2","true","true","false","false","false","false","[0,1,2]","111","000","0","","","","","","",""
"","","","","","image-keyboard-response","71","144899","0.0-46.0","5d2df745da13f60018d14b64","665500ab8938657b03fbdba8","665792df916558ed86d82a6d","481","stimuli/21110001.jpg"," ","","feedback_trial","0","","","","","","","","","","","","","","","","","","","","",""
"","","","","","image-keyboard-response","72","146050","0.0-47.0","5d2df745da13f60018d14b64","665500ab8938657b03fbdba8","665792df916558ed86d82a6d","1149","stimuli/2000111.jpg","1","","prediction_trial","2","","false","","2","false","false","true","true","false","false","[2]","000","111","0","","","","","","",""
"","","","","","image-keyboard-response","73","146642","0.0-48.0","5d2df745da13f60018d14b64","665500ab8938657b03fbdba8","665792df916558ed86d82a6d","592","stimuli/20001112.jpg"," ","","feedback_trial","2","","","","","","","","","","","","","","","","","","","","",""
"","","","","","image-keyboard-response","74","147458","0.0-49.0","5d2df745da13f60018d14b64","665500ab8938657b03fbdba8","665792df916558ed86d82a6d","815","stimuli/1101101.jpg","1","","prediction_trial","1","","true","","1","true","true","true","true","true","true","[1]","101","101","1","","","","","","",""
"","","","","","image-keyboard-response","75","147906","0.0-50.0","5d2df745da13f60018d14b64","665500ab8938657b03fbdba8","665792df916558ed86d82a6d","448","stimuli/11011011.jpg"," ","","feedback_trial","1","","","","","","","","","","","","","","","","","","","","",""
"","","","","","image-keyboard-response","76","149266","0.0-51.0","5d2df745da13f60018d14b64","665500ab8938657b03fbdba8","665792df916558ed86d82a6d","1359","stimuli/1011101.jpg","1","","prediction_trial","2","","false","","1","true","true","false","false","false","false","[2,1]","011","101","0","","","","","","",""
"","","","","","image-keyboard-response","77","149763","0.0-52.0","5d2df745da13f60018d14b64","665500ab8938657b03fbdba8","665792df916558ed86d82a6d","496","stimuli/10111012.jpg"," ","","feedback_trial","2","","","","","","","","","","","","","","","","","","","","",""
"","","","","","image-keyboard-response","78","150370","0.0-53.0","5d2df745da13f60018d14b64","665500ab8938657b03fbdba8","665792df916558ed86d82a6d","606","stimuli/2100100.jpg","2","","prediction_trial","2","","true","","2","true","true","true","true","true","true","[2]","100","100","1","","","","","","",""
"","","","","","image-keyboard-response","79","150866","0.0-54.0","5d2df745da13f60018d14b64","665500ab8938657b03fbdba8","665792df916558ed86d82a6d","496","stimuli/21001002.jpg"," ","","feedback_trial","2","","","","","","","","","","","","","","","","","","","","",""
"","","","","","image-keyboard-response","80","152034","0.0-55.0","5d2df745da13f60018d14b64","665500ab8938657b03fbdba8","665792df916558ed86d82a6d","1167","stimuli/2100111.jpg","1","","prediction_trial","2","","false","","2","false","false","true","true","false","false","[2]","100","111","0","","","","","","",""
"","","","","","image-keyboard-response","81","152578","0.0-56.0","5d2df745da13f60018d14b64","665500ab8938657b03fbdba8","665792df916558ed86d82a6d","543","stimuli/21001112.jpg"," ","","feedback_trial","2","","","","","","","","","","","","","","","","","","","","",""
"","","","","","image-keyboard-response","82","153426","0.0-57.0","5d2df745da13f60018d14b64","665500ab8938657b03fbdba8","665792df916558ed86d82a6d","847","stimuli/1000111.jpg","1","","prediction_trial","1","","true","","1","false","false","true","true","false","false","[1]","000","111","1","","","","","","",""
"","","","","","image-keyboard-response","83","154130","0.0-58.0","5d2df745da13f60018d14b64","665500ab8938657b03fbdba8","665792df916558ed86d82a6d","703","stimuli/10001111.jpg"," ","","feedback_trial","1","","","","","","","","","","","","","","","","","","","","",""
"","","","","","image-keyboard-response","84","154993","0.0-59.0","5d2df745da13f60018d14b64","665500ab8938657b03fbdba8","665792df916558ed86d82a6d","863","stimuli/0100000.jpg","0","","prediction_trial","0","","true","","0","true","true","false","true","false","true","[0]","100","000","1","","","","","","",""
"","","","","","image-keyboard-response","85","155458","0.0-60.0","5d2df745da13f60018d14b64","665500ab8938657b03fbdba8","665792df916558ed86d82a6d","464","stimuli/01000000.jpg"," ","","feedback_trial","0","","","","","","","","","","","","","","","","","","","","",""
"","","","","","image-keyboard-response","86","156626","0.0-61.0","5d2df745da13f60018d14b64","665500ab8938657b03fbdba8","665792df916558ed86d82a6d","1167","stimuli/0000101.jpg","0","","prediction_trial","0","","true","","0","false","false","true","true","false","false","[0]","000","101","1","","","","","","",""
"","","","","","image-keyboard-response","87","157073","0.0-62.0","5d2df745da13f60018d14b64","665500ab8938657b03fbdba8","665792df916558ed86d82a6d","447","stimuli/00001010.jpg"," ","","feedback_trial","0","","","","","","","","","","","","","","","","","","","","",""
"","","","","","image-keyboard-response","88","158082","0.0-63.0","5d2df745da13f60018d14b64","665500ab8938657b03fbdba8","665792df916558ed86d82a6d","1007","stimuli/2111100.jpg","2","","prediction_trial","1","","false","","2","true","true","false","false","false","false","[0,1,2]","111","100","0","","","","","","",""
"","","","","","image-keyboard-response","89","158594","0.0-64.0","5d2df745da13f60018d14b64","665500ab8938657b03fbdba8","665792df916558ed86d82a6d","511","stimuli/21111001.jpg"," ","","feedback_trial","0","","","","","","","","","","","","","","","","","","","","",""
"","","","","","image-keyboard-response","90","159874","0.0-65.0","5d2df745da13f60018d14b64","665500ab8938657b03fbdba8","665792df916558ed86d82a6d","1276","stimuli/1111001.jpg","1","","prediction_trial","1","","true","","1","true","true","false","false","false","false","[2,1,0]","111","001","1","","","","","","",""
"","","","","","image-keyboard-response","91","160418","0.0-66.0","5d2df745da13f60018d14b64","665500ab8938657b03fbdba8","665792df916558ed86d82a6d","543","stimuli/11110011.jpg"," ","","feedback_trial","2","","","","","","","","","","","","","","","","","","","","",""
"","","","","","image-keyboard-response","92","161586","0.0-67.0","5d2df745da13f60018d14b64","665500ab8938657b03fbdba8","665792df916558ed86d82a6d","1167","stimuli/1011010.jpg","1","","prediction_trial","1","","true","","1","false","true","false","false","false","false","[2,1]","011","010","1","","","","","","",""
"","","","","","image-keyboard-response","93","162114","0.0-68.0","5d2df745da13f60018d14b64","665500ab8938657b03fbdba8","665792df916558ed86d82a6d","527","stimuli/10110101.jpg"," ","","feedback_trial","2","","","","","","","","","","","","","","","","","","","","",""
"","","","","","image-keyboard-response","94","163378","0.0-69.0","5d2df745da13f60018d14b64","665500ab8938657b03fbdba8","665792df916558ed86d82a6d","1263","stimuli/0001101.jpg","0","","prediction_trial","0","","true","","0","false","false","true","true","false","false","[0]","001","101","1","","","","","","",""
"","","","","","image-keyboard-response","95","163922","0.0-70.0","5d2df745da13f60018d14b64","665500ab8938657b03fbdba8","665792df916558ed86d82a6d","543","stimuli/00011010.jpg"," ","","feedback_trial","0","","","","","","","","","","","","","","","","","","","","",""
"","","","","","image-keyboard-response","96","164722","0.0-71.0","5d2df745da13f60018d14b64","665500ab8938657b03fbdba8","665792df916558ed86d82a6d","799","stimuli/0000001.jpg","0","","prediction_trial","0","","true","","0","true","true","true","true","true","true","[0]","000","001","1","","","","","","",""
"","","","","","image-keyboard-response","97","165074","0.0-72.0","5d2df745da13f60018d14b64","665500ab8938657b03fbdba8","665792df916558ed86d82a6d","351","stimuli/00000010.jpg"," ","","feedback_trial","0","","","","","","","","","","","","","","","","","","","","",""
"","","","","","image-keyboard-response","98","165794","0.0-73.0","5d2df745da13f60018d14b64","665500ab8938657b03fbdba8","665792df916558ed86d82a6d","719","stimuli/0101111.jpg","1","","prediction_trial","0","","false","","0","false","false","false","false","false","false","[0,2]","101","111","0","","","","","","",""
"","","","","","image-keyboard-response","99","166402","0.0-74.0","5d2df745da13f60018d14b64","665500ab8938657b03fbdba8","665792df916558ed86d82a6d","607","stimuli/01011110.jpg"," ","","feedback_trial","0","","","","","","","","","","","","","","","","","","","","",""
"","","","","","image-keyboard-response","100","167090","0.0-75.0","5d2df745da13f60018d14b64","665500ab8938657b03fbdba8","665792df916558ed86d82a6d","687","stimuli/2111111.jpg","1","","prediction_trial","1","","true","","2","false","false","false","false","false","false","[1,2,0]","111","111","1","","","","","","",""
"","","","","","image-keyboard-response","101","167666","0.0-76.0","5d2df745da13f60018d14b64","665500ab8938657b03fbdba8","665792df916558ed86d82a6d","576","stimuli/21111111.jpg"," ","","feedback_trial","1","","","","","","","","","","","","","","","","","","","","",""
"","","","","","image-keyboard-response","102","168898","0.0-77.0","5d2df745da13f60018d14b64","665500ab8938657b03fbdba8","665792df916558ed86d82a6d","1231","stimuli/1001110.jpg","1","","prediction_trial","1","","true","","1","false","false","true","true","false","false","[1]","001","110","1","","","","","","",""
"","","","","","image-keyboard-response","103","169634","0.0-78.0","5d2df745da13f60018d14b64","665500ab8938657b03fbdba8","665792df916558ed86d82a6d","735","stimuli/10011101.jpg"," ","","feedback_trial","1","","","","","","","","","","","","","","","","","","","","",""
"","","","","","image-keyboard-response","104","170850","0.0-79.0","5d2df745da13f60018d14b64","665500ab8938657b03fbdba8","665792df916558ed86d82a6d","1215","stimuli/1001011.jpg","1","","prediction_trial","1","","true","","1","false","false","true","true","false","false","[1]","001","011","1","","","","","","",""
"","","","","","image-keyboard-response","105","171362","0.0-80.0","5d2df745da13f60018d14b64","665500ab8938657b03fbdba8","665792df916558ed86d82a6d","511","stimuli/10010111.jpg"," ","","feedback_trial","1","","","","","","","","","","","","","","","","","","","","",""
"","","","","","image-keyboard-response","106","172018","0.0-81.0","5d2df745da13f60018d14b64","665500ab8938657b03fbdba8","665792df916558ed86d82a6d","656","stimuli/1111010.jpg","1","","prediction_trial","0","","false","","1","false","true","false","false","false","false","[0,1,2]","111","010","0","","","","","","",""
"","","","","","image-keyboard-response","107","172594","0.0-82.0","5d2df745da13f60018d14b64","665500ab8938657b03fbdba8","665792df916558ed86d82a6d","575","stimuli/11110100.jpg"," ","","feedback_trial","0","","","","","","","","","","","","","","","","","","","","",""
"","","","","","image-keyboard-response","108","173474","0.0-83.0","5d2df745da13f60018d14b64","665500ab8938657b03fbdba8","665792df916558ed86d82a6d","879","stimuli/1011001.jpg","1","","prediction_trial","1","","true","","1","true","true","false","false","false","false","[2,1]","011","001","1","","","","","","",""
"","","","","","image-keyboard-response","109","173938","0.0-84.0","5d2df745da13f60018d14b64","665500ab8938657b03fbdba8","665792df916558ed86d82a6d","463","stimuli/10110011.jpg"," ","","feedback_trial","2","","","","","","","","","","","","","","","","","","","","",""
"","","","","","image-keyboard-response","110","174514","0.0-85.0","5d2df745da13f60018d14b64","665500ab8938657b03fbdba8","665792df916558ed86d82a6d","575","stimuli/1011000.jpg","1","","prediction_trial","1","","true","","1","true","true","false","false","false","false","[1,2]","011","000","1","","","","","","",""
"","","","","","image-keyboard-response","111","174994","0.0-86.0","5d2df745da13f60018d14b64","665500ab8938657b03fbdba8","665792df916558ed86d82a6d","479","stimuli/10110001.jpg"," ","","feedback_trial","1","","","","","","","","","","","","","","","","","","","","",""
"","","","","","image-keyboard-response","112","176306","0.0-87.0","5d2df745da13f60018d14b64","665500ab8938657b03fbdba8","665792df916558ed86d82a6d","1311","stimuli/0111001.jpg","1","","prediction_trial","2","","false","","0","true","true","false","false","false","false","[0,1,2]","111","001","0","","","","","","",""
"","","","","","image-keyboard-response","113","176882","0.0-88.0","5d2df745da13f60018d14b64","665500ab8938657b03fbdba8","665792df916558ed86d82a6d","575","stimuli/01110012.jpg"," ","","feedback_trial","0","","","","","","","","","","","","","","","","","","","","",""
"","","","","","image-keyboard-response","114","179042","0.0-89.0","5d2df745da13f60018d14b64","665500ab8938657b03fbdba8","665792df916558ed86d82a6d","2156","stimuli/0110000.jpg","1","","prediction_trial","0","","false","","0","true","true","false","false","false","false","[1,0]","110","000","0","","","","","","",""
"","","","","","image-keyboard-response","115","179586","0.0-90.0","5d2df745da13f60018d14b64","665500ab8938657b03fbdba8","665792df916558ed86d82a6d","543","stimuli/01100000.jpg"," ","","feedback_trial","1","","","","","","","","","","","","","","","","","","","","",""
"","","","","","image-keyboard-response","116","180562","0.0-91.0","5d2df745da13f60018d14b64","665500ab8938657b03fbdba8","665792df916558ed86d82a6d","975","stimuli/2101100.jpg","2","","prediction_trial","2","","true","","2","true","true","false","false","false","false","[2,0]","101","100","1","","","","","","",""
"","","","","","image-keyboard-response","117","181202","0.0-92.0","5d2df745da13f60018d14b64","665500ab8938657b03fbdba8","665792df916558ed86d82a6d","639","stimuli/21011002.jpg"," ","","feedback_trial","2","","","","","","","","","","","","","","","","","","","","",""
"","","","","","image-keyboard-response","118","181922","0.0-93.0","5d2df745da13f60018d14b64","665500ab8938657b03fbdba8","665792df916558ed86d82a6d","719","stimuli/1100100.jpg","1","","prediction_trial","1","","true","","1","true","true","true","true","true","true","[1]","100","100","1","","","","","","",""
"","","","","","image-keyboard-response","119","182434","0.0-94.0","5d2df745da13f60018d14b64","665500ab8938657b03fbdba8","665792df916558ed86d82a6d","511","stimuli/11001001.jpg"," ","","feedback_trial","1","","","","","","","","","","","","","","","","","","","","",""
"","","","","","image-keyboard-response","120","183170","0.0-95.0","5d2df745da13f60018d14b64","665500ab8938657b03fbdba8","665792df916558ed86d82a6d","732","stimuli/2011010.jpg","2","","prediction_trial","2","","true","","2","true","true","false","false","false","false","[2,1]","011","010","1","","","","","","",""
"","","","","","image-keyboard-response","121","183682","0.0-96.0","5d2df745da13f60018d14b64","665500ab8938657b03fbdba8","665792df916558ed86d82a6d","511","stimuli/20110102.jpg"," ","","feedback_trial","2","","","","","","","","","","","","","","","","","","","","",""
"","","","","","image-keyboard-response","122","184466","0.0-97.0","5d2df745da13f60018d14b64","665500ab8938657b03fbdba8","665792df916558ed86d82a6d","783","stimuli/0000010.jpg","0","","prediction_trial","0","","true","","0","true","true","true","true","true","true","[0]","000","010","1","","","","","","",""
"","","","","","image-keyboard-response","123","184978","0.0-98.0","5d2df745da13f60018d14b64","665500ab8938657b03fbdba8","665792df916558ed86d82a6d","512","stimuli/00000100.jpg"," ","","feedback_trial","0","","","","","","","","","","","","","","","","","","","","",""
"","","","","","image-keyboard-response","124","185618","0.0-99.0","5d2df745da13f60018d14b64","665500ab8938657b03fbdba8","665792df916558ed86d82a6d","639","stimuli/1011011.jpg","1","","prediction_trial","2","","false","","1","false","false","false","false","false","false","[1,2]","011","011","0","","","","","","",""
"","","","","","image-keyboard-response","125","186098","0.0-100.0","5d2df745da13f60018d14b64","665500ab8938657b03fbdba8","665792df916558ed86d82a6d","479","stimuli/10110112.jpg"," ","","feedback_trial","1","","","","","","","","","","","","","","","","","","","","",""
"","","","","","image-keyboard-response","126","187091","0.0-101.0","5d2df745da13f60018d14b64","665500ab8938657b03fbdba8","665792df916558ed86d82a6d","992","stimuli/0100101.jpg","0","","prediction_trial","0","","true","","0","false","false","false","true","false","false","[0]","100","101","1","","","","","","",""
"","","","","","image-keyboard-response","127","187587","0.0-102.0","5d2df745da13f60018d14b64","665500ab8938657b03fbdba8","665792df916558ed86d82a6d","494","stimuli/01001010.jpg"," ","","feedback_trial","0","","","","","","","","","","","","","","","","","","","","",""
"","","","","","image-keyboard-response","128","188178","0.0-103.0","5d2df745da13f60018d14b64","665500ab8938657b03fbdba8","665792df916558ed86d82a6d","591","stimuli/0110011.jpg","0","","prediction_trial","1","","false","","0","true","true","false","false","false","false","[1,0]","110","011","0","","","","","","",""
"","","","","","image-keyboard-response","129","188690","0.0-104.0","5d2df745da13f60018d14b64","665500ab8938657b03fbdba8","665792df916558ed86d82a6d","511","stimuli/01100111.jpg"," ","","feedback_trial","1","","","","","","","","","","","","","","","","","","","","",""
"","","","","","image-keyboard-response","130","189410","0.0-105.0","5d2df745da13f60018d14b64","665500ab8938657b03fbdba8","665792df916558ed86d82a6d","719","stimuli/1110000.jpg","1","","prediction_trial","1","","true","","1","true","true","false","false","false","false","[0,1]","110","000","1","","","","","","",""
"","","","","","image-keyboard-response","131","189938","0.0-106.0","5d2df745da13f60018d14b64","665500ab8938657b03fbdba8","665792df916558ed86d82a6d","528","stimuli/11100001.jpg"," ","","feedback_trial","0","","","","","","","","","","","","","","","","","","","","",""
"","","","","","image-keyboard-response","132","190882","0.0-107.0","5d2df745da13f60018d14b64","665500ab8938657b03fbdba8","665792df916558ed86d82a6d","942","stimuli/0110101.jpg","1","","prediction_trial","1","","true","","0","false","false","false","false","false","false","[0,1]","110","101","1","","","","","","",""
"","","","","","image-keyboard-response","133","191426","0.0-108.0","5d2df745da13f60018d14b64","665500ab8938657b03fbdba8","665792df916558ed86d82a6d","544","stimuli/01101011.jpg"," ","","feedback_trial","0","","","","","","","","","","","","","","","","","","","","",""
"","","","","","image-keyboard-response","134","192066","0.0-109.0","5d2df745da13f60018d14b64","665500ab8938657b03fbdba8","665792df916558ed86d82a6d","639","stimuli/2010010.jpg","2","","prediction_trial","2","","true","","2","true","true","true","true","true","true","[2]","010","010","1","","","","","","",""
"","","","","","image-keyboard-response","135","192594","0.0-110.0","5d2df745da13f60018d14b64","665500ab8938657b03fbdba8","665792df916558ed86d82a6d","527","stimuli/20100102.jpg"," ","","feedback_trial","2","","","","","","","","","","","","","","","","","","","","",""
"","","","","","image-keyboard-response","136","193346","0.0-111.0","5d2df745da13f60018d14b64","665500ab8938657b03fbdba8","665792df916558ed86d82a6d","751","stimuli/0110110.jpg","1","","prediction_trial","1","","true","","0","false","false","false","false","false","false","[1,0]","110","110","1","","","","","","",""
"","","","","","image-keyboard-response","137","193858","0.0-112.0","5d2df745da13f60018d14b64","665500ab8938657b03fbdba8","665792df916558ed86d82a6d","511","stimuli/01101101.jpg"," ","","feedback_trial","1","","","","","","","","","","","","","","","","","","","","",""
"","","","","","image-keyboard-response","138","194579","0.0-113.0","5d2df745da13f60018d14b64","665500ab8938657b03fbdba8","665792df916558ed86d82a6d","720","stimuli/2111001.jpg","1","","prediction_trial","0","","false","","2","false","true","false","false","false","false","[1,0,2]","111","001","0","","","","","","",""
"","","","","","image-keyboard-response","139","195107","0.0-114.0","5d2df745da13f60018d14b64","665500ab8938657b03fbdba8","665792df916558ed86d82a6d","527","stimuli/21110010.jpg"," ","","feedback_trial","1","","","","","","","","","","","","","","","","","","","","",""
"","","","","","image-keyboard-response","140","196002","0.0-115.0","5d2df745da13f60018d14b64","665500ab8938657b03fbdba8","665792df916558ed86d82a6d","895","stimuli/1100111.jpg","1","","prediction_trial","1","","true","","1","false","false","true","true","false","false","[1]","100","111","1","","","","","","",""
"","","","","","image-keyboard-response","141","196514","0.0-116.0","5d2df745da13f60018d14b64","665500ab8938657b03fbdba8","665792df916558ed86d82a6d","511","stimuli/11001111.jpg"," ","","feedback_trial","1","","","","","","","","","","","","","","","","","","","","",""
"","","","","","image-keyboard-response","142","197042","0.0-117.0","5d2df745da13f60018d14b64","665500ab8938657b03fbdba8","665792df916558ed86d82a6d","528","stimuli/1001000.jpg","1","","prediction_trial","1","","true","","1","true","true","true","true","true","true","[1]","001","000","1","","","","","","",""
"","","","","","image-keyboard-response","143","197458","0.0-118.0","5d2df745da13f60018d14b64","665500ab8938657b03fbdba8","665792df916558ed86d82a6d","415","stimuli/10010001.jpg"," ","","feedback_trial","1","","","","","","","","","","","","","","","","","","","","",""
"","","","","","image-keyboard-response","144","198130","0.0-119.0","5d2df745da13f60018d14b64","665500ab8938657b03fbdba8","665792df916558ed86d82a6d","667","stimuli/2001000.jpg","2","","prediction_trial","2","","true","","2","true","true","false","true","false","true","[2]","001","000","1","","","","","","",""
"","","","","","image-keyboard-response","145","198658","0.0-120.0","5d2df745da13f60018d14b64","665500ab8938657b03fbdba8","665792df916558ed86d82a6d","528","stimuli/20010002.jpg"," ","","feedback_trial","2","","","","","","","","","","","","","","","","","","","","",""
"","","","","","image-keyboard-response","146","199282","0.0-121.0","5d2df745da13f60018d14b64","665500ab8938657b03fbdba8","665792df916558ed86d82a6d","623","stimuli/0001001.jpg","0","","prediction_trial","0","","true","","0","true","true","true","true","true","true","[0]","001","001","1","","","","","","",""
"","","","","","image-keyboard-response","147","199810","0.0-122.0","5d2df745da13f60018d14b64","665500ab8938657b03fbdba8","665792df916558ed86d82a6d","527","stimuli/00010010.jpg"," ","","feedback_trial","0","","","","","","","","","","","","","","","","","","","","",""
"","","","","","image-keyboard-response","148","200386","0.0-123.0","5d2df745da13f60018d14b64","665500ab8938657b03fbdba8","665792df916558ed86d82a6d","576","stimuli/2001111.jpg","1","","prediction_trial","2","","false","","2","false","false","false","true","false","false","[2]","001","111","0","","","","","","",""
"","","","","","image-keyboard-response","149","200898","0.0-124.0","5d2df745da13f60018d14b64","665500ab8938657b03fbdba8","665792df916558ed86d82a6d","511","stimuli/20011112.jpg"," ","","feedback_trial","2","","","","","","","","","","","","","","","","","","","","",""
"","","","","","image-keyboard-response","150","201634","0.0-125.0","5d2df745da13f60018d14b64","665500ab8938657b03fbdba8","665792df916558ed86d82a6d","731","stimuli/0011111.jpg","2","","prediction_trial","0","","false","","0","false","false","true","true","false","false","[0]","011","111","0","","","","","","",""
"","","","","","image-keyboard-response","151","202195","0.0-126.0","5d2df745da13f60018d14b64","665500ab8938657b03fbdba8","665792df916558ed86d82a6d","561","stimuli/00111110.jpg"," ","","feedback_trial","0","","","","","","","","","","","","","","","","","","","","",""
"","","","","","image-keyboard-response","152","202754","0.0-127.0","5d2df745da13f60018d14b64","665500ab8938657b03fbdba8","665792df916558ed86d82a6d","558","stimuli/0100100.jpg","1","","prediction_trial","0","","false","","0","false","true","false","true","false","true","[0]","100","100","0","","","","","","",""
"","","","","","image-keyboard-response","153","203442","0.0-128.0","5d2df745da13f60018d14b64","665500ab8938657b03fbdba8","665792df916558ed86d82a6d","687","stimuli/01001000.jpg"," ","","feedback_trial","0","","","","","","","","","","","","","","","","","","","","",""
"","","","","","image-keyboard-response","154","204722","0.0-129.0","5d2df745da13f60018d14b64","665500ab8938657b03fbdba8","665792df916558ed86d82a6d","1279","stimuli/0001010.jpg","0","","prediction_trial","0","","true","","0","true","true","true","true","true","true","[0]","001","010","1","","","","","","",""
"","","","","","image-keyboard-response","155","205218","0.0-130.0","5d2df745da13f60018d14b64","665500ab8938657b03fbdba8","665792df916558ed86d82a6d","496","stimuli/00010100.jpg"," ","","feedback_trial","0","","","","","","","","","","","","","","","","","","","","",""
"","","","","","image-keyboard-response","156","206050","0.0-131.0","5d2df745da13f60018d14b64","665500ab8938657b03fbdba8","665792df916558ed86d82a6d","831","stimuli/2100101.jpg","0","","prediction_trial","2","","false","","2","false","false","true","true","false","false","[2]","100","101","0","","","","","","",""
"","","","","","image-keyboard-response","157","206498","0.0-132.0","5d2df745da13f60018d14b64","665500ab8938657b03fbdba8","665792df916558ed86d82a6d","448","stimuli/21001012.jpg"," ","","feedback_trial","2","","","","","","","","","","","","","","","","","","","","",""
"","","","","","image-keyboard-response","158","207106","0.0-133.0","5d2df745da13f60018d14b64","665500ab8938657b03fbdba8","665792df916558ed86d82a6d","607","stimuli/0010010.jpg","0","","prediction_trial","0","","true","","0","true","true","true","true","true","true","[0]","010","010","1","","","","","","",""
"","","","","","image-keyboard-response","159","207458","0.0-134.0","5d2df745da13f60018d14b64","665500ab8938657b03fbdba8","665792df916558ed86d82a6d","351","stimuli/00100100.jpg"," ","","feedback_trial","0","","","","","","","","","","","","","","","","","","","","",""
"","","","","","image-keyboard-response","160","208034","0.0-135.0","5d2df745da13f60018d14b64","665500ab8938657b03fbdba8","665792df916558ed86d82a6d","575","stimuli/1100001.jpg","1","","prediction_trial","1","","true","","1","true","true","true","true","true","true","[1]","100","001","1","","","","","","",""
"","","","","","image-keyboard-response","161","208386","0.0-136.0","5d2df745da13f60018d14b64","665500ab8938657b03fbdba8","665792df916558ed86d82a6d","352","stimuli/11000011.jpg"," ","","feedback_trial","1","","","","","","","","","","","","","","","","","","","","",""
"","","","","","image-keyboard-response","162","209298","0.0-137.0","5d2df745da13f60018d14b64","665500ab8938657b03fbdba8","665792df916558ed86d82a6d","911","stimuli/0100010.jpg","0","","prediction_trial","0","","true","","0","true","true","false","true","false","true","[0]","100","010","1","","","","","","",""
"","","","","","image-keyboard-response","163","209714","0.0-138.0","5d2df745da13f60018d14b64","665500ab8938657b03fbdba8","665792df916558ed86d82a6d","415","stimuli/01000100.jpg"," ","","feedback_trial","0","","","","","","","","","","","","","","","","","","","","",""
"","","","","","image-keyboard-response","164","210578","0.0-139.0","5d2df745da13f60018d14b64","665500ab8938657b03fbdba8","665792df916558ed86d82a6d","864","stimuli/0101101.jpg","0","","prediction_trial","0","","true","","0","false","false","false","false","false","false","[2,0]","101","101","1","","","","","","",""
"","","","","","image-keyboard-response","165","211075","0.0-140.0","5d2df745da13f60018d14b64","665500ab8938657b03fbdba8","665792df916558ed86d82a6d","495","stimuli/01011010.jpg"," ","","feedback_trial","2","","","","","","","","","","","","","","","","","","","","",""
"","","","","","image-keyboard-response","166","211842","0.0-141.0","5d2df745da13f60018d14b64","665500ab8938657b03fbdba8","665792df916558ed86d82a6d","767","stimuli/0000000.jpg","0","","prediction_trial","0","","true","","0","true","true","true","true","true","true","[0]","000","000","1","","","","","","",""
"","","","","","image-keyboard-response","167","212242","0.0-142.0","5d2df745da13f60018d14b64","665500ab8938657b03fbdba8","665792df916558ed86d82a6d","399","stimuli/00000000.jpg"," ","","feedback_trial","0","","","","","","","","","","","","","","","","","","","","",""
"","","","","","image-keyboard-response","168","212994","0.0-143.0","5d2df745da13f60018d14b64","665500ab8938657b03fbdba8","665792df916558ed86d82a6d","748","stimuli/0111111.jpg","1","","prediction_trial","0","","false","","0","false","false","false","false","false","false","[0,2,1]","111","111","0","","","","","","",""
"","","","","","image-keyboard-response","169","213426","0.0-144.0","5d2df745da13f60018d14b64","665500ab8938657b03fbdba8","665792df916558ed86d82a6d","431","stimuli/01111110.jpg"," ","","feedback_trial","0","","","","","","","","","","","","","","","","","","","","",""
"","","","","","image-keyboard-response","170","214034","0.0-145.0","5d2df745da13f60018d14b64","665500ab8938657b03fbdba8","665792df916558ed86d82a6d","607","stimuli/0010000.jpg","0","","prediction_trial","0","","true","","0","true","true","true","true","true","true","[0]","010","000","1","","","","","","",""
"","","","","","image-keyboard-response","171","214450","0.0-146.0","5d2df745da13f60018d14b64","665500ab8938657b03fbdba8","665792df916558ed86d82a6d","415","stimuli/00100000.jpg"," ","","feedback_trial","0","","","","","","","","","","","","","","","","","","","","",""
"","","","","","image-keyboard-response","172","215042","0.0-147.0","5d2df745da13f60018d14b64","665500ab8938657b03fbdba8","665792df916558ed86d82a6d","592","stimuli/2101111.jpg","1","","prediction_trial","0","","false","","2","false","false","false","false","false","false","[2,0]","101","111","0","","","","","","",""
"","","","","","image-keyboard-response","173","215554","0.0-148.0","5d2df745da13f60018d14b64","665500ab8938657b03fbdba8","665792df916558ed86d82a6d","511","stimuli/21011110.jpg"," ","","feedback_trial","2","","","","","","","","","","","","","","","","","","","","",""
"","","","","","image-keyboard-response","174","216530","0.0-149.0","5d2df745da13f60018d14b64","665500ab8938657b03fbdba8","665792df916558ed86d82a6d","975","stimuli/1010110.jpg","2","","prediction_trial","1","","false","","1","false","false","false","true","false","false","[1]","010","110","0","","","","","","",""
"","","","","","image-keyboard-response","175","217538","0.0-150.0","5d2df745da13f60018d14b64","665500ab8938657b03fbdba8","665792df916558ed86d82a6d","1008","stimuli/10101101.jpg"," ","","feedback_trial","1","","","","","","","","","","","","","","","","","","","","",""
"","","","","","image-keyboard-response","176","218178","0.0-151.0","5d2df745da13f60018d14b64","665500ab8938657b03fbdba8","665792df916558ed86d82a6d","639","stimuli/2111110.jpg","2","","prediction_trial","2","","true","","2","true","true","false","false","false","false","[2,0,1]","111","110","1","","","","","","",""
"","","","","","image-keyboard-response","177","218626","0.0-152.0","5d2df745da13f60018d14b64","665500ab8938657b03fbdba8","665792df916558ed86d82a6d","448","stimuli/21111102.jpg"," ","","feedback_trial","2","","","","","","","","","","","","","","","","","","","","",""
"","","","","","image-keyboard-response","178","219426","0.0-153.0","5d2df745da13f60018d14b64","665500ab8938657b03fbdba8","665792df916558ed86d82a6d","799","stimuli/2000110.jpg","2","","prediction_trial","2","","true","","2","true","true","true","true","true","true","[2]","000","110","1","","","","","","",""
"","","","","","image-keyboard-response","179","219810","0.0-154.0","5d2df745da13f60018d14b64","665500ab8938657b03fbdba8","665792df916558ed86d82a6d","383","stimuli/20001102.jpg"," ","","feedback_trial","2","","","","","","","","","","","","","","","","","","","","",""
"","","","","","image-keyboard-response","180","220546","0.0-155.0","5d2df745da13f60018d14b64","665500ab8938657b03fbdba8","665792df916558ed86d82a6d","732","stimuli/2011011.jpg","1","","prediction_trial","1","","true","","2","false","false","false","false","false","false","[2,1]","011","011","1","","","","","","",""
"","","","","","image-keyboard-response","181","220978","0.0-156.0","5d2df745da13f60018d14b64","665500ab8938657b03fbdba8","665792df916558ed86d82a6d","431","stimuli/20110111.jpg"," ","","feedback_trial","2","","","","","","","","","","","","","","","","","","","","",""
"","","","","","image-keyboard-response","182","221970","0.0-157.0","5d2df745da13f60018d14b64","665500ab8938657b03fbdba8","665792df916558ed86d82a6d","991","stimuli/2000011.jpg","1","","prediction_trial","2","","false","","2","false","false","true","true","false","false","[2]","000","011","0","","","","","","",""
"","","","","","image-keyboard-response","183","222498","0.0-158.0","5d2df745da13f60018d14b64","665500ab8938657b03fbdba8","665792df916558ed86d82a6d","527","stimuli/20000112.jpg"," ","","feedback_trial","2","","","","","","","","","","","","","","","","","","","","",""
"","","","","","image-keyboard-response","184","223234","0.0-159.0","5d2df745da13f60018d14b64","665500ab8938657b03fbdba8","665792df916558ed86d82a6d","735","stimuli/0011000.jpg","0","","prediction_trial","0","","true","","0","true","true","true","true","true","true","[0]","011","000","1","","","","","","",""
"","","","","","image-keyboard-response","185","223619","0.0-160.0","5d2df745da13f60018d14b64","665500ab8938657b03fbdba8","665792df916558ed86d82a6d","384","stimuli/00110000.jpg"," ","","feedback_trial","0","","","","","","","","","","","","","","","","","","","","",""
"","","","","","image-keyboard-response","186","224258","0.0-161.0","5d2df745da13f60018d14b64","665500ab8938657b03fbdba8","665792df916558ed86d82a6d","639","stimuli/1010100.jpg","1","","prediction_trial","1","","true","","1","true","true","false","true","false","true","[1]","010","100","1","","","","","","",""
"","","","","","image-keyboard-response","187","224866","0.0-162.0","5d2df745da13f60018d14b64","665500ab8938657b03fbdba8","665792df916558ed86d82a6d","607","stimuli/10101001.jpg"," ","","feedback_trial","1","","","","","","","","","","","","","","","","","","","","",""
"","","","","","image-keyboard-response","188","226099","0.0-163.0","5d2df745da13f60018d14b64","665500ab8938657b03fbdba8","665792df916558ed86d82a6d","1232","stimuli/2001011.jpg","2","","prediction_trial","2","","true","","2","false","false","false","true","false","false","[2]","001","011","1","","","","","","",""
"","","","","","image-keyboard-response","189","226594","0.0-164.0","5d2df745da13f60018d14b64","665500ab8938657b03fbdba8","665792df916558ed86d82a6d","495","stimuli/20010112.jpg"," ","","feedback_trial","2","","","","","","","","","","","","","","","","","","","","",""
"","","","","","image-keyboard-response","190","227314","0.0-165.0","5d2df745da13f60018d14b64","665500ab8938657b03fbdba8","665792df916558ed86d82a6d","719","stimuli/0110001.jpg","0","","prediction_trial","1","","false","","0","true","true","false","false","false","false","[0,1]","110","001","0","","","","","","",""
"","","","","","image-keyboard-response","191","227954","0.0-166.0","5d2df745da13f60018d14b64","665500ab8938657b03fbdba8","665792df916558ed86d82a6d","639","stimuli/01100011.jpg"," ","","feedback_trial","0","","","","","","","","","","","","","","","","","","","","",""
"","","","","","image-keyboard-response","192","228610","0.0-167.0","5d2df745da13f60018d14b64","665500ab8938657b03fbdba8","665792df916558ed86d82a6d","655","stimuli/0100111.jpg","0","","prediction_trial","0","","true","","0","false","false","false","true","false","false","[0]","100","111","1","","","","","","",""
"","","","","","image-keyboard-response","193","229186","0.0-168.0","5d2df745da13f60018d14b64","665500ab8938657b03fbdba8","665792df916558ed86d82a6d","576","stimuli/01001110.jpg"," ","","feedback_trial","0","","","","","","","","","","","","","","","","","","","","",""
"","","","","","image-keyboard-response","194","230082","0.0-169.0","5d2df745da13f60018d14b64","665500ab8938657b03fbdba8","665792df916558ed86d82a6d","895","stimuli/1000010.jpg","1","","prediction_trial","1","","true","","1","false","true","true","true","false","true","[1]","000","010","1","","","","","","",""
"","","","","","image-keyboard-response","195","230642","0.0-170.0","5d2df745da13f60018d14b64","665500ab8938657b03fbdba8","665792df916558ed86d82a6d","560","stimuli/10000101.jpg"," ","","feedback_trial","1","","","","","","","","","","","","","","","","","","","","",""
"","","","","","image-keyboard-response","196","231522","0.0-171.0","5d2df745da13f60018d14b64","665500ab8938657b03fbdba8","665792df916558ed86d82a6d","879","stimuli/1000100.jpg","1","","prediction_trial","1","","true","","1","true","true","true","true","true","true","[1]","000","100","1","","","","","","",""
"","","","","","image-keyboard-response","197","231970","0.0-172.0","5d2df745da13f60018d14b64","665500ab8938657b03fbdba8","665792df916558ed86d82a6d","447","stimuli/10001001.jpg"," ","","feedback_trial","1","","","","","","","","","","","","","","","","","","","","",""
"","","","","","image-keyboard-response","198","232706","0.0-173.0","5d2df745da13f60018d14b64","665500ab8938657b03fbdba8","665792df916558ed86d82a6d","735","stimuli/1100000.jpg","1","","prediction_trial","1","","true","","1","true","true","true","true","true","true","[1]","100","000","1","","","","","","",""
"","","","","","image-keyboard-response","199","233122","0.0-174.0","5d2df745da13f60018d14b64","665500ab8938657b03fbdba8","665792df916558ed86d82a6d","415","stimuli/11000001.jpg"," ","","feedback_trial","1","","","","","","","","","","","","","","","","","","","","",""
"","","","","","image-keyboard-response","200","233746","0.0-175.0","5d2df745da13f60018d14b64","665500ab8938657b03fbdba8","665792df916558ed86d82a6d","624","stimuli/1101011.jpg","1","","prediction_trial","1","","true","","1","false","false","true","true","false","false","[1]","101","011","1","","","","","","",""
"","","","","","image-keyboard-response","201","234226","0.0-176.0","5d2df745da13f60018d14b64","665500ab8938657b03fbdba8","665792df916558ed86d82a6d","480","stimuli/11010111.jpg"," ","","feedback_trial","1","","","","","","","","","","","","","","","","","","","","",""
"","","","","","image-keyboard-response","202","234834","0.0-177.0","5d2df745da13f60018d14b64","665500ab8938657b03fbdba8","665792df916558ed86d82a6d","607","stimuli/2100110.jpg","2","","prediction_trial","2","","true","","2","true","true","true","true","true","true","[2]","100","110","1","","","","","","",""
"","","","","","image-keyboard-response","203","235266","0.0-178.0","5d2df745da13f60018d14b64","665500ab8938657b03fbdba8","665792df916558ed86d82a6d","431","stimuli/21001102.jpg"," ","","feedback_trial","2","","","","","","","","","","","","","","","","","","","","",""
"","","","","","image-keyboard-response","204","236274","0.0-179.0","5d2df745da13f60018d14b64","665500ab8938657b03fbdba8","665792df916558ed86d82a6d","1007","stimuli/2101010.jpg","2","","prediction_trial","0","","false","","2","true","true","false","false","false","false","[2,0]","101","010","0","","","","","","",""
"","","","","","image-keyboard-response","205","236706","0.0-180.0","5d2df745da13f60018d14b64","665500ab8938657b03fbdba8","665792df916558ed86d82a6d","431","stimuli/21010100.jpg"," ","","feedback_trial","2","","","","","","","","","","","","","","","","","","","","",""
"","","","","","image-keyboard-response","206","237378","0.0-181.0","5d2df745da13f60018d14b64","665500ab8938657b03fbdba8","665792df916558ed86d82a6d","672","stimuli/1001010.jpg","2","","prediction_trial","1","","false","","1","false","true","true","true","false","true","[1]","001","010","0","","","","","","",""
"","","","","","image-keyboard-response","207","238002","0.0-182.0","5d2df745da13f60018d14b64","665500ab8938657b03fbdba8","665792df916558ed86d82a6d","623","stimuli/10010101.jpg"," ","","feedback_trial","1","","","","","","","","","","","","","","","","","","","","",""
"","","","","","image-keyboard-response","208","238946","0.0-183.0","5d2df745da13f60018d14b64","665500ab8938657b03fbdba8","665792df916558ed86d82a6d","943","stimuli/2011101.jpg","2","","prediction_trial","1","","false","","2","false","false","false","false","false","false","[1,2]","011","101","0","","","","","","",""
"","","","","","image-keyboard-response","209","239490","0.0-184.0","5d2df745da13f60018d14b64","665500ab8938657b03fbdba8","665792df916558ed86d82a6d","543","stimuli/20111011.jpg"," ","","feedback_trial","1","","","","","","","","","","","","","","","","","","","","",""
"","","","","","image-keyboard-response","210","240211","0.0-185.0","5d2df745da13f60018d14b64","665500ab8938657b03fbdba8","665792df916558ed86d82a6d","720","stimuli/0101000.jpg","0","","prediction_trial","0","","true","","0","true","true","false","false","false","false","[2,0]","101","000","1","","","","","","",""
"","","","","","image-keyboard-response","211","240770","0.0-186.0","5d2df745da13f60018d14b64","665500ab8938657b03fbdba8","665792df916558ed86d82a6d","558","stimuli/01010000.jpg"," ","","feedback_trial","2","","","","","","","","","","","","","","","","","","","","",""
"","","","","","image-keyboard-response","212","242034","0.0-187.0","5d2df745da13f60018d14b64","665500ab8938657b03fbdba8","665792df916558ed86d82a6d","1264","stimuli/0101110.jpg","1","","prediction_trial","0","","false","","0","false","false","false","false","false","false","[2,0]","101","110","0","","","","","","",""
"","","","","","image-keyboard-response","213","242498","0.0-188.0","5d2df745da13f60018d14b64","665500ab8938657b03fbdba8","665792df916558ed86d82a6d","463","stimuli/01011100.jpg"," ","","feedback_trial","2","","","","","","","","","","","","","","","","","","","","",""
"","","","","","image-keyboard-response","214","243090","0.0-189.0","5d2df745da13f60018d14b64","665500ab8938657b03fbdba8","665792df916558ed86d82a6d","591","stimuli/2100010.jpg","2","","prediction_trial","2","","true","","2","true","true","true","true","true","true","[2]","100","010","1","","","","","","",""
"","","","","","image-keyboard-response","215","243490","0.0-190.0","5d2df745da13f60018d14b64","665500ab8938657b03fbdba8","665792df916558ed86d82a6d","399","stimuli/21000102.jpg"," ","","feedback_trial","2","","","","","","","","","","","","","","","","","","","","",""
"","","","","","image-keyboard-response","216","244834","0.0-191.0","5d2df745da13f60018d14b64","665500ab8938657b03fbdba8","665792df916558ed86d82a6d","1344","stimuli/0011101.jpg","1","","prediction_trial","0","","false","","0","false","false","true","true","false","false","[0]","011","101","0","","","","","","",""
"","","","","","image-keyboard-response","217","245314","0.0-192.0","5d2df745da13f60018d14b64","665500ab8938657b03fbdba8","665792df916558ed86d82a6d","479","stimuli/00111010.jpg"," ","","feedback_trial","0","","","","","","","","","","","","","","","","","","","","",""
"","","","","","image-keyboard-response","218","245954","0.0-193.0","5d2df745da13f60018d14b64","665500ab8938657b03fbdba8","665792df916558ed86d82a6d","639","stimuli/0011001.jpg","0","","prediction_trial","0","","true","","0","true","true","true","true","true","true","[0]","011","001","1","","","","","","",""
"","","","","","image-keyboard-response","219","246402","0.0-194.0","5d2df745da13f60018d14b64","665500ab8938657b03fbdba8","665792df916558ed86d82a6d","448","stimuli/00110010.jpg"," ","","feedback_trial","0","","","","","","","","","","","","","","","","","","","","",""
"","","","","","image-keyboard-response","220","247058","0.0-195.0","5d2df745da13f60018d14b64","665500ab8938657b03fbdba8","665792df916558ed86d82a6d","655","stimuli/0011010.jpg","0","","prediction_trial","0","","true","","0","true","true","true","true","true","true","[0]","011","010","1","","","","","","",""
"","","","","","image-keyboard-response","221","247442","0.0-196.0","5d2df745da13f60018d14b64","665500ab8938657b03fbdba8","665792df916558ed86d82a6d","383","stimuli/00110100.jpg"," ","","feedback_trial","0","","","","","","","","","","","","","","","","","","","","",""
"","","","","","image-keyboard-response","222","248002","0.0-197.0","5d2df745da13f60018d14b64","665500ab8938657b03fbdba8","665792df916558ed86d82a6d","556","stimuli/0001000.jpg","0","","prediction_trial","0","","true","","0","true","true","true","true","true","true","[0]","001","000","1","","","","","","",""
"","","","","","image-keyboard-response","223","248450","0.0-198.0","5d2df745da13f60018d14b64","665500ab8938657b03fbdba8","665792df916558ed86d82a6d","447","stimuli/00010000.jpg"," ","","feedback_trial","0","","","","","","","","","","","","","","","","","","","","",""
"","","","","","image-keyboard-response","224","249090","0.0-199.0","5d2df745da13f60018d14b64","665500ab8938657b03fbdba8","665792df916558ed86d82a6d","639","stimuli/0101010.jpg","1","","prediction_trial","2","","false","","0","true","true","false","false","false","false","[0,2]","101","010","0","","","","","","",""
"","","","","","image-keyboard-response","225","250370","0.0-200.0","5d2df745da13f60018d14b64","665500ab8938657b03fbdba8","665792df916558ed86d82a6d","1279","stimuli/01010102.jpg"," ","","feedback_trial","0","","","","","","","","","","","","","","","","","","","","",""
"","","","","","image-keyboard-response","226","251010","0.0-201.0","5d2df745da13f60018d14b64","665500ab8938657b03fbdba8","665792df916558ed86d82a6d","639","stimuli/1111100.jpg","1","","prediction_trial","0","","false","","1","true","true","false","false","false","false","[0,1,2]","111","100","0","","","","","","",""
"","","","","","image-keyboard-response","227","251842","0.0-202.0","5d2df745da13f60018d14b64","665500ab8938657b03fbdba8","665792df916558ed86d82a6d","831","stimuli/11111000.jpg"," ","","feedback_trial","0","","","","","","","","","","","","","","","","","","","","",""
"","","","","","image-keyboard-response","228","252514","0.0-203.0","5d2df745da13f60018d14b64","665500ab8938657b03fbdba8","665792df916558ed86d82a6d","668","stimuli/2101101.jpg","2","","prediction_trial","2","","true","","2","false","false","false","false","false","false","[0,2]","101","101","1","","","","","","",""
"","","","","","image-keyboard-response","229","252946","0.0-204.0","5d2df745da13f60018d14b64","665500ab8938657b03fbdba8","665792df916558ed86d82a6d","431","stimuli/21011012.jpg"," ","","feedback_trial","0","","","","","","","","","","","","","","","","","","","","",""
"","","","","","image-keyboard-response","230","253634","0.0-205.0","5d2df745da13f60018d14b64","665500ab8938657b03fbdba8","665792df916558ed86d82a6d","688","stimuli/2110001.jpg","1","","prediction_trial","2","","false","","2","false","true","true","true","false","true","[2]","110","001","0","","","","","","",""
"","","","","","image-keyboard-response","231","254274","0.0-206.0","5d2df745da13f60018d14b64","665500ab8938657b03fbdba8","665792df916558ed86d82a6d","639","stimuli/21100012.jpg"," ","","feedback_trial","2","","","","","","","","","","","","","","","","","","","","",""
"","","","","","image-keyboard-response","232","255074","0.0-207.0","5d2df745da13f60018d14b64","665500ab8938657b03fbdba8","665792df916558ed86d82a6d","799","stimuli/0111010.jpg","0","","prediction_trial","1","","false","","0","true","true","false","false","false","false","[2,1,0]","111","010","0","","","","","","",""
"","","","","","image-keyboard-response","233","255506","0.0-208.0","5d2df745da13f60018d14b64","665500ab8938657b03fbdba8","665792df916558ed86d82a6d","432","stimuli/01110101.jpg"," ","","feedback_trial","2","","","","","","","","","","","","","","","","","","","","",""
"","","","","","image-keyboard-response","234","256162","0.0-209.0","5d2df745da13f60018d14b64","665500ab8938657b03fbdba8","665792df916558ed86d82a6d","651","stimuli/2011001.jpg","1","","prediction_trial","2","","false","","2","false","true","false","false","false","false","[2,1]","011","001","0","","","","","","",""
"","","","","","image-keyboard-response","235","256642","0.0-210.0","5d2df745da13f60018d14b64","665500ab8938657b03fbdba8","665792df916558ed86d82a6d","480","stimuli/20110012.jpg"," ","","feedback_trial","2","","","","","","","","","","","","","","","","","","","","",""
"","","","","","image-keyboard-response","236","257410","0.0-211.0","5d2df745da13f60018d14b64","665500ab8938657b03fbdba8","665792df916558ed86d82a6d","767","stimuli/1010001.jpg","1","","prediction_trial","1","","true","","1","true","true","false","true","false","true","[1]","010","001","1","","","","","","",""
"","","","","","image-keyboard-response","237","257938","0.0-212.0","5d2df745da13f60018d14b64","665500ab8938657b03fbdba8","665792df916558ed86d82a6d","527","stimuli/10100011.jpg"," ","","feedback_trial","1","","","","","","","","","","","","","","","","","","","","",""
"","","","","","image-keyboard-response","238","259010","0.0-213.0","5d2df745da13f60018d14b64","665500ab8938657b03fbdba8","665792df916558ed86d82a6d","1071","stimuli/0001110.jpg","1","","prediction_trial","0","","false","","0","false","false","true","true","false","false","[0]","001","110","0","","","","","","",""
"","","","","","image-keyboard-response","239","259986","0.0-214.0","5d2df745da13f60018d14b64","665500ab8938657b03fbdba8","665792df916558ed86d82a6d","975","stimuli/00011100.jpg"," ","","feedback_trial","0","","","","","","","","","","","","","","","","","","","","",""
"","","","","","image-keyboard-response","240","260610","0.0-215.0","5d2df745da13f60018d14b64","665500ab8938657b03fbdba8","665792df916558ed86d82a6d","619","stimuli/0000011.jpg","0","","prediction_trial","0","","true","","0","true","true","true","true","true","true","[0]","000","011","1","","","","","","",""
"","","","","","image-keyboard-response","241","260994","0.0-216.0","5d2df745da13f60018d14b64","665500ab8938657b03fbdba8","665792df916558ed86d82a6d","383","stimuli/00000110.jpg"," ","","feedback_trial","0","","","","","","","","","","","","","","","","","","","","",""
"","","","","","image-keyboard-response","242","261554","0.0-217.0","5d2df745da13f60018d14b64","665500ab8938657b03fbdba8","665792df916558ed86d82a6d","560","stimuli/0010001.jpg","0","","prediction_trial","0","","true","","0","true","true","true","true","true","true","[0]","010","001","1","","","","","","",""
"","","","","","image-keyboard-response","243","261970","0.0-218.0","5d2df745da13f60018d14b64","665500ab8938657b03fbdba8","665792df916558ed86d82a6d","415","stimuli/00100010.jpg"," ","","feedback_trial","0","","","","","","","","","","","","","","","","","","","","",""
"","","","","","image-keyboard-response","244","262530","0.0-219.0","5d2df745da13f60018d14b64","665500ab8938657b03fbdba8","665792df916558ed86d82a6d","559","stimuli/1101000.jpg","1","","prediction_trial","1","","true","","1","true","true","true","true","true","true","[1]","101","000","1","","","","","","",""
"","","","","","image-keyboard-response","245","263010","0.0-220.0","5d2df745da13f60018d14b64","665500ab8938657b03fbdba8","665792df916558ed86d82a6d","479","stimuli/11010001.jpg"," ","","feedback_trial","1","","","","","","","","","","","","","","","","","","","","",""
"","","","","","image-keyboard-response","246","263522","0.0-221.0","5d2df745da13f60018d14b64","665500ab8938657b03fbdba8","665792df916558ed86d82a6d","507","stimuli/0010011.jpg","0","","prediction_trial","0","","true","","0","true","true","true","true","true","true","[0]","010","011","1","","","","","","",""
"","","","","","image-keyboard-response","247","263970","0.0-222.0","5d2df745da13f60018d14b64","665500ab8938657b03fbdba8","665792df916558ed86d82a6d","448","stimuli/00100110.jpg"," ","","feedback_trial","0","","","","","","","","","","","","","","","","","","","","",""
"","","","","","image-keyboard-response","248","265218","0.0-223.0","5d2df745da13f60018d14b64","665500ab8938657b03fbdba8","665792df916558ed86d82a6d","1247","stimuli/2001100.jpg","2","","prediction_trial","2","","true","","2","true","true","false","true","false","true","[2]","001","100","1","","","","","","",""
"","","","","","image-keyboard-response","249","266113","0.0-224.0","5d2df745da13f60018d14b64","665500ab8938657b03fbdba8","665792df916558ed86d82a6d","895","stimuli/20011002.jpg"," ","","feedback_trial","2","","","","","","","","","","","","","","","","","","","","",""
"","","","","","image-keyboard-response","250","268066","0.0-225.0","5d2df745da13f60018d14b64","665500ab8938657b03fbdba8","665792df916558ed86d82a6d","1952","stimuli/0001011.jpg","0","","prediction_trial","0","","true","","0","true","true","true","true","true","true","[0]","001","011","1","","","","","","",""
"","","","","","image-keyboard-response","251","268434","0.0-226.0","5d2df745da13f60018d14b64","665500ab8938657b03fbdba8","665792df916558ed86d82a6d","367","stimuli/00010110.jpg"," ","","feedback_trial","0","","","","","","","","","","","","","","","","","","","","",""
"","","","","","image-keyboard-response","252","269282","0.0-227.0","5d2df745da13f60018d14b64","665500ab8938657b03fbdba8","665792df916558ed86d82a6d","847","stimuli/1101100.jpg","1","","prediction_trial","1","","true","","1","true","true","true","true","true","true","[1]","101","100","1","","","","","","",""
"","","","","","image-keyboard-response","253","269650","0.0-228.0","5d2df745da13f60018d14b64","665500ab8938657b03fbdba8","665792df916558ed86d82a6d","367","stimuli/11011001.jpg"," ","","feedback_trial","1","","","","","","","","","","","","","","","","","","","","",""
"","","","","","image-keyboard-response","254","270482","0.0-229.0","5d2df745da13f60018d14b64","665500ab8938657b03fbdba8","665792df916558ed86d82a6d","831","stimuli/1110010.jpg","1","","prediction_trial","0","","false","","1","false","true","false","false","false","false","[0,1]","110","010","0","","","","","","",""
"","","","","","image-keyboard-response","255","270930","0.0-230.0","5d2df745da13f60018d14b64","665500ab8938657b03fbdba8","665792df916558ed86d82a6d","448","stimuli/11100100.jpg"," ","","feedback_trial","0","","","","","","","","","","","","","","","","","","","","",""
"","","","","","image-keyboard-response","256","271474","0.0-231.0","5d2df745da13f60018d14b64","665500ab8938657b03fbdba8","665792df916558ed86d82a6d","544","stimuli/1000000.jpg","1","","prediction_trial","1","","true","","1","true","true","true","true","true","true","[1]","000","000","1","","","","","","",""
"","","","","","image-keyboard-response","257","271906","0.0-232.0","5d2df745da13f60018d14b64","665500ab8938657b03fbdba8","665792df916558ed86d82a6d","431","stimuli/10000001.jpg"," ","","feedback_trial","1","","","","","","","","","","","","","","","","","","","","",""
"","","","","","image-keyboard-response","258","272562","0.0-233.0","5d2df745da13f60018d14b64","665500ab8938657b03fbdba8","665792df916558ed86d82a6d","655","stimuli/2110110.jpg","2","","prediction_trial","2","","true","","2","true","true","true","true","true","true","[2]","110","110","1","","","","","","",""
"","","","","","image-keyboard-response","259","272963","0.0-234.0","5d2df745da13f60018d14b64","665500ab8938657b03fbdba8","665792df916558ed86d82a6d","400","stimuli/21101102.jpg"," ","","feedback_trial","2","","","","","","","","","","","","","","","","","","","","",""
"","","","","","image-keyboard-response","260","274147","0.0-235.0","5d2df745da13f60018d14b64","665500ab8938657b03fbdba8","665792df916558ed86d82a6d","1184","stimuli/2110101.jpg","0","","prediction_trial","2","","false","","2","false","false","true","true","false","false","[2]","110","101","0","","","","","","",""
"","","","","","image-keyboard-response","261","274610","0.0-236.0","5d2df745da13f60018d14b64","665500ab8938657b03fbdba8","665792df916558ed86d82a6d","461","stimuli/21101012.jpg"," ","","feedback_trial","2","","","","","","","","","","","","","","","","","","","","",""
"","","","","","image-keyboard-response","262","275554","0.0-237.0","5d2df745da13f60018d14b64","665500ab8938657b03fbdba8","665792df916558ed86d82a6d","944","stimuli/2010111.jpg","1","","prediction_trial","2","","false","","2","false","false","true","true","false","false","[2]","010","111","0","","","","","","",""
"","","","","","image-keyboard-response","263","275986","0.0-238.0","5d2df745da13f60018d14b64","665500ab8938657b03fbdba8","665792df916558ed86d82a6d","431","stimuli/20101112.jpg"," ","","feedback_trial","2","","","","","","","","","","","","","","","","","","","","",""
"","","","","","image-keyboard-response","264","276819","0.0-239.0","5d2df745da13f60018d14b64","665500ab8938657b03fbdba8","665792df916558ed86d82a6d","832","stimuli/2110100.jpg","2","","prediction_trial","2","","true","","2","true","true","true","true","true","true","[2]","110","100","1","","","","","","",""
"","","","","","image-keyboard-response","265","277186","0.0-240.0","5d2df745da13f60018d14b64","665500ab8938657b03fbdba8","665792df916558ed86d82a6d","366","stimuli/21101002.jpg"," ","","feedback_trial","2","","","","","","","","","","","","","","","","","","","","",""
"","","","","","image-keyboard-response","266","277858","0.0-241.0","5d2df745da13f60018d14b64","665500ab8938657b03fbdba8","665792df916558ed86d82a6d","671","stimuli/1111011.jpg","1","","prediction_trial","0","","false","","1","false","false","false","false","false","false","[0,2,1]","111","011","0","","","","","","",""
"","","","","","image-keyboard-response","267","278258","0.0-242.0","5d2df745da13f60018d14b64","665500ab8938657b03fbdba8","665792df916558ed86d82a6d","399","stimuli/11110110.jpg"," ","","feedback_trial","0","","","","","","","","","","","","","","","","","","","","",""
"","","","","","image-keyboard-response","268","278834","0.0-243.0","5d2df745da13f60018d14b64","665500ab8938657b03fbdba8","665792df916558ed86d82a6d","576","stimuli/2011000.jpg","2","","prediction_trial","2","","true","","2","true","true","false","false","false","false","[1,2]","011","000","1","","","","","","",""
"","","","","","image-keyboard-response","269","279219","0.0-244.0","5d2df745da13f60018d14b64","665500ab8938657b03fbdba8","665792df916558ed86d82a6d","384","stimuli/20110002.jpg"," ","","feedback_trial","1","","","","","","","","","","","","","","","","","","","","",""
"","","","","","image-keyboard-response","270","279954","0.0-245.0","5d2df745da13f60018d14b64","665500ab8938657b03fbdba8","665792df916558ed86d82a6d","730","stimuli/0010101.jpg","1","","prediction_trial","0","","false","","0","false","false","true","true","false","false","[0]","010","101","0","","","","","","",""
"","","","","","image-keyboard-response","271","281154","0.0-246.0","5d2df745da13f60018d14b64","665500ab8938657b03fbdba8","665792df916558ed86d82a6d","1200","stimuli/00101010.jpg"," ","","feedback_trial","0","","","","","","","","","","","","","","","","","","","","",""
"","","","","","image-keyboard-response","272","281810","0.0-247.0","5d2df745da13f60018d14b64","665500ab8938657b03fbdba8","665792df916558ed86d82a6d","655","stimuli/2010110.jpg","2","","prediction_trial","2","","true","","2","true","true","true","true","true","true","[2]","010","110","1","","","","","","",""
"","","","","","image-keyboard-response","273","282195","0.0-248.0","5d2df745da13f60018d14b64","665500ab8938657b03fbdba8","665792df916558ed86d82a6d","384","stimuli/20101102.jpg"," ","","feedback_trial","2","","","","","","","","","","","","","","","","","","","","",""
"","","","","","image-keyboard-response","274","283842","0.0-249.0","5d2df745da13f60018d14b64","665500ab8938657b03fbdba8","665792df916558ed86d82a6d","1646","stimuli/0010111.jpg","1","","prediction_trial","0","","false","","0","false","false","true","true","false","false","[0]","010","111","0","","","","","","",""
"","","","","","image-keyboard-response","275","284274","0.0-250.0","5d2df745da13f60018d14b64","665500ab8938657b03fbdba8","665792df916558ed86d82a6d","431","stimuli/00101110.jpg"," ","","feedback_trial","0","","","","","","","","","","","","","","","","","","","","",""
"","","","","","image-keyboard-response","276","285170","0.0-251.0","5d2df745da13f60018d14b64","665500ab8938657b03fbdba8","665792df916558ed86d82a6d","895","stimuli/1010010.jpg","1","","prediction_trial","1","","true","","1","false","true","false","true","false","true","[1]","010","010","1","","","","","","",""
"","","","","","image-keyboard-response","277","285538","0.0-252.0","5d2df745da13f60018d14b64","665500ab8938657b03fbdba8","665792df916558ed86d82a6d","367","stimuli/10100101.jpg"," ","","feedback_trial","1","","","","","","","","","","","","","","","","","","","","",""
"","","","","","image-keyboard-response","278","286210","0.0-253.0","5d2df745da13f60018d14b64","665500ab8938657b03fbdba8","665792df916558ed86d82a6d","672","stimuli/1110100.jpg","1","","prediction_trial","0","","false","","1","true","true","false","false","false","false","[1,0]","110","100","0","","","","","","",""
"","","","","","image-keyboard-response","279","286610","0.0-254.0","5d2df745da13f60018d14b64","665500ab8938657b03fbdba8","665792df916558ed86d82a6d","399","stimuli/11101000.jpg"," ","","feedback_trial","1","","","","","","","","","","","","","","","","","","","","",""
"","","","","","image-keyboard-response","280","287571","0.0-255.0","5d2df745da13f60018d14b64","665500ab8938657b03fbdba8","665792df916558ed86d82a6d","960","stimuli/1000011.jpg","2","","prediction_trial","1","","false","","1","false","false","true","true","false","false","[1]","000","011","0","","","","","","",""
"","","","","","image-keyboard-response","281","288018","0.0-256.0","5d2df745da13f60018d14b64","665500ab8938657b03fbdba8","665792df916558ed86d82a6d","447","stimuli/10000111.jpg"," ","","feedback_trial","1","","","","","","","","","","","","","","","","","","","","",""
"","","","","","image-keyboard-response","282","289826","0.0-257.0","5d2df745da13f60018d14b64","665500ab8938657b03fbdba8","665792df916558ed86d82a6d","1807","stimuli/2001101.jpg","2","","prediction_trial","2","","true","","2","false","false","false","true","false","false","[2]","001","101","1","","","","","","",""
"","","","","","image-keyboard-response","283","290226","0.0-258.0","5d2df745da13f60018d14b64","665500ab8938657b03fbdba8","665792df916558ed86d82a6d","399","stimuli/20011012.jpg"," ","","feedback_trial","2","","","","","","","","","","","","","","","","","","","","",""
"","","","","","image-keyboard-response","284","290866","0.0-259.0","5d2df745da13f60018d14b64","665500ab8938657b03fbdba8","665792df916558ed86d82a6d","639","stimuli/1111111.jpg","1","","prediction_trial","0","","false","","1","false","false","false","false","false","false","[0,2,1]","111","111","0","","","","","","",""
"","","","","","image-keyboard-response","285","291282","0.0-260.0","5d2df745da13f60018d14b64","665500ab8938657b03fbdba8","665792df916558ed86d82a6d","415","stimuli/11111110.jpg"," ","","feedback_trial","0","","","","","","","","","","","","","","","","","","","","",""
"","","","","","image-keyboard-response","286","292018","0.0-261.0","5d2df745da13f60018d14b64","665500ab8938657b03fbdba8","665792df916558ed86d82a6d","735","stimuli/2000101.jpg","2","","prediction_trial","2","","true","","2","false","false","true","true","false","false","[2]","000","101","1","","","","","","",""
"","","","","","image-keyboard-response","287","292434","0.0-262.0","5d2df745da13f60018d14b64","665500ab8938657b03fbdba8","665792df916558ed86d82a6d","415","stimuli/20001012.jpg"," ","","feedback_trial","2","","","","","","","","","","","","","","","","","","","","",""
"","","","","","image-keyboard-response","288","293219","0.0-263.0","5d2df745da13f60018d14b64","665500ab8938657b03fbdba8","665792df916558ed86d82a6d","781","stimuli/1001001.jpg","1","","prediction_trial","1","","true","","1","true","true","true","true","true","true","[1]","001","001","1","","","","","","",""
"","","","","","image-keyboard-response","289","293666","0.0-264.0","5d2df745da13f60018d14b64","665500ab8938657b03fbdba8","665792df916558ed86d82a6d","446","stimuli/10010011.jpg"," ","","feedback_trial","1","","","","","","","","","","","","","","","","","","","","",""
"","","","","","image-keyboard-response","290","294243","0.0-265.0","5d2df745da13f60018d14b64","665500ab8938657b03fbdba8","665792df916558ed86d82a6d","575","stimuli/2001010.jpg","2","","prediction_trial","2","","true","","2","true","true","false","true","false","true","[2]","001","010","1","","","","","","",""
"","","","","","image-keyboard-response","291","294722","0.0-266.0","5d2df745da13f60018d14b64","665500ab8938657b03fbdba8","665792df916558ed86d82a6d","479","stimuli/20010102.jpg"," ","","feedback_trial","2","","","","","","","","","","","","","","","","","","","","",""
"","","","","","image-keyboard-response","292","295554","0.0-267.0","5d2df745da13f60018d14b64","665500ab8938657b03fbdba8","665792df916558ed86d82a6d","831","stimuli/2010000.jpg","2","","prediction_trial","2","","true","","2","true","true","true","true","true","true","[2]","010","000","1","","","","","","",""
"","","","","","image-keyboard-response","293","295938","0.0-268.0","5d2df745da13f60018d14b64","665500ab8938657b03fbdba8","665792df916558ed86d82a6d","383","stimuli/20100002.jpg"," ","","feedback_trial","2","","","","","","","","","","","","","","","","","","","","",""
"","","","","","image-keyboard-response","294","297538","0.0-269.0","5d2df745da13f60018d14b64","665500ab8938657b03fbdba8","665792df916558ed86d82a6d","1598","stimuli/0011100.jpg","0","","prediction_trial","0","","true","","0","false","true","true","true","false","true","[0]","011","100","1","","","","","","",""
"","","","","","image-keyboard-response","295","297922","0.0-270.0","5d2df745da13f60018d14b64","665500ab8938657b03fbdba8","665792df916558ed86d82a6d","383","stimuli/00111000.jpg"," ","","feedback_trial","0","","","","","","","","","","","","","","","","","","","","",""
"","","","","","image-keyboard-response","296","298658","0.0-271.0","5d2df745da13f60018d14b64","665500ab8938657b03fbdba8","665792df916558ed86d82a6d","736","stimuli/2111010.jpg","2","","prediction_trial","1","","false","","2","true","true","false","false","false","false","[0,2,1]","111","010","0","","","","","","",""
"","","","","","image-keyboard-response","297","299010","0.0-272.0","5d2df745da13f60018d14b64","665500ab8938657b03fbdba8","665792df916558ed86d82a6d","351","stimuli/21110101.jpg"," ","","feedback_trial","0","","","","","","","","","","","","","","","","","","","","",""
"","","","","","image-keyboard-response","298","299922","0.0-273.0","5d2df745da13f60018d14b64","665500ab8938657b03fbdba8","665792df916558ed86d82a6d","911","stimuli/1100010.jpg","0","","prediction_trial","1","","false","","1","false","true","true","true","false","true","[1]","100","010","0","","","","","","",""
"","","","","","image-keyboard-response","299","300354","0.0-274.0","5d2df745da13f60018d14b64","665500ab8938657b03fbdba8","665792df916558ed86d82a6d","432","stimuli/11000101.jpg"," ","","feedback_trial","1","","","","","","","","","","","","","","","","","","","","",""
"","","","","","image-keyboard-response","300","300931","0.0-275.0","5d2df745da13f60018d14b64","665500ab8938657b03fbdba8","665792df916558ed86d82a6d","574","stimuli/1110001.jpg","1","","prediction_trial","0","","false","","1","true","true","false","false","false","false","[1,0]","110","001","0","","","","","","",""
"","","","","","image-keyboard-response","301","301603","0.0-276.0","5d2df745da13f60018d14b64","665500ab8938657b03fbdba8","665792df916558ed86d82a6d","672","stimuli/11100010.jpg"," ","","feedback_trial","1","","","","","","","","","","","","","","","","","","","","",""
"","","","","","image-keyboard-response","302","302755","0.0-277.0","5d2df745da13f60018d14b64","665500ab8938657b03fbdba8","665792df916558ed86d82a6d","1151","stimuli/0101100.jpg","2","","prediction_trial","2","","true","","0","false","true","false","false","false","false","[2,0]","101","100","1","","","","","","",""
"","","","","","image-keyboard-response","303","303171","0.0-278.0","5d2df745da13f60018d14b64","665500ab8938657b03fbdba8","665792df916558ed86d82a6d","415","stimuli/01011002.jpg"," ","","feedback_trial","2","","","","","","","","","","","","","","","","","","","","",""
"","","","","","image-keyboard-response","304","303827","0.0-279.0","5d2df745da13f60018d14b64","665500ab8938657b03fbdba8","665792df916558ed86d82a6d","656","stimuli/1010111.jpg","1","","prediction_trial","1","","true","","1","false","false","false","true","false","false","[1]","010","111","1","","","","","","",""
"","","","","","image-keyboard-response","305","304260","0.0-280.0","5d2df745da13f60018d14b64","665500ab8938657b03fbdba8","665792df916558ed86d82a6d","432","stimuli/10101111.jpg"," ","","feedback_trial","1","","","","","","","","","","","","","","","","","","","","",""
"","","","","","image-keyboard-response","306","305042","0.0-281.0","5d2df745da13f60018d14b64","665500ab8938657b03fbdba8","665792df916558ed86d82a6d","781","stimuli/2010001.jpg","1","","prediction_trial","2","","false","","2","false","true","true","true","false","true","[2]","010","001","0","","","","","","",""
"","","","","","image-keyboard-response","307","305571","0.0-282.0","5d2df745da13f60018d14b64","665500ab8938657b03fbdba8","665792df916558ed86d82a6d","527","stimuli/20100012.jpg"," ","","feedback_trial","2","","","","","","","","","","","","","","","","","","","","",""
"","","","","","image-keyboard-response","308","306499","0.0-283.0","5d2df745da13f60018d14b64","665500ab8938657b03fbdba8","665792df916558ed86d82a6d","928","stimuli/2000001.jpg","2","","prediction_trial","2","","true","","2","false","true","true","true","false","true","[2]","000","001","1","","","","","","",""
"","","","","","image-keyboard-response","309","306931","0.0-284.0","5d2df745da13f60018d14b64","665500ab8938657b03fbdba8","665792df916558ed86d82a6d","432","stimuli/20000012.jpg"," ","","feedback_trial","2","","","","","","","","","","","","","","","","","","","","",""
"","","","","","image-keyboard-response","310","307539","0.0-285.0","5d2df745da13f60018d14b64","665500ab8938657b03fbdba8","665792df916558ed86d82a6d","607","stimuli/1010000.jpg","1","","prediction_trial","1","","true","","1","true","true","false","true","false","true","[1]","010","000","1","","","","","","",""
"","","","","","image-keyboard-response","311","307987","0.0-286.0","5d2df745da13f60018d14b64","665500ab8938657b03fbdba8","665792df916558ed86d82a6d","447","stimuli/10100001.jpg"," ","","feedback_trial","1","","","","","","","","","","","","","","","","","","","","",""
"","","","","","image-keyboard-response","312","308883","0.0-287.0","5d2df745da13f60018d14b64","665500ab8938657b03fbdba8","665792df916558ed86d82a6d","895","stimuli/0011110.jpg","2","","prediction_trial","0","","false","","0","false","false","true","true","false","false","[0]","011","110","0","","","","","","",""
"","","","","","image-keyboard-response","313","309298","0.0-288.0","5d2df745da13f60018d14b64","665500ab8938657b03fbdba8","665792df916558ed86d82a6d","415","stimuli/00111100.jpg"," ","","feedback_trial","0","","","","","","","","","","","","","","","","","","","","",""
"","","","","","image-keyboard-response","314","310035","0.0-289.0","5d2df745da13f60018d14b64","665500ab8938657b03fbdba8","665792df916558ed86d82a6d","736","stimuli/1011110.jpg","2","","prediction_trial","2","","true","","1","false","false","false","false","false","false","[2,1]","011","110","1","","","","","","",""
"","","","","","image-keyboard-response","315","310530","0.0-290.0","5d2df745da13f60018d14b64","665500ab8938657b03fbdba8","665792df916558ed86d82a6d","495","stimuli/10111102.jpg"," ","","feedback_trial","2","","","","","","","","","","","","","","","","","","","","",""
"","","","","","image-keyboard-response","316","311427","0.0-291.0","5d2df745da13f60018d14b64","665500ab8938657b03fbdba8","665792df916558ed86d82a6d","896","stimuli/2110111.jpg","0","","prediction_trial","2","","false","","2","false","false","true","true","false","false","[2]","110","111","0","","","","","","",""
"","","","","","image-keyboard-response","317","311875","0.0-292.0","5d2df745da13f60018d14b64","665500ab8938657b03fbdba8","665792df916558ed86d82a6d","447","stimuli/21101112.jpg"," ","","feedback_trial","2","","","","","","","","","","","","","","","","","","","","",""
"","","","","","survey-html-form","318","358932","0.0-293.0","5d2df745da13f60018d14b64","665500ab8938657b03fbdba8","665792df916558ed86d82a6d","47056","","{""feedback"":""Most of the time I tried to see if I knew where the ball was and then if Sam knew where the ball was and then I'd have to make a decision. It seemed like the center was a good bet if he had to guess but I wasn't completely sold on that."",""age"":""41"",""gender"":""Male"",""other_gender"":"""",""race"":""White"",""other_race"":"""",""ethnicity"":""Non-Hispanic""}","","exit_survey","","","","","","","","","","","","","","","","Most of the time I tried to see if I knew where the ball was and then if Sam knew where the ball was and then I'd have to make a decision. It seemed like the center was a good bet if he had to guess but I wasn't completely sold on that.","41","Non-Hispanic","Male","White","0.625","0.625"
