"success","timeout","failed_images","failed_audio","failed_video","trial_type","trial_index","time_elapsed","internal_node_id","prolific_id","prolific_study_id","prolific_session_id","rt","stimulus","response","view_history","trial","character_choice","stimulus_dict","accuracy","correct_response","ball_pos","ego_ball_visible","ego_can_infer","alter_ball_visible","alter_can_infer","collective_ball_visible","collective_can_infer","search_locations","alter_occluders","ego_occluders","accuracy_bool","feedback","age","ethnicity","gender","race","overall_accuracy","bonus"
"true","false","[]","[]","[]","preload","0","1825","0.0-0.0","643d681fb11898ee6b771ccf","665500ab8938657b03fbdba8","66579296c69c7faa76e73c80","","","","","","","","","","","","","","","","","","","","","","","","","","",""
"true","","","","","fullscreen","1","4337","0.0-1.0","643d681fb11898ee6b771ccf","665500ab8938657b03fbdba8","66579296c69c7faa76e73c80","","","","","","","","","","","","","","","","","","","","","","","","","","",""
"","","","","","html-button-response","2","17544","0.0-2.0","643d681fb11898ee6b771ccf","665500ab8938657b03fbdba8","66579296c69c7faa76e73c80","13202","<p><b>Consent Form</b></p> <div style=""text-align:left;background-color:lightgrey; padding:20px; max-width:900px;""><p>Please consider this information carefully before deciding whether to participate in this research.</p> <p>The purpose of this research is to examine which factors influence social judgment and decision-making. You will be asked to make judgements about individuals and actions in social scenarios. We are simply interested in your judgement. The study will take less than 1 hour to complete, and you will receive less than $20 on Prolific. Your compensation and time commitment are specified in the study description. There are no anticipated risks associated with participating in this study. The effects of participating should be comparable to those you would ordinarily experience from viewing a computer monitor and using a mouse or keyboard for a similar amount of time. At the end of the study, we will provide an explanation of the questions that motivate this line of research and will describe the potential implications. </p><p> Your participation in this study is completely voluntary and you may refuse to participate or you may choose to withdraw at any time without penalty or loss of benefits to you which are otherwise entitled. Your participation in this study will remain confidential. No personally identifiable information will be associated with your data. Also, all analyses of the data will be averaged across all the participants, so your individual responses will never be specifically analyzed. </p><p> If you have questions or concerns about your participation or payment, or want to request a summary of research findings, please contact Dr. Jonathan Phillips at Jonathan.S.Phillips@dartmouth.edu. </p><p> Please save a copy of this form for your records. </p><p><b>Agreement: </b>The nature and purpose of this research have been sufficiently explained and I agree to participate in this study. I understand that I am free to withdraw at any time without incurring any penalty. Please consent by clicking the button below to continue. Otherwise, please exit the study at any time. </p>","0","","","","","","","","","","","","","","","","","","","","","","","",""
"","","","","","instructions","3","99247","0.0-3.0-0.0","643d681fb11898ee6b771ccf","665500ab8938657b03fbdba8","66579296c69c7faa76e73c80","81693","","","[{""page_index"":0,""viewing_time"":1480},{""page_index"":1,""viewing_time"":1365},{""page_index"":2,""viewing_time"":2202},{""page_index"":3,""viewing_time"":5165},{""page_index"":4,""viewing_time"":3775},{""page_index"":5,""viewing_time"":2743},{""page_index"":6,""viewing_time"":3754},{""page_index"":7,""viewing_time"":2662},{""page_index"":8,""viewing_time"":4182},{""page_index"":9,""viewing_time"":3037},{""page_index"":10,""viewing_time"":32125},{""page_index"":11,""viewing_time"":8935},{""page_index"":12,""viewing_time"":9135},{""page_index"":13,""viewing_time"":1133}]","intro","","","","","","","","","","","","","","","","","","","","","",""
"","","","","","image-keyboard-response","4","106738","0.0-3.0-1.0","643d681fb11898ee6b771ccf","665500ab8938657b03fbdba8","66579296c69c7faa76e73c80","7485","stimuli/0100011.jpg","0","","prediction_practice","0","{""filepath"":""stimuli/0100011.jpg"",""ball_pos"":0,""ego_ball_visible"":true,""ego_can_infer"":true,""alter_ball_visible"":false,""alter_can_infer"":true,""collective_ball_visible"":false,""collective_can_infer"":true,""search_locations"":[0],""alter_occluders"":""100"",""ego_occluders"":""011""}","true","","","","","","","","","","","","","","","","","","",""
"","","","","","image-keyboard-response","5","108119","0.0-3.0-2.0","643d681fb11898ee6b771ccf","665500ab8938657b03fbdba8","66579296c69c7faa76e73c80","1379","stimuli/01000110.jpg"," ","","practrice_feedback","0","","","","","","","","","","","","","","","","","","","","",""
"","","","","","image-keyboard-response","6","113401","0.0-3.0-3.0","643d681fb11898ee6b771ccf","665500ab8938657b03fbdba8","66579296c69c7faa76e73c80","5279","stimuli/2011111.jpg","1","","prediction_practice","1","{""filepath"":""stimuli/2011111.jpg"",""ball_pos"":2,""ego_ball_visible"":false,""ego_can_infer"":false,""alter_ball_visible"":false,""alter_can_infer"":false,""collective_ball_visible"":false,""collective_can_infer"":false,""search_locations"":[1,2],""alter_occluders"":""011"",""ego_occluders"":""111""}","true","","","","","","","","","","","","","","","","","","",""
"","","","","","image-keyboard-response","7","114754","0.0-3.0-4.0","643d681fb11898ee6b771ccf","665500ab8938657b03fbdba8","66579296c69c7faa76e73c80","1351","stimuli/20111111.jpg"," ","","practrice_feedback","1","","","","","","","","","","","","","","","","","","","","",""
"","","","","","image-keyboard-response","8","116801","0.0-3.0-5.0","643d681fb11898ee6b771ccf","665500ab8938657b03fbdba8","66579296c69c7faa76e73c80","2046","stimuli/0011011.jpg","0","","prediction_practice","0","{""filepath"":""stimuli/0011011.jpg"",""ball_pos"":0,""ego_ball_visible"":true,""ego_can_infer"":true,""alter_ball_visible"":true,""alter_can_infer"":true,""collective_ball_visible"":true,""collective_can_infer"":true,""search_locations"":[0],""alter_occluders"":""011"",""ego_occluders"":""011""}","true","","","","","","","","","","","","","","","","","","",""
"","","","","","image-keyboard-response","9","117489","0.0-3.0-6.0","643d681fb11898ee6b771ccf","665500ab8938657b03fbdba8","66579296c69c7faa76e73c80","685","stimuli/00110110.jpg"," ","","practrice_feedback","0","","","","","","","","","","","","","","","","","","","","",""
"","","","","","image-keyboard-response","10","119566","0.0-3.0-7.0","643d681fb11898ee6b771ccf","665500ab8938657b03fbdba8","66579296c69c7faa76e73c80","2074","stimuli/1001101.jpg","1","","prediction_practice","1","{""filepath"":""stimuli/1001101.jpg"",""ball_pos"":1,""ego_ball_visible"":true,""ego_can_infer"":true,""alter_ball_visible"":true,""alter_can_infer"":true,""collective_ball_visible"":true,""collective_can_infer"":true,""search_locations"":[1],""alter_occluders"":""001"",""ego_occluders"":""101""}","true","","","","","","","","","","","","","","","","","","",""
"","","","","","image-keyboard-response","11","120063","0.0-3.0-8.0","643d681fb11898ee6b771ccf","665500ab8938657b03fbdba8","66579296c69c7faa76e73c80","495","stimuli/10011011.jpg"," ","","practrice_feedback","1","","","","","","","","","","","","","","","","","","","","",""
"","","","","","image-keyboard-response","12","124894","0.0-3.0-9.0","643d681fb11898ee6b771ccf","665500ab8938657b03fbdba8","66579296c69c7faa76e73c80","4829","stimuli/0010100.jpg","0","","prediction_practice","0","{""filepath"":""stimuli/0010100.jpg"",""ball_pos"":0,""ego_ball_visible"":false,""ego_can_infer"":true,""alter_ball_visible"":true,""alter_can_infer"":true,""collective_ball_visible"":false,""collective_can_infer"":true,""search_locations"":[0],""alter_occluders"":""010"",""ego_occluders"":""100""}","true","","","","","","","","","","","","","","","","","","",""
"","","","","","image-keyboard-response","13","125532","0.0-3.0-10.0","643d681fb11898ee6b771ccf","665500ab8938657b03fbdba8","66579296c69c7faa76e73c80","636","stimuli/00101000.jpg"," ","","practrice_feedback","0","","","","","","","","","","","","","","","","","","","","",""
"","","","","","image-keyboard-response","14","127204","0.0-3.0-11.0","643d681fb11898ee6b771ccf","665500ab8938657b03fbdba8","66579296c69c7faa76e73c80","1671","stimuli/2010100.jpg","2","","prediction_practice","2","{""filepath"":""stimuli/2010100.jpg"",""ball_pos"":2,""ego_ball_visible"":true,""ego_can_infer"":true,""alter_ball_visible"":true,""alter_can_infer"":true,""collective_ball_visible"":true,""collective_can_infer"":true,""search_locations"":[2],""alter_occluders"":""010"",""ego_occluders"":""100""}","true","","","","","","","","","","","","","","","","","","",""
"","","","","","image-keyboard-response","15","127904","0.0-3.0-12.0","643d681fb11898ee6b771ccf","665500ab8938657b03fbdba8","66579296c69c7faa76e73c80","699","stimuli/20101002.jpg"," ","","practrice_feedback","2","","","","","","","","","","","","","","","","","","","","",""
"","","","","","image-keyboard-response","16","129625","0.0-3.0-13.0","643d681fb11898ee6b771ccf","665500ab8938657b03fbdba8","66579296c69c7faa76e73c80","1719","stimuli/0111111.jpg","1","","prediction_practice","0","{""filepath"":""stimuli/0111111.jpg"",""ball_pos"":0,""ego_ball_visible"":false,""ego_can_infer"":false,""alter_ball_visible"":false,""alter_can_infer"":false,""collective_ball_visible"":false,""collective_can_infer"":false,""search_locations"":[0,2,1],""alter_occluders"":""111"",""ego_occluders"":""111""}","false","","","","","","","","","","","","","","","","","","",""
"","","","","","image-keyboard-response","17","130901","0.0-3.0-14.0","643d681fb11898ee6b771ccf","665500ab8938657b03fbdba8","66579296c69c7faa76e73c80","1274","stimuli/01111110.jpg"," ","","practrice_feedback","0","","","","","","","","","","","","","","","","","","","","",""
"","","","","","image-keyboard-response","18","136251","0.0-3.0-15.0","643d681fb11898ee6b771ccf","665500ab8938657b03fbdba8","66579296c69c7faa76e73c80","5348","stimuli/2101011.jpg","2","","prediction_practice","2","{""filepath"":""stimuli/2101011.jpg"",""ball_pos"":2,""ego_ball_visible"":false,""ego_can_infer"":false,""alter_ball_visible"":false,""alter_can_infer"":false,""collective_ball_visible"":false,""collective_can_infer"":false,""search_locations"":[2,0],""alter_occluders"":""101"",""ego_occluders"":""011""}","true","","","","","","","","","","","","","","","","","","",""
"","","","","","image-keyboard-response","19","137082","0.0-3.0-16.0","643d681fb11898ee6b771ccf","665500ab8938657b03fbdba8","66579296c69c7faa76e73c80","829","stimuli/21010112.jpg"," ","","practrice_feedback","2","","","","","","","","","","","","","","","","","","","","",""
"","","","","","image-keyboard-response","20","139484","0.0-3.0-17.0","643d681fb11898ee6b771ccf","665500ab8938657b03fbdba8","66579296c69c7faa76e73c80","2400","stimuli/1111110.jpg","1","","prediction_practice","1","{""filepath"":""stimuli/1111110.jpg"",""ball_pos"":1,""ego_ball_visible"":false,""ego_can_infer"":false,""alter_ball_visible"":false,""alter_can_infer"":false,""collective_ball_visible"":false,""collective_can_infer"":false,""search_locations"":[0,2,1],""alter_occluders"":""111"",""ego_occluders"":""110""}","true","","","","","","","","","","","","","","","","","","",""
"","","","","","image-keyboard-response","21","140357","0.0-3.0-18.0","643d681fb11898ee6b771ccf","665500ab8938657b03fbdba8","66579296c69c7faa76e73c80","874","stimuli/11111101.jpg"," ","","practrice_feedback","0","","","","","","","","","","","","","","","","","","","","",""
"","","","","","image-keyboard-response","22","143024","0.0-3.0-19.0","643d681fb11898ee6b771ccf","665500ab8938657b03fbdba8","66579296c69c7faa76e73c80","2665","stimuli/1001110.jpg","1","","prediction_practice","1","{""filepath"":""stimuli/1001110.jpg"",""ball_pos"":1,""ego_ball_visible"":false,""ego_can_infer"":false,""alter_ball_visible"":true,""alter_can_infer"":true,""collective_ball_visible"":false,""collective_can_infer"":false,""search_locations"":[1],""alter_occluders"":""001"",""ego_occluders"":""110""}","true","","","","","","","","","","","","","","","","","","",""
"","","","","","image-keyboard-response","23","143980","0.0-3.0-20.0","643d681fb11898ee6b771ccf","665500ab8938657b03fbdba8","66579296c69c7faa76e73c80","953","stimuli/10011101.jpg"," ","","practrice_feedback","1","","","","","","","","","","","","","","","","","","","","",""
"","","","","","html-button-response","24","150663","0.0-3.0-21.0","643d681fb11898ee6b771ccf","665500ab8938657b03fbdba8","66579296c69c7faa76e73c80","6682","Now that you've had some practice, you'll be tested with a couple of easy trials. If you correctly predict Sam's choice, you'll move on to complete the experiment!","0","","","","","","","","","","","","","","","","","","","","","","","",""
"","","","","","image-keyboard-response","25","152844","0.0-3.0-22.0-0.0","643d681fb11898ee6b771ccf","665500ab8938657b03fbdba8","66579296c69c7faa76e73c80","2180","stimuli/0000011.jpg","arrowleft","","comprehension_quiz","","","true","arrowleft","","","","","","","","","","","","","","","","","",""
"","","","","","image-keyboard-response","26","153717","0.0-3.0-22.0-1.0","643d681fb11898ee6b771ccf","665500ab8938657b03fbdba8","66579296c69c7faa76e73c80","870","stimuli/00000110.jpg"," ","","comprehension_quiz","","","true"," ","","","","","","","","","","","","","","","","","",""
"","","","","","image-keyboard-response","27","155932","0.0-3.0-22.0-2.0","643d681fb11898ee6b771ccf","665500ab8938657b03fbdba8","66579296c69c7faa76e73c80","2213","stimuli/1010010.jpg","arrowdown","","comprehension_quiz","","","true","arrowdown","","","","","","","","","","","","","","","","","",""
"","","","","","image-keyboard-response","28","156537","0.0-3.0-22.0-3.0","643d681fb11898ee6b771ccf","665500ab8938657b03fbdba8","66579296c69c7faa76e73c80","602","stimuli/10100101.jpg"," ","","comprehension_quiz","","","true"," ","","","","","","","","","","","","","","","","","",""
"","","","","","html-button-response","29","158097","0.0-4.0","643d681fb11898ee6b771ccf","665500ab8938657b03fbdba8","66579296c69c7faa76e73c80","1558","The experiment will now begin.","0","","","","","","","","","","","","","","","","","","","","","","","",""
"","","","","","image-keyboard-response","30","159465","0.0-5.0","643d681fb11898ee6b771ccf","665500ab8938657b03fbdba8","66579296c69c7faa76e73c80","1366","stimuli/2100100.jpg","2","","prediction_trial","2","","true","","2","true","true","true","true","true","true","[2]","100","100","1","","","","","","",""
"","","","","","image-keyboard-response","31","160258","0.0-6.0","643d681fb11898ee6b771ccf","665500ab8938657b03fbdba8","66579296c69c7faa76e73c80","789","stimuli/21001002.jpg"," ","","feedback_trial","2","","","","","","","","","","","","","","","","","","","","",""
"","","","","","image-keyboard-response","32","162025","0.0-7.0","643d681fb11898ee6b771ccf","665500ab8938657b03fbdba8","66579296c69c7faa76e73c80","1763","stimuli/1110000.jpg","1","","prediction_trial","1","","true","","1","true","true","false","false","false","false","[0,1]","110","000","1","","","","","","",""
"","","","","","image-keyboard-response","33","162911","0.0-8.0","643d681fb11898ee6b771ccf","665500ab8938657b03fbdba8","66579296c69c7faa76e73c80","884","stimuli/11100001.jpg"," ","","feedback_trial","0","","","","","","","","","","","","","","","","","","","","",""
"","","","","","image-keyboard-response","34","164040","0.0-9.0","643d681fb11898ee6b771ccf","665500ab8938657b03fbdba8","66579296c69c7faa76e73c80","1126","stimuli/1000100.jpg","1","","prediction_trial","1","","true","","1","true","true","true","true","true","true","[1]","000","100","1","","","","","","",""
"","","","","","image-keyboard-response","35","164769","0.0-10.0","643d681fb11898ee6b771ccf","665500ab8938657b03fbdba8","66579296c69c7faa76e73c80","728","stimuli/10001001.jpg"," ","","feedback_trial","1","","","","","","","","","","","","","","","","","","","","",""
"","","","","","image-keyboard-response","36","168328","0.0-11.0","643d681fb11898ee6b771ccf","665500ab8938657b03fbdba8","66579296c69c7faa76e73c80","3556","stimuli/2011100.jpg","1","","prediction_trial","2","","false","","2","true","true","false","false","false","false","[1,2]","011","100","0","","","","","","",""
"","","","","","image-keyboard-response","37","169387","0.0-12.0","643d681fb11898ee6b771ccf","665500ab8938657b03fbdba8","66579296c69c7faa76e73c80","1057","stimuli/20111002.jpg"," ","","feedback_trial","1","","","","","","","","","","","","","","","","","","","","",""
"","","","","","image-keyboard-response","38","171781","0.0-13.0","643d681fb11898ee6b771ccf","665500ab8938657b03fbdba8","66579296c69c7faa76e73c80","2392","stimuli/0111000.jpg","0","","prediction_trial","1","","false","","0","true","true","false","false","false","false","[0,1,2]","111","000","0","","","","","","",""
"","","","","","image-keyboard-response","39","172898","0.0-14.0","643d681fb11898ee6b771ccf","665500ab8938657b03fbdba8","66579296c69c7faa76e73c80","1115","stimuli/01110001.jpg"," ","","feedback_trial","0","","","","","","","","","","","","","","","","","","","","",""
"","","","","","image-keyboard-response","40","174506","0.0-15.0","643d681fb11898ee6b771ccf","665500ab8938657b03fbdba8","66579296c69c7faa76e73c80","1607","stimuli/2010010.jpg","2","","prediction_trial","2","","true","","2","true","true","true","true","true","true","[2]","010","010","1","","","","","","",""
"","","","","","image-keyboard-response","41","175102","0.0-16.0","643d681fb11898ee6b771ccf","665500ab8938657b03fbdba8","66579296c69c7faa76e73c80","594","stimuli/20100102.jpg"," ","","feedback_trial","2","","","","","","","","","","","","","","","","","","","","",""
"","","","","","image-keyboard-response","42","177702","0.0-17.0","643d681fb11898ee6b771ccf","665500ab8938657b03fbdba8","66579296c69c7faa76e73c80","2597","stimuli/2100001.jpg","2","","prediction_trial","2","","true","","2","false","true","true","true","false","true","[2]","100","001","1","","","","","","",""
"","","","","","image-keyboard-response","43","178410","0.0-18.0","643d681fb11898ee6b771ccf","665500ab8938657b03fbdba8","66579296c69c7faa76e73c80","707","stimuli/21000012.jpg"," ","","feedback_trial","2","","","","","","","","","","","","","","","","","","","","",""
"","","","","","image-keyboard-response","44","179389","0.0-19.0","643d681fb11898ee6b771ccf","665500ab8938657b03fbdba8","66579296c69c7faa76e73c80","976","stimuli/2110110.jpg","2","","prediction_trial","2","","true","","2","true","true","true","true","true","true","[2]","110","110","1","","","","","","",""
"","","","","","image-keyboard-response","45","179873","0.0-20.0","643d681fb11898ee6b771ccf","665500ab8938657b03fbdba8","66579296c69c7faa76e73c80","482","stimuli/21101102.jpg"," ","","feedback_trial","2","","","","","","","","","","","","","","","","","","","","",""
"","","","","","image-keyboard-response","46","183825","0.0-21.0","643d681fb11898ee6b771ccf","665500ab8938657b03fbdba8","66579296c69c7faa76e73c80","3949","stimuli/2011101.jpg","0","","prediction_trial","1","","false","","2","false","false","false","false","false","false","[2,1]","011","101","0","","","","","","",""
"","","","","","image-keyboard-response","47","185681","0.0-22.0","643d681fb11898ee6b771ccf","665500ab8938657b03fbdba8","66579296c69c7faa76e73c80","1854","stimuli/20111011.jpg"," ","","feedback_trial","2","","","","","","","","","","","","","","","","","","","","",""
"","","","","","image-keyboard-response","48","187689","0.0-23.0","643d681fb11898ee6b771ccf","665500ab8938657b03fbdba8","66579296c69c7faa76e73c80","2006","stimuli/2011011.jpg","1","","prediction_trial","1","","true","","2","false","false","false","false","false","false","[2,1]","011","011","1","","","","","","",""
"","","","","","image-keyboard-response","49","188468","0.0-24.0","643d681fb11898ee6b771ccf","665500ab8938657b03fbdba8","66579296c69c7faa76e73c80","778","stimuli/20110111.jpg"," ","","feedback_trial","2","","","","","","","","","","","","","","","","","","","","",""
"","","","","","image-keyboard-response","50","189373","0.0-25.0","643d681fb11898ee6b771ccf","665500ab8938657b03fbdba8","66579296c69c7faa76e73c80","903","stimuli/1101101.jpg","1","","prediction_trial","1","","true","","1","true","true","true","true","true","true","[1]","101","101","1","","","","","","",""
"","","","","","image-keyboard-response","51","190061","0.0-26.0","643d681fb11898ee6b771ccf","665500ab8938657b03fbdba8","66579296c69c7faa76e73c80","686","stimuli/11011011.jpg"," ","","feedback_trial","1","","","","","","","","","","","","","","","","","","","","",""
"","","","","","image-keyboard-response","52","193030","0.0-27.0","643d681fb11898ee6b771ccf","665500ab8938657b03fbdba8","66579296c69c7faa76e73c80","2966","stimuli/1110011.jpg","2","","prediction_trial","0","","false","","1","false","false","false","false","false","false","[0,1]","110","011","0","","","","","","",""
"","","","","","image-keyboard-response","53","194725","0.0-28.0","643d681fb11898ee6b771ccf","665500ab8938657b03fbdba8","66579296c69c7faa76e73c80","1694","stimuli/11100110.jpg"," ","","feedback_trial","0","","","","","","","","","","","","","","","","","","","","",""
"","","","","","image-keyboard-response","54","195955","0.0-29.0","643d681fb11898ee6b771ccf","665500ab8938657b03fbdba8","66579296c69c7faa76e73c80","1227","stimuli/0110110.jpg","1","","prediction_trial","0","","false","","0","false","false","false","false","false","false","[1,0]","110","110","0","","","","","","",""
"","","","","","image-keyboard-response","55","196815","0.0-30.0","643d681fb11898ee6b771ccf","665500ab8938657b03fbdba8","66579296c69c7faa76e73c80","858","stimuli/01101100.jpg"," ","","feedback_trial","1","","","","","","","","","","","","","","","","","","","","",""
"","","","","","image-keyboard-response","56","198421","0.0-31.0","643d681fb11898ee6b771ccf","665500ab8938657b03fbdba8","66579296c69c7faa76e73c80","1593","stimuli/2011000.jpg","1","","prediction_trial","1","","true","","2","true","true","false","false","false","false","[1,2]","011","000","1","","","","","","",""
"","","","","","image-keyboard-response","57","199440","0.0-32.0","643d681fb11898ee6b771ccf","665500ab8938657b03fbdba8","66579296c69c7faa76e73c80","1018","stimuli/20110001.jpg"," ","","feedback_trial","1","","","","","","","","","","","","","","","","","","","","",""
"","","","","","image-keyboard-response","58","200887","0.0-33.0","643d681fb11898ee6b771ccf","665500ab8938657b03fbdba8","66579296c69c7faa76e73c80","1443","stimuli/2111011.jpg","1","","prediction_trial","2","","false","","2","false","false","false","false","false","false","[0,2,1]","111","011","0","","","","","","",""
"","","","","","image-keyboard-response","59","201819","0.0-34.0","643d681fb11898ee6b771ccf","665500ab8938657b03fbdba8","66579296c69c7faa76e73c80","930","stimuli/21110112.jpg"," ","","feedback_trial","0","","","","","","","","","","","","","","","","","","","","",""
"","","","","","image-keyboard-response","60","203328","0.0-35.0","643d681fb11898ee6b771ccf","665500ab8938657b03fbdba8","66579296c69c7faa76e73c80","1507","stimuli/2000111.jpg","1","","prediction_trial","2","","false","","2","false","false","true","true","false","false","[2]","000","111","0","","","","","","",""
"","","","","","image-keyboard-response","61","204142","0.0-36.0","643d681fb11898ee6b771ccf","665500ab8938657b03fbdba8","66579296c69c7faa76e73c80","812","stimuli/20001112.jpg"," ","","feedback_trial","2","","","","","","","","","","","","","","","","","","","","",""
"","","","","","image-keyboard-response","62","205609","0.0-37.0","643d681fb11898ee6b771ccf","665500ab8938657b03fbdba8","66579296c69c7faa76e73c80","1465","stimuli/0110011.jpg","1","","prediction_trial","0","","false","","0","true","true","false","false","false","false","[1,0]","110","011","0","","","","","","",""
"","","","","","image-keyboard-response","63","206430","0.0-38.0","643d681fb11898ee6b771ccf","665500ab8938657b03fbdba8","66579296c69c7faa76e73c80","819","stimuli/01100110.jpg"," ","","feedback_trial","1","","","","","","","","","","","","","","","","","","","","",""
"","","","","","image-keyboard-response","64","209384","0.0-39.0","643d681fb11898ee6b771ccf","665500ab8938657b03fbdba8","66579296c69c7faa76e73c80","2952","stimuli/0101001.jpg","0","","prediction_trial","0","","true","","0","true","true","false","false","false","false","[2,0]","101","001","1","","","","","","",""
"","","","","","image-keyboard-response","65","210401","0.0-40.0","643d681fb11898ee6b771ccf","665500ab8938657b03fbdba8","66579296c69c7faa76e73c80","1014","stimuli/01010010.jpg"," ","","feedback_trial","2","","","","","","","","","","","","","","","","","","","","",""
"","","","","","image-keyboard-response","66","214497","0.0-41.0","643d681fb11898ee6b771ccf","665500ab8938657b03fbdba8","66579296c69c7faa76e73c80","4094","stimuli/1110010.jpg","1","","prediction_trial","1","","true","","1","false","true","false","false","false","false","[1,0]","110","010","1","","","","","","",""
"","","","","","image-keyboard-response","67","215386","0.0-42.0","643d681fb11898ee6b771ccf","665500ab8938657b03fbdba8","66579296c69c7faa76e73c80","887","stimuli/11100101.jpg"," ","","feedback_trial","1","","","","","","","","","","","","","","","","","","","","",""
"","","","","","image-keyboard-response","68","218475","0.0-43.0","643d681fb11898ee6b771ccf","665500ab8938657b03fbdba8","66579296c69c7faa76e73c80","3088","stimuli/1100010.jpg","1","","prediction_trial","1","","true","","1","false","true","true","true","false","true","[1]","100","010","1","","","","","","",""
"","","","","","image-keyboard-response","69","219678","0.0-44.0","643d681fb11898ee6b771ccf","665500ab8938657b03fbdba8","66579296c69c7faa76e73c80","1200","stimuli/11000101.jpg"," ","","feedback_trial","1","","","","","","","","","","","","","","","","","","","","",""
"","","","","","image-keyboard-response","70","221708","0.0-45.0","643d681fb11898ee6b771ccf","665500ab8938657b03fbdba8","66579296c69c7faa76e73c80","2028","stimuli/0100000.jpg","0","","prediction_trial","0","","true","","0","true","true","false","true","false","true","[0]","100","000","1","","","","","","",""
"","","","","","image-keyboard-response","71","222563","0.0-46.0","643d681fb11898ee6b771ccf","665500ab8938657b03fbdba8","66579296c69c7faa76e73c80","853","stimuli/01000000.jpg"," ","","feedback_trial","0","","","","","","","","","","","","","","","","","","","","",""
"","","","","","image-keyboard-response","72","225679","0.0-47.0","643d681fb11898ee6b771ccf","665500ab8938657b03fbdba8","66579296c69c7faa76e73c80","3114","stimuli/1100111.jpg","1","","prediction_trial","1","","true","","1","false","false","true","true","false","false","[1]","100","111","1","","","","","","",""
"","","","","","image-keyboard-response","73","226563","0.0-48.0","643d681fb11898ee6b771ccf","665500ab8938657b03fbdba8","66579296c69c7faa76e73c80","882","stimuli/11001111.jpg"," ","","feedback_trial","1","","","","","","","","","","","","","","","","","","","","",""
"","","","","","image-keyboard-response","74","227600","0.0-49.0","643d681fb11898ee6b771ccf","665500ab8938657b03fbdba8","66579296c69c7faa76e73c80","1017","stimuli/0011010.jpg","0","","prediction_trial","0","","true","","0","true","true","true","true","true","true","[0]","011","010","1","","","","","","",""
"","","","","","image-keyboard-response","75","228333","0.0-50.0","643d681fb11898ee6b771ccf","665500ab8938657b03fbdba8","66579296c69c7faa76e73c80","732","stimuli/00110100.jpg"," ","","feedback_trial","0","","","","","","","","","","","","","","","","","","","","",""
"","","","","","image-keyboard-response","76","230418","0.0-51.0","643d681fb11898ee6b771ccf","665500ab8938657b03fbdba8","66579296c69c7faa76e73c80","2082","stimuli/0110010.jpg","0","","prediction_trial","1","","false","","0","true","true","false","false","false","false","[0,1]","110","010","0","","","","","","",""
"","","","","","image-keyboard-response","77","231701","0.0-52.0","643d681fb11898ee6b771ccf","665500ab8938657b03fbdba8","66579296c69c7faa76e73c80","1282","stimuli/01100101.jpg"," ","","feedback_trial","0","","","","","","","","","","","","","","","","","","","","",""
"","","","","","image-keyboard-response","78","232843","0.0-53.0","643d681fb11898ee6b771ccf","665500ab8938657b03fbdba8","66579296c69c7faa76e73c80","1139","stimuli/2110000.jpg","2","","prediction_trial","2","","true","","2","true","true","true","true","true","true","[2]","110","000","1","","","","","","",""
"","","","","","image-keyboard-response","79","233530","0.0-54.0","643d681fb11898ee6b771ccf","665500ab8938657b03fbdba8","66579296c69c7faa76e73c80","685","stimuli/21100002.jpg"," ","","feedback_trial","2","","","","","","","","","","","","","","","","","","","","",""
"","","","","","image-keyboard-response","80","234740","0.0-55.0","643d681fb11898ee6b771ccf","665500ab8938657b03fbdba8","66579296c69c7faa76e73c80","1207","stimuli/2110001.jpg","2","","prediction_trial","2","","true","","2","false","true","true","true","false","true","[2]","110","001","1","","","","","","",""
"","","","","","image-keyboard-response","81","235378","0.0-56.0","643d681fb11898ee6b771ccf","665500ab8938657b03fbdba8","66579296c69c7faa76e73c80","636","stimuli/21100012.jpg"," ","","feedback_trial","2","","","","","","","","","","","","","","","","","","","","",""
"","","","","","image-keyboard-response","82","236538","0.0-57.0","643d681fb11898ee6b771ccf","665500ab8938657b03fbdba8","66579296c69c7faa76e73c80","1157","stimuli/1010001.jpg","1","","prediction_trial","1","","true","","1","true","true","false","true","false","true","[1]","010","001","1","","","","","","",""
"","","","","","image-keyboard-response","83","237633","0.0-58.0","643d681fb11898ee6b771ccf","665500ab8938657b03fbdba8","66579296c69c7faa76e73c80","1093","stimuli/10100011.jpg"," ","","feedback_trial","1","","","","","","","","","","","","","","","","","","","","",""
"","","","","","image-keyboard-response","84","240073","0.0-59.0","643d681fb11898ee6b771ccf","665500ab8938657b03fbdba8","66579296c69c7faa76e73c80","2437","stimuli/1010110.jpg","1","","prediction_trial","1","","true","","1","false","false","false","true","false","false","[1]","010","110","1","","","","","","",""
"","","","","","image-keyboard-response","85","240968","0.0-60.0","643d681fb11898ee6b771ccf","665500ab8938657b03fbdba8","66579296c69c7faa76e73c80","893","stimuli/10101101.jpg"," ","","feedback_trial","1","","","","","","","","","","","","","","","","","","","","",""
"","","","","","image-keyboard-response","86","242946","0.0-61.0","643d681fb11898ee6b771ccf","665500ab8938657b03fbdba8","66579296c69c7faa76e73c80","1976","stimuli/0010101.jpg","2","","prediction_trial","0","","false","","0","false","false","true","true","false","false","[0]","010","101","0","","","","","","",""
"","","","","","image-keyboard-response","87","243771","0.0-62.0","643d681fb11898ee6b771ccf","665500ab8938657b03fbdba8","66579296c69c7faa76e73c80","824","stimuli/00101010.jpg"," ","","feedback_trial","0","","","","","","","","","","","","","","","","","","","","",""
"","","","","","image-keyboard-response","88","246337","0.0-63.0","643d681fb11898ee6b771ccf","665500ab8938657b03fbdba8","66579296c69c7faa76e73c80","2563","stimuli/0111011.jpg","1","","prediction_trial","2","","false","","0","true","true","false","false","false","false","[0,1,2]","111","011","0","","","","","","",""
"","","","","","image-keyboard-response","89","247239","0.0-64.0","643d681fb11898ee6b771ccf","665500ab8938657b03fbdba8","66579296c69c7faa76e73c80","900","stimuli/01110112.jpg"," ","","feedback_trial","0","","","","","","","","","","","","","","","","","","","","",""
"","","","","","image-keyboard-response","90","248169","0.0-65.0","643d681fb11898ee6b771ccf","665500ab8938657b03fbdba8","66579296c69c7faa76e73c80","927","stimuli/2110010.jpg","2","","prediction_trial","2","","true","","2","true","true","true","true","true","true","[2]","110","010","1","","","","","","",""
"","","","","","image-keyboard-response","91","248738","0.0-66.0","643d681fb11898ee6b771ccf","665500ab8938657b03fbdba8","66579296c69c7faa76e73c80","568","stimuli/21100102.jpg"," ","","feedback_trial","2","","","","","","","","","","","","","","","","","","","","",""
"","","","","","image-keyboard-response","92","250925","0.0-67.0","643d681fb11898ee6b771ccf","665500ab8938657b03fbdba8","66579296c69c7faa76e73c80","2184","stimuli/2111110.jpg","2","","prediction_trial","0","","false","","2","true","true","false","false","false","false","[2,1,0]","111","110","0","","","","","","",""
"","","","","","image-keyboard-response","93","251633","0.0-68.0","643d681fb11898ee6b771ccf","665500ab8938657b03fbdba8","66579296c69c7faa76e73c80","706","stimuli/21111100.jpg"," ","","feedback_trial","2","","","","","","","","","","","","","","","","","","","","",""
"","","","","","image-keyboard-response","94","253774","0.0-69.0","643d681fb11898ee6b771ccf","665500ab8938657b03fbdba8","66579296c69c7faa76e73c80","2140","stimuli/1011111.jpg","1","","prediction_trial","1","","true","","1","false","false","false","false","false","false","[1,2]","011","111","1","","","","","","",""
"","","","","","image-keyboard-response","95","254598","0.0-70.0","643d681fb11898ee6b771ccf","665500ab8938657b03fbdba8","66579296c69c7faa76e73c80","822","stimuli/10111111.jpg"," ","","feedback_trial","1","","","","","","","","","","","","","","","","","","","","",""
"","","","","","image-keyboard-response","96","255869","0.0-71.0","643d681fb11898ee6b771ccf","665500ab8938657b03fbdba8","66579296c69c7faa76e73c80","1268","stimuli/0001000.jpg","0","","prediction_trial","0","","true","","0","true","true","true","true","true","true","[0]","001","000","1","","","","","","",""
"","","","","","image-keyboard-response","97","256378","0.0-72.0","643d681fb11898ee6b771ccf","665500ab8938657b03fbdba8","66579296c69c7faa76e73c80","507","stimuli/00010000.jpg"," ","","feedback_trial","0","","","","","","","","","","","","","","","","","","","","",""
"","","","","","image-keyboard-response","98","257240","0.0-73.0","643d681fb11898ee6b771ccf","665500ab8938657b03fbdba8","66579296c69c7faa76e73c80","860","stimuli/1010100.jpg","1","","prediction_trial","1","","true","","1","true","true","false","true","false","true","[1]","010","100","1","","","","","","",""
"","","","","","image-keyboard-response","99","257841","0.0-74.0","643d681fb11898ee6b771ccf","665500ab8938657b03fbdba8","66579296c69c7faa76e73c80","600","stimuli/10101001.jpg"," ","","feedback_trial","1","","","","","","","","","","","","","","","","","","","","",""
"","","","","","image-keyboard-response","100","259839","0.0-75.0","643d681fb11898ee6b771ccf","665500ab8938657b03fbdba8","66579296c69c7faa76e73c80","1995","stimuli/0001110.jpg","0","","prediction_trial","0","","true","","0","false","false","true","true","false","false","[0]","001","110","1","","","","","","",""
"","","","","","image-keyboard-response","101","261755","0.0-76.0","643d681fb11898ee6b771ccf","665500ab8938657b03fbdba8","66579296c69c7faa76e73c80","1911","stimuli/00011100.jpg"," ","","feedback_trial","0","","","","","","","","","","","","","","","","","","","","",""
"","","","","","image-keyboard-response","102","263857","0.0-77.0","643d681fb11898ee6b771ccf","665500ab8938657b03fbdba8","66579296c69c7faa76e73c80","2100","stimuli/1000010.jpg","1","","prediction_trial","1","","true","","1","false","true","true","true","false","true","[1]","000","010","1","","","","","","",""
"","","","","","image-keyboard-response","103","265349","0.0-78.0","643d681fb11898ee6b771ccf","665500ab8938657b03fbdba8","66579296c69c7faa76e73c80","1490","stimuli/10000101.jpg"," ","","feedback_trial","1","","","","","","","","","","","","","","","","","","","","",""
"","","","","","image-keyboard-response","104","268006","0.0-79.0","643d681fb11898ee6b771ccf","665500ab8938657b03fbdba8","66579296c69c7faa76e73c80","2654","stimuli/0010010.jpg","0","","prediction_trial","0","","true","","0","true","true","true","true","true","true","[0]","010","010","1","","","","","","",""
"","","","","","image-keyboard-response","105","269104","0.0-80.0","643d681fb11898ee6b771ccf","665500ab8938657b03fbdba8","66579296c69c7faa76e73c80","1096","stimuli/00100100.jpg"," ","","feedback_trial","0","","","","","","","","","","","","","","","","","","","","",""
"","","","","","image-keyboard-response","106","270480","0.0-81.0","643d681fb11898ee6b771ccf","665500ab8938657b03fbdba8","66579296c69c7faa76e73c80","1374","stimuli/1101010.jpg","1","","prediction_trial","1","","true","","1","false","true","true","true","false","true","[1]","101","010","1","","","","","","",""
"","","","","","image-keyboard-response","107","271015","0.0-82.0","643d681fb11898ee6b771ccf","665500ab8938657b03fbdba8","66579296c69c7faa76e73c80","533","stimuli/11010101.jpg"," ","","feedback_trial","1","","","","","","","","","","","","","","","","","","","","",""
"","","","","","image-keyboard-response","108","272360","0.0-83.0","643d681fb11898ee6b771ccf","665500ab8938657b03fbdba8","66579296c69c7faa76e73c80","1342","stimuli/2010001.jpg","2","","prediction_trial","2","","true","","2","false","true","true","true","false","true","[2]","010","001","1","","","","","","",""
"","","","","","image-keyboard-response","109","273193","0.0-84.0","643d681fb11898ee6b771ccf","665500ab8938657b03fbdba8","66579296c69c7faa76e73c80","831","stimuli/20100012.jpg"," ","","feedback_trial","2","","","","","","","","","","","","","","","","","","","","",""
"","","","","","image-keyboard-response","110","275500","0.0-85.0","643d681fb11898ee6b771ccf","665500ab8938657b03fbdba8","66579296c69c7faa76e73c80","2293","stimuli/0101111.jpg","1","","prediction_trial","2","","false","","0","false","false","false","false","false","false","[2,0]","101","111","0","","","","","","",""
"","","","","","image-keyboard-response","111","276305","0.0-86.0","643d681fb11898ee6b771ccf","665500ab8938657b03fbdba8","66579296c69c7faa76e73c80","803","stimuli/01011112.jpg"," ","","feedback_trial","2","","","","","","","","","","","","","","","","","","","","",""
"","","","","","image-keyboard-response","112","280309","0.0-87.0","643d681fb11898ee6b771ccf","665500ab8938657b03fbdba8","66579296c69c7faa76e73c80","4001","stimuli/1011100.jpg","1","","prediction_trial","2","","false","","1","true","true","false","false","false","false","[2,1]","011","100","0","","","","","","",""
"","","","","","image-keyboard-response","113","281079","0.0-88.0","643d681fb11898ee6b771ccf","665500ab8938657b03fbdba8","66579296c69c7faa76e73c80","769","stimuli/10111002.jpg"," ","","feedback_trial","2","","","","","","","","","","","","","","","","","","","","",""
"","","","","","image-keyboard-response","114","281847","0.0-89.0","643d681fb11898ee6b771ccf","665500ab8938657b03fbdba8","66579296c69c7faa76e73c80","766","stimuli/1101011.jpg","1","","prediction_trial","1","","true","","1","false","false","true","true","false","false","[1]","101","011","1","","","","","","",""
"","","","","","image-keyboard-response","115","282929","0.0-90.0","643d681fb11898ee6b771ccf","665500ab8938657b03fbdba8","66579296c69c7faa76e73c80","1080","stimuli/11010111.jpg"," ","","feedback_trial","1","","","","","","","","","","","","","","","","","","","","",""
"","","","","","image-keyboard-response","116","284718","0.0-91.0","643d681fb11898ee6b771ccf","665500ab8938657b03fbdba8","66579296c69c7faa76e73c80","1787","stimuli/0100011.jpg","0","","prediction_trial","0","","true","","0","true","true","false","true","false","true","[0]","100","011","1","","","","","","",""
"","","","","","image-keyboard-response","117","286131","0.0-92.0","643d681fb11898ee6b771ccf","665500ab8938657b03fbdba8","66579296c69c7faa76e73c80","1411","stimuli/01000110.jpg"," ","","feedback_trial","0","","","","","","","","","","","","","","","","","","","","",""
"","","","","","image-keyboard-response","118","287460","0.0-93.0","643d681fb11898ee6b771ccf","665500ab8938657b03fbdba8","66579296c69c7faa76e73c80","1327","stimuli/1111011.jpg","1","","prediction_trial","0","","false","","1","false","false","false","false","false","false","[1,2,0]","111","011","0","","","","","","",""
"","","","","","image-keyboard-response","119","289619","0.0-94.0","643d681fb11898ee6b771ccf","665500ab8938657b03fbdba8","66579296c69c7faa76e73c80","2157","stimuli/11110110.jpg"," ","","feedback_trial","1","","","","","","","","","","","","","","","","","","","","",""
"","","","","","image-keyboard-response","120","292041","0.0-95.0","643d681fb11898ee6b771ccf","665500ab8938657b03fbdba8","66579296c69c7faa76e73c80","2418","stimuli/2010011.jpg","2","","prediction_trial","2","","true","","2","false","false","true","true","false","false","[2]","010","011","1","","","","","","",""
"","","","","","image-keyboard-response","121","292915","0.0-96.0","643d681fb11898ee6b771ccf","665500ab8938657b03fbdba8","66579296c69c7faa76e73c80","873","stimuli/20100112.jpg"," ","","feedback_trial","2","","","","","","","","","","","","","","","","","","","","",""
"","","","","","image-keyboard-response","122","295319","0.0-97.0","643d681fb11898ee6b771ccf","665500ab8938657b03fbdba8","66579296c69c7faa76e73c80","2402","stimuli/2110101.jpg","2","","prediction_trial","2","","true","","2","false","false","true","true","false","false","[2]","110","101","1","","","","","","",""
"","","","","","image-keyboard-response","123","296128","0.0-98.0","643d681fb11898ee6b771ccf","665500ab8938657b03fbdba8","66579296c69c7faa76e73c80","808","stimuli/21101012.jpg"," ","","feedback_trial","2","","","","","","","","","","","","","","","","","","","","",""
"","","","","","image-keyboard-response","124","297573","0.0-99.0","643d681fb11898ee6b771ccf","665500ab8938657b03fbdba8","66579296c69c7faa76e73c80","1442","stimuli/2000101.jpg","2","","prediction_trial","2","","true","","2","false","false","true","true","false","false","[2]","000","101","1","","","","","","",""
"","","","","","image-keyboard-response","125","298371","0.0-100.0","643d681fb11898ee6b771ccf","665500ab8938657b03fbdba8","66579296c69c7faa76e73c80","796","stimuli/20001012.jpg"," ","","feedback_trial","2","","","","","","","","","","","","","","","","","","","","",""
"","","","","","image-keyboard-response","126","299736","0.0-101.0","643d681fb11898ee6b771ccf","665500ab8938657b03fbdba8","66579296c69c7faa76e73c80","1363","stimuli/0110100.jpg","0","","prediction_trial","0","","true","","0","false","true","false","false","false","false","[0,1]","110","100","1","","","","","","",""
"","","","","","image-keyboard-response","127","300673","0.0-102.0","643d681fb11898ee6b771ccf","665500ab8938657b03fbdba8","66579296c69c7faa76e73c80","934","stimuli/01101000.jpg"," ","","feedback_trial","0","","","","","","","","","","","","","","","","","","","","",""
"","","","","","image-keyboard-response","128","302250","0.0-103.0","643d681fb11898ee6b771ccf","665500ab8938657b03fbdba8","66579296c69c7faa76e73c80","1560","stimuli/1010011.jpg","2","","prediction_trial","1","","false","","1","false","false","false","true","false","false","[1]","010","011","0","","","","","","",""
"","","","","","image-keyboard-response","129","303186","0.0-104.0","643d681fb11898ee6b771ccf","665500ab8938657b03fbdba8","66579296c69c7faa76e73c80","934","stimuli/10100111.jpg"," ","","feedback_trial","1","","","","","","","","","","","","","","","","","","","","",""
"","","","","","image-keyboard-response","130","304262","0.0-105.0","643d681fb11898ee6b771ccf","665500ab8938657b03fbdba8","66579296c69c7faa76e73c80","1074","stimuli/1111100.jpg","1","","prediction_trial","2","","false","","1","true","true","false","false","false","false","[2,0,1]","111","100","0","","","","","","",""
"","","","","","image-keyboard-response","131","306132","0.0-106.0","643d681fb11898ee6b771ccf","665500ab8938657b03fbdba8","66579296c69c7faa76e73c80","1868","stimuli/11111002.jpg"," ","","feedback_trial","2","","","","","","","","","","","","","","","","","","","","",""
"","","","","","image-keyboard-response","132","308300","0.0-107.0","643d681fb11898ee6b771ccf","665500ab8938657b03fbdba8","66579296c69c7faa76e73c80","2166","stimuli/2101000.jpg","2","","prediction_trial","2","","true","","2","true","true","false","false","false","false","[0,2]","101","000","1","","","","","","",""
"","","","","","image-keyboard-response","133","309214","0.0-108.0","643d681fb11898ee6b771ccf","665500ab8938657b03fbdba8","66579296c69c7faa76e73c80","912","stimuli/21010002.jpg"," ","","feedback_trial","0","","","","","","","","","","","","","","","","","","","","",""
"","","","","","image-keyboard-response","134","311956","0.0-109.0","643d681fb11898ee6b771ccf","665500ab8938657b03fbdba8","66579296c69c7faa76e73c80","2739","stimuli/0111001.jpg","0","","prediction_trial","0","","true","","0","true","true","false","false","false","false","[1,2,0]","111","001","1","","","","","","",""
"","","","","","image-keyboard-response","135","313030","0.0-110.0","643d681fb11898ee6b771ccf","665500ab8938657b03fbdba8","66579296c69c7faa76e73c80","1072","stimuli/01110010.jpg"," ","","feedback_trial","1","","","","","","","","","","","","","","","","","","","","",""
"","","","","","image-keyboard-response","136","314272","0.0-111.0","643d681fb11898ee6b771ccf","665500ab8938657b03fbdba8","66579296c69c7faa76e73c80","1241","stimuli/2101001.jpg","2","","prediction_trial","2","","true","","2","false","true","false","false","false","false","[0,2]","101","001","1","","","","","","",""
"","","","","","image-keyboard-response","137","315164","0.0-112.0","643d681fb11898ee6b771ccf","665500ab8938657b03fbdba8","66579296c69c7faa76e73c80","890","stimuli/21010012.jpg"," ","","feedback_trial","0","","","","","","","","","","","","","","","","","","","","",""
"","","","","","image-keyboard-response","138","316338","0.0-113.0","643d681fb11898ee6b771ccf","665500ab8938657b03fbdba8","66579296c69c7faa76e73c80","1172","stimuli/1110101.jpg","1","","prediction_trial","0","","false","","1","true","true","false","false","false","false","[0,1]","110","101","0","","","","","","",""
"","","","","","image-keyboard-response","139","317360","0.0-114.0","643d681fb11898ee6b771ccf","665500ab8938657b03fbdba8","66579296c69c7faa76e73c80","1020","stimuli/11101010.jpg"," ","","feedback_trial","0","","","","","","","","","","","","","","","","","","","","",""
"","","","","","image-keyboard-response","140","318355","0.0-115.0","643d681fb11898ee6b771ccf","665500ab8938657b03fbdba8","66579296c69c7faa76e73c80","994","stimuli/1001100.jpg","1","","prediction_trial","1","","true","","1","true","true","true","true","true","true","[1]","001","100","1","","","","","","",""
"","","","","","image-keyboard-response","141","319116","0.0-116.0","643d681fb11898ee6b771ccf","665500ab8938657b03fbdba8","66579296c69c7faa76e73c80","759","stimuli/10011001.jpg"," ","","feedback_trial","1","","","","","","","","","","","","","","","","","","","","",""
"","","","","","image-keyboard-response","142","320368","0.0-117.0","643d681fb11898ee6b771ccf","665500ab8938657b03fbdba8","66579296c69c7faa76e73c80","1249","stimuli/1011010.jpg","1","","prediction_trial","1","","true","","1","false","true","false","false","false","false","[1,2]","011","010","1","","","","","","",""
"","","","","","image-keyboard-response","143","321166","0.0-118.0","643d681fb11898ee6b771ccf","665500ab8938657b03fbdba8","66579296c69c7faa76e73c80","797","stimuli/10110101.jpg"," ","","feedback_trial","1","","","","","","","","","","","","","","","","","","","","",""
"","","","","","image-keyboard-response","144","323029","0.0-119.0","643d681fb11898ee6b771ccf","665500ab8938657b03fbdba8","66579296c69c7faa76e73c80","1864","stimuli/1110001.jpg","1","","prediction_trial","0","","false","","1","true","true","false","false","false","false","[0,1]","110","001","0","","","","","","",""
"","","","","","image-keyboard-response","145","324179","0.0-120.0","643d681fb11898ee6b771ccf","665500ab8938657b03fbdba8","66579296c69c7faa76e73c80","1149","stimuli/11100010.jpg"," ","","feedback_trial","0","","","","","","","","","","","","","","","","","","","","",""
"","","","","","image-keyboard-response","146","325158","0.0-121.0","643d681fb11898ee6b771ccf","665500ab8938657b03fbdba8","66579296c69c7faa76e73c80","963","stimuli/1111110.jpg","1","","prediction_trial","1","","true","","1","false","false","false","false","false","false","[0,2,1]","111","110","1","","","","","","",""
"","","","","","image-keyboard-response","147","326432","0.0-122.0","643d681fb11898ee6b771ccf","665500ab8938657b03fbdba8","66579296c69c7faa76e73c80","1272","stimuli/11111101.jpg"," ","","feedback_trial","0","","","","","","","","","","","","","","","","","","","","",""
"","","","","","image-keyboard-response","148","327596","0.0-123.0","643d681fb11898ee6b771ccf","665500ab8938657b03fbdba8","66579296c69c7faa76e73c80","1162","stimuli/0010001.jpg","0","","prediction_trial","0","","true","","0","true","true","true","true","true","true","[0]","010","001","1","","","","","","",""
"","","","","","image-keyboard-response","149","328558","0.0-124.0","643d681fb11898ee6b771ccf","665500ab8938657b03fbdba8","66579296c69c7faa76e73c80","960","stimuli/00100010.jpg"," ","","feedback_trial","0","","","","","","","","","","","","","","","","","","","","",""
"","","","","","image-keyboard-response","150","329959","0.0-125.0","643d681fb11898ee6b771ccf","665500ab8938657b03fbdba8","66579296c69c7faa76e73c80","1398","stimuli/2110111.jpg","1","","prediction_trial","2","","false","","2","false","false","true","true","false","false","[2]","110","111","0","","","","","","",""
"","","","","","image-keyboard-response","151","330904","0.0-126.0","643d681fb11898ee6b771ccf","665500ab8938657b03fbdba8","66579296c69c7faa76e73c80","943","stimuli/21101112.jpg"," ","","feedback_trial","2","","","","","","","","","","","","","","","","","","","","",""
"","","","","","image-keyboard-response","152","332448","0.0-127.0","643d681fb11898ee6b771ccf","665500ab8938657b03fbdba8","66579296c69c7faa76e73c80","1542","stimuli/0101011.jpg","0","","prediction_trial","0","","true","","0","true","true","false","false","false","false","[2,0]","101","011","1","","","","","","",""
"","","","","","image-keyboard-response","153","333132","0.0-128.0","643d681fb11898ee6b771ccf","665500ab8938657b03fbdba8","66579296c69c7faa76e73c80","682","stimuli/01010110.jpg"," ","","feedback_trial","2","","","","","","","","","","","","","","","","","","","","",""
"","","","","","image-keyboard-response","154","335611","0.0-129.0","643d681fb11898ee6b771ccf","665500ab8938657b03fbdba8","66579296c69c7faa76e73c80","2477","stimuli/0110111.jpg","2","","prediction_trial","0","","false","","0","false","false","false","false","false","false","[1,0]","110","111","0","","","","","","",""
"","","","","","image-keyboard-response","155","336851","0.0-130.0","643d681fb11898ee6b771ccf","665500ab8938657b03fbdba8","66579296c69c7faa76e73c80","1238","stimuli/01101110.jpg"," ","","feedback_trial","1","","","","","","","","","","","","","","","","","","","","",""
"","","","","","image-keyboard-response","156","338763","0.0-131.0","643d681fb11898ee6b771ccf","665500ab8938657b03fbdba8","66579296c69c7faa76e73c80","1909","stimuli/0010111.jpg","1","","prediction_trial","0","","false","","0","false","false","true","true","false","false","[0]","010","111","0","","","","","","",""
"","","","","","image-keyboard-response","157","339858","0.0-132.0","643d681fb11898ee6b771ccf","665500ab8938657b03fbdba8","66579296c69c7faa76e73c80","1093","stimuli/00101110.jpg"," ","","feedback_trial","0","","","","","","","","","","","","","","","","","","","","",""
"","","","","","image-keyboard-response","158","341848","0.0-133.0","643d681fb11898ee6b771ccf","665500ab8938657b03fbdba8","66579296c69c7faa76e73c80","1988","stimuli/0100010.jpg","0","","prediction_trial","0","","true","","0","true","true","false","true","false","true","[0]","100","010","1","","","","","","",""
"","","","","","image-keyboard-response","159","342778","0.0-134.0","643d681fb11898ee6b771ccf","665500ab8938657b03fbdba8","66579296c69c7faa76e73c80","928","stimuli/01000100.jpg"," ","","feedback_trial","0","","","","","","","","","","","","","","","","","","","","",""
"","","","","","image-keyboard-response","160","343790","0.0-135.0","643d681fb11898ee6b771ccf","665500ab8938657b03fbdba8","66579296c69c7faa76e73c80","1009","stimuli/0000011.jpg","0","","prediction_trial","0","","true","","0","true","true","true","true","true","true","[0]","000","011","1","","","","","","",""
"","","","","","image-keyboard-response","161","344436","0.0-136.0","643d681fb11898ee6b771ccf","665500ab8938657b03fbdba8","66579296c69c7faa76e73c80","644","stimuli/00000110.jpg"," ","","feedback_trial","0","","","","","","","","","","","","","","","","","","","","",""
"","","","","","image-keyboard-response","162","346462","0.0-137.0","643d681fb11898ee6b771ccf","665500ab8938657b03fbdba8","66579296c69c7faa76e73c80","2023","stimuli/2101111.jpg","1","","prediction_trial","2","","false","","2","false","false","false","false","false","false","[2,0]","101","111","0","","","","","","",""
"","","","","","image-keyboard-response","163","347962","0.0-138.0","643d681fb11898ee6b771ccf","665500ab8938657b03fbdba8","66579296c69c7faa76e73c80","1499","stimuli/21011112.jpg"," ","","feedback_trial","2","","","","","","","","","","","","","","","","","","","","",""
"","","","","","image-keyboard-response","164","351185","0.0-139.0","643d681fb11898ee6b771ccf","665500ab8938657b03fbdba8","66579296c69c7faa76e73c80","3204","stimuli/0101010.jpg","0","","prediction_trial","0","","true","","0","true","true","false","false","false","false","[0,2]","101","010","1","","","","","","",""
"","","","","","image-keyboard-response","165","352007","0.0-140.0","643d681fb11898ee6b771ccf","665500ab8938657b03fbdba8","66579296c69c7faa76e73c80","820","stimuli/01010100.jpg"," ","","feedback_trial","0","","","","","","","","","","","","","","","","","","","","",""
"","","","","","image-keyboard-response","166","353573","0.0-141.0","643d681fb11898ee6b771ccf","665500ab8938657b03fbdba8","66579296c69c7faa76e73c80","1563","stimuli/0111110.jpg","0","","prediction_trial","0","","true","","0","false","false","false","false","false","false","[2,1,0]","111","110","1","","","","","","",""
"","","","","","image-keyboard-response","167","354387","0.0-142.0","643d681fb11898ee6b771ccf","665500ab8938657b03fbdba8","66579296c69c7faa76e73c80","813","stimuli/01111100.jpg"," ","","feedback_trial","2","","","","","","","","","","","","","","","","","","","","",""
"","","","","","image-keyboard-response","168","357539","0.0-143.0","643d681fb11898ee6b771ccf","665500ab8938657b03fbdba8","66579296c69c7faa76e73c80","3150","stimuli/2000011.jpg","1","","prediction_trial","2","","false","","2","false","false","true","true","false","false","[2]","000","011","0","","","","","","",""
"","","","","","image-keyboard-response","169","358832","0.0-144.0","643d681fb11898ee6b771ccf","665500ab8938657b03fbdba8","66579296c69c7faa76e73c80","1293","stimuli/20000112.jpg"," ","","feedback_trial","2","","","","","","","","","","","","","","","","","","","","",""
"","","","","","image-keyboard-response","170","360607","0.0-145.0","643d681fb11898ee6b771ccf","665500ab8938657b03fbdba8","66579296c69c7faa76e73c80","1772","stimuli/2010101.jpg","2","","prediction_trial","2","","true","","2","false","false","true","true","false","false","[2]","010","101","1","","","","","","",""
"","","","","","image-keyboard-response","171","361365","0.0-146.0","643d681fb11898ee6b771ccf","665500ab8938657b03fbdba8","66579296c69c7faa76e73c80","756","stimuli/20101012.jpg"," ","","feedback_trial","2","","","","","","","","","","","","","","","","","","","","",""
"","","","","","image-keyboard-response","172","363407","0.0-147.0","643d681fb11898ee6b771ccf","665500ab8938657b03fbdba8","66579296c69c7faa76e73c80","2039","stimuli/0110000.jpg","1","","prediction_trial","0","","false","","0","true","true","false","false","false","false","[0,1]","110","000","0","","","","","","",""
"","","","","","image-keyboard-response","173","364352","0.0-148.0","643d681fb11898ee6b771ccf","665500ab8938657b03fbdba8","66579296c69c7faa76e73c80","943","stimuli/01100000.jpg"," ","","feedback_trial","0","","","","","","","","","","","","","","","","","","","","",""
"","","","","","image-keyboard-response","174","365262","0.0-149.0","643d681fb11898ee6b771ccf","665500ab8938657b03fbdba8","66579296c69c7faa76e73c80","907","stimuli/1110100.jpg","1","","prediction_trial","1","","true","","1","true","true","false","false","false","false","[0,1]","110","100","1","","","","","","",""
"","","","","","image-keyboard-response","175","366346","0.0-150.0","643d681fb11898ee6b771ccf","665500ab8938657b03fbdba8","66579296c69c7faa76e73c80","1083","stimuli/11101001.jpg"," ","","feedback_trial","0","","","","","","","","","","","","","","","","","","","","",""
"","","","","","image-keyboard-response","176","368106","0.0-151.0","643d681fb11898ee6b771ccf","665500ab8938657b03fbdba8","66579296c69c7faa76e73c80","1758","stimuli/1001011.jpg","1","","prediction_trial","1","","true","","1","false","false","true","true","false","false","[1]","001","011","1","","","","","","",""
"","","","","","image-keyboard-response","177","368827","0.0-152.0","643d681fb11898ee6b771ccf","665500ab8938657b03fbdba8","66579296c69c7faa76e73c80","719","stimuli/10010111.jpg"," ","","feedback_trial","1","","","","","","","","","","","","","","","","","","","","",""
"","","","","","image-keyboard-response","178","369730","0.0-153.0","643d681fb11898ee6b771ccf","665500ab8938657b03fbdba8","66579296c69c7faa76e73c80","901","stimuli/2000100.jpg","2","","prediction_trial","2","","true","","2","true","true","true","true","true","true","[2]","000","100","1","","","","","","",""
"","","","","","image-keyboard-response","179","370432","0.0-154.0","643d681fb11898ee6b771ccf","665500ab8938657b03fbdba8","66579296c69c7faa76e73c80","701","stimuli/20001002.jpg"," ","","feedback_trial","2","","","","","","","","","","","","","","","","","","","","",""
"","","","","","image-keyboard-response","180","372259","0.0-155.0","643d681fb11898ee6b771ccf","665500ab8938657b03fbdba8","66579296c69c7faa76e73c80","1825","stimuli/2101110.jpg","2","","prediction_trial","2","","true","","2","true","true","false","false","false","false","[0,2]","101","110","1","","","","","","",""
"","","","","","image-keyboard-response","181","373146","0.0-156.0","643d681fb11898ee6b771ccf","665500ab8938657b03fbdba8","66579296c69c7faa76e73c80","886","stimuli/21011102.jpg"," ","","feedback_trial","0","","","","","","","","","","","","","","","","","","","","",""
"","","","","","image-keyboard-response","182","374171","0.0-157.0","643d681fb11898ee6b771ccf","665500ab8938657b03fbdba8","66579296c69c7faa76e73c80","1009","stimuli/1001110.jpg","1","","prediction_trial","1","","true","","1","false","false","true","true","false","false","[1]","001","110","1","","","","","","",""
"","","","","","image-keyboard-response","183","374865","0.0-158.0","643d681fb11898ee6b771ccf","665500ab8938657b03fbdba8","66579296c69c7faa76e73c80","691","stimuli/10011101.jpg"," ","","feedback_trial","1","","","","","","","","","","","","","","","","","","","","",""
"","","","","","image-keyboard-response","184","375638","0.0-159.0","643d681fb11898ee6b771ccf","665500ab8938657b03fbdba8","66579296c69c7faa76e73c80","772","stimuli/1101000.jpg","1","","prediction_trial","1","","true","","1","true","true","true","true","true","true","[1]","101","000","1","","","","","","",""
"","","","","","image-keyboard-response","185","376297","0.0-160.0","643d681fb11898ee6b771ccf","665500ab8938657b03fbdba8","66579296c69c7faa76e73c80","657","stimuli/11010001.jpg"," ","","feedback_trial","1","","","","","","","","","","","","","","","","","","","","",""
"","","","","","image-keyboard-response","186","377125","0.0-161.0","643d681fb11898ee6b771ccf","665500ab8938657b03fbdba8","66579296c69c7faa76e73c80","826","stimuli/2000010.jpg","2","","prediction_trial","2","","true","","2","true","true","true","true","true","true","[2]","000","010","1","","","","","","",""
"","","","","","image-keyboard-response","187","377675","0.0-162.0","643d681fb11898ee6b771ccf","665500ab8938657b03fbdba8","66579296c69c7faa76e73c80","548","stimuli/20000102.jpg"," ","","feedback_trial","2","","","","","","","","","","","","","","","","","","","","",""
"","","","","","image-keyboard-response","188","378708","0.0-163.0","643d681fb11898ee6b771ccf","665500ab8938657b03fbdba8","66579296c69c7faa76e73c80","1031","stimuli/2000000.jpg","2","","prediction_trial","2","","true","","2","true","true","true","true","true","true","[2]","000","000","1","","","","","","",""
"","","","","","image-keyboard-response","189","379668","0.0-164.0","643d681fb11898ee6b771ccf","665500ab8938657b03fbdba8","66579296c69c7faa76e73c80","958","stimuli/20000002.jpg"," ","","feedback_trial","2","","","","","","","","","","","","","","","","","","","","",""
"","","","","","image-keyboard-response","190","380927","0.0-165.0","643d681fb11898ee6b771ccf","665500ab8938657b03fbdba8","66579296c69c7faa76e73c80","1257","stimuli/2001110.jpg","2","","prediction_trial","2","","true","","2","true","true","false","true","false","true","[2]","001","110","1","","","","","","",""
"","","","","","image-keyboard-response","191","381635","0.0-166.0","643d681fb11898ee6b771ccf","665500ab8938657b03fbdba8","66579296c69c7faa76e73c80","705","stimuli/20011102.jpg"," ","","feedback_trial","2","","","","","","","","","","","","","","","","","","","","",""
"","","","","","image-keyboard-response","192","383257","0.0-167.0","643d681fb11898ee6b771ccf","665500ab8938657b03fbdba8","66579296c69c7faa76e73c80","1620","stimuli/0101100.jpg","0","","prediction_trial","0","","true","","0","false","true","false","false","false","false","[0,2]","101","100","1","","","","","","",""
"","","","","","image-keyboard-response","193","384266","0.0-168.0","643d681fb11898ee6b771ccf","665500ab8938657b03fbdba8","66579296c69c7faa76e73c80","1006","stimuli/01011000.jpg"," ","","feedback_trial","0","","","","","","","","","","","","","","","","","","","","",""
"","","","","","image-keyboard-response","194","385174","0.0-169.0","643d681fb11898ee6b771ccf","665500ab8938657b03fbdba8","66579296c69c7faa76e73c80","906","stimuli/0011001.jpg","0","","prediction_trial","0","","true","","0","true","true","true","true","true","true","[0]","011","001","1","","","","","","",""
"","","","","","image-keyboard-response","195","386042","0.0-170.0","643d681fb11898ee6b771ccf","665500ab8938657b03fbdba8","66579296c69c7faa76e73c80","866","stimuli/00110010.jpg"," ","","feedback_trial","0","","","","","","","","","","","","","","","","","","","","",""
"","","","","","image-keyboard-response","196","386756","0.0-171.0","643d681fb11898ee6b771ccf","665500ab8938657b03fbdba8","66579296c69c7faa76e73c80","711","stimuli/2000110.jpg","2","","prediction_trial","2","","true","","2","true","true","true","true","true","true","[2]","000","110","1","","","","","","",""
"","","","","","image-keyboard-response","197","387309","0.0-172.0","643d681fb11898ee6b771ccf","665500ab8938657b03fbdba8","66579296c69c7faa76e73c80","552","stimuli/20001102.jpg"," ","","feedback_trial","2","","","","","","","","","","","","","","","","","","","","",""
"","","","","","image-keyboard-response","198","388659","0.0-173.0","643d681fb11898ee6b771ccf","665500ab8938657b03fbdba8","66579296c69c7faa76e73c80","1348","stimuli/2111010.jpg","2","","prediction_trial","2","","true","","2","true","true","false","false","false","false","[2,1,0]","111","010","1","","","","","","",""
"","","","","","image-keyboard-response","199","389619","0.0-174.0","643d681fb11898ee6b771ccf","665500ab8938657b03fbdba8","66579296c69c7faa76e73c80","958","stimuli/21110102.jpg"," ","","feedback_trial","2","","","","","","","","","","","","","","","","","","","","",""
"","","","","","image-keyboard-response","200","390496","0.0-175.0","643d681fb11898ee6b771ccf","665500ab8938657b03fbdba8","66579296c69c7faa76e73c80","863","stimuli/2101011.jpg","1","","prediction_trial","2","","false","","2","false","false","false","false","false","false","[2,0]","101","011","0","","","","","","",""
"","","","","","image-keyboard-response","201","391419","0.0-176.0","643d681fb11898ee6b771ccf","665500ab8938657b03fbdba8","66579296c69c7faa76e73c80","922","stimuli/21010112.jpg"," ","","feedback_trial","2","","","","","","","","","","","","","","","","","","","","",""
"","","","","","image-keyboard-response","202","392497","0.0-177.0","643d681fb11898ee6b771ccf","665500ab8938657b03fbdba8","66579296c69c7faa76e73c80","1075","stimuli/1111111.jpg","1","","prediction_trial","1","","true","","1","false","false","false","false","false","false","[1,0,2]","111","111","1","","","","","","",""
"","","","","","image-keyboard-response","203","393216","0.0-178.0","643d681fb11898ee6b771ccf","665500ab8938657b03fbdba8","66579296c69c7faa76e73c80","716","stimuli/11111111.jpg"," ","","feedback_trial","1","","","","","","","","","","","","","","","","","","","","",""
"","","","","","image-keyboard-response","204","394641","0.0-179.0","643d681fb11898ee6b771ccf","665500ab8938657b03fbdba8","66579296c69c7faa76e73c80","1422","stimuli/2011001.jpg","2","","prediction_trial","1","","false","","2","false","true","false","false","false","false","[2,1]","011","001","0","","","","","","",""
"","","","","","image-keyboard-response","205","395861","0.0-180.0","643d681fb11898ee6b771ccf","665500ab8938657b03fbdba8","66579296c69c7faa76e73c80","1219","stimuli/20110011.jpg"," ","","feedback_trial","2","","","","","","","","","","","","","","","","","","","","",""
"","","","","","image-keyboard-response","206","396546","0.0-181.0","643d681fb11898ee6b771ccf","665500ab8938657b03fbdba8","66579296c69c7faa76e73c80","682","stimuli/1101100.jpg","1","","prediction_trial","1","","true","","1","true","true","true","true","true","true","[1]","101","100","1","","","","","","",""
"","","","","","image-keyboard-response","207","397095","0.0-182.0","643d681fb11898ee6b771ccf","665500ab8938657b03fbdba8","66579296c69c7faa76e73c80","548","stimuli/11011001.jpg"," ","","feedback_trial","1","","","","","","","","","","","","","","","","","","","","",""
"","","","","","image-keyboard-response","208","397851","0.0-183.0","643d681fb11898ee6b771ccf","665500ab8938657b03fbdba8","66579296c69c7faa76e73c80","754","stimuli/1100001.jpg","1","","prediction_trial","1","","true","","1","true","true","true","true","true","true","[1]","100","001","1","","","","","","",""
"","","","","","image-keyboard-response","209","398719","0.0-184.0","643d681fb11898ee6b771ccf","665500ab8938657b03fbdba8","66579296c69c7faa76e73c80","867","stimuli/11000011.jpg"," ","","feedback_trial","1","","","","","","","","","","","","","","","","","","","","",""
"","","","","","image-keyboard-response","210","399655","0.0-185.0","643d681fb11898ee6b771ccf","665500ab8938657b03fbdba8","66579296c69c7faa76e73c80","934","stimuli/0100111.jpg","1","","prediction_trial","0","","false","","0","false","false","false","true","false","false","[0]","100","111","0","","","","","","",""
"","","","","","image-keyboard-response","211","400601","0.0-186.0","643d681fb11898ee6b771ccf","665500ab8938657b03fbdba8","66579296c69c7faa76e73c80","945","stimuli/01001110.jpg"," ","","feedback_trial","0","","","","","","","","","","","","","","","","","","","","",""
"","","","","","image-keyboard-response","212","401630","0.0-187.0","643d681fb11898ee6b771ccf","665500ab8938657b03fbdba8","66579296c69c7faa76e73c80","1027","stimuli/1100101.jpg","1","","prediction_trial","1","","true","","1","true","true","true","true","true","true","[1]","100","101","1","","","","","","",""
"","","","","","image-keyboard-response","213","402217","0.0-188.0","643d681fb11898ee6b771ccf","665500ab8938657b03fbdba8","66579296c69c7faa76e73c80","585","stimuli/11001011.jpg"," ","","feedback_trial","1","","","","","","","","","","","","","","","","","","","","",""
"","","","","","image-keyboard-response","214","403760","0.0-189.0","643d681fb11898ee6b771ccf","665500ab8938657b03fbdba8","66579296c69c7faa76e73c80","1541","stimuli/0001100.jpg","0","","prediction_trial","0","","true","","0","false","true","true","true","false","true","[0]","001","100","1","","","","","","",""
"","","","","","image-keyboard-response","215","404467","0.0-190.0","643d681fb11898ee6b771ccf","665500ab8938657b03fbdba8","66579296c69c7faa76e73c80","704","stimuli/00011000.jpg"," ","","feedback_trial","0","","","","","","","","","","","","","","","","","","","","",""
"","","","","","image-keyboard-response","216","406687","0.0-191.0","643d681fb11898ee6b771ccf","665500ab8938657b03fbdba8","66579296c69c7faa76e73c80","2218","stimuli/1100110.jpg","1","","prediction_trial","1","","true","","1","false","false","true","true","false","false","[1]","100","110","1","","","","","","",""
"","","","","","image-keyboard-response","217","407424","0.0-192.0","643d681fb11898ee6b771ccf","665500ab8938657b03fbdba8","66579296c69c7faa76e73c80","735","stimuli/11001101.jpg"," ","","feedback_trial","1","","","","","","","","","","","","","","","","","","","","",""
"","","","","","image-keyboard-response","218","408509","0.0-193.0","643d681fb11898ee6b771ccf","665500ab8938657b03fbdba8","66579296c69c7faa76e73c80","1082","stimuli/0010100.jpg","0","","prediction_trial","0","","true","","0","false","true","true","true","false","true","[0]","010","100","1","","","","","","",""
"","","","","","image-keyboard-response","219","409253","0.0-194.0","643d681fb11898ee6b771ccf","665500ab8938657b03fbdba8","66579296c69c7faa76e73c80","742","stimuli/00101000.jpg"," ","","feedback_trial","0","","","","","","","","","","","","","","","","","","","","",""
"","","","","","image-keyboard-response","220","410193","0.0-195.0","643d681fb11898ee6b771ccf","665500ab8938657b03fbdba8","66579296c69c7faa76e73c80","939","stimuli/1101111.jpg","1","","prediction_trial","1","","true","","1","false","false","true","true","false","false","[1]","101","111","1","","","","","","",""
"","","","","","image-keyboard-response","221","410982","0.0-196.0","643d681fb11898ee6b771ccf","665500ab8938657b03fbdba8","66579296c69c7faa76e73c80","788","stimuli/11011111.jpg"," ","","feedback_trial","1","","","","","","","","","","","","","","","","","","","","",""
"","","","","","image-keyboard-response","222","411673","0.0-197.0","643d681fb11898ee6b771ccf","665500ab8938657b03fbdba8","66579296c69c7faa76e73c80","688","stimuli/1100100.jpg","1","","prediction_trial","1","","true","","1","true","true","true","true","true","true","[1]","100","100","1","","","","","","",""
"","","","","","image-keyboard-response","223","412159","0.0-198.0","643d681fb11898ee6b771ccf","665500ab8938657b03fbdba8","66579296c69c7faa76e73c80","484","stimuli/11001001.jpg"," ","","feedback_trial","1","","","","","","","","","","","","","","","","","","","","",""
"","","","","","image-keyboard-response","224","413044","0.0-199.0","643d681fb11898ee6b771ccf","665500ab8938657b03fbdba8","66579296c69c7faa76e73c80","883","stimuli/0011000.jpg","0","","prediction_trial","0","","true","","0","true","true","true","true","true","true","[0]","011","000","1","","","","","","",""
"","","","","","image-keyboard-response","225","413427","0.0-200.0","643d681fb11898ee6b771ccf","665500ab8938657b03fbdba8","66579296c69c7faa76e73c80","381","stimuli/00110000.jpg"," ","","feedback_trial","0","","","","","","","","","","","","","","","","","","","","",""
"","","","","","image-keyboard-response","226","415008","0.0-201.0","643d681fb11898ee6b771ccf","665500ab8938657b03fbdba8","66579296c69c7faa76e73c80","1579","stimuli/0110101.jpg","2","","prediction_trial","1","","false","","0","false","false","false","false","false","false","[0,1]","110","101","0","","","","","","",""
"","","","","","image-keyboard-response","227","416030","0.0-202.0","643d681fb11898ee6b771ccf","665500ab8938657b03fbdba8","66579296c69c7faa76e73c80","1020","stimuli/01101011.jpg"," ","","feedback_trial","0","","","","","","","","","","","","","","","","","","","","",""
"","","","","","image-keyboard-response","228","417060","0.0-203.0","643d681fb11898ee6b771ccf","665500ab8938657b03fbdba8","66579296c69c7faa76e73c80","1028","stimuli/2010100.jpg","2","","prediction_trial","2","","true","","2","true","true","true","true","true","true","[2]","010","100","1","","","","","","",""
"","","","","","image-keyboard-response","229","417790","0.0-204.0","643d681fb11898ee6b771ccf","665500ab8938657b03fbdba8","66579296c69c7faa76e73c80","729","stimuli/20101002.jpg"," ","","feedback_trial","2","","","","","","","","","","","","","","","","","","","","",""
"","","","","","image-keyboard-response","230","418857","0.0-205.0","643d681fb11898ee6b771ccf","665500ab8938657b03fbdba8","66579296c69c7faa76e73c80","1064","stimuli/1101110.jpg","1","","prediction_trial","1","","true","","1","false","false","true","true","false","false","[1]","101","110","1","","","","","","",""
"","","","","","image-keyboard-response","231","419454","0.0-206.0","643d681fb11898ee6b771ccf","665500ab8938657b03fbdba8","66579296c69c7faa76e73c80","595","stimuli/11011101.jpg"," ","","feedback_trial","1","","","","","","","","","","","","","","","","","","","","",""
"","","","","","image-keyboard-response","232","422884","0.0-207.0","643d681fb11898ee6b771ccf","665500ab8938657b03fbdba8","66579296c69c7faa76e73c80","3428","stimuli/0010110.jpg","1","","prediction_trial","0","","false","","0","false","false","true","true","false","false","[0]","010","110","0","","","","","","",""
"","","","","","image-keyboard-response","233","423778","0.0-208.0","643d681fb11898ee6b771ccf","665500ab8938657b03fbdba8","66579296c69c7faa76e73c80","892","stimuli/00101100.jpg"," ","","feedback_trial","0","","","","","","","","","","","","","","","","","","","","",""
"","","","","","image-keyboard-response","234","424613","0.0-209.0","643d681fb11898ee6b771ccf","665500ab8938657b03fbdba8","66579296c69c7faa76e73c80","832","stimuli/2110100.jpg","2","","prediction_trial","2","","true","","2","true","true","true","true","true","true","[2]","110","100","1","","","","","","",""
"","","","","","image-keyboard-response","235","425121","0.0-210.0","643d681fb11898ee6b771ccf","665500ab8938657b03fbdba8","66579296c69c7faa76e73c80","506","stimuli/21101002.jpg"," ","","feedback_trial","2","","","","","","","","","","","","","","","","","","","","",""
"","","","","","image-keyboard-response","236","427256","0.0-211.0","643d681fb11898ee6b771ccf","665500ab8938657b03fbdba8","66579296c69c7faa76e73c80","2117","stimuli/2001011.jpg","1","","prediction_trial","2","","false","","2","false","false","false","true","false","false","[2]","001","011","0","","","","","","",""
"","","","","","image-keyboard-response","237","427957","0.0-212.0","643d681fb11898ee6b771ccf","665500ab8938657b03fbdba8","66579296c69c7faa76e73c80","699","stimuli/20010112.jpg"," ","","feedback_trial","2","","","","","","","","","","","","","","","","","","","","",""
"","","","","","image-keyboard-response","238","429436","0.0-213.0","643d681fb11898ee6b771ccf","665500ab8938657b03fbdba8","66579296c69c7faa76e73c80","1476","stimuli/0011011.jpg","0","","prediction_trial","0","","true","","0","true","true","true","true","true","true","[0]","011","011","1","","","","","","",""
"","","","","","image-keyboard-response","239","430100","0.0-214.0","643d681fb11898ee6b771ccf","665500ab8938657b03fbdba8","66579296c69c7faa76e73c80","662","stimuli/00110110.jpg"," ","","feedback_trial","0","","","","","","","","","","","","","","","","","","","","",""
"","","","","","image-keyboard-response","240","431040","0.0-215.0","643d681fb11898ee6b771ccf","665500ab8938657b03fbdba8","66579296c69c7faa76e73c80","938","stimuli/0000000.jpg","0","","prediction_trial","0","","true","","0","true","true","true","true","true","true","[0]","000","000","1","","","","","","",""
"","","","","","image-keyboard-response","241","431353","0.0-216.0","643d681fb11898ee6b771ccf","665500ab8938657b03fbdba8","66579296c69c7faa76e73c80","312","stimuli/00000000.jpg"," ","","feedback_trial","0","","","","","","","","","","","","","","","","","","","","",""
"","","","","","image-keyboard-response","242","435022","0.0-217.0","643d681fb11898ee6b771ccf","665500ab8938657b03fbdba8","66579296c69c7faa76e73c80","3666","stimuli/2010111.jpg","1","","prediction_trial","2","","false","","2","false","false","true","true","false","false","[2]","010","111","0","","","","","","",""
"","","","","","image-keyboard-response","243","435618","0.0-218.0","643d681fb11898ee6b771ccf","665500ab8938657b03fbdba8","66579296c69c7faa76e73c80","593","stimuli/20101112.jpg"," ","","feedback_trial","2","","","","","","","","","","","","","","","","","","","","",""
"","","","","","image-keyboard-response","244","436458","0.0-219.0","643d681fb11898ee6b771ccf","665500ab8938657b03fbdba8","66579296c69c7faa76e73c80","838","stimuli/1000110.jpg","1","","prediction_trial","1","","true","","1","false","false","true","true","false","false","[1]","000","110","1","","","","","","",""
"","","","","","image-keyboard-response","245","437211","0.0-220.0","643d681fb11898ee6b771ccf","665500ab8938657b03fbdba8","66579296c69c7faa76e73c80","751","stimuli/10001101.jpg"," ","","feedback_trial","1","","","","","","","","","","","","","","","","","","","","",""
"","","","","","image-keyboard-response","246","438064","0.0-221.0","643d681fb11898ee6b771ccf","665500ab8938657b03fbdba8","66579296c69c7faa76e73c80","851","stimuli/1111001.jpg","1","","prediction_trial","2","","false","","1","true","true","false","false","false","false","[0,1,2]","111","001","0","","","","","","",""
"","","","","","image-keyboard-response","247","438944","0.0-222.0","643d681fb11898ee6b771ccf","665500ab8938657b03fbdba8","66579296c69c7faa76e73c80","878","stimuli/11110012.jpg"," ","","feedback_trial","0","","","","","","","","","","","","","","","","","","","","",""
"","","","","","image-keyboard-response","248","439741","0.0-223.0","643d681fb11898ee6b771ccf","665500ab8938657b03fbdba8","66579296c69c7faa76e73c80","793","stimuli/1001010.jpg","1","","prediction_trial","1","","true","","1","false","true","true","true","false","true","[1]","001","010","1","","","","","","",""
"","","","","","image-keyboard-response","249","440247","0.0-224.0","643d681fb11898ee6b771ccf","665500ab8938657b03fbdba8","66579296c69c7faa76e73c80","504","stimuli/10010101.jpg"," ","","feedback_trial","1","","","","","","","","","","","","","","","","","","","","",""
"","","","","","image-keyboard-response","250","441277","0.0-225.0","643d681fb11898ee6b771ccf","665500ab8938657b03fbdba8","66579296c69c7faa76e73c80","1028","stimuli/2101100.jpg","2","","prediction_trial","2","","true","","2","true","true","false","false","false","false","[2,0]","101","100","1","","","","","","",""
"","","","","","image-keyboard-response","251","441742","0.0-226.0","643d681fb11898ee6b771ccf","665500ab8938657b03fbdba8","66579296c69c7faa76e73c80","463","stimuli/21011002.jpg"," ","","feedback_trial","2","","","","","","","","","","","","","","","","","","","","",""
"","","","","","image-keyboard-response","252","444517","0.0-227.0","643d681fb11898ee6b771ccf","665500ab8938657b03fbdba8","66579296c69c7faa76e73c80","2771","stimuli/2100101.jpg","0","","prediction_trial","2","","false","","2","false","false","true","true","false","false","[2]","100","101","0","","","","","","",""
"","","","","","image-keyboard-response","253","445564","0.0-228.0","643d681fb11898ee6b771ccf","665500ab8938657b03fbdba8","66579296c69c7faa76e73c80","1045","stimuli/21001012.jpg"," ","","feedback_trial","2","","","","","","","","","","","","","","","","","","","","",""
"","","","","","image-keyboard-response","254","446654","0.0-229.0","643d681fb11898ee6b771ccf","665500ab8938657b03fbdba8","66579296c69c7faa76e73c80","1086","stimuli/0101110.jpg","1","","prediction_trial","2","","false","","0","false","false","false","false","false","false","[0,2]","101","110","0","","","","","","",""
"","","","","","image-keyboard-response","255","448495","0.0-230.0","643d681fb11898ee6b771ccf","665500ab8938657b03fbdba8","66579296c69c7faa76e73c80","1839","stimuli/01011102.jpg"," ","","feedback_trial","0","","","","","","","","","","","","","","","","","","","","",""
"","","","","","image-keyboard-response","256","449199","0.0-231.0","643d681fb11898ee6b771ccf","665500ab8938657b03fbdba8","66579296c69c7faa76e73c80","701","stimuli/1001000.jpg","1","","prediction_trial","1","","true","","1","true","true","true","true","true","true","[1]","001","000","1","","","","","","",""
"","","","","","image-keyboard-response","257","449643","0.0-232.0","643d681fb11898ee6b771ccf","665500ab8938657b03fbdba8","66579296c69c7faa76e73c80","443","stimuli/10010001.jpg"," ","","feedback_trial","1","","","","","","","","","","","","","","","","","","","","",""
"","","","","","image-keyboard-response","258","450557","0.0-233.0","643d681fb11898ee6b771ccf","665500ab8938657b03fbdba8","66579296c69c7faa76e73c80","912","stimuli/0001011.jpg","0","","prediction_trial","0","","true","","0","true","true","true","true","true","true","[0]","001","011","1","","","","","","",""
"","","","","","image-keyboard-response","259","451012","0.0-234.0","643d681fb11898ee6b771ccf","665500ab8938657b03fbdba8","66579296c69c7faa76e73c80","453","stimuli/00010110.jpg"," ","","feedback_trial","0","","","","","","","","","","","","","","","","","","","","",""
"","","","","","image-keyboard-response","260","452120","0.0-235.0","643d681fb11898ee6b771ccf","665500ab8938657b03fbdba8","66579296c69c7faa76e73c80","1106","stimuli/0111010.jpg","0","","prediction_trial","2","","false","","0","true","true","false","false","false","false","[1,0,2]","111","010","0","","","","","","",""
"","","","","","image-keyboard-response","261","454229","0.0-236.0","643d681fb11898ee6b771ccf","665500ab8938657b03fbdba8","66579296c69c7faa76e73c80","2107","stimuli/01110102.jpg"," ","","feedback_trial","1","","","","","","","","","","","","","","","","","","","","",""
"","","","","","image-keyboard-response","262","455522","0.0-237.0","643d681fb11898ee6b771ccf","665500ab8938657b03fbdba8","66579296c69c7faa76e73c80","1291","stimuli/1001001.jpg","1","","prediction_trial","1","","true","","1","true","true","true","true","true","true","[1]","001","001","1","","","","","","",""
"","","","","","image-keyboard-response","263","456011","0.0-238.0","643d681fb11898ee6b771ccf","665500ab8938657b03fbdba8","66579296c69c7faa76e73c80","486","stimuli/10010011.jpg"," ","","feedback_trial","1","","","","","","","","","","","","","","","","","","","","",""
"","","","","","image-keyboard-response","264","456803","0.0-239.0","643d681fb11898ee6b771ccf","665500ab8938657b03fbdba8","66579296c69c7faa76e73c80","790","stimuli/2010000.jpg","2","","prediction_trial","2","","true","","2","true","true","true","true","true","true","[2]","010","000","1","","","","","","",""
"","","","","","image-keyboard-response","265","457237","0.0-240.0","643d681fb11898ee6b771ccf","665500ab8938657b03fbdba8","66579296c69c7faa76e73c80","433","stimuli/20100002.jpg"," ","","feedback_trial","2","","","","","","","","","","","","","","","","","","","","",""
"","","","","","image-keyboard-response","266","458254","0.0-241.0","643d681fb11898ee6b771ccf","665500ab8938657b03fbdba8","66579296c69c7faa76e73c80","1016","stimuli/2000001.jpg","2","","prediction_trial","2","","true","","2","false","true","true","true","false","true","[2]","000","001","1","","","","","","",""
"","","","","","image-keyboard-response","267","458611","0.0-242.0","643d681fb11898ee6b771ccf","665500ab8938657b03fbdba8","66579296c69c7faa76e73c80","357","stimuli/20000012.jpg"," ","","feedback_trial","2","","","","","","","","","","","","","","","","","","","","",""
"","","","","","image-keyboard-response","268","460281","0.0-243.0","643d681fb11898ee6b771ccf","665500ab8938657b03fbdba8","66579296c69c7faa76e73c80","1668","stimuli/0001111.jpg","1","","prediction_trial","0","","false","","0","false","false","true","true","false","false","[0]","001","111","0","","","","","","",""
"","","","","","image-keyboard-response","269","461236","0.0-244.0","643d681fb11898ee6b771ccf","665500ab8938657b03fbdba8","66579296c69c7faa76e73c80","953","stimuli/00011110.jpg"," ","","feedback_trial","0","","","","","","","","","","","","","","","","","","","","",""
"","","","","","image-keyboard-response","270","464188","0.0-245.0","643d681fb11898ee6b771ccf","665500ab8938657b03fbdba8","66579296c69c7faa76e73c80","2950","stimuli/0001101.jpg","0","","prediction_trial","0","","true","","0","false","false","true","true","false","false","[0]","001","101","1","","","","","","",""
"","","","","","image-keyboard-response","271","464747","0.0-246.0","643d681fb11898ee6b771ccf","665500ab8938657b03fbdba8","66579296c69c7faa76e73c80","557","stimuli/00011010.jpg"," ","","feedback_trial","0","","","","","","","","","","","","","","","","","","","","",""
"","","","","","image-keyboard-response","272","465468","0.0-247.0","643d681fb11898ee6b771ccf","665500ab8938657b03fbdba8","66579296c69c7faa76e73c80","710","stimuli/1010000.jpg","1","","prediction_trial","1","","true","","1","true","true","false","true","false","true","[1]","010","000","1","","","","","","",""
"","","","","","image-keyboard-response","273","466018","0.0-248.0","643d681fb11898ee6b771ccf","665500ab8938657b03fbdba8","66579296c69c7faa76e73c80","547","stimuli/10100001.jpg"," ","","feedback_trial","1","","","","","","","","","","","","","","","","","","","","",""
"","","","","","image-keyboard-response","274","467489","0.0-249.0","643d681fb11898ee6b771ccf","665500ab8938657b03fbdba8","66579296c69c7faa76e73c80","1469","stimuli/0111100.jpg","0","","prediction_trial","0","","true","","0","false","true","false","false","false","false","[2,0,1]","111","100","1","","","","","","",""
"","","","","","image-keyboard-response","275","468005","0.0-250.0","643d681fb11898ee6b771ccf","665500ab8938657b03fbdba8","66579296c69c7faa76e73c80","513","stimuli/01111000.jpg"," ","","feedback_trial","2","","","","","","","","","","","","","","","","","","","","",""
"","","","","","image-keyboard-response","276","468942","0.0-251.0","643d681fb11898ee6b771ccf","665500ab8938657b03fbdba8","66579296c69c7faa76e73c80","935","stimuli/0001010.jpg","0","","prediction_trial","0","","true","","0","true","true","true","true","true","true","[0]","001","010","1","","","","","","",""
"","","","","","image-keyboard-response","277","469388","0.0-252.0","643d681fb11898ee6b771ccf","665500ab8938657b03fbdba8","66579296c69c7faa76e73c80","444","stimuli/00010100.jpg"," ","","feedback_trial","0","","","","","","","","","","","","","","","","","","","","",""
"","","","","","image-keyboard-response","278","471896","0.0-253.0","643d681fb11898ee6b771ccf","665500ab8938657b03fbdba8","66579296c69c7faa76e73c80","2505","stimuli/0011101.jpg","0","","prediction_trial","0","","true","","0","false","false","true","true","false","false","[0]","011","101","1","","","","","","",""
"","","","","","image-keyboard-response","279","472349","0.0-254.0","643d681fb11898ee6b771ccf","665500ab8938657b03fbdba8","66579296c69c7faa76e73c80","452","stimuli/00111010.jpg"," ","","feedback_trial","0","","","","","","","","","","","","","","","","","","","","",""
"","","","","","image-keyboard-response","280","473938","0.0-255.0","643d681fb11898ee6b771ccf","665500ab8938657b03fbdba8","66579296c69c7faa76e73c80","1586","stimuli/2111001.jpg","2","","prediction_trial","1","","false","","2","false","true","false","false","false","false","[1,2,0]","111","001","0","","","","","","",""
"","","","","","image-keyboard-response","281","475205","0.0-256.0","643d681fb11898ee6b771ccf","665500ab8938657b03fbdba8","66579296c69c7faa76e73c80","1264","stimuli/21110011.jpg"," ","","feedback_trial","1","","","","","","","","","","","","","","","","","","","","",""
"","","","","","image-keyboard-response","282","476253","0.0-257.0","643d681fb11898ee6b771ccf","665500ab8938657b03fbdba8","66579296c69c7faa76e73c80","1045","stimuli/1110110.jpg","1","","prediction_trial","1","","true","","1","false","false","false","false","false","false","[1,0]","110","110","1","","","","","","",""
"","","","","","image-keyboard-response","283","476973","0.0-258.0","643d681fb11898ee6b771ccf","665500ab8938657b03fbdba8","66579296c69c7faa76e73c80","717","stimuli/11101101.jpg"," ","","feedback_trial","1","","","","","","","","","","","","","","","","","","","","",""
"","","","","","image-keyboard-response","284","478207","0.0-259.0","643d681fb11898ee6b771ccf","665500ab8938657b03fbdba8","66579296c69c7faa76e73c80","1232","stimuli/0000100.jpg","0","","prediction_trial","0","","true","","0","false","true","true","true","false","true","[0]","000","100","1","","","","","","",""
"","","","","","image-keyboard-response","285","478730","0.0-260.0","643d681fb11898ee6b771ccf","665500ab8938657b03fbdba8","66579296c69c7faa76e73c80","521","stimuli/00001000.jpg"," ","","feedback_trial","0","","","","","","","","","","","","","","","","","","","","",""
"","","","","","image-keyboard-response","286","479498","0.0-261.0","643d681fb11898ee6b771ccf","665500ab8938657b03fbdba8","66579296c69c7faa76e73c80","766","stimuli/1100000.jpg","1","","prediction_trial","1","","true","","1","true","true","true","true","true","true","[1]","100","000","1","","","","","","",""
"","","","","","image-keyboard-response","287","480020","0.0-262.0","643d681fb11898ee6b771ccf","665500ab8938657b03fbdba8","66579296c69c7faa76e73c80","520","stimuli/11000001.jpg"," ","","feedback_trial","1","","","","","","","","","","","","","","","","","","","","",""
"","","","","","image-keyboard-response","288","481591","0.0-263.0","643d681fb11898ee6b771ccf","665500ab8938657b03fbdba8","66579296c69c7faa76e73c80","1568","stimuli/0000101.jpg","2","","prediction_trial","0","","false","","0","false","false","true","true","false","false","[0]","000","101","0","","","","","","",""
"","","","","","image-keyboard-response","289","482505","0.0-264.0","643d681fb11898ee6b771ccf","665500ab8938657b03fbdba8","66579296c69c7faa76e73c80","912","stimuli/00001010.jpg"," ","","feedback_trial","0","","","","","","","","","","","","","","","","","","","","",""
"","","","","","image-keyboard-response","290","483373","0.0-265.0","643d681fb11898ee6b771ccf","665500ab8938657b03fbdba8","66579296c69c7faa76e73c80","851","stimuli/0000111.jpg","1","","prediction_trial","0","","false","","0","false","false","true","true","false","false","[0]","000","111","0","","","","","","",""
"","","","","","image-keyboard-response","291","484403","0.0-266.0","643d681fb11898ee6b771ccf","665500ab8938657b03fbdba8","66579296c69c7faa76e73c80","1028","stimuli/00001110.jpg"," ","","feedback_trial","0","","","","","","","","","","","","","","","","","","","","",""
"","","","","","image-keyboard-response","292","485637","0.0-267.0","643d681fb11898ee6b771ccf","665500ab8938657b03fbdba8","66579296c69c7faa76e73c80","1231","stimuli/1000111.jpg","1","","prediction_trial","1","","true","","1","false","false","true","true","false","false","[1]","000","111","1","","","","","","",""
"","","","","","image-keyboard-response","293","486202","0.0-268.0","643d681fb11898ee6b771ccf","665500ab8938657b03fbdba8","66579296c69c7faa76e73c80","563","stimuli/10001111.jpg"," ","","feedback_trial","1","","","","","","","","","","","","","","","","","","","","",""
"","","","","","image-keyboard-response","294","487295","0.0-269.0","643d681fb11898ee6b771ccf","665500ab8938657b03fbdba8","66579296c69c7faa76e73c80","1091","stimuli/1011110.jpg","1","","prediction_trial","2","","false","","1","false","false","false","false","false","false","[2,1]","011","110","0","","","","","","",""
"","","","","","image-keyboard-response","295","488427","0.0-270.0","643d681fb11898ee6b771ccf","665500ab8938657b03fbdba8","66579296c69c7faa76e73c80","1130","stimuli/10111102.jpg"," ","","feedback_trial","2","","","","","","","","","","","","","","","","","","","","",""
"","","","","","image-keyboard-response","296","489042","0.0-271.0","643d681fb11898ee6b771ccf","665500ab8938657b03fbdba8","66579296c69c7faa76e73c80","612","stimuli/1111101.jpg","1","","prediction_trial","0","","false","","1","true","true","false","false","false","false","[0,2,1]","111","101","0","","","","","","",""
"","","","","","image-keyboard-response","297","489969","0.0-272.0","643d681fb11898ee6b771ccf","665500ab8938657b03fbdba8","66579296c69c7faa76e73c80","925","stimuli/11111010.jpg"," ","","feedback_trial","0","","","","","","","","","","","","","","","","","","","","",""
"","","","","","image-keyboard-response","298","490648","0.0-273.0","643d681fb11898ee6b771ccf","665500ab8938657b03fbdba8","66579296c69c7faa76e73c80","677","stimuli/2001111.jpg","1","","prediction_trial","2","","false","","2","false","false","false","true","false","false","[2]","001","111","0","","","","","","",""
"","","","","","image-keyboard-response","299","491880","0.0-274.0","643d681fb11898ee6b771ccf","665500ab8938657b03fbdba8","66579296c69c7faa76e73c80","1229","stimuli/20011112.jpg"," ","","feedback_trial","2","","","","","","","","","","","","","","","","","","","","",""
"","","","","","image-keyboard-response","300","493043","0.0-275.0","643d681fb11898ee6b771ccf","665500ab8938657b03fbdba8","66579296c69c7faa76e73c80","1161","stimuli/1111010.jpg","1","","prediction_trial","1","","true","","1","false","true","false","false","false","false","[1,0,2]","111","010","1","","","","","","",""
"","","","","","image-keyboard-response","301","493712","0.0-276.0","643d681fb11898ee6b771ccf","665500ab8938657b03fbdba8","66579296c69c7faa76e73c80","667","stimuli/11110101.jpg"," ","","feedback_trial","1","","","","","","","","","","","","","","","","","","","","",""
"","","","","","image-keyboard-response","302","495199","0.0-277.0","643d681fb11898ee6b771ccf","665500ab8938657b03fbdba8","66579296c69c7faa76e73c80","1485","stimuli/2111111.jpg","1","","prediction_trial","0","","false","","2","false","false","false","false","false","false","[0,1,2]","111","111","0","","","","","","",""
"","","","","","image-keyboard-response","303","496940","0.0-278.0","643d681fb11898ee6b771ccf","665500ab8938657b03fbdba8","66579296c69c7faa76e73c80","1739","stimuli/21111110.jpg"," ","","feedback_trial","0","","","","","","","","","","","","","","","","","","","","",""
"","","","","","image-keyboard-response","304","498633","0.0-279.0","643d681fb11898ee6b771ccf","665500ab8938657b03fbdba8","66579296c69c7faa76e73c80","1691","stimuli/1001111.jpg","1","","prediction_trial","1","","true","","1","false","false","true","true","false","false","[1]","001","111","1","","","","","","",""
"","","","","","image-keyboard-response","305","499146","0.0-280.0","643d681fb11898ee6b771ccf","665500ab8938657b03fbdba8","66579296c69c7faa76e73c80","511","stimuli/10011111.jpg"," ","","feedback_trial","1","","","","","","","","","","","","","","","","","","","","",""
"","","","","","image-keyboard-response","306","500343","0.0-281.0","643d681fb11898ee6b771ccf","665500ab8938657b03fbdba8","66579296c69c7faa76e73c80","1194","stimuli/0111111.jpg","1","","prediction_trial","2","","false","","0","false","false","false","false","false","false","[0,2,1]","111","111","0","","","","","","",""
"","","","","","image-keyboard-response","307","501380","0.0-282.0","643d681fb11898ee6b771ccf","665500ab8938657b03fbdba8","66579296c69c7faa76e73c80","1036","stimuli/01111112.jpg"," ","","feedback_trial","0","","","","","","","","","","","","","","","","","","","","",""
"","","","","","image-keyboard-response","308","503211","0.0-283.0","643d681fb11898ee6b771ccf","665500ab8938657b03fbdba8","66579296c69c7faa76e73c80","1814","stimuli/1110111.jpg","1","","prediction_trial","1","","true","","1","false","false","false","false","false","false","[1,0]","110","111","1","","","","","","",""
"","","","","","image-keyboard-response","309","504153","0.0-284.0","643d681fb11898ee6b771ccf","665500ab8938657b03fbdba8","66579296c69c7faa76e73c80","940","stimuli/11101111.jpg"," ","","feedback_trial","1","","","","","","","","","","","","","","","","","","","","",""
"","","","","","image-keyboard-response","310","505420","0.0-285.0","643d681fb11898ee6b771ccf","665500ab8938657b03fbdba8","66579296c69c7faa76e73c80","1263","stimuli/0100100.jpg","0","","prediction_trial","0","","true","","0","false","true","false","true","false","true","[0]","100","100","1","","","","","","",""
"","","","","","image-keyboard-response","311","505911","0.0-286.0","643d681fb11898ee6b771ccf","665500ab8938657b03fbdba8","66579296c69c7faa76e73c80","489","stimuli/01001000.jpg"," ","","feedback_trial","0","","","","","","","","","","","","","","","","","","","","",""
"","","","","","image-keyboard-response","312","507322","0.0-287.0","643d681fb11898ee6b771ccf","665500ab8938657b03fbdba8","66579296c69c7faa76e73c80","1409","stimuli/2101010.jpg","2","","prediction_trial","2","","true","","2","true","true","false","false","false","false","[0,2]","101","010","1","","","","","","",""
"","","","","","image-keyboard-response","313","507760","0.0-288.0","643d681fb11898ee6b771ccf","665500ab8938657b03fbdba8","66579296c69c7faa76e73c80","436","stimuli/21010102.jpg"," ","","feedback_trial","0","","","","","","","","","","","","","","","","","","","","",""
"","","","","","image-keyboard-response","314","508789","0.0-289.0","643d681fb11898ee6b771ccf","665500ab8938657b03fbdba8","66579296c69c7faa76e73c80","1027","stimuli/1000011.jpg","1","","prediction_trial","1","","true","","1","false","false","true","true","false","false","[1]","000","011","1","","","","","","",""
"","","","","","image-keyboard-response","315","509365","0.0-290.0","643d681fb11898ee6b771ccf","665500ab8938657b03fbdba8","66579296c69c7faa76e73c80","575","stimuli/10000111.jpg"," ","","feedback_trial","1","","","","","","","","","","","","","","","","","","","","",""
"","","","","","image-keyboard-response","316","510369","0.0-291.0","643d681fb11898ee6b771ccf","665500ab8938657b03fbdba8","66579296c69c7faa76e73c80","1001","stimuli/1010010.jpg","1","","prediction_trial","1","","true","","1","false","true","false","true","false","true","[1]","010","010","1","","","","","","",""
"","","","","","image-keyboard-response","317","511395","0.0-292.0","643d681fb11898ee6b771ccf","665500ab8938657b03fbdba8","66579296c69c7faa76e73c80","1024","stimuli/10100101.jpg"," ","","feedback_trial","1","","","","","","","","","","","","","","","","","","","","",""
"","","","","","survey-html-form","318","553782","0.0-293.0","643d681fb11898ee6b771ccf","665500ab8938657b03fbdba8","66579296c69c7faa76e73c80","42383","","{""feedback"":""If it was clear by process of elimination I chose that one if I did not know I selected the middle option."",""age"":""50"",""gender"":""Female"",""other_gender"":"""",""race"":""White"",""other_race"":"""",""ethnicity"":""Non-Hispanic""}","","exit_survey","","","","","","","","","","","","","","","","If it was clear by process of elimination I chose that one if I did not know I selected the middle option.","50","Non-Hispanic","Female","White","0.6875","0.6875"
