"success","timeout","failed_images","failed_audio","failed_video","trial_type","trial_index","time_elapsed","internal_node_id","prolific_id","prolific_study_id","prolific_session_id","rt","stimulus","response","view_history","trial","character_choice","stimulus_dict","accuracy","correct_response","ball_pos","ego_ball_visible","ego_can_infer","alter_ball_visible","alter_can_infer","collective_ball_visible","collective_can_infer","search_locations","alter_occluders","ego_occluders","accuracy_bool","feedback","age","ethnicity","gender","race","overall_accuracy","bonus"
"true","false","[]","[]","[]","preload","0","7682","0.0-0.0","63e52483a88355a3a0ac62c5","665500ab8938657b03fbdba8","66579244ec2b45982c0cd3ef","","","","","","","","","","","","","","","","","","","","","","","","","","",""
"true","","","","","fullscreen","1","40611","0.0-1.0","63e52483a88355a3a0ac62c5","665500ab8938657b03fbdba8","66579244ec2b45982c0cd3ef","","","","","","","","","","","","","","","","","","","","","","","","","","",""
"","","","","","html-button-response","2","48089","0.0-2.0","63e52483a88355a3a0ac62c5","665500ab8938657b03fbdba8","66579244ec2b45982c0cd3ef","7472","<p><b>Consent Form</b></p> <div style=""text-align:left;background-color:lightgrey; padding:20px; max-width:900px;""><p>Please consider this information carefully before deciding whether to participate in this research.</p> <p>The purpose of this research is to examine which factors influence social judgment and decision-making. You will be asked to make judgements about individuals and actions in social scenarios. We are simply interested in your judgement. The study will take less than 1 hour to complete, and you will receive less than $20 on Prolific. Your compensation and time commitment are specified in the study description. There are no anticipated risks associated with participating in this study. The effects of participating should be comparable to those you would ordinarily experience from viewing a computer monitor and using a mouse or keyboard for a similar amount of time. At the end of the study, we will provide an explanation of the questions that motivate this line of research and will describe the potential implications. </p><p> Your participation in this study is completely voluntary and you may refuse to participate or you may choose to withdraw at any time without penalty or loss of benefits to you which are otherwise entitled. Your participation in this study will remain confidential. No personally identifiable information will be associated with your data. Also, all analyses of the data will be averaged across all the participants, so your individual responses will never be specifically analyzed. </p><p> If you have questions or concerns about your participation or payment, or want to request a summary of research findings, please contact Dr. Jonathan Phillips at Jonathan.S.Phillips@dartmouth.edu. </p><p> Please save a copy of this form for your records. </p><p><b>Agreement: </b>The nature and purpose of this research have been sufficiently explained and I agree to participate in this study. I understand that I am free to withdraw at any time without incurring any penalty. Please consent by clicking the button below to continue. Otherwise, please exit the study at any time. </p>","0","","","","","","","","","","","","","","","","","","","","","","","",""
"","","","","","instructions","3","115035","0.0-3.0-0.0","63e52483a88355a3a0ac62c5","665500ab8938657b03fbdba8","66579244ec2b45982c0cd3ef","66954","","","[{""page_index"":0,""viewing_time"":2548},{""page_index"":1,""viewing_time"":2875},{""page_index"":2,""viewing_time"":2051},{""page_index"":3,""viewing_time"":3874},{""page_index"":4,""viewing_time"":3037},{""page_index"":5,""viewing_time"":5307},{""page_index"":6,""viewing_time"":4879},{""page_index"":7,""viewing_time"":4021},{""page_index"":8,""viewing_time"":4727},{""page_index"":9,""viewing_time"":3106},{""page_index"":10,""viewing_time"":11730},{""page_index"":11,""viewing_time"":7271},{""page_index"":12,""viewing_time"":1471},{""page_index"":11,""viewing_time"":3639},{""page_index"":12,""viewing_time"":5265},{""page_index"":13,""viewing_time"":1155}]","intro","","","","","","","","","","","","","","","","","","","","","",""
"","","","","","image-keyboard-response","4","118480","0.0-3.0-1.0","63e52483a88355a3a0ac62c5","665500ab8938657b03fbdba8","66579244ec2b45982c0cd3ef","3424","stimuli/1111011.jpg","2","","prediction_practice","1","{""filepath"":""stimuli/1111011.jpg"",""ball_pos"":1,""ego_ball_visible"":false,""ego_can_infer"":false,""alter_ball_visible"":false,""alter_can_infer"":false,""collective_ball_visible"":false,""collective_can_infer"":false,""search_locations"":[1,0,2],""alter_occluders"":""111"",""ego_occluders"":""011""}","false","","","","","","","","","","","","","","","","","","",""
"","","","","","image-keyboard-response","5","122940","0.0-3.0-2.0","63e52483a88355a3a0ac62c5","665500ab8938657b03fbdba8","66579244ec2b45982c0cd3ef","4454","stimuli/11110111.jpg"," ","","practrice_feedback","1","","","","","","","","","","","","","","","","","","","","",""
"","","","","","image-keyboard-response","6","124550","0.0-3.0-3.0","63e52483a88355a3a0ac62c5","665500ab8938657b03fbdba8","66579244ec2b45982c0cd3ef","1608","stimuli/2110111.jpg","0","","prediction_practice","2","{""filepath"":""stimuli/2110111.jpg"",""ball_pos"":2,""ego_ball_visible"":false,""ego_can_infer"":false,""alter_ball_visible"":true,""alter_can_infer"":true,""collective_ball_visible"":false,""collective_can_infer"":false,""search_locations"":[2],""alter_occluders"":""110"",""ego_occluders"":""111""}","false","","","","","","","","","","","","","","","","","","",""
"","","","","","image-keyboard-response","7","128613","0.0-3.0-4.0","63e52483a88355a3a0ac62c5","665500ab8938657b03fbdba8","66579244ec2b45982c0cd3ef","4061","stimuli/21101112.jpg"," ","","practrice_feedback","2","","","","","","","","","","","","","","","","","","","","",""
"","","","","","image-keyboard-response","8","131508","0.0-3.0-5.0","63e52483a88355a3a0ac62c5","665500ab8938657b03fbdba8","66579244ec2b45982c0cd3ef","2893","stimuli/0101111.jpg","1","","prediction_practice","0","{""filepath"":""stimuli/0101111.jpg"",""ball_pos"":0,""ego_ball_visible"":false,""ego_can_infer"":false,""alter_ball_visible"":false,""alter_can_infer"":false,""collective_ball_visible"":false,""collective_can_infer"":false,""search_locations"":[2,0],""alter_occluders"":""101"",""ego_occluders"":""111""}","false","","","","","","","","","","","","","","","","","","",""
"","","","","","image-keyboard-response","9","137538","0.0-3.0-6.0","63e52483a88355a3a0ac62c5","665500ab8938657b03fbdba8","66579244ec2b45982c0cd3ef","6029","stimuli/01011110.jpg"," ","","practrice_feedback","2","","","","","","","","","","","","","","","","","","","","",""
"","","","","","image-keyboard-response","10","140660","0.0-3.0-7.0","63e52483a88355a3a0ac62c5","665500ab8938657b03fbdba8","66579244ec2b45982c0cd3ef","3120","stimuli/2100101.jpg","2","","prediction_practice","2","{""filepath"":""stimuli/2100101.jpg"",""ball_pos"":2,""ego_ball_visible"":false,""ego_can_infer"":false,""alter_ball_visible"":true,""alter_can_infer"":true,""collective_ball_visible"":false,""collective_can_infer"":false,""search_locations"":[2],""alter_occluders"":""100"",""ego_occluders"":""101""}","true","","","","","","","","","","","","","","","","","","",""
"","","","","","image-keyboard-response","11","142569","0.0-3.0-8.0","63e52483a88355a3a0ac62c5","665500ab8938657b03fbdba8","66579244ec2b45982c0cd3ef","1907","stimuli/21001012.jpg"," ","","practrice_feedback","2","","","","","","","","","","","","","","","","","","","","",""
"","","","","","image-keyboard-response","12","146455","0.0-3.0-9.0","63e52483a88355a3a0ac62c5","665500ab8938657b03fbdba8","66579244ec2b45982c0cd3ef","3883","stimuli/2111110.jpg","0","","prediction_practice","0","{""filepath"":""stimuli/2111110.jpg"",""ball_pos"":2,""ego_ball_visible"":true,""ego_can_infer"":true,""alter_ball_visible"":false,""alter_can_infer"":false,""collective_ball_visible"":false,""collective_can_infer"":false,""search_locations"":[0,2,1],""alter_occluders"":""111"",""ego_occluders"":""110""}","true","","","","","","","","","","","","","","","","","","",""
"","","","","","image-keyboard-response","13","147610","0.0-3.0-10.0","63e52483a88355a3a0ac62c5","665500ab8938657b03fbdba8","66579244ec2b45982c0cd3ef","1153","stimuli/21111100.jpg"," ","","practrice_feedback","0","","","","","","","","","","","","","","","","","","","","",""
"","","","","","image-keyboard-response","14","150125","0.0-3.0-11.0","63e52483a88355a3a0ac62c5","665500ab8938657b03fbdba8","66579244ec2b45982c0cd3ef","2514","stimuli/2000101.jpg","1","","prediction_practice","2","{""filepath"":""stimuli/2000101.jpg"",""ball_pos"":2,""ego_ball_visible"":false,""ego_can_infer"":false,""alter_ball_visible"":true,""alter_can_infer"":true,""collective_ball_visible"":false,""collective_can_infer"":false,""search_locations"":[2],""alter_occluders"":""000"",""ego_occluders"":""101""}","false","","","","","","","","","","","","","","","","","","",""
"","","","","","image-keyboard-response","15","151804","0.0-3.0-12.0","63e52483a88355a3a0ac62c5","665500ab8938657b03fbdba8","66579244ec2b45982c0cd3ef","1677","stimuli/20001012.jpg"," ","","practrice_feedback","2","","","","","","","","","","","","","","","","","","","","",""
"","","","","","image-keyboard-response","16","153303","0.0-3.0-13.0","63e52483a88355a3a0ac62c5","665500ab8938657b03fbdba8","66579244ec2b45982c0cd3ef","1497","stimuli/2001000.jpg","2","","prediction_practice","2","{""filepath"":""stimuli/2001000.jpg"",""ball_pos"":2,""ego_ball_visible"":true,""ego_can_infer"":true,""alter_ball_visible"":false,""alter_can_infer"":true,""collective_ball_visible"":false,""collective_can_infer"":true,""search_locations"":[2],""alter_occluders"":""001"",""ego_occluders"":""000""}","true","","","","","","","","","","","","","","","","","","",""
"","","","","","image-keyboard-response","17","154980","0.0-3.0-14.0","63e52483a88355a3a0ac62c5","665500ab8938657b03fbdba8","66579244ec2b45982c0cd3ef","1675","stimuli/20010002.jpg"," ","","practrice_feedback","2","","","","","","","","","","","","","","","","","","","","",""
"","","","","","image-keyboard-response","18","157151","0.0-3.0-15.0","63e52483a88355a3a0ac62c5","665500ab8938657b03fbdba8","66579244ec2b45982c0cd3ef","2170","stimuli/1110010.jpg","1","","prediction_practice","0","{""filepath"":""stimuli/1110010.jpg"",""ball_pos"":1,""ego_ball_visible"":false,""ego_can_infer"":true,""alter_ball_visible"":false,""alter_can_infer"":false,""collective_ball_visible"":false,""collective_can_infer"":false,""search_locations"":[1,0],""alter_occluders"":""110"",""ego_occluders"":""010""}","false","","","","","","","","","","","","","","","","","","",""
"","","","","","image-keyboard-response","19","158833","0.0-3.0-16.0","63e52483a88355a3a0ac62c5","665500ab8938657b03fbdba8","66579244ec2b45982c0cd3ef","1679","stimuli/11100100.jpg"," ","","practrice_feedback","1","","","","","","","","","","","","","","","","","","","","",""
"","","","","","image-keyboard-response","20","160796","0.0-3.0-17.0","63e52483a88355a3a0ac62c5","665500ab8938657b03fbdba8","66579244ec2b45982c0cd3ef","1962","stimuli/2100110.jpg","2","","prediction_practice","2","{""filepath"":""stimuli/2100110.jpg"",""ball_pos"":2,""ego_ball_visible"":true,""ego_can_infer"":true,""alter_ball_visible"":true,""alter_can_infer"":true,""collective_ball_visible"":true,""collective_can_infer"":true,""search_locations"":[2],""alter_occluders"":""100"",""ego_occluders"":""110""}","true","","","","","","","","","","","","","","","","","","",""
"","","","","","image-keyboard-response","21","161964","0.0-3.0-18.0","63e52483a88355a3a0ac62c5","665500ab8938657b03fbdba8","66579244ec2b45982c0cd3ef","1166","stimuli/21001102.jpg"," ","","practrice_feedback","2","","","","","","","","","","","","","","","","","","","","",""
"","","","","","image-keyboard-response","22","165037","0.0-3.0-19.0","63e52483a88355a3a0ac62c5","665500ab8938657b03fbdba8","66579244ec2b45982c0cd3ef","3072","stimuli/2001010.jpg","1","","prediction_practice","2","{""filepath"":""stimuli/2001010.jpg"",""ball_pos"":2,""ego_ball_visible"":true,""ego_can_infer"":true,""alter_ball_visible"":false,""alter_can_infer"":true,""collective_ball_visible"":false,""collective_can_infer"":true,""search_locations"":[2],""alter_occluders"":""001"",""ego_occluders"":""010""}","false","","","","","","","","","","","","","","","","","","",""
"","","","","","image-keyboard-response","23","166030","0.0-3.0-20.0","63e52483a88355a3a0ac62c5","665500ab8938657b03fbdba8","66579244ec2b45982c0cd3ef","991","stimuli/20010102.jpg"," ","","practrice_feedback","2","","","","","","","","","","","","","","","","","","","","",""
"","","","","","html-button-response","24","170022","0.0-3.0-21.0","63e52483a88355a3a0ac62c5","665500ab8938657b03fbdba8","66579244ec2b45982c0cd3ef","3990","Now that you've had some practice, you'll be tested with a couple of easy trials. If you correctly predict Sam's choice, you'll move on to complete the experiment!","0","","","","","","","","","","","","","","","","","","","","","","","",""
"","","","","","image-keyboard-response","25","172235","0.0-3.0-22.0-0.0","63e52483a88355a3a0ac62c5","665500ab8938657b03fbdba8","66579244ec2b45982c0cd3ef","2202","stimuli/0000011.jpg","arrowleft","","comprehension_quiz","","","true","arrowleft","","","","","","","","","","","","","","","","","",""
"","","","","","image-keyboard-response","26","173246","0.0-3.0-22.0-1.0","63e52483a88355a3a0ac62c5","665500ab8938657b03fbdba8","66579244ec2b45982c0cd3ef","1008","stimuli/00000110.jpg"," ","","comprehension_quiz","","","true"," ","","","","","","","","","","","","","","","","","",""
"","","","","","image-keyboard-response","27","177158","0.0-3.0-22.0-2.0","63e52483a88355a3a0ac62c5","665500ab8938657b03fbdba8","66579244ec2b45982c0cd3ef","3910","stimuli/1010010.jpg","arrowdown","","comprehension_quiz","","","true","arrowdown","","","","","","","","","","","","","","","","","",""
"","","","","","image-keyboard-response","28","178066","0.0-3.0-22.0-3.0","63e52483a88355a3a0ac62c5","665500ab8938657b03fbdba8","66579244ec2b45982c0cd3ef","905","stimuli/10100101.jpg"," ","","comprehension_quiz","","","true"," ","","","","","","","","","","","","","","","","","",""
"","","","","","html-button-response","29","180959","0.0-4.0","63e52483a88355a3a0ac62c5","665500ab8938657b03fbdba8","66579244ec2b45982c0cd3ef","2893","The experiment will now begin.","0","","","","","","","","","","","","","","","","","","","","","","","",""
"","","","","","image-keyboard-response","30","183704","0.0-5.0","63e52483a88355a3a0ac62c5","665500ab8938657b03fbdba8","66579244ec2b45982c0cd3ef","2743","stimuli/2111110.jpg","2","","prediction_trial","1","","false","","2","true","true","false","false","false","false","[0,2,1]","111","110","0","","","","","","",""
"","","","","","image-keyboard-response","31","185517","0.0-6.0","63e52483a88355a3a0ac62c5","665500ab8938657b03fbdba8","66579244ec2b45982c0cd3ef","1811","stimuli/21111101.jpg"," ","","feedback_trial","0","","","","","","","","","","","","","","","","","","","","",""
"","","","","","image-keyboard-response","32","187417","0.0-7.0","63e52483a88355a3a0ac62c5","665500ab8938657b03fbdba8","66579244ec2b45982c0cd3ef","1899","stimuli/2010010.jpg","2","","prediction_trial","2","","true","","2","true","true","true","true","true","true","[2]","010","010","1","","","","","","",""
"","","","","","image-keyboard-response","33","188285","0.0-8.0","63e52483a88355a3a0ac62c5","665500ab8938657b03fbdba8","66579244ec2b45982c0cd3ef","866","stimuli/20100102.jpg"," ","","feedback_trial","2","","","","","","","","","","","","","","","","","","","","",""
"","","","","","image-keyboard-response","34","191846","0.0-9.0","63e52483a88355a3a0ac62c5","665500ab8938657b03fbdba8","66579244ec2b45982c0cd3ef","3560","stimuli/1000010.jpg","1","","prediction_trial","1","","true","","1","false","true","true","true","false","true","[1]","000","010","1","","","","","","",""
"","","","","","image-keyboard-response","35","192706","0.0-10.0","63e52483a88355a3a0ac62c5","665500ab8938657b03fbdba8","66579244ec2b45982c0cd3ef","859","stimuli/10000101.jpg"," ","","feedback_trial","1","","","","","","","","","","","","","","","","","","","","",""
"","","","","","image-keyboard-response","36","194443","0.0-11.0","63e52483a88355a3a0ac62c5","665500ab8938657b03fbdba8","66579244ec2b45982c0cd3ef","1735","stimuli/0001001.jpg","0","","prediction_trial","0","","true","","0","true","true","true","true","true","true","[0]","001","001","1","","","","","","",""
"","","","","","image-keyboard-response","37","195010","0.0-12.0","63e52483a88355a3a0ac62c5","665500ab8938657b03fbdba8","66579244ec2b45982c0cd3ef","565","stimuli/00010010.jpg"," ","","feedback_trial","0","","","","","","","","","","","","","","","","","","","","",""
"","","","","","image-keyboard-response","38","197040","0.0-13.0","63e52483a88355a3a0ac62c5","665500ab8938657b03fbdba8","66579244ec2b45982c0cd3ef","2029","stimuli/2001010.jpg","2","","prediction_trial","2","","true","","2","true","true","false","true","false","true","[2]","001","010","1","","","","","","",""
"","","","","","image-keyboard-response","39","197757","0.0-14.0","63e52483a88355a3a0ac62c5","665500ab8938657b03fbdba8","66579244ec2b45982c0cd3ef","714","stimuli/20010102.jpg"," ","","feedback_trial","2","","","","","","","","","","","","","","","","","","","","",""
"","","","","","image-keyboard-response","40","199626","0.0-15.0","63e52483a88355a3a0ac62c5","665500ab8938657b03fbdba8","66579244ec2b45982c0cd3ef","1868","stimuli/2011100.jpg","1","","prediction_trial","1","","true","","2","true","true","false","false","false","false","[1,2]","011","100","1","","","","","","",""
"","","","","","image-keyboard-response","41","200054","0.0-16.0","63e52483a88355a3a0ac62c5","665500ab8938657b03fbdba8","66579244ec2b45982c0cd3ef","426","stimuli/20111001.jpg"," ","","feedback_trial","1","","","","","","","","","","","","","","","","","","","","",""
"","","","","","image-keyboard-response","42","201771","0.0-17.0","63e52483a88355a3a0ac62c5","665500ab8938657b03fbdba8","66579244ec2b45982c0cd3ef","1715","stimuli/2000100.jpg","2","","prediction_trial","2","","true","","2","true","true","true","true","true","true","[2]","000","100","1","","","","","","",""
"","","","","","image-keyboard-response","43","202379","0.0-18.0","63e52483a88355a3a0ac62c5","665500ab8938657b03fbdba8","66579244ec2b45982c0cd3ef","606","stimuli/20001002.jpg"," ","","feedback_trial","2","","","","","","","","","","","","","","","","","","","","",""
"","","","","","image-keyboard-response","44","204416","0.0-19.0","63e52483a88355a3a0ac62c5","665500ab8938657b03fbdba8","66579244ec2b45982c0cd3ef","2034","stimuli/0110001.jpg","0","","prediction_trial","0","","true","","0","true","true","false","false","false","false","[1,0]","110","001","1","","","","","","",""
"","","","","","image-keyboard-response","45","204914","0.0-20.0","63e52483a88355a3a0ac62c5","665500ab8938657b03fbdba8","66579244ec2b45982c0cd3ef","497","stimuli/01100010.jpg"," ","","feedback_trial","1","","","","","","","","","","","","","","","","","","","","",""
"","","","","","image-keyboard-response","46","207725","0.0-21.0","63e52483a88355a3a0ac62c5","665500ab8938657b03fbdba8","66579244ec2b45982c0cd3ef","2809","stimuli/1100111.jpg","2","","prediction_trial","1","","false","","1","false","false","true","true","false","false","[1]","100","111","0","","","","","","",""
"","","","","","image-keyboard-response","47","208270","0.0-22.0","63e52483a88355a3a0ac62c5","665500ab8938657b03fbdba8","66579244ec2b45982c0cd3ef","543","stimuli/11001111.jpg"," ","","feedback_trial","1","","","","","","","","","","","","","","","","","","","","",""
"","","","","","image-keyboard-response","48","211775","0.0-23.0","63e52483a88355a3a0ac62c5","665500ab8938657b03fbdba8","66579244ec2b45982c0cd3ef","3501","stimuli/1101000.jpg","1","","prediction_trial","1","","true","","1","true","true","true","true","true","true","[1]","101","000","1","","","","","","",""
"","","","","","image-keyboard-response","49","212414","0.0-24.0","63e52483a88355a3a0ac62c5","665500ab8938657b03fbdba8","66579244ec2b45982c0cd3ef","637","stimuli/11010001.jpg"," ","","feedback_trial","1","","","","","","","","","","","","","","","","","","","","",""
"","","","","","image-keyboard-response","50","213273","0.0-25.0","63e52483a88355a3a0ac62c5","665500ab8938657b03fbdba8","66579244ec2b45982c0cd3ef","858","stimuli/2000111.jpg","2","","prediction_trial","2","","true","","2","false","false","true","true","false","false","[2]","000","111","1","","","","","","",""
"","","","","","image-keyboard-response","51","213974","0.0-26.0","63e52483a88355a3a0ac62c5","665500ab8938657b03fbdba8","66579244ec2b45982c0cd3ef","699","stimuli/20001112.jpg"," ","","feedback_trial","2","","","","","","","","","","","","","","","","","","","","",""
"","","","","","image-keyboard-response","52","215396","0.0-27.0","63e52483a88355a3a0ac62c5","665500ab8938657b03fbdba8","66579244ec2b45982c0cd3ef","1420","stimuli/2110011.jpg","0","","prediction_trial","2","","false","","2","false","false","true","true","false","false","[2]","110","011","0","","","","","","",""
"","","","","","image-keyboard-response","53","215922","0.0-28.0","63e52483a88355a3a0ac62c5","665500ab8938657b03fbdba8","66579244ec2b45982c0cd3ef","522","stimuli/21100112.jpg"," ","","feedback_trial","2","","","","","","","","","","","","","","","","","","","","",""
"","","","","","image-keyboard-response","54","218041","0.0-29.0","63e52483a88355a3a0ac62c5","665500ab8938657b03fbdba8","66579244ec2b45982c0cd3ef","2117","stimuli/1100101.jpg","1","","prediction_trial","1","","true","","1","true","true","true","true","true","true","[1]","100","101","1","","","","","","",""
"","","","","","image-keyboard-response","55","218610","0.0-30.0","63e52483a88355a3a0ac62c5","665500ab8938657b03fbdba8","66579244ec2b45982c0cd3ef","567","stimuli/11001011.jpg"," ","","feedback_trial","1","","","","","","","","","","","","","","","","","","","","",""
"","","","","","image-keyboard-response","56","221715","0.0-31.0","63e52483a88355a3a0ac62c5","665500ab8938657b03fbdba8","66579244ec2b45982c0cd3ef","3101","stimuli/2001101.jpg","0","","prediction_trial","2","","false","","2","false","false","false","true","false","false","[2]","001","101","0","","","","","","",""
"","","","","","image-keyboard-response","57","224082","0.0-32.0","63e52483a88355a3a0ac62c5","665500ab8938657b03fbdba8","66579244ec2b45982c0cd3ef","2364","stimuli/20011012.jpg"," ","","feedback_trial","2","","","","","","","","","","","","","","","","","","","","",""
"","","","","","image-keyboard-response","58","226025","0.0-33.0","63e52483a88355a3a0ac62c5","665500ab8938657b03fbdba8","66579244ec2b45982c0cd3ef","1942","stimuli/0011000.jpg","0","","prediction_trial","0","","true","","0","true","true","true","true","true","true","[0]","011","000","1","","","","","","",""
"","","","","","image-keyboard-response","59","227342","0.0-34.0","63e52483a88355a3a0ac62c5","665500ab8938657b03fbdba8","66579244ec2b45982c0cd3ef","1314","stimuli/00110000.jpg"," ","","feedback_trial","0","","","","","","","","","","","","","","","","","","","","",""
"","","","","","image-keyboard-response","60","229881","0.0-35.0","63e52483a88355a3a0ac62c5","665500ab8938657b03fbdba8","66579244ec2b45982c0cd3ef","2538","stimuli/2110111.jpg","0","","prediction_trial","2","","false","","2","false","false","true","true","false","false","[2]","110","111","0","","","","","","",""
"","","","","","image-keyboard-response","61","231352","0.0-36.0","63e52483a88355a3a0ac62c5","665500ab8938657b03fbdba8","66579244ec2b45982c0cd3ef","1470","stimuli/21101112.jpg"," ","","feedback_trial","2","","","","","","","","","","","","","","","","","","","","",""
"","","","","","image-keyboard-response","62","232991","0.0-37.0","63e52483a88355a3a0ac62c5","665500ab8938657b03fbdba8","66579244ec2b45982c0cd3ef","1637","stimuli/1100100.jpg","1","","prediction_trial","1","","true","","1","true","true","true","true","true","true","[1]","100","100","1","","","","","","",""
"","","","","","image-keyboard-response","63","233949","0.0-38.0","63e52483a88355a3a0ac62c5","665500ab8938657b03fbdba8","66579244ec2b45982c0cd3ef","957","stimuli/11001001.jpg"," ","","feedback_trial","1","","","","","","","","","","","","","","","","","","","","",""
"","","","","","image-keyboard-response","64","235652","0.0-39.0","63e52483a88355a3a0ac62c5","665500ab8938657b03fbdba8","66579244ec2b45982c0cd3ef","1702","stimuli/2100001.jpg","2","","prediction_trial","2","","true","","2","false","true","true","true","false","true","[2]","100","001","1","","","","","","",""
"","","","","","image-keyboard-response","65","236585","0.0-40.0","63e52483a88355a3a0ac62c5","665500ab8938657b03fbdba8","66579244ec2b45982c0cd3ef","931","stimuli/21000012.jpg"," ","","feedback_trial","2","","","","","","","","","","","","","","","","","","","","",""
"","","","","","image-keyboard-response","66","238584","0.0-41.0","63e52483a88355a3a0ac62c5","665500ab8938657b03fbdba8","66579244ec2b45982c0cd3ef","1994","stimuli/0110010.jpg","0","","prediction_trial","1","","false","","0","true","true","false","false","false","false","[0,1]","110","010","0","","","","","","",""
"","","","","","image-keyboard-response","67","239271","0.0-42.0","63e52483a88355a3a0ac62c5","665500ab8938657b03fbdba8","66579244ec2b45982c0cd3ef","685","stimuli/01100101.jpg"," ","","feedback_trial","0","","","","","","","","","","","","","","","","","","","","",""
"","","","","","image-keyboard-response","68","242280","0.0-43.0","63e52483a88355a3a0ac62c5","665500ab8938657b03fbdba8","66579244ec2b45982c0cd3ef","3007","stimuli/2001110.jpg","2","","prediction_trial","2","","true","","2","true","true","false","true","false","true","[2]","001","110","1","","","","","","",""
"","","","","","image-keyboard-response","69","243252","0.0-44.0","63e52483a88355a3a0ac62c5","665500ab8938657b03fbdba8","66579244ec2b45982c0cd3ef","970","stimuli/20011102.jpg"," ","","feedback_trial","2","","","","","","","","","","","","","","","","","","","","",""
"","","","","","image-keyboard-response","70","244531","0.0-45.0","63e52483a88355a3a0ac62c5","665500ab8938657b03fbdba8","66579244ec2b45982c0cd3ef","1278","stimuli/1000100.jpg","1","","prediction_trial","1","","true","","1","true","true","true","true","true","true","[1]","000","100","1","","","","","","",""
"","","","","","image-keyboard-response","71","245091","0.0-46.0","63e52483a88355a3a0ac62c5","665500ab8938657b03fbdba8","66579244ec2b45982c0cd3ef","555","stimuli/10001001.jpg"," ","","feedback_trial","1","","","","","","","","","","","","","","","","","","","","",""
"","","","","","image-keyboard-response","72","246420","0.0-47.0","63e52483a88355a3a0ac62c5","665500ab8938657b03fbdba8","66579244ec2b45982c0cd3ef","1326","stimuli/0101001.jpg","0","","prediction_trial","2","","false","","0","true","true","false","false","false","false","[0,2]","101","001","0","","","","","","",""
"","","","","","image-keyboard-response","73","246965","0.0-48.0","63e52483a88355a3a0ac62c5","665500ab8938657b03fbdba8","66579244ec2b45982c0cd3ef","541","stimuli/01010012.jpg"," ","","feedback_trial","0","","","","","","","","","","","","","","","","","","","","",""
"","","","","","image-keyboard-response","74","248679","0.0-49.0","63e52483a88355a3a0ac62c5","665500ab8938657b03fbdba8","66579244ec2b45982c0cd3ef","1712","stimuli/0011011.jpg","0","","prediction_trial","0","","true","","0","true","true","true","true","true","true","[0]","011","011","1","","","","","","",""
"","","","","","image-keyboard-response","75","249194","0.0-50.0","63e52483a88355a3a0ac62c5","665500ab8938657b03fbdba8","66579244ec2b45982c0cd3ef","514","stimuli/00110110.jpg"," ","","feedback_trial","0","","","","","","","","","","","","","","","","","","","","",""
"","","","","","image-keyboard-response","76","252560","0.0-51.0","63e52483a88355a3a0ac62c5","665500ab8938657b03fbdba8","66579244ec2b45982c0cd3ef","3363","stimuli/0111001.jpg","0","","prediction_trial","0","","true","","0","true","true","false","false","false","false","[2,1,0]","111","001","1","","","","","","",""
"","","","","","image-keyboard-response","77","253174","0.0-52.0","63e52483a88355a3a0ac62c5","665500ab8938657b03fbdba8","66579244ec2b45982c0cd3ef","612","stimuli/01110010.jpg"," ","","feedback_trial","2","","","","","","","","","","","","","","","","","","","","",""
"","","","","","image-keyboard-response","78","254527","0.0-53.0","63e52483a88355a3a0ac62c5","665500ab8938657b03fbdba8","66579244ec2b45982c0cd3ef","1351","stimuli/1010000.jpg","1","","prediction_trial","1","","true","","1","true","true","false","true","false","true","[1]","010","000","1","","","","","","",""
"","","","","","image-keyboard-response","79","255126","0.0-54.0","63e52483a88355a3a0ac62c5","665500ab8938657b03fbdba8","66579244ec2b45982c0cd3ef","597","stimuli/10100001.jpg"," ","","feedback_trial","1","","","","","","","","","","","","","","","","","","","","",""
"","","","","","image-keyboard-response","80","256387","0.0-55.0","63e52483a88355a3a0ac62c5","665500ab8938657b03fbdba8","66579244ec2b45982c0cd3ef","1260","stimuli/1100011.jpg","2","","prediction_trial","1","","false","","1","false","false","true","true","false","false","[1]","100","011","0","","","","","","",""
"","","","","","image-keyboard-response","81","258281","0.0-56.0","63e52483a88355a3a0ac62c5","665500ab8938657b03fbdba8","66579244ec2b45982c0cd3ef","1893","stimuli/11000111.jpg"," ","","feedback_trial","1","","","","","","","","","","","","","","","","","","","","",""
"","","","","","image-keyboard-response","82","259680","0.0-57.0","63e52483a88355a3a0ac62c5","665500ab8938657b03fbdba8","66579244ec2b45982c0cd3ef","1397","stimuli/1010101.jpg","1","","prediction_trial","1","","true","","1","true","true","false","true","false","true","[1]","010","101","1","","","","","","",""
"","","","","","image-keyboard-response","83","260032","0.0-58.0","63e52483a88355a3a0ac62c5","665500ab8938657b03fbdba8","66579244ec2b45982c0cd3ef","351","stimuli/10101011.jpg"," ","","feedback_trial","1","","","","","","","","","","","","","","","","","","","","",""
"","","","","","image-keyboard-response","84","260789","0.0-59.0","63e52483a88355a3a0ac62c5","665500ab8938657b03fbdba8","66579244ec2b45982c0cd3ef","756","stimuli/1101111.jpg","0","","prediction_trial","1","","false","","1","false","false","true","true","false","false","[1]","101","111","0","","","","","","",""
"","","","","","image-keyboard-response","85","261649","0.0-60.0","63e52483a88355a3a0ac62c5","665500ab8938657b03fbdba8","66579244ec2b45982c0cd3ef","855","stimuli/11011111.jpg"," ","","feedback_trial","1","","","","","","","","","","","","","","","","","","","","",""
"","","","","","image-keyboard-response","86","263779","0.0-61.0","63e52483a88355a3a0ac62c5","665500ab8938657b03fbdba8","66579244ec2b45982c0cd3ef","2128","stimuli/2111011.jpg","2","","prediction_trial","0","","false","","2","false","false","false","false","false","false","[0,2,1]","111","011","0","","","","","","",""
"","","","","","image-keyboard-response","87","265206","0.0-62.0","63e52483a88355a3a0ac62c5","665500ab8938657b03fbdba8","66579244ec2b45982c0cd3ef","1425","stimuli/21110110.jpg"," ","","feedback_trial","0","","","","","","","","","","","","","","","","","","","","",""
"","","","","","image-keyboard-response","88","266428","0.0-63.0","63e52483a88355a3a0ac62c5","665500ab8938657b03fbdba8","66579244ec2b45982c0cd3ef","1220","stimuli/0100100.jpg","2","","prediction_trial","0","","false","","0","false","true","false","true","false","true","[0]","100","100","0","","","","","","",""
"","","","","","image-keyboard-response","89","267944","0.0-64.0","63e52483a88355a3a0ac62c5","665500ab8938657b03fbdba8","66579244ec2b45982c0cd3ef","1514","stimuli/01001000.jpg"," ","","feedback_trial","0","","","","","","","","","","","","","","","","","","","","",""
"","","","","","image-keyboard-response","90","286951","0.0-65.0","63e52483a88355a3a0ac62c5","665500ab8938657b03fbdba8","66579244ec2b45982c0cd3ef","19006","stimuli/0100010.jpg","0","","prediction_trial","0","","true","","0","true","true","false","true","false","true","[0]","100","010","1","","","","","","",""
"","","","","","image-keyboard-response","91","288100","0.0-66.0","63e52483a88355a3a0ac62c5","665500ab8938657b03fbdba8","66579244ec2b45982c0cd3ef","1147","stimuli/01000100.jpg"," ","","feedback_trial","0","","","","","","","","","","","","","","","","","","","","",""
"","","","","","image-keyboard-response","92","290720","0.0-67.0","63e52483a88355a3a0ac62c5","665500ab8938657b03fbdba8","66579244ec2b45982c0cd3ef","2616","stimuli/1111110.jpg","2","","prediction_trial","2","","true","","1","false","false","false","false","false","false","[1,0,2]","111","110","1","","","","","","",""
"","","","","","image-keyboard-response","93","291192","0.0-68.0","63e52483a88355a3a0ac62c5","665500ab8938657b03fbdba8","66579244ec2b45982c0cd3ef","469","stimuli/11111102.jpg"," ","","feedback_trial","1","","","","","","","","","","","","","","","","","","","","",""
"","","","","","image-keyboard-response","94","292540","0.0-69.0","63e52483a88355a3a0ac62c5","665500ab8938657b03fbdba8","66579244ec2b45982c0cd3ef","1347","stimuli/0000001.jpg","0","","prediction_trial","0","","true","","0","true","true","true","true","true","true","[0]","000","001","1","","","","","","",""
"","","","","","image-keyboard-response","95","293032","0.0-70.0","63e52483a88355a3a0ac62c5","665500ab8938657b03fbdba8","66579244ec2b45982c0cd3ef","490","stimuli/00000010.jpg"," ","","feedback_trial","0","","","","","","","","","","","","","","","","","","","","",""
"","","","","","image-keyboard-response","96","294144","0.0-71.0","63e52483a88355a3a0ac62c5","665500ab8938657b03fbdba8","66579244ec2b45982c0cd3ef","1111","stimuli/1110011.jpg","2","","prediction_trial","1","","false","","1","false","false","false","false","false","false","[1,0]","110","011","0","","","","","","",""
"","","","","","image-keyboard-response","97","295274","0.0-72.0","63e52483a88355a3a0ac62c5","665500ab8938657b03fbdba8","66579244ec2b45982c0cd3ef","1128","stimuli/11100111.jpg"," ","","feedback_trial","1","","","","","","","","","","","","","","","","","","","","",""
"","","","","","image-keyboard-response","98","296053","0.0-73.0","63e52483a88355a3a0ac62c5","665500ab8938657b03fbdba8","66579244ec2b45982c0cd3ef","774","stimuli/2100010.jpg","2","","prediction_trial","2","","true","","2","true","true","true","true","true","true","[2]","100","010","1","","","","","","",""
"","","","","","image-keyboard-response","99","296649","0.0-74.0","63e52483a88355a3a0ac62c5","665500ab8938657b03fbdba8","66579244ec2b45982c0cd3ef","594","stimuli/21000102.jpg"," ","","feedback_trial","2","","","","","","","","","","","","","","","","","","","","",""
"","","","","","image-keyboard-response","100","297930","0.0-75.0","63e52483a88355a3a0ac62c5","665500ab8938657b03fbdba8","66579244ec2b45982c0cd3ef","1279","stimuli/2000101.jpg","0","","prediction_trial","2","","false","","2","false","false","true","true","false","false","[2]","000","101","0","","","","","","",""
"","","","","","image-keyboard-response","101","298537","0.0-76.0","63e52483a88355a3a0ac62c5","665500ab8938657b03fbdba8","66579244ec2b45982c0cd3ef","612","stimuli/20001012.jpg"," ","","feedback_trial","2","","","","","","","","","","","","","","","","","","","","",""
"","","","","","image-keyboard-response","102","300248","0.0-77.0","63e52483a88355a3a0ac62c5","665500ab8938657b03fbdba8","66579244ec2b45982c0cd3ef","1709","stimuli/1101001.jpg","1","","prediction_trial","1","","true","","1","true","true","true","true","true","true","[1]","101","001","1","","","","","","",""
"","","","","","image-keyboard-response","103","300757","0.0-78.0","63e52483a88355a3a0ac62c5","665500ab8938657b03fbdba8","66579244ec2b45982c0cd3ef","506","stimuli/11010011.jpg"," ","","feedback_trial","1","","","","","","","","","","","","","","","","","","","","",""
"","","","","","image-keyboard-response","104","301725","0.0-79.0","63e52483a88355a3a0ac62c5","665500ab8938657b03fbdba8","66579244ec2b45982c0cd3ef","966","stimuli/2110001.jpg","2","","prediction_trial","2","","true","","2","false","true","true","true","false","true","[2]","110","001","1","","","","","","",""
"","","","","","image-keyboard-response","105","302214","0.0-80.0","63e52483a88355a3a0ac62c5","665500ab8938657b03fbdba8","66579244ec2b45982c0cd3ef","487","stimuli/21100012.jpg"," ","","feedback_trial","2","","","","","","","","","","","","","","","","","","","","",""
"","","","","","image-keyboard-response","106","303157","0.0-81.0","63e52483a88355a3a0ac62c5","665500ab8938657b03fbdba8","66579244ec2b45982c0cd3ef","942","stimuli/2111101.jpg","0","","prediction_trial","1","","false","","2","false","false","false","false","false","false","[0,1,2]","111","101","0","","","","","","",""
"","","","","","image-keyboard-response","107","303602","0.0-82.0","63e52483a88355a3a0ac62c5","665500ab8938657b03fbdba8","66579244ec2b45982c0cd3ef","441","stimuli/21111011.jpg"," ","","feedback_trial","0","","","","","","","","","","","","","","","","","","","","",""
"","","","","","image-keyboard-response","108","304503","0.0-83.0","63e52483a88355a3a0ac62c5","665500ab8938657b03fbdba8","66579244ec2b45982c0cd3ef","899","stimuli/1011100.jpg","1","","prediction_trial","1","","true","","1","true","true","false","false","false","false","[1,2]","011","100","1","","","","","","",""
"","","","","","image-keyboard-response","109","304931","0.0-84.0","63e52483a88355a3a0ac62c5","665500ab8938657b03fbdba8","66579244ec2b45982c0cd3ef","426","stimuli/10111001.jpg"," ","","feedback_trial","1","","","","","","","","","","","","","","","","","","","","",""
"","","","","","image-keyboard-response","110","306181","0.0-85.0","63e52483a88355a3a0ac62c5","665500ab8938657b03fbdba8","66579244ec2b45982c0cd3ef","1248","stimuli/0001011.jpg","0","","prediction_trial","0","","true","","0","true","true","true","true","true","true","[0]","001","011","1","","","","","","",""
"","","","","","image-keyboard-response","111","306631","0.0-86.0","63e52483a88355a3a0ac62c5","665500ab8938657b03fbdba8","66579244ec2b45982c0cd3ef","448","stimuli/00010110.jpg"," ","","feedback_trial","0","","","","","","","","","","","","","","","","","","","","",""
"","","","","","image-keyboard-response","112","307398","0.0-87.0","63e52483a88355a3a0ac62c5","665500ab8938657b03fbdba8","66579244ec2b45982c0cd3ef","764","stimuli/1000011.jpg","2","","prediction_trial","1","","false","","1","false","false","true","true","false","false","[1]","000","011","0","","","","","","",""
"","","","","","image-keyboard-response","113","307905","0.0-88.0","63e52483a88355a3a0ac62c5","665500ab8938657b03fbdba8","66579244ec2b45982c0cd3ef","504","stimuli/10000111.jpg"," ","","feedback_trial","1","","","","","","","","","","","","","","","","","","","","",""
"","","","","","image-keyboard-response","114","308906","0.0-89.0","63e52483a88355a3a0ac62c5","665500ab8938657b03fbdba8","66579244ec2b45982c0cd3ef","999","stimuli/0001100.jpg","1","","prediction_trial","0","","false","","0","false","true","true","true","false","true","[0]","001","100","0","","","","","","",""
"","","","","","image-keyboard-response","115","309298","0.0-90.0","63e52483a88355a3a0ac62c5","665500ab8938657b03fbdba8","66579244ec2b45982c0cd3ef","389","stimuli/00011000.jpg"," ","","feedback_trial","0","","","","","","","","","","","","","","","","","","","","",""
"","","","","","image-keyboard-response","116","310900","0.0-91.0","63e52483a88355a3a0ac62c5","665500ab8938657b03fbdba8","66579244ec2b45982c0cd3ef","1599","stimuli/1110110.jpg","0","","prediction_trial","0","","true","","1","false","false","false","false","false","false","[0,1]","110","110","1","","","","","","",""
"","","","","","image-keyboard-response","117","311300","0.0-92.0","63e52483a88355a3a0ac62c5","665500ab8938657b03fbdba8","66579244ec2b45982c0cd3ef","398","stimuli/11101100.jpg"," ","","feedback_trial","0","","","","","","","","","","","","","","","","","","","","",""
"","","","","","image-keyboard-response","118","312597","0.0-93.0","63e52483a88355a3a0ac62c5","665500ab8938657b03fbdba8","66579244ec2b45982c0cd3ef","1296","stimuli/0101101.jpg","2","","prediction_trial","2","","true","","0","false","false","false","false","false","false","[0,2]","101","101","1","","","","","","",""
"","","","","","image-keyboard-response","119","313023","0.0-94.0","63e52483a88355a3a0ac62c5","665500ab8938657b03fbdba8","66579244ec2b45982c0cd3ef","422","stimuli/01011012.jpg"," ","","feedback_trial","0","","","","","","","","","","","","","","","","","","","","",""
"","","","","","image-keyboard-response","120","314226","0.0-95.0","63e52483a88355a3a0ac62c5","665500ab8938657b03fbdba8","66579244ec2b45982c0cd3ef","1202","stimuli/2000010.jpg","2","","prediction_trial","2","","true","","2","true","true","true","true","true","true","[2]","000","010","1","","","","","","",""
"","","","","","image-keyboard-response","121","314626","0.0-96.0","63e52483a88355a3a0ac62c5","665500ab8938657b03fbdba8","66579244ec2b45982c0cd3ef","398","stimuli/20000102.jpg"," ","","feedback_trial","2","","","","","","","","","","","","","","","","","","","","",""
"","","","","","image-keyboard-response","122","315923","0.0-97.0","63e52483a88355a3a0ac62c5","665500ab8938657b03fbdba8","66579244ec2b45982c0cd3ef","1295","stimuli/0101110.jpg","0","","prediction_trial","2","","false","","0","false","false","false","false","false","false","[2,0]","101","110","0","","","","","","",""
"","","","","","image-keyboard-response","123","316431","0.0-98.0","63e52483a88355a3a0ac62c5","665500ab8938657b03fbdba8","66579244ec2b45982c0cd3ef","505","stimuli/01011102.jpg"," ","","feedback_trial","2","","","","","","","","","","","","","","","","","","","","",""
"","","","","","image-keyboard-response","124","317808","0.0-99.0","63e52483a88355a3a0ac62c5","665500ab8938657b03fbdba8","66579244ec2b45982c0cd3ef","1374","stimuli/1001001.jpg","1","","prediction_trial","1","","true","","1","true","true","true","true","true","true","[1]","001","001","1","","","","","","",""
"","","","","","image-keyboard-response","125","318241","0.0-100.0","63e52483a88355a3a0ac62c5","665500ab8938657b03fbdba8","66579244ec2b45982c0cd3ef","430","stimuli/10010011.jpg"," ","","feedback_trial","1","","","","","","","","","","","","","","","","","","","","",""
"","","","","","image-keyboard-response","126","319238","0.0-101.0","63e52483a88355a3a0ac62c5","665500ab8938657b03fbdba8","66579244ec2b45982c0cd3ef","994","stimuli/1011011.jpg","2","","prediction_trial","1","","false","","1","false","false","false","false","false","false","[1,2]","011","011","0","","","","","","",""
"","","","","","image-keyboard-response","127","319671","0.0-102.0","63e52483a88355a3a0ac62c5","665500ab8938657b03fbdba8","66579244ec2b45982c0cd3ef","430","stimuli/10110111.jpg"," ","","feedback_trial","1","","","","","","","","","","","","","","","","","","","","",""
"","","","","","image-keyboard-response","128","320920","0.0-103.0","63e52483a88355a3a0ac62c5","665500ab8938657b03fbdba8","66579244ec2b45982c0cd3ef","1247","stimuli/0100000.jpg","0","","prediction_trial","0","","true","","0","true","true","false","true","false","true","[0]","100","000","1","","","","","","",""
"","","","","","image-keyboard-response","129","321362","0.0-104.0","63e52483a88355a3a0ac62c5","665500ab8938657b03fbdba8","66579244ec2b45982c0cd3ef","439","stimuli/01000000.jpg"," ","","feedback_trial","0","","","","","","","","","","","","","","","","","","","","",""
"","","","","","image-keyboard-response","130","322576","0.0-105.0","63e52483a88355a3a0ac62c5","665500ab8938657b03fbdba8","66579244ec2b45982c0cd3ef","1213","stimuli/0010001.jpg","0","","prediction_trial","0","","true","","0","true","true","true","true","true","true","[0]","010","001","1","","","","","","",""
"","","","","","image-keyboard-response","131","323027","0.0-106.0","63e52483a88355a3a0ac62c5","665500ab8938657b03fbdba8","66579244ec2b45982c0cd3ef","448","stimuli/00100010.jpg"," ","","feedback_trial","0","","","","","","","","","","","","","","","","","","","","",""
"","","","","","image-keyboard-response","132","324176","0.0-107.0","63e52483a88355a3a0ac62c5","665500ab8938657b03fbdba8","66579244ec2b45982c0cd3ef","1148","stimuli/1001101.jpg","1","","prediction_trial","1","","true","","1","true","true","true","true","true","true","[1]","001","101","1","","","","","","",""
"","","","","","image-keyboard-response","133","324593","0.0-108.0","63e52483a88355a3a0ac62c5","665500ab8938657b03fbdba8","66579244ec2b45982c0cd3ef","416","stimuli/10011011.jpg"," ","","feedback_trial","1","","","","","","","","","","","","","","","","","","","","",""
"","","","","","image-keyboard-response","134","326408","0.0-109.0","63e52483a88355a3a0ac62c5","665500ab8938657b03fbdba8","66579244ec2b45982c0cd3ef","1811","stimuli/0110111.jpg","2","","prediction_trial","0","","false","","0","false","false","false","false","false","false","[1,0]","110","111","0","","","","","","",""
"","","","","","image-keyboard-response","135","326768","0.0-110.0","63e52483a88355a3a0ac62c5","665500ab8938657b03fbdba8","66579244ec2b45982c0cd3ef","357","stimuli/01101110.jpg"," ","","feedback_trial","1","","","","","","","","","","","","","","","","","","","","",""
"","","","","","image-keyboard-response","136","329193","0.0-111.0","63e52483a88355a3a0ac62c5","665500ab8938657b03fbdba8","66579244ec2b45982c0cd3ef","2422","stimuli/1111011.jpg","0","","prediction_trial","0","","true","","1","false","false","false","false","false","false","[1,0,2]","111","011","1","","","","","","",""
"","","","","","image-keyboard-response","137","329623","0.0-112.0","63e52483a88355a3a0ac62c5","665500ab8938657b03fbdba8","66579244ec2b45982c0cd3ef","428","stimuli/11110110.jpg"," ","","feedback_trial","1","","","","","","","","","","","","","","","","","","","","",""
"","","","","","image-keyboard-response","138","332611","0.0-113.0","63e52483a88355a3a0ac62c5","665500ab8938657b03fbdba8","66579244ec2b45982c0cd3ef","2987","stimuli/0011101.jpg","2","","prediction_trial","0","","false","","0","false","false","true","true","false","false","[0]","011","101","0","","","","","","",""
"","","","","","image-keyboard-response","139","332985","0.0-114.0","63e52483a88355a3a0ac62c5","665500ab8938657b03fbdba8","66579244ec2b45982c0cd3ef","370","stimuli/00111010.jpg"," ","","feedback_trial","0","","","","","","","","","","","","","","","","","","","","",""
"","","","","","image-keyboard-response","140","334577","0.0-115.0","63e52483a88355a3a0ac62c5","665500ab8938657b03fbdba8","66579244ec2b45982c0cd3ef","1589","stimuli/1000001.jpg","1","","prediction_trial","1","","true","","1","true","true","true","true","true","true","[1]","000","001","1","","","","","","",""
"","","","","","image-keyboard-response","141","334925","0.0-116.0","63e52483a88355a3a0ac62c5","665500ab8938657b03fbdba8","66579244ec2b45982c0cd3ef","346","stimuli/10000011.jpg"," ","","feedback_trial","1","","","","","","","","","","","","","","","","","","","","",""
"","","","","","image-keyboard-response","142","335969","0.0-117.0","63e52483a88355a3a0ac62c5","665500ab8938657b03fbdba8","66579244ec2b45982c0cd3ef","1042","stimuli/2110100.jpg","2","","prediction_trial","2","","true","","2","true","true","true","true","true","true","[2]","110","100","1","","","","","","",""
"","","","","","image-keyboard-response","143","336369","0.0-118.0","63e52483a88355a3a0ac62c5","665500ab8938657b03fbdba8","66579244ec2b45982c0cd3ef","397","stimuli/21101002.jpg"," ","","feedback_trial","2","","","","","","","","","","","","","","","","","","","","",""
"","","","","","image-keyboard-response","144","337632","0.0-119.0","63e52483a88355a3a0ac62c5","665500ab8938657b03fbdba8","66579244ec2b45982c0cd3ef","1261","stimuli/1011000.jpg","1","","prediction_trial","2","","false","","1","true","true","false","false","false","false","[2,1]","011","000","0","","","","","","",""
"","","","","","image-keyboard-response","145","337929","0.0-120.0","63e52483a88355a3a0ac62c5","665500ab8938657b03fbdba8","66579244ec2b45982c0cd3ef","294","stimuli/10110002.jpg"," ","","feedback_trial","2","","","","","","","","","","","","","","","","","","","","",""
"","","","","","image-keyboard-response","146","338910","0.0-121.0","63e52483a88355a3a0ac62c5","665500ab8938657b03fbdba8","66579244ec2b45982c0cd3ef","979","stimuli/1000111.jpg","0","","prediction_trial","1","","false","","1","false","false","true","true","false","false","[1]","000","111","0","","","","","","",""
"","","","","","image-keyboard-response","147","339201","0.0-122.0","63e52483a88355a3a0ac62c5","665500ab8938657b03fbdba8","66579244ec2b45982c0cd3ef","289","stimuli/10001111.jpg"," ","","feedback_trial","1","","","","","","","","","","","","","","","","","","","","",""
"","","","","","image-keyboard-response","148","340213","0.0-123.0","63e52483a88355a3a0ac62c5","665500ab8938657b03fbdba8","66579244ec2b45982c0cd3ef","1009","stimuli/1000110.jpg","2","","prediction_trial","1","","false","","1","false","false","true","true","false","false","[1]","000","110","0","","","","","","",""
"","","","","","image-keyboard-response","149","341787","0.0-124.0","63e52483a88355a3a0ac62c5","665500ab8938657b03fbdba8","66579244ec2b45982c0cd3ef","1571","stimuli/10001101.jpg"," ","","feedback_trial","1","","","","","","","","","","","","","","","","","","","","",""
"","","","","","image-keyboard-response","150","344020","0.0-125.0","63e52483a88355a3a0ac62c5","665500ab8938657b03fbdba8","66579244ec2b45982c0cd3ef","2229","stimuli/2011101.jpg","2","","prediction_trial","1","","false","","2","false","false","false","false","false","false","[1,2]","011","101","0","","","","","","",""
"","","","","","image-keyboard-response","151","344357","0.0-126.0","63e52483a88355a3a0ac62c5","665500ab8938657b03fbdba8","66579244ec2b45982c0cd3ef","335","stimuli/20111011.jpg"," ","","feedback_trial","1","","","","","","","","","","","","","","","","","","","","",""
"","","","","","image-keyboard-response","152","346271","0.0-127.0","63e52483a88355a3a0ac62c5","665500ab8938657b03fbdba8","66579244ec2b45982c0cd3ef","1913","stimuli/2101111.jpg","1","","prediction_trial","2","","false","","2","false","false","false","false","false","false","[0,2]","101","111","0","","","","","","",""
"","","","","","image-keyboard-response","153","346567","0.0-128.0","63e52483a88355a3a0ac62c5","665500ab8938657b03fbdba8","66579244ec2b45982c0cd3ef","293","stimuli/21011112.jpg"," ","","feedback_trial","0","","","","","","","","","","","","","","","","","","","","",""
"","","","","","image-keyboard-response","154","348183","0.0-129.0","63e52483a88355a3a0ac62c5","665500ab8938657b03fbdba8","66579244ec2b45982c0cd3ef","1613","stimuli/1011111.jpg","2","","prediction_trial","1","","false","","1","false","false","false","false","false","false","[1,2]","011","111","0","","","","","","",""
"","","","","","image-keyboard-response","155","348952","0.0-130.0","63e52483a88355a3a0ac62c5","665500ab8938657b03fbdba8","66579244ec2b45982c0cd3ef","766","stimuli/10111111.jpg"," ","","feedback_trial","1","","","","","","","","","","","","","","","","","","","","",""
"","","","","","image-keyboard-response","156","350426","0.0-131.0","63e52483a88355a3a0ac62c5","665500ab8938657b03fbdba8","66579244ec2b45982c0cd3ef","1471","stimuli/0100011.jpg","0","","prediction_trial","0","","true","","0","true","true","false","true","false","true","[0]","100","011","1","","","","","","",""
"","","","","","image-keyboard-response","157","350905","0.0-132.0","63e52483a88355a3a0ac62c5","665500ab8938657b03fbdba8","66579244ec2b45982c0cd3ef","476","stimuli/01000110.jpg"," ","","feedback_trial","0","","","","","","","","","","","","","","","","","","","","",""
"","","","","","image-keyboard-response","158","352707","0.0-133.0","63e52483a88355a3a0ac62c5","665500ab8938657b03fbdba8","66579244ec2b45982c0cd3ef","1800","stimuli/2101101.jpg","2","","prediction_trial","0","","false","","2","false","false","false","false","false","false","[0,2]","101","101","0","","","","","","",""
"","","","","","image-keyboard-response","159","353952","0.0-134.0","63e52483a88355a3a0ac62c5","665500ab8938657b03fbdba8","66579244ec2b45982c0cd3ef","1242","stimuli/21011010.jpg"," ","","feedback_trial","0","","","","","","","","","","","","","","","","","","","","",""
"","","","","","image-keyboard-response","160","356391","0.0-135.0","63e52483a88355a3a0ac62c5","665500ab8938657b03fbdba8","66579244ec2b45982c0cd3ef","2439","stimuli/2101110.jpg","0","","prediction_trial","2","","false","","2","true","true","false","false","false","false","[2,0]","101","110","0","","","","","","",""
"","","","","","image-keyboard-response","161","357158","0.0-136.0","63e52483a88355a3a0ac62c5","665500ab8938657b03fbdba8","66579244ec2b45982c0cd3ef","765","stimuli/21011102.jpg"," ","","feedback_trial","2","","","","","","","","","","","","","","","","","","","","",""
"","","","","","image-keyboard-response","162","358476","0.0-137.0","63e52483a88355a3a0ac62c5","665500ab8938657b03fbdba8","66579244ec2b45982c0cd3ef","1308","stimuli/0001111.jpg","2","","prediction_trial","0","","false","","0","false","false","true","true","false","false","[0]","001","111","0","","","","","","",""
"","","","","","image-keyboard-response","163","360534","0.0-138.0","63e52483a88355a3a0ac62c5","665500ab8938657b03fbdba8","66579244ec2b45982c0cd3ef","2056","stimuli/00011110.jpg"," ","","feedback_trial","0","","","","","","","","","","","","","","","","","","","","",""
"","","","","","image-keyboard-response","164","362164","0.0-139.0","63e52483a88355a3a0ac62c5","665500ab8938657b03fbdba8","66579244ec2b45982c0cd3ef","1629","stimuli/0010000.jpg","0","","prediction_trial","0","","true","","0","true","true","true","true","true","true","[0]","010","000","1","","","","","","",""
"","","","","","image-keyboard-response","165","362740","0.0-140.0","63e52483a88355a3a0ac62c5","665500ab8938657b03fbdba8","66579244ec2b45982c0cd3ef","575","stimuli/00100000.jpg"," ","","feedback_trial","0","","","","","","","","","","","","","","","","","","","","",""
"","","","","","image-keyboard-response","166","365037","0.0-141.0","63e52483a88355a3a0ac62c5","665500ab8938657b03fbdba8","66579244ec2b45982c0cd3ef","2296","stimuli/1011010.jpg","1","","prediction_trial","2","","false","","1","false","true","false","false","false","false","[1,2]","011","010","0","","","","","","",""
"","","","","","image-keyboard-response","167","365352","0.0-142.0","63e52483a88355a3a0ac62c5","665500ab8938657b03fbdba8","66579244ec2b45982c0cd3ef","314","stimuli/10110102.jpg"," ","","feedback_trial","1","","","","","","","","","","","","","","","","","","","","",""
"","","","","","image-keyboard-response","168","366879","0.0-143.0","63e52483a88355a3a0ac62c5","665500ab8938657b03fbdba8","66579244ec2b45982c0cd3ef","1526","stimuli/2001100.jpg","2","","prediction_trial","2","","true","","2","true","true","false","true","false","true","[2]","001","100","1","","","","","","",""
"","","","","","image-keyboard-response","169","367325","0.0-144.0","63e52483a88355a3a0ac62c5","665500ab8938657b03fbdba8","66579244ec2b45982c0cd3ef","445","stimuli/20011002.jpg"," ","","feedback_trial","2","","","","","","","","","","","","","","","","","","","","",""
"","","","","","image-keyboard-response","170","369027","0.0-145.0","63e52483a88355a3a0ac62c5","665500ab8938657b03fbdba8","66579244ec2b45982c0cd3ef","1701","stimuli/1101101.jpg","1","","prediction_trial","1","","true","","1","true","true","true","true","true","true","[1]","101","101","1","","","","","","",""
"","","","","","image-keyboard-response","171","369336","0.0-146.0","63e52483a88355a3a0ac62c5","665500ab8938657b03fbdba8","66579244ec2b45982c0cd3ef","307","stimuli/11011011.jpg"," ","","feedback_trial","1","","","","","","","","","","","","","","","","","","","","",""
"","","","","","image-keyboard-response","172","371466","0.0-147.0","63e52483a88355a3a0ac62c5","665500ab8938657b03fbdba8","66579244ec2b45982c0cd3ef","2128","stimuli/2111001.jpg","2","","prediction_trial","2","","true","","2","false","true","false","false","false","false","[0,2,1]","111","001","1","","","","","","",""
"","","","","","image-keyboard-response","173","372378","0.0-148.0","63e52483a88355a3a0ac62c5","665500ab8938657b03fbdba8","66579244ec2b45982c0cd3ef","910","stimuli/21110012.jpg"," ","","feedback_trial","0","","","","","","","","","","","","","","","","","","","","",""
"","","","","","image-keyboard-response","174","373397","0.0-149.0","63e52483a88355a3a0ac62c5","665500ab8938657b03fbdba8","66579244ec2b45982c0cd3ef","1017","stimuli/0111111.jpg","0","","prediction_trial","0","","true","","0","false","false","false","false","false","false","[0,2,1]","111","111","1","","","","","","",""
"","","","","","image-keyboard-response","175","374469","0.0-150.0","63e52483a88355a3a0ac62c5","665500ab8938657b03fbdba8","66579244ec2b45982c0cd3ef","1070","stimuli/01111110.jpg"," ","","feedback_trial","0","","","","","","","","","","","","","","","","","","","","",""
"","","","","","image-keyboard-response","176","375509","0.0-151.0","63e52483a88355a3a0ac62c5","665500ab8938657b03fbdba8","66579244ec2b45982c0cd3ef","1038","stimuli/2100000.jpg","2","","prediction_trial","2","","true","","2","true","true","true","true","true","true","[2]","100","000","1","","","","","","",""
"","","","","","image-keyboard-response","177","378051","0.0-152.0","63e52483a88355a3a0ac62c5","665500ab8938657b03fbdba8","66579244ec2b45982c0cd3ef","2539","stimuli/21000002.jpg"," ","","feedback_trial","2","","","","","","","","","","","","","","","","","","","","",""
"","","","","","image-keyboard-response","178","379534","0.0-153.0","63e52483a88355a3a0ac62c5","665500ab8938657b03fbdba8","66579244ec2b45982c0cd3ef","1481","stimuli/1110001.jpg","1","","prediction_trial","0","","false","","1","true","true","false","false","false","false","[1,0]","110","001","0","","","","","","",""
"","","","","","image-keyboard-response","179","384595","0.0-154.0","63e52483a88355a3a0ac62c5","665500ab8938657b03fbdba8","66579244ec2b45982c0cd3ef","5060","stimuli/11100010.jpg"," ","","feedback_trial","1","","","","","","","","","","","","","","","","","","","","",""
"","","","","","image-keyboard-response","180","386065","0.0-155.0","63e52483a88355a3a0ac62c5","665500ab8938657b03fbdba8","66579244ec2b45982c0cd3ef","1469","stimuli/0001010.jpg","0","","prediction_trial","0","","true","","0","true","true","true","true","true","true","[0]","001","010","1","","","","","","",""
"","","","","","image-keyboard-response","181","387810","0.0-156.0","63e52483a88355a3a0ac62c5","665500ab8938657b03fbdba8","66579244ec2b45982c0cd3ef","1743","stimuli/00010100.jpg"," ","","feedback_trial","0","","","","","","","","","","","","","","","","","","","","",""
"","","","","","image-keyboard-response","182","388785","0.0-157.0","63e52483a88355a3a0ac62c5","665500ab8938657b03fbdba8","66579244ec2b45982c0cd3ef","973","stimuli/0111011.jpg","0","","prediction_trial","1","","false","","0","true","true","false","false","false","false","[1,0,2]","111","011","0","","","","","","",""
"","","","","","image-keyboard-response","183","390340","0.0-158.0","63e52483a88355a3a0ac62c5","665500ab8938657b03fbdba8","66579244ec2b45982c0cd3ef","1553","stimuli/01110111.jpg"," ","","feedback_trial","1","","","","","","","","","","","","","","","","","","","","",""
"","","","","","image-keyboard-response","184","391022","0.0-159.0","63e52483a88355a3a0ac62c5","665500ab8938657b03fbdba8","66579244ec2b45982c0cd3ef","679","stimuli/0111000.jpg","2","","prediction_trial","2","","true","","0","true","true","false","false","false","false","[2,1,0]","111","000","1","","","","","","",""
"","","","","","image-keyboard-response","185","392506","0.0-160.0","63e52483a88355a3a0ac62c5","665500ab8938657b03fbdba8","66579244ec2b45982c0cd3ef","1482","stimuli/01110002.jpg"," ","","feedback_trial","2","","","","","","","","","","","","","","","","","","","","",""
"","","","","","image-keyboard-response","186","393214","0.0-161.0","63e52483a88355a3a0ac62c5","665500ab8938657b03fbdba8","66579244ec2b45982c0cd3ef","707","stimuli/2100111.jpg","0","","prediction_trial","2","","false","","2","false","false","true","true","false","false","[2]","100","111","0","","","","","","",""
"","","","","","image-keyboard-response","187","394112","0.0-162.0","63e52483a88355a3a0ac62c5","665500ab8938657b03fbdba8","66579244ec2b45982c0cd3ef","896","stimuli/21001112.jpg"," ","","feedback_trial","2","","","","","","","","","","","","","","","","","","","","",""
"","","","","","image-keyboard-response","188","395204","0.0-163.0","63e52483a88355a3a0ac62c5","665500ab8938657b03fbdba8","66579244ec2b45982c0cd3ef","1091","stimuli/0011100.jpg","0","","prediction_trial","0","","true","","0","false","true","true","true","false","true","[0]","011","100","1","","","","","","",""
"","","","","","image-keyboard-response","189","395752","0.0-164.0","63e52483a88355a3a0ac62c5","665500ab8938657b03fbdba8","66579244ec2b45982c0cd3ef","546","stimuli/00111000.jpg"," ","","feedback_trial","0","","","","","","","","","","","","","","","","","","","","",""
"","","","","","image-keyboard-response","190","397094","0.0-165.0","63e52483a88355a3a0ac62c5","665500ab8938657b03fbdba8","66579244ec2b45982c0cd3ef","1340","stimuli/2100011.jpg","2","","prediction_trial","2","","true","","2","false","false","true","true","false","false","[2]","100","011","1","","","","","","",""
"","","","","","image-keyboard-response","191","397540","0.0-166.0","63e52483a88355a3a0ac62c5","665500ab8938657b03fbdba8","66579244ec2b45982c0cd3ef","444","stimuli/21000112.jpg"," ","","feedback_trial","2","","","","","","","","","","","","","","","","","","","","",""
"","","","","","image-keyboard-response","192","399554","0.0-167.0","63e52483a88355a3a0ac62c5","665500ab8938657b03fbdba8","66579244ec2b45982c0cd3ef","2013","stimuli/2000000.jpg","2","","prediction_trial","2","","true","","2","true","true","true","true","true","true","[2]","000","000","1","","","","","","",""
"","","","","","image-keyboard-response","193","400944","0.0-168.0","63e52483a88355a3a0ac62c5","665500ab8938657b03fbdba8","66579244ec2b45982c0cd3ef","1387","stimuli/20000002.jpg"," ","","feedback_trial","2","","","","","","","","","","","","","","","","","","","","",""
"","","","","","image-keyboard-response","194","402675","0.0-169.0","63e52483a88355a3a0ac62c5","665500ab8938657b03fbdba8","66579244ec2b45982c0cd3ef","1729","stimuli/0000101.jpg","2","","prediction_trial","0","","false","","0","false","false","true","true","false","false","[0]","000","101","0","","","","","","",""
"","","","","","image-keyboard-response","195","403354","0.0-170.0","63e52483a88355a3a0ac62c5","665500ab8938657b03fbdba8","66579244ec2b45982c0cd3ef","678","stimuli/00001010.jpg"," ","","feedback_trial","0","","","","","","","","","","","","","","","","","","","","",""
"","","","","","image-keyboard-response","196","404940","0.0-171.0","63e52483a88355a3a0ac62c5","665500ab8938657b03fbdba8","66579244ec2b45982c0cd3ef","1584","stimuli/0110100.jpg","0","","prediction_trial","0","","true","","0","false","true","false","false","false","false","[1,0]","110","100","1","","","","","","",""
"","","","","","image-keyboard-response","197","406025","0.0-172.0","63e52483a88355a3a0ac62c5","665500ab8938657b03fbdba8","66579244ec2b45982c0cd3ef","1083","stimuli/01101000.jpg"," ","","feedback_trial","1","","","","","","","","","","","","","","","","","","","","",""
"","","","","","image-keyboard-response","198","407087","0.0-173.0","63e52483a88355a3a0ac62c5","665500ab8938657b03fbdba8","66579244ec2b45982c0cd3ef","1060","stimuli/2110110.jpg","2","","prediction_trial","2","","true","","2","true","true","true","true","true","true","[2]","110","110","1","","","","","","",""
"","","","","","image-keyboard-response","199","407773","0.0-174.0","63e52483a88355a3a0ac62c5","665500ab8938657b03fbdba8","66579244ec2b45982c0cd3ef","683","stimuli/21101102.jpg"," ","","feedback_trial","2","","","","","","","","","","","","","","","","","","","","",""
"","","","","","image-keyboard-response","200","408985","0.0-175.0","63e52483a88355a3a0ac62c5","665500ab8938657b03fbdba8","66579244ec2b45982c0cd3ef","1210","stimuli/1111101.jpg","1","","prediction_trial","0","","false","","1","true","true","false","false","false","false","[0,1,2]","111","101","0","","","","","","",""
"","","","","","image-keyboard-response","201","409503","0.0-176.0","63e52483a88355a3a0ac62c5","665500ab8938657b03fbdba8","66579244ec2b45982c0cd3ef","516","stimuli/11111010.jpg"," ","","feedback_trial","0","","","","","","","","","","","","","","","","","","","","",""
"","","","","","image-keyboard-response","202","411972","0.0-177.0","63e52483a88355a3a0ac62c5","665500ab8938657b03fbdba8","66579244ec2b45982c0cd3ef","2468","stimuli/2001001.jpg","2","","prediction_trial","2","","true","","2","false","true","false","true","false","true","[2]","001","001","1","","","","","","",""
"","","","","","image-keyboard-response","203","413392","0.0-178.0","63e52483a88355a3a0ac62c5","665500ab8938657b03fbdba8","66579244ec2b45982c0cd3ef","1419","stimuli/20010012.jpg"," ","","feedback_trial","2","","","","","","","","","","","","","","","","","","","","",""
"","","","","","image-keyboard-response","204","415057","0.0-179.0","63e52483a88355a3a0ac62c5","665500ab8938657b03fbdba8","66579244ec2b45982c0cd3ef","1662","stimuli/2111111.jpg","0","","prediction_trial","0","","true","","2","false","false","false","false","false","false","[0,1,2]","111","111","1","","","","","","",""
"","","","","","image-keyboard-response","205","415779","0.0-180.0","63e52483a88355a3a0ac62c5","665500ab8938657b03fbdba8","66579244ec2b45982c0cd3ef","719","stimuli/21111110.jpg"," ","","feedback_trial","0","","","","","","","","","","","","","","","","","","","","",""
"","","","","","image-keyboard-response","206","416914","0.0-181.0","63e52483a88355a3a0ac62c5","665500ab8938657b03fbdba8","66579244ec2b45982c0cd3ef","1134","stimuli/0011001.jpg","0","","prediction_trial","0","","true","","0","true","true","true","true","true","true","[0]","011","001","1","","","","","","",""
"","","","","","image-keyboard-response","207","417398","0.0-182.0","63e52483a88355a3a0ac62c5","665500ab8938657b03fbdba8","66579244ec2b45982c0cd3ef","482","stimuli/00110010.jpg"," ","","feedback_trial","0","","","","","","","","","","","","","","","","","","","","",""
"","","","","","image-keyboard-response","208","419790","0.0-183.0","63e52483a88355a3a0ac62c5","665500ab8938657b03fbdba8","66579244ec2b45982c0cd3ef","2393","stimuli/1100010.jpg","1","","prediction_trial","1","","true","","1","false","true","true","true","false","true","[1]","100","010","1","","","","","","",""
"","","","","","image-keyboard-response","209","420581","0.0-184.0","63e52483a88355a3a0ac62c5","665500ab8938657b03fbdba8","66579244ec2b45982c0cd3ef","790","stimuli/11000101.jpg"," ","","feedback_trial","1","","","","","","","","","","","","","","","","","","","","",""
"","","","","","image-keyboard-response","210","421725","0.0-185.0","63e52483a88355a3a0ac62c5","665500ab8938657b03fbdba8","66579244ec2b45982c0cd3ef","1143","stimuli/2011011.jpg","2","","prediction_trial","1","","false","","2","false","false","false","false","false","false","[1,2]","011","011","0","","","","","","",""
"","","","","","image-keyboard-response","211","422629","0.0-186.0","63e52483a88355a3a0ac62c5","665500ab8938657b03fbdba8","66579244ec2b45982c0cd3ef","901","stimuli/20110111.jpg"," ","","feedback_trial","1","","","","","","","","","","","","","","","","","","","","",""
"","","","","","image-keyboard-response","212","424673","0.0-187.0","63e52483a88355a3a0ac62c5","665500ab8938657b03fbdba8","66579244ec2b45982c0cd3ef","2043","stimuli/1001010.jpg","1","","prediction_trial","1","","true","","1","false","true","true","true","false","true","[1]","001","010","1","","","","","","",""
"","","","","","image-keyboard-response","213","425984","0.0-188.0","63e52483a88355a3a0ac62c5","665500ab8938657b03fbdba8","66579244ec2b45982c0cd3ef","1309","stimuli/10010101.jpg"," ","","feedback_trial","1","","","","","","","","","","","","","","","","","","","","",""
"","","","","","image-keyboard-response","214","427895","0.0-189.0","63e52483a88355a3a0ac62c5","665500ab8938657b03fbdba8","66579244ec2b45982c0cd3ef","1909","stimuli/0010110.jpg","1","","prediction_trial","0","","false","","0","false","false","true","true","false","false","[0]","010","110","0","","","","","","",""
"","","","","","image-keyboard-response","215","428271","0.0-190.0","63e52483a88355a3a0ac62c5","665500ab8938657b03fbdba8","66579244ec2b45982c0cd3ef","375","stimuli/00101100.jpg"," ","","feedback_trial","0","","","","","","","","","","","","","","","","","","","","",""
"","","","","","image-keyboard-response","216","431119","0.0-191.0","63e52483a88355a3a0ac62c5","665500ab8938657b03fbdba8","66579244ec2b45982c0cd3ef","2846","stimuli/0010010.jpg","0","","prediction_trial","0","","true","","0","true","true","true","true","true","true","[0]","010","010","1","","","","","","",""
"","","","","","image-keyboard-response","217","431562","0.0-192.0","63e52483a88355a3a0ac62c5","665500ab8938657b03fbdba8","66579244ec2b45982c0cd3ef","442","stimuli/00100100.jpg"," ","","feedback_trial","0","","","","","","","","","","","","","","","","","","","","",""
"","","","","","image-keyboard-response","218","433083","0.0-193.0","63e52483a88355a3a0ac62c5","665500ab8938657b03fbdba8","66579244ec2b45982c0cd3ef","1519","stimuli/1001011.jpg","1","","prediction_trial","1","","true","","1","false","false","true","true","false","false","[1]","001","011","1","","","","","","",""
"","","","","","image-keyboard-response","219","434198","0.0-194.0","63e52483a88355a3a0ac62c5","665500ab8938657b03fbdba8","66579244ec2b45982c0cd3ef","1113","stimuli/10010111.jpg"," ","","feedback_trial","1","","","","","","","","","","","","","","","","","","","","",""
"","","","","","image-keyboard-response","220","435732","0.0-195.0","63e52483a88355a3a0ac62c5","665500ab8938657b03fbdba8","66579244ec2b45982c0cd3ef","1532","stimuli/2000011.jpg","2","","prediction_trial","2","","true","","2","false","false","true","true","false","false","[2]","000","011","1","","","","","","",""
"","","","","","image-keyboard-response","221","440641","0.0-196.0","63e52483a88355a3a0ac62c5","665500ab8938657b03fbdba8","66579244ec2b45982c0cd3ef","4907","stimuli/20000112.jpg"," ","","feedback_trial","2","","","","","","","","","","","","","","","","","","","","",""
"","","","","","image-keyboard-response","222","442550","0.0-197.0","63e52483a88355a3a0ac62c5","665500ab8938657b03fbdba8","66579244ec2b45982c0cd3ef","1908","stimuli/0010111.jpg","2","","prediction_trial","0","","false","","0","false","false","true","true","false","false","[0]","010","111","0","","","","","","",""
"","","","","","image-keyboard-response","223","443435","0.0-198.0","63e52483a88355a3a0ac62c5","665500ab8938657b03fbdba8","66579244ec2b45982c0cd3ef","884","stimuli/00101110.jpg"," ","","feedback_trial","0","","","","","","","","","","","","","","","","","","","","",""
"","","","","","image-keyboard-response","224","444905","0.0-199.0","63e52483a88355a3a0ac62c5","665500ab8938657b03fbdba8","66579244ec2b45982c0cd3ef","1468","stimuli/1000101.jpg","1","","prediction_trial","1","","true","","1","true","true","true","true","true","true","[1]","000","101","1","","","","","","",""
"","","","","","image-keyboard-response","225","445396","0.0-200.0","63e52483a88355a3a0ac62c5","665500ab8938657b03fbdba8","66579244ec2b45982c0cd3ef","489","stimuli/10001011.jpg"," ","","feedback_trial","1","","","","","","","","","","","","","","","","","","","","",""
"","","","","","image-keyboard-response","226","446360","0.0-201.0","63e52483a88355a3a0ac62c5","665500ab8938657b03fbdba8","66579244ec2b45982c0cd3ef","963","stimuli/2111010.jpg","1","","prediction_trial","1","","true","","2","true","true","false","false","false","false","[1,2,0]","111","010","1","","","","","","",""
"","","","","","image-keyboard-response","227","448796","0.0-202.0","63e52483a88355a3a0ac62c5","665500ab8938657b03fbdba8","66579244ec2b45982c0cd3ef","2433","stimuli/21110101.jpg"," ","","feedback_trial","1","","","","","","","","","","","","","","","","","","","","",""
"","","","","","image-keyboard-response","228","452179","0.0-203.0","63e52483a88355a3a0ac62c5","665500ab8938657b03fbdba8","66579244ec2b45982c0cd3ef","3382","stimuli/1010011.jpg","2","","prediction_trial","1","","false","","1","false","false","false","true","false","false","[1]","010","011","0","","","","","","",""
"","","","","","image-keyboard-response","229","457164","0.0-204.0","63e52483a88355a3a0ac62c5","665500ab8938657b03fbdba8","66579244ec2b45982c0cd3ef","4984","stimuli/10100111.jpg"," ","","feedback_trial","1","","","","","","","","","","","","","","","","","","","","",""
"","","","","","image-keyboard-response","230","459255","0.0-205.0","63e52483a88355a3a0ac62c5","665500ab8938657b03fbdba8","66579244ec2b45982c0cd3ef","2090","stimuli/2111000.jpg","2","","prediction_trial","0","","false","","2","true","true","false","false","false","false","[2,0,1]","111","000","0","","","","","","",""
"","","","","","image-keyboard-response","231","462837","0.0-206.0","63e52483a88355a3a0ac62c5","665500ab8938657b03fbdba8","66579244ec2b45982c0cd3ef","3581","stimuli/21110000.jpg"," ","","feedback_trial","2","","","","","","","","","","","","","","","","","","","","",""
"","","","","","image-keyboard-response","232","463952","0.0-207.0","63e52483a88355a3a0ac62c5","665500ab8938657b03fbdba8","66579244ec2b45982c0cd3ef","1113","stimuli/2101010.jpg","1","","prediction_trial","0","","false","","2","true","true","false","false","false","false","[2,0]","101","010","0","","","","","","",""
"","","","","","image-keyboard-response","233","467734","0.0-208.0","63e52483a88355a3a0ac62c5","665500ab8938657b03fbdba8","66579244ec2b45982c0cd3ef","3780","stimuli/21010100.jpg"," ","","feedback_trial","2","","","","","","","","","","","","","","","","","","","","",""
"","","","","","image-keyboard-response","234","469421","0.0-209.0","63e52483a88355a3a0ac62c5","665500ab8938657b03fbdba8","66579244ec2b45982c0cd3ef","1687","stimuli/1110000.jpg","1","","prediction_trial","1","","true","","1","true","true","false","false","false","false","[1,0]","110","000","1","","","","","","",""
"","","","","","image-keyboard-response","235","472438","0.0-210.0","63e52483a88355a3a0ac62c5","665500ab8938657b03fbdba8","66579244ec2b45982c0cd3ef","3015","stimuli/11100001.jpg"," ","","feedback_trial","1","","","","","","","","","","","","","","","","","","","","",""
"","","","","","image-keyboard-response","236","474509","0.0-211.0","63e52483a88355a3a0ac62c5","665500ab8938657b03fbdba8","66579244ec2b45982c0cd3ef","2069","stimuli/0011111.jpg","2","","prediction_trial","0","","false","","0","false","false","true","true","false","false","[0]","011","111","0","","","","","","",""
"","","","","","image-keyboard-response","237","475573","0.0-212.0","63e52483a88355a3a0ac62c5","665500ab8938657b03fbdba8","66579244ec2b45982c0cd3ef","1062","stimuli/00111110.jpg"," ","","feedback_trial","0","","","","","","","","","","","","","","","","","","","","",""
"","","","","","image-keyboard-response","238","477210","0.0-213.0","63e52483a88355a3a0ac62c5","665500ab8938657b03fbdba8","66579244ec2b45982c0cd3ef","1635","stimuli/2110000.jpg","2","","prediction_trial","2","","true","","2","true","true","true","true","true","true","[2]","110","000","1","","","","","","",""
"","","","","","image-keyboard-response","239","478755","0.0-214.0","63e52483a88355a3a0ac62c5","665500ab8938657b03fbdba8","66579244ec2b45982c0cd3ef","1545","stimuli/21100002.jpg"," ","","feedback_trial","2","","","","","","","","","","","","","","","","","","","","",""
"","","","","","image-keyboard-response","240","481181","0.0-215.0","63e52483a88355a3a0ac62c5","665500ab8938657b03fbdba8","66579244ec2b45982c0cd3ef","2424","stimuli/2101100.jpg","0","","prediction_trial","2","","false","","2","true","true","false","false","false","false","[2,0]","101","100","0","","","","","","",""
"","","","","","image-keyboard-response","241","482179","0.0-216.0","63e52483a88355a3a0ac62c5","665500ab8938657b03fbdba8","66579244ec2b45982c0cd3ef","998","stimuli/21011002.jpg"," ","","feedback_trial","2","","","","","","","","","","","","","","","","","","","","",""
"","","","","","image-keyboard-response","242","483426","0.0-217.0","63e52483a88355a3a0ac62c5","665500ab8938657b03fbdba8","66579244ec2b45982c0cd3ef","1246","stimuli/0010101.jpg","1","","prediction_trial","0","","false","","0","false","false","true","true","false","false","[0]","010","101","0","","","","","","",""
"","","","","","image-keyboard-response","243","485581","0.0-218.0","63e52483a88355a3a0ac62c5","665500ab8938657b03fbdba8","66579244ec2b45982c0cd3ef","2154","stimuli/00101010.jpg"," ","","feedback_trial","0","","","","","","","","","","","","","","","","","","","","",""
"","","","","","image-keyboard-response","244","486707","0.0-219.0","63e52483a88355a3a0ac62c5","665500ab8938657b03fbdba8","66579244ec2b45982c0cd3ef","1125","stimuli/0110101.jpg","2","","prediction_trial","0","","false","","0","false","false","false","false","false","false","[0,1]","110","101","0","","","","","","",""
"","","","","","image-keyboard-response","245","487673","0.0-220.0","63e52483a88355a3a0ac62c5","665500ab8938657b03fbdba8","66579244ec2b45982c0cd3ef","965","stimuli/01101010.jpg"," ","","feedback_trial","0","","","","","","","","","","","","","","","","","","","","",""
"","","","","","image-keyboard-response","246","489053","0.0-221.0","63e52483a88355a3a0ac62c5","665500ab8938657b03fbdba8","66579244ec2b45982c0cd3ef","1378","stimuli/1100110.jpg","2","","prediction_trial","1","","false","","1","false","false","true","true","false","false","[1]","100","110","0","","","","","","",""
"","","","","","image-keyboard-response","247","490832","0.0-222.0","63e52483a88355a3a0ac62c5","665500ab8938657b03fbdba8","66579244ec2b45982c0cd3ef","1777","stimuli/11001101.jpg"," ","","feedback_trial","1","","","","","","","","","","","","","","","","","","","","",""
"","","","","","image-keyboard-response","248","494480","0.0-223.0","63e52483a88355a3a0ac62c5","665500ab8938657b03fbdba8","66579244ec2b45982c0cd3ef","3647","stimuli/1001111.jpg","0","","prediction_trial","1","","false","","1","false","false","true","true","false","false","[1]","001","111","0","","","","","","",""
"","","","","","image-keyboard-response","249","495189","0.0-224.0","63e52483a88355a3a0ac62c5","665500ab8938657b03fbdba8","66579244ec2b45982c0cd3ef","707","stimuli/10011111.jpg"," ","","feedback_trial","1","","","","","","","","","","","","","","","","","","","","",""
"","","","","","image-keyboard-response","250","497297","0.0-225.0","63e52483a88355a3a0ac62c5","665500ab8938657b03fbdba8","66579244ec2b45982c0cd3ef","2107","stimuli/0000011.jpg","0","","prediction_trial","0","","true","","0","true","true","true","true","true","true","[0]","000","011","1","","","","","","",""
"","","","","","image-keyboard-response","251","498032","0.0-226.0","63e52483a88355a3a0ac62c5","665500ab8938657b03fbdba8","66579244ec2b45982c0cd3ef","733","stimuli/00000110.jpg"," ","","feedback_trial","0","","","","","","","","","","","","","","","","","","","","",""
"","","","","","image-keyboard-response","252","499500","0.0-227.0","63e52483a88355a3a0ac62c5","665500ab8938657b03fbdba8","66579244ec2b45982c0cd3ef","1466","stimuli/2111100.jpg","2","","prediction_trial","2","","true","","2","true","true","false","false","false","false","[0,1,2]","111","100","1","","","","","","",""
"","","","","","image-keyboard-response","253","499943","0.0-228.0","63e52483a88355a3a0ac62c5","665500ab8938657b03fbdba8","66579244ec2b45982c0cd3ef","441","stimuli/21111002.jpg"," ","","feedback_trial","0","","","","","","","","","","","","","","","","","","","","",""
"","","","","","image-keyboard-response","254","502547","0.0-229.0","63e52483a88355a3a0ac62c5","665500ab8938657b03fbdba8","66579244ec2b45982c0cd3ef","2604","stimuli/2001011.jpg","1","","prediction_trial","2","","false","","2","false","false","false","true","false","false","[2]","001","011","0","","","","","","",""
"","","","","","image-keyboard-response","255","505265","0.0-230.0","63e52483a88355a3a0ac62c5","665500ab8938657b03fbdba8","66579244ec2b45982c0cd3ef","2716","stimuli/20010112.jpg"," ","","feedback_trial","2","","","","","","","","","","","","","","","","","","","","",""
"","","","","","image-keyboard-response","256","506432","0.0-231.0","63e52483a88355a3a0ac62c5","665500ab8938657b03fbdba8","66579244ec2b45982c0cd3ef","1165","stimuli/2101000.jpg","2","","prediction_trial","0","","false","","2","true","true","false","false","false","false","[0,2]","101","000","0","","","","","","",""
"","","","","","image-keyboard-response","257","507462","0.0-232.0","63e52483a88355a3a0ac62c5","665500ab8938657b03fbdba8","66579244ec2b45982c0cd3ef","1028","stimuli/21010000.jpg"," ","","feedback_trial","0","","","","","","","","","","","","","","","","","","","","",""
"","","","","","image-keyboard-response","258","509336","0.0-233.0","63e52483a88355a3a0ac62c5","665500ab8938657b03fbdba8","66579244ec2b45982c0cd3ef","1872","stimuli/1111001.jpg","1","","prediction_trial","0","","false","","1","true","true","false","false","false","false","[2,0,1]","111","001","0","","","","","","",""
"","","","","","image-keyboard-response","259","509811","0.0-234.0","63e52483a88355a3a0ac62c5","665500ab8938657b03fbdba8","66579244ec2b45982c0cd3ef","473","stimuli/11110010.jpg"," ","","feedback_trial","2","","","","","","","","","","","","","","","","","","","","",""
"","","","","","image-keyboard-response","260","511726","0.0-235.0","63e52483a88355a3a0ac62c5","665500ab8938657b03fbdba8","66579244ec2b45982c0cd3ef","1914","stimuli/1001110.jpg","0","","prediction_trial","1","","false","","1","false","false","true","true","false","false","[1]","001","110","0","","","","","","",""
"","","","","","image-keyboard-response","261","514323","0.0-236.0","63e52483a88355a3a0ac62c5","665500ab8938657b03fbdba8","66579244ec2b45982c0cd3ef","2594","stimuli/10011101.jpg"," ","","feedback_trial","1","","","","","","","","","","","","","","","","","","","","",""
"","","","","","image-keyboard-response","262","517001","0.0-237.0","63e52483a88355a3a0ac62c5","665500ab8938657b03fbdba8","66579244ec2b45982c0cd3ef","2676","stimuli/1101010.jpg","1","","prediction_trial","1","","true","","1","false","true","true","true","false","true","[1]","101","010","1","","","","","","",""
"","","","","","image-keyboard-response","263","517392","0.0-238.0","63e52483a88355a3a0ac62c5","665500ab8938657b03fbdba8","66579244ec2b45982c0cd3ef","389","stimuli/11010101.jpg"," ","","feedback_trial","1","","","","","","","","","","","","","","","","","","","","",""
"","","","","","image-keyboard-response","264","518749","0.0-239.0","63e52483a88355a3a0ac62c5","665500ab8938657b03fbdba8","66579244ec2b45982c0cd3ef","1356","stimuli/1101100.jpg","1","","prediction_trial","1","","true","","1","true","true","true","true","true","true","[1]","101","100","1","","","","","","",""
"","","","","","image-keyboard-response","265","519921","0.0-240.0","63e52483a88355a3a0ac62c5","665500ab8938657b03fbdba8","66579244ec2b45982c0cd3ef","1171","stimuli/11011001.jpg"," ","","feedback_trial","1","","","","","","","","","","","","","","","","","","","","",""
"","","","","","image-keyboard-response","266","521591","0.0-241.0","63e52483a88355a3a0ac62c5","665500ab8938657b03fbdba8","66579244ec2b45982c0cd3ef","1668","stimuli/2010000.jpg","2","","prediction_trial","2","","true","","2","true","true","true","true","true","true","[2]","010","000","1","","","","","","",""
"","","","","","image-keyboard-response","267","522053","0.0-242.0","63e52483a88355a3a0ac62c5","665500ab8938657b03fbdba8","66579244ec2b45982c0cd3ef","460","stimuli/20100002.jpg"," ","","feedback_trial","2","","","","","","","","","","","","","","","","","","","","",""
"","","","","","image-keyboard-response","268","523724","0.0-243.0","63e52483a88355a3a0ac62c5","665500ab8938657b03fbdba8","66579244ec2b45982c0cd3ef","1669","stimuli/0110110.jpg","0","","prediction_trial","1","","false","","0","false","false","false","false","false","false","[1,0]","110","110","0","","","","","","",""
"","","","","","image-keyboard-response","269","524184","0.0-244.0","63e52483a88355a3a0ac62c5","665500ab8938657b03fbdba8","66579244ec2b45982c0cd3ef","459","stimuli/01101101.jpg"," ","","feedback_trial","1","","","","","","","","","","","","","","","","","","","","",""
"","","","","","image-keyboard-response","270","525305","0.0-245.0","63e52483a88355a3a0ac62c5","665500ab8938657b03fbdba8","66579244ec2b45982c0cd3ef","1120","stimuli/0000110.jpg","0","","prediction_trial","0","","true","","0","false","false","true","true","false","false","[0]","000","110","1","","","","","","",""
"","","","","","image-keyboard-response","271","525722","0.0-246.0","63e52483a88355a3a0ac62c5","665500ab8938657b03fbdba8","66579244ec2b45982c0cd3ef","415","stimuli/00001100.jpg"," ","","feedback_trial","0","","","","","","","","","","","","","","","","","","","","",""
"","","","","","image-keyboard-response","272","527782","0.0-247.0","63e52483a88355a3a0ac62c5","665500ab8938657b03fbdba8","66579244ec2b45982c0cd3ef","2059","stimuli/0001110.jpg","0","","prediction_trial","0","","true","","0","false","false","true","true","false","false","[0]","001","110","1","","","","","","",""
"","","","","","image-keyboard-response","273","528489","0.0-248.0","63e52483a88355a3a0ac62c5","665500ab8938657b03fbdba8","66579244ec2b45982c0cd3ef","705","stimuli/00011100.jpg"," ","","feedback_trial","0","","","","","","","","","","","","","","","","","","","","",""
"","","","","","image-keyboard-response","274","529458","0.0-249.0","63e52483a88355a3a0ac62c5","665500ab8938657b03fbdba8","66579244ec2b45982c0cd3ef","968","stimuli/0111110.jpg","1","","prediction_trial","1","","true","","0","false","false","false","false","false","false","[2,1,0]","111","110","1","","","","","","",""
"","","","","","image-keyboard-response","275","530263","0.0-250.0","63e52483a88355a3a0ac62c5","665500ab8938657b03fbdba8","66579244ec2b45982c0cd3ef","802","stimuli/01111101.jpg"," ","","feedback_trial","2","","","","","","","","","","","","","","","","","","","","",""
"","","","","","image-keyboard-response","276","531414","0.0-251.0","63e52483a88355a3a0ac62c5","665500ab8938657b03fbdba8","66579244ec2b45982c0cd3ef","1149","stimuli/1111000.jpg","1","","prediction_trial","0","","false","","1","true","true","false","false","false","false","[0,1,2]","111","000","0","","","","","","",""
"","","","","","image-keyboard-response","277","531894","0.0-252.0","63e52483a88355a3a0ac62c5","665500ab8938657b03fbdba8","66579244ec2b45982c0cd3ef","478","stimuli/11110000.jpg"," ","","feedback_trial","0","","","","","","","","","","","","","","","","","","","","",""
"","","","","","image-keyboard-response","278","532991","0.0-253.0","63e52483a88355a3a0ac62c5","665500ab8938657b03fbdba8","66579244ec2b45982c0cd3ef","1096","stimuli/0110011.jpg","2","","prediction_trial","1","","false","","0","true","true","false","false","false","false","[0,1]","110","011","0","","","","","","",""
"","","","","","image-keyboard-response","279","533831","0.0-254.0","63e52483a88355a3a0ac62c5","665500ab8938657b03fbdba8","66579244ec2b45982c0cd3ef","838","stimuli/01100111.jpg"," ","","feedback_trial","0","","","","","","","","","","","","","","","","","","","","",""
"","","","","","image-keyboard-response","280","534594","0.0-255.0","63e52483a88355a3a0ac62c5","665500ab8938657b03fbdba8","66579244ec2b45982c0cd3ef","762","stimuli/1100000.jpg","2","","prediction_trial","1","","false","","1","true","true","true","true","true","true","[1]","100","000","0","","","","","","",""
"","","","","","image-keyboard-response","281","535219","0.0-256.0","63e52483a88355a3a0ac62c5","665500ab8938657b03fbdba8","66579244ec2b45982c0cd3ef","624","stimuli/11000001.jpg"," ","","feedback_trial","1","","","","","","","","","","","","","","","","","","","","",""
"","","","","","image-keyboard-response","282","537974","0.0-257.0","63e52483a88355a3a0ac62c5","665500ab8938657b03fbdba8","66579244ec2b45982c0cd3ef","2754","stimuli/0100101.jpg","0","","prediction_trial","0","","true","","0","false","false","false","true","false","false","[0]","100","101","1","","","","","","",""
"","","","","","image-keyboard-response","283","538363","0.0-258.0","63e52483a88355a3a0ac62c5","665500ab8938657b03fbdba8","66579244ec2b45982c0cd3ef","387","stimuli/01001010.jpg"," ","","feedback_trial","0","","","","","","","","","","","","","","","","","","","","",""
"","","","","","image-keyboard-response","284","539061","0.0-259.0","63e52483a88355a3a0ac62c5","665500ab8938657b03fbdba8","66579244ec2b45982c0cd3ef","693","stimuli/2011110.jpg","1","","prediction_trial","2","","false","","2","true","true","false","false","false","false","[2,1]","011","110","0","","","","","","",""
"","","","","","image-keyboard-response","285","540207","0.0-260.0","63e52483a88355a3a0ac62c5","665500ab8938657b03fbdba8","66579244ec2b45982c0cd3ef","1145","stimuli/20111102.jpg"," ","","feedback_trial","2","","","","","","","","","","","","","","","","","","","","",""
"","","","","","image-keyboard-response","286","542313","0.0-261.0","63e52483a88355a3a0ac62c5","665500ab8938657b03fbdba8","66579244ec2b45982c0cd3ef","2105","stimuli/1011110.jpg","2","","prediction_trial","1","","false","","1","false","false","false","false","false","false","[1,2]","011","110","0","","","","","","",""
"","","","","","image-keyboard-response","287","544824","0.0-262.0","63e52483a88355a3a0ac62c5","665500ab8938657b03fbdba8","66579244ec2b45982c0cd3ef","2510","stimuli/10111101.jpg"," ","","feedback_trial","1","","","","","","","","","","","","","","","","","","","","",""
"","","","","","image-keyboard-response","288","545332","0.0-263.0","63e52483a88355a3a0ac62c5","665500ab8938657b03fbdba8","66579244ec2b45982c0cd3ef","506","stimuli/1010001.jpg","0","","prediction_trial","1","","false","","1","true","true","false","true","false","true","[1]","010","001","0","","","","","","",""
"","","","","","image-keyboard-response","289","545939","0.0-264.0","63e52483a88355a3a0ac62c5","665500ab8938657b03fbdba8","66579244ec2b45982c0cd3ef","605","stimuli/10100011.jpg"," ","","feedback_trial","1","","","","","","","","","","","","","","","","","","","","",""
"","","","","","image-keyboard-response","290","546945","0.0-265.0","63e52483a88355a3a0ac62c5","665500ab8938657b03fbdba8","66579244ec2b45982c0cd3ef","1004","stimuli/2010111.jpg","0","","prediction_trial","2","","false","","2","false","false","true","true","false","false","[2]","010","111","0","","","","","","",""
"","","","","","image-keyboard-response","291","547429","0.0-266.0","63e52483a88355a3a0ac62c5","665500ab8938657b03fbdba8","66579244ec2b45982c0cd3ef","483","stimuli/20101112.jpg"," ","","feedback_trial","2","","","","","","","","","","","","","","","","","","","","",""
"","","","","","image-keyboard-response","292","548306","0.0-267.0","63e52483a88355a3a0ac62c5","665500ab8938657b03fbdba8","66579244ec2b45982c0cd3ef","875","stimuli/2010110.jpg","1","","prediction_trial","2","","false","","2","true","true","true","true","true","true","[2]","010","110","0","","","","","","",""
"","","","","","image-keyboard-response","293","550154","0.0-268.0","63e52483a88355a3a0ac62c5","665500ab8938657b03fbdba8","66579244ec2b45982c0cd3ef","1846","stimuli/20101102.jpg"," ","","feedback_trial","2","","","","","","","","","","","","","","","","","","","","",""
"","","","","","image-keyboard-response","294","552683","0.0-269.0","63e52483a88355a3a0ac62c5","665500ab8938657b03fbdba8","66579244ec2b45982c0cd3ef","2528","stimuli/0000100.jpg","0","","prediction_trial","0","","true","","0","false","true","true","true","false","true","[0]","000","100","1","","","","","","",""
"","","","","","image-keyboard-response","295","553465","0.0-270.0","63e52483a88355a3a0ac62c5","665500ab8938657b03fbdba8","66579244ec2b45982c0cd3ef","779","stimuli/00001000.jpg"," ","","feedback_trial","0","","","","","","","","","","","","","","","","","","","","",""
"","","","","","image-keyboard-response","296","555079","0.0-271.0","63e52483a88355a3a0ac62c5","665500ab8938657b03fbdba8","66579244ec2b45982c0cd3ef","1613","stimuli/2011001.jpg","2","","prediction_trial","2","","true","","2","false","true","false","false","false","false","[1,2]","011","001","1","","","","","","",""
"","","","","","image-keyboard-response","297","555624","0.0-272.0","63e52483a88355a3a0ac62c5","665500ab8938657b03fbdba8","66579244ec2b45982c0cd3ef","544","stimuli/20110012.jpg"," ","","feedback_trial","1","","","","","","","","","","","","","","","","","","","","",""
"","","","","","image-keyboard-response","298","557046","0.0-273.0","63e52483a88355a3a0ac62c5","665500ab8938657b03fbdba8","66579244ec2b45982c0cd3ef","1420","stimuli/1111010.jpg","1","","prediction_trial","2","","false","","1","false","true","false","false","false","false","[0,1,2]","111","010","0","","","","","","",""
"","","","","","image-keyboard-response","299","557457","0.0-274.0","63e52483a88355a3a0ac62c5","665500ab8938657b03fbdba8","66579244ec2b45982c0cd3ef","410","stimuli/11110102.jpg"," ","","feedback_trial","0","","","","","","","","","","","","","","","","","","","","",""
"","","","","","image-keyboard-response","300","559080","0.0-275.0","63e52483a88355a3a0ac62c5","665500ab8938657b03fbdba8","66579244ec2b45982c0cd3ef","1622","stimuli/2010101.jpg","2","","prediction_trial","2","","true","","2","false","false","true","true","false","false","[2]","010","101","1","","","","","","",""
"","","","","","image-keyboard-response","301","559423","0.0-276.0","63e52483a88355a3a0ac62c5","665500ab8938657b03fbdba8","66579244ec2b45982c0cd3ef","341","stimuli/20101012.jpg"," ","","feedback_trial","2","","","","","","","","","","","","","","","","","","","","",""
"","","","","","image-keyboard-response","302","560870","0.0-277.0","63e52483a88355a3a0ac62c5","665500ab8938657b03fbdba8","66579244ec2b45982c0cd3ef","1447","stimuli/2010001.jpg","2","","prediction_trial","2","","true","","2","false","true","true","true","false","true","[2]","010","001","1","","","","","","",""
"","","","","","image-keyboard-response","303","561227","0.0-278.0","63e52483a88355a3a0ac62c5","665500ab8938657b03fbdba8","66579244ec2b45982c0cd3ef","355","stimuli/20100012.jpg"," ","","feedback_trial","2","","","","","","","","","","","","","","","","","","","","",""
"","","","","","image-keyboard-response","304","562877","0.0-279.0","63e52483a88355a3a0ac62c5","665500ab8938657b03fbdba8","66579244ec2b45982c0cd3ef","1648","stimuli/0011010.jpg","0","","prediction_trial","0","","true","","0","true","true","true","true","true","true","[0]","011","010","1","","","","","","",""
"","","","","","image-keyboard-response","305","563200","0.0-280.0","63e52483a88355a3a0ac62c5","665500ab8938657b03fbdba8","66579244ec2b45982c0cd3ef","321","stimuli/00110100.jpg"," ","","feedback_trial","0","","","","","","","","","","","","","","","","","","","","",""
"","","","","","image-keyboard-response","306","564873","0.0-281.0","63e52483a88355a3a0ac62c5","665500ab8938657b03fbdba8","66579244ec2b45982c0cd3ef","1671","stimuli/0101011.jpg","2","","prediction_trial","0","","false","","0","true","true","false","false","false","false","[2,0]","101","011","0","","","","","","",""
"","","","","","image-keyboard-response","307","565125","0.0-282.0","63e52483a88355a3a0ac62c5","665500ab8938657b03fbdba8","66579244ec2b45982c0cd3ef","250","stimuli/01010110.jpg"," ","","feedback_trial","2","","","","","","","","","","","","","","","","","","","","",""
"","","","","","image-keyboard-response","308","567470","0.0-283.0","63e52483a88355a3a0ac62c5","665500ab8938657b03fbdba8","66579244ec2b45982c0cd3ef","2345","stimuli/0000000.jpg","0","","prediction_trial","0","","true","","0","true","true","true","true","true","true","[0]","000","000","1","","","","","","",""
"","","","","","image-keyboard-response","309","567713","0.0-284.0","63e52483a88355a3a0ac62c5","665500ab8938657b03fbdba8","66579244ec2b45982c0cd3ef","241","stimuli/00000000.jpg"," ","","feedback_trial","0","","","","","","","","","","","","","","","","","","","","",""
"","","","","","image-keyboard-response","310","568844","0.0-285.0","63e52483a88355a3a0ac62c5","665500ab8938657b03fbdba8","66579244ec2b45982c0cd3ef","1130","stimuli/1001000.jpg","1","","prediction_trial","1","","true","","1","true","true","true","true","true","true","[1]","001","000","1","","","","","","",""
"","","","","","image-keyboard-response","311","569192","0.0-286.0","63e52483a88355a3a0ac62c5","665500ab8938657b03fbdba8","66579244ec2b45982c0cd3ef","347","stimuli/10010001.jpg"," ","","feedback_trial","1","","","","","","","","","","","","","","","","","","","","",""
"","","","","","image-keyboard-response","312","570416","0.0-287.0","63e52483a88355a3a0ac62c5","665500ab8938657b03fbdba8","66579244ec2b45982c0cd3ef","1223","stimuli/2011000.jpg","2","","prediction_trial","1","","false","","2","true","true","false","false","false","false","[2,1]","011","000","0","","","","","","",""
"","","","","","image-keyboard-response","313","570667","0.0-288.0","63e52483a88355a3a0ac62c5","665500ab8938657b03fbdba8","66579244ec2b45982c0cd3ef","249","stimuli/20110001.jpg"," ","","feedback_trial","2","","","","","","","","","","","","","","","","","","","","",""
"","","","","","image-keyboard-response","314","572585","0.0-289.0","63e52483a88355a3a0ac62c5","665500ab8938657b03fbdba8","66579244ec2b45982c0cd3ef","1917","stimuli/0001000.jpg","0","","prediction_trial","0","","true","","0","true","true","true","true","true","true","[0]","001","000","1","","","","","","",""
"","","","","","image-keyboard-response","315","573066","0.0-290.0","63e52483a88355a3a0ac62c5","665500ab8938657b03fbdba8","66579244ec2b45982c0cd3ef","480","stimuli/00010000.jpg"," ","","feedback_trial","0","","","","","","","","","","","","","","","","","","","","",""
"","","","","","image-keyboard-response","316","576533","0.0-291.0","63e52483a88355a3a0ac62c5","665500ab8938657b03fbdba8","66579244ec2b45982c0cd3ef","3465","stimuli/2101011.jpg","1","","prediction_trial","2","","false","","2","false","false","false","false","false","false","[0,2]","101","011","0","","","","","","",""
"","","","","","image-keyboard-response","317","577503","0.0-292.0","63e52483a88355a3a0ac62c5","665500ab8938657b03fbdba8","66579244ec2b45982c0cd3ef","967","stimuli/21010112.jpg"," ","","feedback_trial","0","","","","","","","","","","","","","","","","","","","","",""
"","","","","","survey-html-form","318","596755","0.0-293.0","63e52483a88355a3a0ac62c5","665500ab8938657b03fbdba8","66579244ec2b45982c0cd3ef","19246","","{""feedback"":"""",""age"":""35"",""gender"":""Male"",""other_gender"":"""",""race"":""White"",""other_race"":"""",""ethnicity"":""Non-Hispanic""}","","exit_survey","","","","","","","","","","","","","","","","","35","Non-Hispanic","Male","White","0.5555555555555556","0.5555555555555556"
