"success","timeout","failed_images","failed_audio","failed_video","trial_type","trial_index","time_elapsed","internal_node_id","prolific_id","prolific_study_id","prolific_session_id","rt","stimulus","response","view_history","trial","character_choice","stimulus_dict","accuracy","correct_response","ball_pos","ego_ball_visible","ego_can_infer","alter_ball_visible","alter_can_infer","collective_ball_visible","collective_can_infer","search_locations","alter_occluders","ego_occluders","accuracy_bool","feedback","age","ethnicity","gender","race","overall_accuracy","bonus"
"true","false","[]","[]","[]","preload","0","6207","0.0-0.0","63d7e70fd618cbdb3e2f3aa7","665500ab8938657b03fbdba8","665792c184cedbe2cba480c9","","","","","","","","","","","","","","","","","","","","","","","","","","",""
"true","","","","","fullscreen","1","20548","0.0-1.0","63d7e70fd618cbdb3e2f3aa7","665500ab8938657b03fbdba8","665792c184cedbe2cba480c9","","","","","","","","","","","","","","","","","","","","","","","","","","",""
"","","","","","html-button-response","2","30836","0.0-2.0","63d7e70fd618cbdb3e2f3aa7","665500ab8938657b03fbdba8","665792c184cedbe2cba480c9","10284","<p><b>Consent Form</b></p> <div style=""text-align:left;background-color:lightgrey; padding:20px; max-width:900px;""><p>Please consider this information carefully before deciding whether to participate in this research.</p> <p>The purpose of this research is to examine which factors influence social judgment and decision-making. You will be asked to make judgements about individuals and actions in social scenarios. We are simply interested in your judgement. The study will take less than 1 hour to complete, and you will receive less than $20 on Prolific. Your compensation and time commitment are specified in the study description. There are no anticipated risks associated with participating in this study. The effects of participating should be comparable to those you would ordinarily experience from viewing a computer monitor and using a mouse or keyboard for a similar amount of time. At the end of the study, we will provide an explanation of the questions that motivate this line of research and will describe the potential implications. </p><p> Your participation in this study is completely voluntary and you may refuse to participate or you may choose to withdraw at any time without penalty or loss of benefits to you which are otherwise entitled. Your participation in this study will remain confidential. No personally identifiable information will be associated with your data. Also, all analyses of the data will be averaged across all the participants, so your individual responses will never be specifically analyzed. </p><p> If you have questions or concerns about your participation or payment, or want to request a summary of research findings, please contact Dr. Jonathan Phillips at Jonathan.S.Phillips@dartmouth.edu. </p><p> Please save a copy of this form for your records. </p><p><b>Agreement: </b>The nature and purpose of this research have been sufficiently explained and I agree to participate in this study. I understand that I am free to withdraw at any time without incurring any penalty. Please consent by clicking the button below to continue. Otherwise, please exit the study at any time. </p>","0","","","","","","","","","","","","","","","","","","","","","","","",""
"","","","","","instructions","3","95240","0.0-3.0-0.0","63d7e70fd618cbdb3e2f3aa7","665500ab8938657b03fbdba8","665792c184cedbe2cba480c9","64402","","","[{""page_index"":0,""viewing_time"":1890},{""page_index"":1,""viewing_time"":2030},{""page_index"":2,""viewing_time"":2050},{""page_index"":3,""viewing_time"":5825},{""page_index"":4,""viewing_time"":3420},{""page_index"":5,""viewing_time"":4011},{""page_index"":6,""viewing_time"":5096},{""page_index"":7,""viewing_time"":3982},{""page_index"":8,""viewing_time"":4976},{""page_index"":9,""viewing_time"":3273},{""page_index"":10,""viewing_time"":9579},{""page_index"":11,""viewing_time"":9717},{""page_index"":12,""viewing_time"":7124},{""page_index"":13,""viewing_time"":1429}]","intro","","","","","","","","","","","","","","","","","","","","","",""
"","","","","","image-keyboard-response","4","100836","0.0-3.0-1.0","63d7e70fd618cbdb3e2f3aa7","665500ab8938657b03fbdba8","665792c184cedbe2cba480c9","5593","stimuli/0000101.jpg","0","","prediction_practice","0","{""filepath"":""stimuli/0000101.jpg"",""ball_pos"":0,""ego_ball_visible"":false,""ego_can_infer"":false,""alter_ball_visible"":true,""alter_can_infer"":true,""collective_ball_visible"":false,""collective_can_infer"":false,""search_locations"":[0],""alter_occluders"":""000"",""ego_occluders"":""101""}","true","","","","","","","","","","","","","","","","","","",""
"","","","","","image-keyboard-response","5","103661","0.0-3.0-2.0","63d7e70fd618cbdb3e2f3aa7","665500ab8938657b03fbdba8","665792c184cedbe2cba480c9","2823","stimuli/00001010.jpg"," ","","practrice_feedback","0","","","","","","","","","","","","","","","","","","","","",""
"","","","","","image-keyboard-response","6","108051","0.0-3.0-3.0","63d7e70fd618cbdb3e2f3aa7","665500ab8938657b03fbdba8","665792c184cedbe2cba480c9","4388","stimuli/0111001.jpg","0","","prediction_practice","1","{""filepath"":""stimuli/0111001.jpg"",""ball_pos"":0,""ego_ball_visible"":true,""ego_can_infer"":true,""alter_ball_visible"":false,""alter_can_infer"":false,""collective_ball_visible"":false,""collective_can_infer"":false,""search_locations"":[1,2,0],""alter_occluders"":""111"",""ego_occluders"":""001""}","false","","","","","","","","","","","","","","","","","","",""
"","","","","","image-keyboard-response","7","109849","0.0-3.0-4.0","63d7e70fd618cbdb3e2f3aa7","665500ab8938657b03fbdba8","665792c184cedbe2cba480c9","1795","stimuli/01110011.jpg"," ","","practrice_feedback","1","","","","","","","","","","","","","","","","","","","","",""
"","","","","","image-keyboard-response","8","111503","0.0-3.0-5.0","63d7e70fd618cbdb3e2f3aa7","665500ab8938657b03fbdba8","665792c184cedbe2cba480c9","1652","stimuli/2100010.jpg","2","","prediction_practice","2","{""filepath"":""stimuli/2100010.jpg"",""ball_pos"":2,""ego_ball_visible"":true,""ego_can_infer"":true,""alter_ball_visible"":true,""alter_can_infer"":true,""collective_ball_visible"":true,""collective_can_infer"":true,""search_locations"":[2],""alter_occluders"":""100"",""ego_occluders"":""010""}","true","","","","","","","","","","","","","","","","","","",""
"","","","","","image-keyboard-response","9","112659","0.0-3.0-6.0","63d7e70fd618cbdb3e2f3aa7","665500ab8938657b03fbdba8","665792c184cedbe2cba480c9","1153","stimuli/21000102.jpg"," ","","practrice_feedback","2","","","","","","","","","","","","","","","","","","","","",""
"","","","","","image-keyboard-response","10","113779","0.0-3.0-7.0","63d7e70fd618cbdb3e2f3aa7","665500ab8938657b03fbdba8","665792c184cedbe2cba480c9","1118","stimuli/1001101.jpg","1","","prediction_practice","1","{""filepath"":""stimuli/1001101.jpg"",""ball_pos"":1,""ego_ball_visible"":true,""ego_can_infer"":true,""alter_ball_visible"":true,""alter_can_infer"":true,""collective_ball_visible"":true,""collective_can_infer"":true,""search_locations"":[1],""alter_occluders"":""001"",""ego_occluders"":""101""}","true","","","","","","","","","","","","","","","","","","",""
"","","","","","image-keyboard-response","11","114715","0.0-3.0-8.0","63d7e70fd618cbdb3e2f3aa7","665500ab8938657b03fbdba8","665792c184cedbe2cba480c9","935","stimuli/10011011.jpg"," ","","practrice_feedback","1","","","","","","","","","","","","","","","","","","","","",""
"","","","","","image-keyboard-response","12","116407","0.0-3.0-9.0","63d7e70fd618cbdb3e2f3aa7","665500ab8938657b03fbdba8","665792c184cedbe2cba480c9","1690","stimuli/1001010.jpg","1","","prediction_practice","1","{""filepath"":""stimuli/1001010.jpg"",""ball_pos"":1,""ego_ball_visible"":false,""ego_can_infer"":true,""alter_ball_visible"":true,""alter_can_infer"":true,""collective_ball_visible"":false,""collective_can_infer"":true,""search_locations"":[1],""alter_occluders"":""001"",""ego_occluders"":""010""}","true","","","","","","","","","","","","","","","","","","",""
"","","","","","image-keyboard-response","13","117718","0.0-3.0-10.0","63d7e70fd618cbdb3e2f3aa7","665500ab8938657b03fbdba8","665792c184cedbe2cba480c9","1309","stimuli/10010101.jpg"," ","","practrice_feedback","1","","","","","","","","","","","","","","","","","","","","",""
"","","","","","image-keyboard-response","14","118857","0.0-3.0-11.0","63d7e70fd618cbdb3e2f3aa7","665500ab8938657b03fbdba8","665792c184cedbe2cba480c9","1137","stimuli/2110010.jpg","2","","prediction_practice","2","{""filepath"":""stimuli/2110010.jpg"",""ball_pos"":2,""ego_ball_visible"":true,""ego_can_infer"":true,""alter_ball_visible"":true,""alter_can_infer"":true,""collective_ball_visible"":true,""collective_can_infer"":true,""search_locations"":[2],""alter_occluders"":""110"",""ego_occluders"":""010""}","true","","","","","","","","","","","","","","","","","","",""
"","","","","","image-keyboard-response","15","119689","0.0-3.0-12.0","63d7e70fd618cbdb3e2f3aa7","665500ab8938657b03fbdba8","665792c184cedbe2cba480c9","830","stimuli/21100102.jpg"," ","","practrice_feedback","2","","","","","","","","","","","","","","","","","","","","",""
"","","","","","image-keyboard-response","16","121832","0.0-3.0-13.0","63d7e70fd618cbdb3e2f3aa7","665500ab8938657b03fbdba8","665792c184cedbe2cba480c9","2140","stimuli/0101101.jpg","0","","prediction_practice","2","{""filepath"":""stimuli/0101101.jpg"",""ball_pos"":0,""ego_ball_visible"":false,""ego_can_infer"":false,""alter_ball_visible"":false,""alter_can_infer"":false,""collective_ball_visible"":false,""collective_can_infer"":false,""search_locations"":[2,0],""alter_occluders"":""101"",""ego_occluders"":""101""}","false","","","","","","","","","","","","","","","","","","",""
"","","","","","image-keyboard-response","17","123456","0.0-3.0-14.0","63d7e70fd618cbdb3e2f3aa7","665500ab8938657b03fbdba8","665792c184cedbe2cba480c9","1622","stimuli/01011012.jpg"," ","","practrice_feedback","2","","","","","","","","","","","","","","","","","","","","",""
"","","","","","image-keyboard-response","18","127647","0.0-3.0-15.0","63d7e70fd618cbdb3e2f3aa7","665500ab8938657b03fbdba8","665792c184cedbe2cba480c9","4190","stimuli/2101011.jpg","1","","prediction_practice","2","{""filepath"":""stimuli/2101011.jpg"",""ball_pos"":2,""ego_ball_visible"":false,""ego_can_infer"":false,""alter_ball_visible"":false,""alter_can_infer"":false,""collective_ball_visible"":false,""collective_can_infer"":false,""search_locations"":[0,2],""alter_occluders"":""101"",""ego_occluders"":""011""}","false","","","","","","","","","","","","","","","","","","",""
"","","","","","image-keyboard-response","19","128497","0.0-3.0-16.0","63d7e70fd618cbdb3e2f3aa7","665500ab8938657b03fbdba8","665792c184cedbe2cba480c9","849","stimuli/21010112.jpg"," ","","practrice_feedback","0","","","","","","","","","","","","","","","","","","","","",""
"","","","","","image-keyboard-response","20","130484","0.0-3.0-17.0","63d7e70fd618cbdb3e2f3aa7","665500ab8938657b03fbdba8","665792c184cedbe2cba480c9","1984","stimuli/1110000.jpg","1","","prediction_practice","1","{""filepath"":""stimuli/1110000.jpg"",""ball_pos"":1,""ego_ball_visible"":true,""ego_can_infer"":true,""alter_ball_visible"":false,""alter_can_infer"":false,""collective_ball_visible"":false,""collective_can_infer"":false,""search_locations"":[0,1],""alter_occluders"":""110"",""ego_occluders"":""000""}","true","","","","","","","","","","","","","","","","","","",""
"","","","","","image-keyboard-response","21","131269","0.0-3.0-18.0","63d7e70fd618cbdb3e2f3aa7","665500ab8938657b03fbdba8","665792c184cedbe2cba480c9","783","stimuli/11100001.jpg"," ","","practrice_feedback","0","","","","","","","","","","","","","","","","","","","","",""
"","","","","","image-keyboard-response","22","133176","0.0-3.0-19.0","63d7e70fd618cbdb3e2f3aa7","665500ab8938657b03fbdba8","665792c184cedbe2cba480c9","1906","stimuli/1111110.jpg","1","","prediction_practice","0","{""filepath"":""stimuli/1111110.jpg"",""ball_pos"":1,""ego_ball_visible"":false,""ego_can_infer"":false,""alter_ball_visible"":false,""alter_can_infer"":false,""collective_ball_visible"":false,""collective_can_infer"":false,""search_locations"":[2,1,0],""alter_occluders"":""111"",""ego_occluders"":""110""}","false","","","","","","","","","","","","","","","","","","",""
"","","","","","image-keyboard-response","23","134062","0.0-3.0-20.0","63d7e70fd618cbdb3e2f3aa7","665500ab8938657b03fbdba8","665792c184cedbe2cba480c9","883","stimuli/11111100.jpg"," ","","practrice_feedback","2","","","","","","","","","","","","","","","","","","","","",""
"","","","","","html-button-response","24","140225","0.0-3.0-21.0","63d7e70fd618cbdb3e2f3aa7","665500ab8938657b03fbdba8","665792c184cedbe2cba480c9","6162","Now that you've had some practice, you'll be tested with a couple of easy trials. If you correctly predict Sam's choice, you'll move on to complete the experiment!","0","","","","","","","","","","","","","","","","","","","","","","","",""
"","","","","","image-keyboard-response","25","141898","0.0-3.0-22.0-0.0","63d7e70fd618cbdb3e2f3aa7","665500ab8938657b03fbdba8","665792c184cedbe2cba480c9","1671","stimuli/0000011.jpg","arrowleft","","comprehension_quiz","","","true","arrowleft","","","","","","","","","","","","","","","","","",""
"","","","","","image-keyboard-response","26","143266","0.0-3.0-22.0-1.0","63d7e70fd618cbdb3e2f3aa7","665500ab8938657b03fbdba8","665792c184cedbe2cba480c9","1363","stimuli/00000110.jpg"," ","","comprehension_quiz","","","true"," ","","","","","","","","","","","","","","","","","",""
"","","","","","image-keyboard-response","27","145358","0.0-3.0-22.0-2.0","63d7e70fd618cbdb3e2f3aa7","665500ab8938657b03fbdba8","665792c184cedbe2cba480c9","2090","stimuli/1010010.jpg","arrowdown","","comprehension_quiz","","","true","arrowdown","","","","","","","","","","","","","","","","","",""
"","","","","","image-keyboard-response","28","146202","0.0-3.0-22.0-3.0","63d7e70fd618cbdb3e2f3aa7","665500ab8938657b03fbdba8","665792c184cedbe2cba480c9","841","stimuli/10100101.jpg"," ","","comprehension_quiz","","","true"," ","","","","","","","","","","","","","","","","","",""
"","","","","","html-button-response","29","149017","0.0-4.0","63d7e70fd618cbdb3e2f3aa7","665500ab8938657b03fbdba8","665792c184cedbe2cba480c9","2811","The experiment will now begin.","0","","","","","","","","","","","","","","","","","","","","","","","",""
"","","","","","image-keyboard-response","30","152842","0.0-5.0","63d7e70fd618cbdb3e2f3aa7","665500ab8938657b03fbdba8","665792c184cedbe2cba480c9","3824","stimuli/2001101.jpg","0","","prediction_trial","2","","false","","2","false","false","false","true","false","false","[2]","001","101","0","","","","","","",""
"","","","","","image-keyboard-response","31","153863","0.0-6.0","63d7e70fd618cbdb3e2f3aa7","665500ab8938657b03fbdba8","665792c184cedbe2cba480c9","1016","stimuli/20011012.jpg"," ","","feedback_trial","2","","","","","","","","","","","","","","","","","","","","",""
"","","","","","image-keyboard-response","32","156012","0.0-7.0","63d7e70fd618cbdb3e2f3aa7","665500ab8938657b03fbdba8","665792c184cedbe2cba480c9","2148","stimuli/2011100.jpg","1","","prediction_trial","2","","false","","2","true","true","false","false","false","false","[2,1]","011","100","0","","","","","","",""
"","","","","","image-keyboard-response","33","157815","0.0-8.0","63d7e70fd618cbdb3e2f3aa7","665500ab8938657b03fbdba8","665792c184cedbe2cba480c9","1802","stimuli/20111002.jpg"," ","","feedback_trial","2","","","","","","","","","","","","","","","","","","","","",""
"","","","","","image-keyboard-response","34","159472","0.0-9.0","63d7e70fd618cbdb3e2f3aa7","665500ab8938657b03fbdba8","665792c184cedbe2cba480c9","1655","stimuli/0110110.jpg","0","","prediction_trial","0","","true","","0","false","false","false","false","false","false","[1,0]","110","110","1","","","","","","",""
"","","","","","image-keyboard-response","35","160534","0.0-10.0","63d7e70fd618cbdb3e2f3aa7","665500ab8938657b03fbdba8","665792c184cedbe2cba480c9","1060","stimuli/01101100.jpg"," ","","feedback_trial","1","","","","","","","","","","","","","","","","","","","","",""
"","","","","","image-keyboard-response","36","162625","0.0-11.0","63d7e70fd618cbdb3e2f3aa7","665500ab8938657b03fbdba8","665792c184cedbe2cba480c9","2088","stimuli/0001110.jpg","0","","prediction_trial","0","","true","","0","false","false","true","true","false","false","[0]","001","110","1","","","","","","",""
"","","","","","image-keyboard-response","37","163561","0.0-12.0","63d7e70fd618cbdb3e2f3aa7","665500ab8938657b03fbdba8","665792c184cedbe2cba480c9","934","stimuli/00011100.jpg"," ","","feedback_trial","0","","","","","","","","","","","","","","","","","","","","",""
"","","","","","image-keyboard-response","38","164628","0.0-13.0","63d7e70fd618cbdb3e2f3aa7","665500ab8938657b03fbdba8","665792c184cedbe2cba480c9","1065","stimuli/1001000.jpg","1","","prediction_trial","1","","true","","1","true","true","true","true","true","true","[1]","001","000","1","","","","","","",""
"","","","","","image-keyboard-response","39","165489","0.0-14.0","63d7e70fd618cbdb3e2f3aa7","665500ab8938657b03fbdba8","665792c184cedbe2cba480c9","859","stimuli/10010001.jpg"," ","","feedback_trial","1","","","","","","","","","","","","","","","","","","","","",""
"","","","","","image-keyboard-response","40","166701","0.0-15.0","63d7e70fd618cbdb3e2f3aa7","665500ab8938657b03fbdba8","665792c184cedbe2cba480c9","1210","stimuli/0100000.jpg","0","","prediction_trial","0","","true","","0","true","true","false","true","false","true","[0]","100","000","1","","","","","","",""
"","","","","","image-keyboard-response","41","167474","0.0-16.0","63d7e70fd618cbdb3e2f3aa7","665500ab8938657b03fbdba8","665792c184cedbe2cba480c9","769","stimuli/01000000.jpg"," ","","feedback_trial","0","","","","","","","","","","","","","","","","","","","","",""
"","","","","","image-keyboard-response","42","169924","0.0-17.0","63d7e70fd618cbdb3e2f3aa7","665500ab8938657b03fbdba8","665792c184cedbe2cba480c9","2447","stimuli/2000001.jpg","2","","prediction_trial","2","","true","","2","false","true","true","true","false","true","[2]","000","001","1","","","","","","",""
"","","","","","image-keyboard-response","43","170752","0.0-18.0","63d7e70fd618cbdb3e2f3aa7","665500ab8938657b03fbdba8","665792c184cedbe2cba480c9","827","stimuli/20000012.jpg"," ","","feedback_trial","2","","","","","","","","","","","","","","","","","","","","",""
"","","","","","image-keyboard-response","44","173602","0.0-19.0","63d7e70fd618cbdb3e2f3aa7","665500ab8938657b03fbdba8","665792c184cedbe2cba480c9","2849","stimuli/2110101.jpg","0","","prediction_trial","2","","false","","2","false","false","true","true","false","false","[2]","110","101","0","","","","","","",""
"","","","","","image-keyboard-response","45","174338","0.0-20.0","63d7e70fd618cbdb3e2f3aa7","665500ab8938657b03fbdba8","665792c184cedbe2cba480c9","734","stimuli/21101012.jpg"," ","","feedback_trial","2","","","","","","","","","","","","","","","","","","","","",""
"","","","","","image-keyboard-response","46","176118","0.0-21.0","63d7e70fd618cbdb3e2f3aa7","665500ab8938657b03fbdba8","665792c184cedbe2cba480c9","1778","stimuli/0101101.jpg","0","","prediction_trial","0","","true","","0","false","false","false","false","false","false","[2,0]","101","101","1","","","","","","",""
"","","","","","image-keyboard-response","47","176843","0.0-22.0","63d7e70fd618cbdb3e2f3aa7","665500ab8938657b03fbdba8","665792c184cedbe2cba480c9","723","stimuli/01011010.jpg"," ","","feedback_trial","2","","","","","","","","","","","","","","","","","","","","",""
"","","","","","image-keyboard-response","48","178829","0.0-23.0","63d7e70fd618cbdb3e2f3aa7","665500ab8938657b03fbdba8","665792c184cedbe2cba480c9","1984","stimuli/0101011.jpg","0","","prediction_trial","2","","false","","0","true","true","false","false","false","false","[2,0]","101","011","0","","","","","","",""
"","","","","","image-keyboard-response","49","179607","0.0-24.0","63d7e70fd618cbdb3e2f3aa7","665500ab8938657b03fbdba8","665792c184cedbe2cba480c9","774","stimuli/01010112.jpg"," ","","feedback_trial","2","","","","","","","","","","","","","","","","","","","","",""
"","","","","","image-keyboard-response","50","182456","0.0-25.0","63d7e70fd618cbdb3e2f3aa7","665500ab8938657b03fbdba8","665792c184cedbe2cba480c9","2846","stimuli/1100110.jpg","0","","prediction_trial","1","","false","","1","false","false","true","true","false","false","[1]","100","110","0","","","","","","",""
"","","","","","image-keyboard-response","51","183223","0.0-26.0","63d7e70fd618cbdb3e2f3aa7","665500ab8938657b03fbdba8","665792c184cedbe2cba480c9","765","stimuli/11001101.jpg"," ","","feedback_trial","1","","","","","","","","","","","","","","","","","","","","",""
"","","","","","image-keyboard-response","52","185695","0.0-27.0","63d7e70fd618cbdb3e2f3aa7","665500ab8938657b03fbdba8","665792c184cedbe2cba480c9","2470","stimuli/0100101.jpg","0","","prediction_trial","0","","true","","0","false","false","false","true","false","false","[0]","100","101","1","","","","","","",""
"","","","","","image-keyboard-response","53","186640","0.0-28.0","63d7e70fd618cbdb3e2f3aa7","665500ab8938657b03fbdba8","665792c184cedbe2cba480c9","944","stimuli/01001010.jpg"," ","","feedback_trial","0","","","","","","","","","","","","","","","","","","","","",""
"","","","","","image-keyboard-response","54","189062","0.0-29.0","63d7e70fd618cbdb3e2f3aa7","665500ab8938657b03fbdba8","665792c184cedbe2cba480c9","2419","stimuli/2010001.jpg","2","","prediction_trial","2","","true","","2","false","true","true","true","false","true","[2]","010","001","1","","","","","","",""
"","","","","","image-keyboard-response","55","189979","0.0-30.0","63d7e70fd618cbdb3e2f3aa7","665500ab8938657b03fbdba8","665792c184cedbe2cba480c9","915","stimuli/20100012.jpg"," ","","feedback_trial","2","","","","","","","","","","","","","","","","","","","","",""
"","","","","","image-keyboard-response","56","191637","0.0-31.0","63d7e70fd618cbdb3e2f3aa7","665500ab8938657b03fbdba8","665792c184cedbe2cba480c9","1657","stimuli/1111111.jpg","1","","prediction_trial","2","","false","","1","false","false","false","false","false","false","[2,1,0]","111","111","0","","","","","","",""
"","","","","","image-keyboard-response","57","192510","0.0-32.0","63d7e70fd618cbdb3e2f3aa7","665500ab8938657b03fbdba8","665792c184cedbe2cba480c9","871","stimuli/11111112.jpg"," ","","feedback_trial","2","","","","","","","","","","","","","","","","","","","","",""
"","","","","","image-keyboard-response","58","195849","0.0-33.0","63d7e70fd618cbdb3e2f3aa7","665500ab8938657b03fbdba8","665792c184cedbe2cba480c9","3337","stimuli/0111110.jpg","1","","prediction_trial","1","","true","","0","false","false","false","false","false","false","[2,1,0]","111","110","1","","","","","","",""
"","","","","","image-keyboard-response","59","196790","0.0-34.0","63d7e70fd618cbdb3e2f3aa7","665500ab8938657b03fbdba8","665792c184cedbe2cba480c9","939","stimuli/01111101.jpg"," ","","feedback_trial","2","","","","","","","","","","","","","","","","","","","","",""
"","","","","","image-keyboard-response","60","199392","0.0-35.0","63d7e70fd618cbdb3e2f3aa7","665500ab8938657b03fbdba8","665792c184cedbe2cba480c9","2599","stimuli/0111101.jpg","0","","prediction_trial","1","","false","","0","false","false","false","false","false","false","[1,0,2]","111","101","0","","","","","","",""
"","","","","","image-keyboard-response","61","200246","0.0-36.0","63d7e70fd618cbdb3e2f3aa7","665500ab8938657b03fbdba8","665792c184cedbe2cba480c9","852","stimuli/01111011.jpg"," ","","feedback_trial","1","","","","","","","","","","","","","","","","","","","","",""
"","","","","","image-keyboard-response","62","203173","0.0-37.0","63d7e70fd618cbdb3e2f3aa7","665500ab8938657b03fbdba8","665792c184cedbe2cba480c9","2926","stimuli/2001100.jpg","2","","prediction_trial","2","","true","","2","true","true","false","true","false","true","[2]","001","100","1","","","","","","",""
"","","","","","image-keyboard-response","63","204084","0.0-38.0","63d7e70fd618cbdb3e2f3aa7","665500ab8938657b03fbdba8","665792c184cedbe2cba480c9","909","stimuli/20011002.jpg"," ","","feedback_trial","2","","","","","","","","","","","","","","","","","","","","",""
"","","","","","image-keyboard-response","64","205542","0.0-39.0","63d7e70fd618cbdb3e2f3aa7","665500ab8938657b03fbdba8","665792c184cedbe2cba480c9","1457","stimuli/2010100.jpg","2","","prediction_trial","2","","true","","2","true","true","true","true","true","true","[2]","010","100","1","","","","","","",""
"","","","","","image-keyboard-response","65","206121","0.0-40.0","63d7e70fd618cbdb3e2f3aa7","665500ab8938657b03fbdba8","665792c184cedbe2cba480c9","576","stimuli/20101002.jpg"," ","","feedback_trial","2","","","","","","","","","","","","","","","","","","","","",""
"","","","","","image-keyboard-response","66","207338","0.0-41.0","63d7e70fd618cbdb3e2f3aa7","665500ab8938657b03fbdba8","665792c184cedbe2cba480c9","1215","stimuli/2000110.jpg","2","","prediction_trial","2","","true","","2","true","true","true","true","true","true","[2]","000","110","1","","","","","","",""
"","","","","","image-keyboard-response","67","208129","0.0-42.0","63d7e70fd618cbdb3e2f3aa7","665500ab8938657b03fbdba8","665792c184cedbe2cba480c9","790","stimuli/20001102.jpg"," ","","feedback_trial","2","","","","","","","","","","","","","","","","","","","","",""
"","","","","","image-keyboard-response","68","210829","0.0-43.0","63d7e70fd618cbdb3e2f3aa7","665500ab8938657b03fbdba8","665792c184cedbe2cba480c9","2699","stimuli/0010110.jpg","0","","prediction_trial","0","","true","","0","false","false","true","true","false","false","[0]","010","110","1","","","","","","",""
"","","","","","image-keyboard-response","69","212117","0.0-44.0","63d7e70fd618cbdb3e2f3aa7","665500ab8938657b03fbdba8","665792c184cedbe2cba480c9","1285","stimuli/00101100.jpg"," ","","feedback_trial","0","","","","","","","","","","","","","","","","","","","","",""
"","","","","","image-keyboard-response","70","213196","0.0-45.0","63d7e70fd618cbdb3e2f3aa7","665500ab8938657b03fbdba8","665792c184cedbe2cba480c9","1077","stimuli/1100000.jpg","1","","prediction_trial","1","","true","","1","true","true","true","true","true","true","[1]","100","000","1","","","","","","",""
"","","","","","image-keyboard-response","71","213939","0.0-46.0","63d7e70fd618cbdb3e2f3aa7","665500ab8938657b03fbdba8","665792c184cedbe2cba480c9","742","stimuli/11000001.jpg"," ","","feedback_trial","1","","","","","","","","","","","","","","","","","","","","",""
"","","","","","image-keyboard-response","72","215928","0.0-47.0","63d7e70fd618cbdb3e2f3aa7","665500ab8938657b03fbdba8","665792c184cedbe2cba480c9","1988","stimuli/1111110.jpg","1","","prediction_trial","0","","false","","1","false","false","false","false","false","false","[2,1,0]","111","110","0","","","","","","",""
"","","","","","image-keyboard-response","73","216693","0.0-48.0","63d7e70fd618cbdb3e2f3aa7","665500ab8938657b03fbdba8","665792c184cedbe2cba480c9","763","stimuli/11111100.jpg"," ","","feedback_trial","2","","","","","","","","","","","","","","","","","","","","",""
"","","","","","image-keyboard-response","74","218152","0.0-49.0","63d7e70fd618cbdb3e2f3aa7","665500ab8938657b03fbdba8","665792c184cedbe2cba480c9","1457","stimuli/2101101.jpg","0","","prediction_trial","2","","false","","2","false","false","false","false","false","false","[0,2]","101","101","0","","","","","","",""
"","","","","","image-keyboard-response","75","218844","0.0-50.0","63d7e70fd618cbdb3e2f3aa7","665500ab8938657b03fbdba8","665792c184cedbe2cba480c9","689","stimuli/21011012.jpg"," ","","feedback_trial","0","","","","","","","","","","","","","","","","","","","","",""
"","","","","","image-keyboard-response","76","220655","0.0-51.0","63d7e70fd618cbdb3e2f3aa7","665500ab8938657b03fbdba8","665792c184cedbe2cba480c9","1810","stimuli/1001010.jpg","1","","prediction_trial","1","","true","","1","false","true","true","true","false","true","[1]","001","010","1","","","","","","",""
"","","","","","image-keyboard-response","77","221509","0.0-52.0","63d7e70fd618cbdb3e2f3aa7","665500ab8938657b03fbdba8","665792c184cedbe2cba480c9","851","stimuli/10010101.jpg"," ","","feedback_trial","1","","","","","","","","","","","","","","","","","","","","",""
"","","","","","image-keyboard-response","78","222915","0.0-53.0","63d7e70fd618cbdb3e2f3aa7","665500ab8938657b03fbdba8","665792c184cedbe2cba480c9","1404","stimuli/1100010.jpg","1","","prediction_trial","1","","true","","1","false","true","true","true","false","true","[1]","100","010","1","","","","","","",""
"","","","","","image-keyboard-response","79","223575","0.0-54.0","63d7e70fd618cbdb3e2f3aa7","665500ab8938657b03fbdba8","665792c184cedbe2cba480c9","658","stimuli/11000101.jpg"," ","","feedback_trial","1","","","","","","","","","","","","","","","","","","","","",""
"","","","","","image-keyboard-response","80","226173","0.0-55.0","63d7e70fd618cbdb3e2f3aa7","665500ab8938657b03fbdba8","665792c184cedbe2cba480c9","2596","stimuli/0110010.jpg","1","","prediction_trial","1","","true","","0","true","true","false","false","false","false","[0,1]","110","010","1","","","","","","",""
"","","","","","image-keyboard-response","81","226916","0.0-56.0","63d7e70fd618cbdb3e2f3aa7","665500ab8938657b03fbdba8","665792c184cedbe2cba480c9","741","stimuli/01100101.jpg"," ","","feedback_trial","0","","","","","","","","","","","","","","","","","","","","",""
"","","","","","image-keyboard-response","82","228464","0.0-57.0","63d7e70fd618cbdb3e2f3aa7","665500ab8938657b03fbdba8","665792c184cedbe2cba480c9","1546","stimuli/1101010.jpg","1","","prediction_trial","1","","true","","1","false","true","true","true","false","true","[1]","101","010","1","","","","","","",""
"","","","","","image-keyboard-response","83","229139","0.0-58.0","63d7e70fd618cbdb3e2f3aa7","665500ab8938657b03fbdba8","665792c184cedbe2cba480c9","674","stimuli/11010101.jpg"," ","","feedback_trial","1","","","","","","","","","","","","","","","","","","","","",""
"","","","","","image-keyboard-response","84","230180","0.0-59.0","63d7e70fd618cbdb3e2f3aa7","665500ab8938657b03fbdba8","665792c184cedbe2cba480c9","1040","stimuli/2100110.jpg","2","","prediction_trial","2","","true","","2","true","true","true","true","true","true","[2]","100","110","1","","","","","","",""
"","","","","","image-keyboard-response","85","230796","0.0-60.0","63d7e70fd618cbdb3e2f3aa7","665500ab8938657b03fbdba8","665792c184cedbe2cba480c9","614","stimuli/21001102.jpg"," ","","feedback_trial","2","","","","","","","","","","","","","","","","","","","","",""
"","","","","","image-keyboard-response","86","232233","0.0-61.0","63d7e70fd618cbdb3e2f3aa7","665500ab8938657b03fbdba8","665792c184cedbe2cba480c9","1436","stimuli/1111100.jpg","1","","prediction_trial","1","","true","","1","true","true","false","false","false","false","[1,0,2]","111","100","1","","","","","","",""
"","","","","","image-keyboard-response","87","233043","0.0-62.0","63d7e70fd618cbdb3e2f3aa7","665500ab8938657b03fbdba8","665792c184cedbe2cba480c9","807","stimuli/11111001.jpg"," ","","feedback_trial","1","","","","","","","","","","","","","","","","","","","","",""
"","","","","","image-keyboard-response","88","233947","0.0-63.0","63d7e70fd618cbdb3e2f3aa7","665500ab8938657b03fbdba8","665792c184cedbe2cba480c9","902","stimuli/2100010.jpg","2","","prediction_trial","2","","true","","2","true","true","true","true","true","true","[2]","100","010","1","","","","","","",""
"","","","","","image-keyboard-response","89","234671","0.0-64.0","63d7e70fd618cbdb3e2f3aa7","665500ab8938657b03fbdba8","665792c184cedbe2cba480c9","721","stimuli/21000102.jpg"," ","","feedback_trial","2","","","","","","","","","","","","","","","","","","","","",""
"","","","","","image-keyboard-response","90","235763","0.0-65.0","63d7e70fd618cbdb3e2f3aa7","665500ab8938657b03fbdba8","665792c184cedbe2cba480c9","1090","stimuli/2100001.jpg","2","","prediction_trial","2","","true","","2","false","true","true","true","false","true","[2]","100","001","1","","","","","","",""
"","","","","","image-keyboard-response","91","236491","0.0-66.0","63d7e70fd618cbdb3e2f3aa7","665500ab8938657b03fbdba8","665792c184cedbe2cba480c9","726","stimuli/21000012.jpg"," ","","feedback_trial","2","","","","","","","","","","","","","","","","","","","","",""
"","","","","","image-keyboard-response","92","238549","0.0-67.0","63d7e70fd618cbdb3e2f3aa7","665500ab8938657b03fbdba8","665792c184cedbe2cba480c9","2057","stimuli/0000101.jpg","0","","prediction_trial","0","","true","","0","false","false","true","true","false","false","[0]","000","101","1","","","","","","",""
"","","","","","image-keyboard-response","93","239356","0.0-68.0","63d7e70fd618cbdb3e2f3aa7","665500ab8938657b03fbdba8","665792c184cedbe2cba480c9","806","stimuli/00001010.jpg"," ","","feedback_trial","0","","","","","","","","","","","","","","","","","","","","",""
"","","","","","image-keyboard-response","94","240598","0.0-69.0","63d7e70fd618cbdb3e2f3aa7","665500ab8938657b03fbdba8","665792c184cedbe2cba480c9","1240","stimuli/2010000.jpg","2","","prediction_trial","2","","true","","2","true","true","true","true","true","true","[2]","010","000","1","","","","","","",""
"","","","","","image-keyboard-response","95","241222","0.0-70.0","63d7e70fd618cbdb3e2f3aa7","665500ab8938657b03fbdba8","665792c184cedbe2cba480c9","622","stimuli/20100002.jpg"," ","","feedback_trial","2","","","","","","","","","","","","","","","","","","","","",""
"","","","","","image-keyboard-response","96","242452","0.0-71.0","63d7e70fd618cbdb3e2f3aa7","665500ab8938657b03fbdba8","665792c184cedbe2cba480c9","1228","stimuli/2110001.jpg","2","","prediction_trial","2","","true","","2","false","true","true","true","false","true","[2]","110","001","1","","","","","","",""
"","","","","","image-keyboard-response","97","243075","0.0-72.0","63d7e70fd618cbdb3e2f3aa7","665500ab8938657b03fbdba8","665792c184cedbe2cba480c9","620","stimuli/21100012.jpg"," ","","feedback_trial","2","","","","","","","","","","","","","","","","","","","","",""
"","","","","","image-keyboard-response","98","244427","0.0-73.0","63d7e70fd618cbdb3e2f3aa7","665500ab8938657b03fbdba8","665792c184cedbe2cba480c9","1350","stimuli/0100100.jpg","0","","prediction_trial","0","","true","","0","false","true","false","true","false","true","[0]","100","100","1","","","","","","",""
"","","","","","image-keyboard-response","99","245010","0.0-74.0","63d7e70fd618cbdb3e2f3aa7","665500ab8938657b03fbdba8","665792c184cedbe2cba480c9","581","stimuli/01001000.jpg"," ","","feedback_trial","0","","","","","","","","","","","","","","","","","","","","",""
"","","","","","image-keyboard-response","100","246746","0.0-75.0","63d7e70fd618cbdb3e2f3aa7","665500ab8938657b03fbdba8","665792c184cedbe2cba480c9","1733","stimuli/2111000.jpg","1","","prediction_trial","1","","true","","2","true","true","false","false","false","false","[0,1,2]","111","000","1","","","","","","",""
"","","","","","image-keyboard-response","101","247574","0.0-76.0","63d7e70fd618cbdb3e2f3aa7","665500ab8938657b03fbdba8","665792c184cedbe2cba480c9","826","stimuli/21110001.jpg"," ","","feedback_trial","0","","","","","","","","","","","","","","","","","","","","",""
"","","","","","image-keyboard-response","102","249951","0.0-77.0","63d7e70fd618cbdb3e2f3aa7","665500ab8938657b03fbdba8","665792c184cedbe2cba480c9","2375","stimuli/1000111.jpg","1","","prediction_trial","1","","true","","1","false","false","true","true","false","false","[1]","000","111","1","","","","","","",""
"","","","","","image-keyboard-response","103","250813","0.0-78.0","63d7e70fd618cbdb3e2f3aa7","665500ab8938657b03fbdba8","665792c184cedbe2cba480c9","860","stimuli/10001111.jpg"," ","","feedback_trial","1","","","","","","","","","","","","","","","","","","","","",""
"","","","","","image-keyboard-response","104","251906","0.0-79.0","63d7e70fd618cbdb3e2f3aa7","665500ab8938657b03fbdba8","665792c184cedbe2cba480c9","1091","stimuli/2010110.jpg","2","","prediction_trial","2","","true","","2","true","true","true","true","true","true","[2]","010","110","1","","","","","","",""
"","","","","","image-keyboard-response","105","252534","0.0-80.0","63d7e70fd618cbdb3e2f3aa7","665500ab8938657b03fbdba8","665792c184cedbe2cba480c9","626","stimuli/20101102.jpg"," ","","feedback_trial","2","","","","","","","","","","","","","","","","","","","","",""
"","","","","","image-keyboard-response","106","253678","0.0-81.0","63d7e70fd618cbdb3e2f3aa7","665500ab8938657b03fbdba8","665792c184cedbe2cba480c9","1141","stimuli/1101001.jpg","1","","prediction_trial","1","","true","","1","true","true","true","true","true","true","[1]","101","001","1","","","","","","",""
"","","","","","image-keyboard-response","107","254310","0.0-82.0","63d7e70fd618cbdb3e2f3aa7","665500ab8938657b03fbdba8","665792c184cedbe2cba480c9","630","stimuli/11010011.jpg"," ","","feedback_trial","1","","","","","","","","","","","","","","","","","","","","",""
"","","","","","image-keyboard-response","108","256581","0.0-83.0","63d7e70fd618cbdb3e2f3aa7","665500ab8938657b03fbdba8","665792c184cedbe2cba480c9","2269","stimuli/2011110.jpg","2","","prediction_trial","2","","true","","2","true","true","false","false","false","false","[2,1]","011","110","1","","","","","","",""
"","","","","","image-keyboard-response","109","257433","0.0-84.0","63d7e70fd618cbdb3e2f3aa7","665500ab8938657b03fbdba8","665792c184cedbe2cba480c9","849","stimuli/20111102.jpg"," ","","feedback_trial","2","","","","","","","","","","","","","","","","","","","","",""
"","","","","","image-keyboard-response","110","259397","0.0-85.0","63d7e70fd618cbdb3e2f3aa7","665500ab8938657b03fbdba8","665792c184cedbe2cba480c9","1962","stimuli/1010110.jpg","1","","prediction_trial","1","","true","","1","false","false","false","true","false","false","[1]","010","110","1","","","","","","",""
"","","","","","image-keyboard-response","111","260192","0.0-86.0","63d7e70fd618cbdb3e2f3aa7","665500ab8938657b03fbdba8","665792c184cedbe2cba480c9","793","stimuli/10101101.jpg"," ","","feedback_trial","1","","","","","","","","","","","","","","","","","","","","",""
"","","","","","image-keyboard-response","112","262133","0.0-87.0","63d7e70fd618cbdb3e2f3aa7","665500ab8938657b03fbdba8","665792c184cedbe2cba480c9","1937","stimuli/2101000.jpg","2","","prediction_trial","2","","true","","2","true","true","false","false","false","false","[2,0]","101","000","1","","","","","","",""
"","","","","","image-keyboard-response","113","262889","0.0-88.0","63d7e70fd618cbdb3e2f3aa7","665500ab8938657b03fbdba8","665792c184cedbe2cba480c9","754","stimuli/21010002.jpg"," ","","feedback_trial","2","","","","","","","","","","","","","","","","","","","","",""
"","","","","","image-keyboard-response","114","263813","0.0-89.0","63d7e70fd618cbdb3e2f3aa7","665500ab8938657b03fbdba8","665792c184cedbe2cba480c9","923","stimuli/0010000.jpg","0","","prediction_trial","0","","true","","0","true","true","true","true","true","true","[0]","010","000","1","","","","","","",""
"","","","","","image-keyboard-response","115","264608","0.0-90.0","63d7e70fd618cbdb3e2f3aa7","665500ab8938657b03fbdba8","665792c184cedbe2cba480c9","794","stimuli/00100000.jpg"," ","","feedback_trial","0","","","","","","","","","","","","","","","","","","","","",""
"","","","","","image-keyboard-response","116","265790","0.0-91.0","63d7e70fd618cbdb3e2f3aa7","665500ab8938657b03fbdba8","665792c184cedbe2cba480c9","1180","stimuli/0001000.jpg","0","","prediction_trial","0","","true","","0","true","true","true","true","true","true","[0]","001","000","1","","","","","","",""
"","","","","","image-keyboard-response","117","266508","0.0-92.0","63d7e70fd618cbdb3e2f3aa7","665500ab8938657b03fbdba8","665792c184cedbe2cba480c9","715","stimuli/00010000.jpg"," ","","feedback_trial","0","","","","","","","","","","","","","","","","","","","","",""
"","","","","","image-keyboard-response","118","267446","0.0-93.0","63d7e70fd618cbdb3e2f3aa7","665500ab8938657b03fbdba8","665792c184cedbe2cba480c9","936","stimuli/1100100.jpg","1","","prediction_trial","1","","true","","1","true","true","true","true","true","true","[1]","100","100","1","","","","","","",""
"","","","","","image-keyboard-response","119","268078","0.0-94.0","63d7e70fd618cbdb3e2f3aa7","665500ab8938657b03fbdba8","665792c184cedbe2cba480c9","630","stimuli/11001001.jpg"," ","","feedback_trial","1","","","","","","","","","","","","","","","","","","","","",""
"","","","","","image-keyboard-response","120","269997","0.0-95.0","63d7e70fd618cbdb3e2f3aa7","665500ab8938657b03fbdba8","665792c184cedbe2cba480c9","1916","stimuli/0110011.jpg","0","","prediction_trial","1","","false","","0","true","true","false","false","false","false","[0,1]","110","011","0","","","","","","",""
"","","","","","image-keyboard-response","121","271000","0.0-96.0","63d7e70fd618cbdb3e2f3aa7","665500ab8938657b03fbdba8","665792c184cedbe2cba480c9","1002","stimuli/01100111.jpg"," ","","feedback_trial","0","","","","","","","","","","","","","","","","","","","","",""
"","","","","","image-keyboard-response","122","273213","0.0-97.0","63d7e70fd618cbdb3e2f3aa7","665500ab8938657b03fbdba8","665792c184cedbe2cba480c9","2213","stimuli/0101111.jpg","0","","prediction_trial","0","","true","","0","false","false","false","false","false","false","[2,0]","101","111","1","","","","","","",""
"","","","","","image-keyboard-response","123","274068","0.0-98.0","63d7e70fd618cbdb3e2f3aa7","665500ab8938657b03fbdba8","665792c184cedbe2cba480c9","854","stimuli/01011110.jpg"," ","","feedback_trial","2","","","","","","","","","","","","","","","","","","","","",""
"","","","","","image-keyboard-response","124","276135","0.0-99.0","63d7e70fd618cbdb3e2f3aa7","665500ab8938657b03fbdba8","665792c184cedbe2cba480c9","2065","stimuli/1010100.jpg","1","","prediction_trial","1","","true","","1","true","true","false","true","false","true","[1]","010","100","1","","","","","","",""
"","","","","","image-keyboard-response","125","277368","0.0-100.0","63d7e70fd618cbdb3e2f3aa7","665500ab8938657b03fbdba8","665792c184cedbe2cba480c9","1231","stimuli/10101001.jpg"," ","","feedback_trial","1","","","","","","","","","","","","","","","","","","","","",""
"","","","","","image-keyboard-response","126","279174","0.0-101.0","63d7e70fd618cbdb3e2f3aa7","665500ab8938657b03fbdba8","665792c184cedbe2cba480c9","1804","stimuli/1000110.jpg","1","","prediction_trial","1","","true","","1","false","false","true","true","false","false","[1]","000","110","1","","","","","","",""
"","","","","","image-keyboard-response","127","280057","0.0-102.0","63d7e70fd618cbdb3e2f3aa7","665500ab8938657b03fbdba8","665792c184cedbe2cba480c9","881","stimuli/10001101.jpg"," ","","feedback_trial","1","","","","","","","","","","","","","","","","","","","","",""
"","","","","","image-keyboard-response","128","281092","0.0-103.0","63d7e70fd618cbdb3e2f3aa7","665500ab8938657b03fbdba8","665792c184cedbe2cba480c9","1033","stimuli/1100001.jpg","1","","prediction_trial","1","","true","","1","true","true","true","true","true","true","[1]","100","001","1","","","","","","",""
"","","","","","image-keyboard-response","129","281709","0.0-104.0","63d7e70fd618cbdb3e2f3aa7","665500ab8938657b03fbdba8","665792c184cedbe2cba480c9","615","stimuli/11000011.jpg"," ","","feedback_trial","1","","","","","","","","","","","","","","","","","","","","",""
"","","","","","image-keyboard-response","130","283450","0.0-105.0","63d7e70fd618cbdb3e2f3aa7","665500ab8938657b03fbdba8","665792c184cedbe2cba480c9","1739","stimuli/0111000.jpg","0","","prediction_trial","2","","false","","0","true","true","false","false","false","false","[1,2,0]","111","000","0","","","","","","",""
"","","","","","image-keyboard-response","131","284168","0.0-106.0","63d7e70fd618cbdb3e2f3aa7","665500ab8938657b03fbdba8","665792c184cedbe2cba480c9","716","stimuli/01110002.jpg"," ","","feedback_trial","1","","","","","","","","","","","","","","","","","","","","",""
"","","","","","image-keyboard-response","132","285823","0.0-107.0","63d7e70fd618cbdb3e2f3aa7","665500ab8938657b03fbdba8","665792c184cedbe2cba480c9","1654","stimuli/0100010.jpg","0","","prediction_trial","0","","true","","0","true","true","false","true","false","true","[0]","100","010","1","","","","","","",""
"","","","","","image-keyboard-response","133","286502","0.0-108.0","63d7e70fd618cbdb3e2f3aa7","665500ab8938657b03fbdba8","665792c184cedbe2cba480c9","678","stimuli/01000100.jpg"," ","","feedback_trial","0","","","","","","","","","","","","","","","","","","","","",""
"","","","","","image-keyboard-response","134","287264","0.0-109.0","63d7e70fd618cbdb3e2f3aa7","665500ab8938657b03fbdba8","665792c184cedbe2cba480c9","759","stimuli/1101100.jpg","1","","prediction_trial","1","","true","","1","true","true","true","true","true","true","[1]","101","100","1","","","","","","",""
"","","","","","image-keyboard-response","135","287845","0.0-110.0","63d7e70fd618cbdb3e2f3aa7","665500ab8938657b03fbdba8","665792c184cedbe2cba480c9","580","stimuli/11011001.jpg"," ","","feedback_trial","1","","","","","","","","","","","","","","","","","","","","",""
"","","","","","image-keyboard-response","136","289249","0.0-111.0","63d7e70fd618cbdb3e2f3aa7","665500ab8938657b03fbdba8","665792c184cedbe2cba480c9","1402","stimuli/1000100.jpg","1","","prediction_trial","1","","true","","1","true","true","true","true","true","true","[1]","000","100","1","","","","","","",""
"","","","","","image-keyboard-response","137","289842","0.0-112.0","63d7e70fd618cbdb3e2f3aa7","665500ab8938657b03fbdba8","665792c184cedbe2cba480c9","591","stimuli/10001001.jpg"," ","","feedback_trial","1","","","","","","","","","","","","","","","","","","","","",""
"","","","","","image-keyboard-response","138","292445","0.0-113.0","63d7e70fd618cbdb3e2f3aa7","665500ab8938657b03fbdba8","665792c184cedbe2cba480c9","2603","stimuli/2111110.jpg","1","","prediction_trial","0","","false","","2","true","true","false","false","false","false","[1,0,2]","111","110","0","","","","","","",""
"","","","","","image-keyboard-response","139","293222","0.0-114.0","63d7e70fd618cbdb3e2f3aa7","665500ab8938657b03fbdba8","665792c184cedbe2cba480c9","776","stimuli/21111100.jpg"," ","","feedback_trial","1","","","","","","","","","","","","","","","","","","","","",""
"","","","","","image-keyboard-response","140","294759","0.0-115.0","63d7e70fd618cbdb3e2f3aa7","665500ab8938657b03fbdba8","665792c184cedbe2cba480c9","1536","stimuli/1000001.jpg","1","","prediction_trial","1","","true","","1","true","true","true","true","true","true","[1]","000","001","1","","","","","","",""
"","","","","","image-keyboard-response","141","295609","0.0-116.0","63d7e70fd618cbdb3e2f3aa7","665500ab8938657b03fbdba8","665792c184cedbe2cba480c9","847","stimuli/10000011.jpg"," ","","feedback_trial","1","","","","","","","","","","","","","","","","","","","","",""
"","","","","","image-keyboard-response","142","297592","0.0-117.0","63d7e70fd618cbdb3e2f3aa7","665500ab8938657b03fbdba8","665792c184cedbe2cba480c9","1981","stimuli/2000011.jpg","2","","prediction_trial","2","","true","","2","false","false","true","true","false","false","[2]","000","011","1","","","","","","",""
"","","","","","image-keyboard-response","143","298383","0.0-118.0","63d7e70fd618cbdb3e2f3aa7","665500ab8938657b03fbdba8","665792c184cedbe2cba480c9","789","stimuli/20000112.jpg"," ","","feedback_trial","2","","","","","","","","","","","","","","","","","","","","",""
"","","","","","image-keyboard-response","144","300408","0.0-119.0","63d7e70fd618cbdb3e2f3aa7","665500ab8938657b03fbdba8","665792c184cedbe2cba480c9","2023","stimuli/2010101.jpg","0","","prediction_trial","2","","false","","2","false","false","true","true","false","false","[2]","010","101","0","","","","","","",""
"","","","","","image-keyboard-response","145","301264","0.0-120.0","63d7e70fd618cbdb3e2f3aa7","665500ab8938657b03fbdba8","665792c184cedbe2cba480c9","854","stimuli/20101012.jpg"," ","","feedback_trial","2","","","","","","","","","","","","","","","","","","","","",""
"","","","","","image-keyboard-response","146","303866","0.0-121.0","63d7e70fd618cbdb3e2f3aa7","665500ab8938657b03fbdba8","665792c184cedbe2cba480c9","2600","stimuli/0101110.jpg","1","","prediction_trial","2","","false","","0","false","false","false","false","false","false","[2,0]","101","110","0","","","","","","",""
"","","","","","image-keyboard-response","147","304653","0.0-122.0","63d7e70fd618cbdb3e2f3aa7","665500ab8938657b03fbdba8","665792c184cedbe2cba480c9","785","stimuli/01011102.jpg"," ","","feedback_trial","2","","","","","","","","","","","","","","","","","","","","",""
"","","","","","image-keyboard-response","148","308268","0.0-123.0","63d7e70fd618cbdb3e2f3aa7","665500ab8938657b03fbdba8","665792c184cedbe2cba480c9","3614","stimuli/2001111.jpg","2","","prediction_trial","2","","true","","2","false","false","false","true","false","false","[2]","001","111","1","","","","","","",""
"","","","","","image-keyboard-response","149","309092","0.0-124.0","63d7e70fd618cbdb3e2f3aa7","665500ab8938657b03fbdba8","665792c184cedbe2cba480c9","822","stimuli/20011112.jpg"," ","","feedback_trial","2","","","","","","","","","","","","","","","","","","","","",""
"","","","","","image-keyboard-response","150","310997","0.0-125.0","63d7e70fd618cbdb3e2f3aa7","665500ab8938657b03fbdba8","665792c184cedbe2cba480c9","1905","stimuli/2111001.jpg","2","","prediction_trial","0","","false","","2","false","true","false","false","false","false","[0,2,1]","111","001","0","","","","","","",""
"","","","","","image-keyboard-response","151","312531","0.0-126.0","63d7e70fd618cbdb3e2f3aa7","665500ab8938657b03fbdba8","665792c184cedbe2cba480c9","1532","stimuli/21110010.jpg"," ","","feedback_trial","0","","","","","","","","","","","","","","","","","","","","",""
"","","","","","image-keyboard-response","152","314418","0.0-127.0","63d7e70fd618cbdb3e2f3aa7","665500ab8938657b03fbdba8","665792c184cedbe2cba480c9","1885","stimuli/0110001.jpg","0","","prediction_trial","1","","false","","0","true","true","false","false","false","false","[0,1]","110","001","0","","","","","","",""
"","","","","","image-keyboard-response","153","315180","0.0-128.0","63d7e70fd618cbdb3e2f3aa7","665500ab8938657b03fbdba8","665792c184cedbe2cba480c9","761","stimuli/01100011.jpg"," ","","feedback_trial","0","","","","","","","","","","","","","","","","","","","","",""
"","","","","","image-keyboard-response","154","316852","0.0-129.0","63d7e70fd618cbdb3e2f3aa7","665500ab8938657b03fbdba8","665792c184cedbe2cba480c9","1670","stimuli/1010111.jpg","1","","prediction_trial","1","","true","","1","false","false","false","true","false","false","[1]","010","111","1","","","","","","",""
"","","","","","image-keyboard-response","155","317550","0.0-130.0","63d7e70fd618cbdb3e2f3aa7","665500ab8938657b03fbdba8","665792c184cedbe2cba480c9","696","stimuli/10101111.jpg"," ","","feedback_trial","1","","","","","","","","","","","","","","","","","","","","",""
"","","","","","image-keyboard-response","156","318534","0.0-131.0","63d7e70fd618cbdb3e2f3aa7","665500ab8938657b03fbdba8","665792c184cedbe2cba480c9","982","stimuli/0001010.jpg","0","","prediction_trial","0","","true","","0","true","true","true","true","true","true","[0]","001","010","1","","","","","","",""
"","","","","","image-keyboard-response","157","319092","0.0-132.0","63d7e70fd618cbdb3e2f3aa7","665500ab8938657b03fbdba8","665792c184cedbe2cba480c9","555","stimuli/00010100.jpg"," ","","feedback_trial","0","","","","","","","","","","","","","","","","","","","","",""
"","","","","","image-keyboard-response","158","320788","0.0-133.0","63d7e70fd618cbdb3e2f3aa7","665500ab8938657b03fbdba8","665792c184cedbe2cba480c9","1695","stimuli/2001001.jpg","2","","prediction_trial","2","","true","","2","false","true","false","true","false","true","[2]","001","001","1","","","","","","",""
"","","","","","image-keyboard-response","159","321508","0.0-134.0","63d7e70fd618cbdb3e2f3aa7","665500ab8938657b03fbdba8","665792c184cedbe2cba480c9","718","stimuli/20010012.jpg"," ","","feedback_trial","2","","","","","","","","","","","","","","","","","","","","",""
"","","","","","image-keyboard-response","160","323898","0.0-135.0","63d7e70fd618cbdb3e2f3aa7","665500ab8938657b03fbdba8","665792c184cedbe2cba480c9","2387","stimuli/0011110.jpg","1","","prediction_trial","0","","false","","0","false","false","true","true","false","false","[0]","011","110","0","","","","","","",""
"","","","","","image-keyboard-response","161","324727","0.0-136.0","63d7e70fd618cbdb3e2f3aa7","665500ab8938657b03fbdba8","665792c184cedbe2cba480c9","827","stimuli/00111100.jpg"," ","","feedback_trial","0","","","","","","","","","","","","","","","","","","","","",""
"","","","","","image-keyboard-response","162","326013","0.0-137.0","63d7e70fd618cbdb3e2f3aa7","665500ab8938657b03fbdba8","665792c184cedbe2cba480c9","1284","stimuli/2011000.jpg","2","","prediction_trial","1","","false","","2","true","true","false","false","false","false","[1,2]","011","000","0","","","","","","",""
"","","","","","image-keyboard-response","163","327147","0.0-138.0","63d7e70fd618cbdb3e2f3aa7","665500ab8938657b03fbdba8","665792c184cedbe2cba480c9","1132","stimuli/20110001.jpg"," ","","feedback_trial","1","","","","","","","","","","","","","","","","","","","","",""
"","","","","","image-keyboard-response","164","329441","0.0-139.0","63d7e70fd618cbdb3e2f3aa7","665500ab8938657b03fbdba8","665792c184cedbe2cba480c9","2291","stimuli/2000111.jpg","1","","prediction_trial","2","","false","","2","false","false","true","true","false","false","[2]","000","111","0","","","","","","",""
"","","","","","image-keyboard-response","165","330101","0.0-140.0","63d7e70fd618cbdb3e2f3aa7","665500ab8938657b03fbdba8","665792c184cedbe2cba480c9","658","stimuli/20001112.jpg"," ","","feedback_trial","2","","","","","","","","","","","","","","","","","","","","",""
"","","","","","image-keyboard-response","166","330766","0.0-141.0","63d7e70fd618cbdb3e2f3aa7","665500ab8938657b03fbdba8","665792c184cedbe2cba480c9","663","stimuli/1101000.jpg","1","","prediction_trial","1","","true","","1","true","true","true","true","true","true","[1]","101","000","1","","","","","","",""
"","","","","","image-keyboard-response","167","331966","0.0-142.0","63d7e70fd618cbdb3e2f3aa7","665500ab8938657b03fbdba8","665792c184cedbe2cba480c9","1198","stimuli/11010001.jpg"," ","","feedback_trial","1","","","","","","","","","","","","","","","","","","","","",""
"","","","","","image-keyboard-response","168","333523","0.0-143.0","63d7e70fd618cbdb3e2f3aa7","665500ab8938657b03fbdba8","665792c184cedbe2cba480c9","1553","stimuli/0001100.jpg","0","","prediction_trial","0","","true","","0","false","true","true","true","false","true","[0]","001","100","1","","","","","","",""
"","","","","","image-keyboard-response","169","334312","0.0-144.0","63d7e70fd618cbdb3e2f3aa7","665500ab8938657b03fbdba8","665792c184cedbe2cba480c9","787","stimuli/00011000.jpg"," ","","feedback_trial","0","","","","","","","","","","","","","","","","","","","","",""
"","","","","","image-keyboard-response","170","338537","0.0-145.0","63d7e70fd618cbdb3e2f3aa7","665500ab8938657b03fbdba8","665792c184cedbe2cba480c9","4223","stimuli/2101100.jpg","0","","prediction_trial","2","","false","","2","true","true","false","false","false","false","[2,0]","101","100","0","","","","","","",""
"","","","","","image-keyboard-response","171","339329","0.0-146.0","63d7e70fd618cbdb3e2f3aa7","665500ab8938657b03fbdba8","665792c184cedbe2cba480c9","790","stimuli/21011002.jpg"," ","","feedback_trial","2","","","","","","","","","","","","","","","","","","","","",""
"","","","","","image-keyboard-response","172","341750","0.0-147.0","63d7e70fd618cbdb3e2f3aa7","665500ab8938657b03fbdba8","665792c184cedbe2cba480c9","2419","stimuli/0101001.jpg","0","","prediction_trial","2","","false","","0","true","true","false","false","false","false","[2,0]","101","001","0","","","","","","",""
"","","","","","image-keyboard-response","173","342527","0.0-148.0","63d7e70fd618cbdb3e2f3aa7","665500ab8938657b03fbdba8","665792c184cedbe2cba480c9","775","stimuli/01010012.jpg"," ","","feedback_trial","2","","","","","","","","","","","","","","","","","","","","",""
"","","","","","image-keyboard-response","174","344480","0.0-149.0","63d7e70fd618cbdb3e2f3aa7","665500ab8938657b03fbdba8","665792c184cedbe2cba480c9","1950","stimuli/1100011.jpg","2","","prediction_trial","1","","false","","1","false","false","true","true","false","false","[1]","100","011","0","","","","","","",""
"","","","","","image-keyboard-response","175","345199","0.0-150.0","63d7e70fd618cbdb3e2f3aa7","665500ab8938657b03fbdba8","665792c184cedbe2cba480c9","715","stimuli/11000111.jpg"," ","","feedback_trial","1","","","","","","","","","","","","","","","","","","","","",""
"","","","","","image-keyboard-response","176","347772","0.0-151.0","63d7e70fd618cbdb3e2f3aa7","665500ab8938657b03fbdba8","665792c184cedbe2cba480c9","2571","stimuli/2011001.jpg","1","","prediction_trial","2","","false","","2","false","true","false","false","false","false","[1,2]","011","001","0","","","","","","",""
"","","","","","image-keyboard-response","177","348477","0.0-152.0","63d7e70fd618cbdb3e2f3aa7","665500ab8938657b03fbdba8","665792c184cedbe2cba480c9","704","stimuli/20110012.jpg"," ","","feedback_trial","1","","","","","","","","","","","","","","","","","","","","",""
"","","","","","image-keyboard-response","178","349531","0.0-153.0","63d7e70fd618cbdb3e2f3aa7","665500ab8938657b03fbdba8","665792c184cedbe2cba480c9","1053","stimuli/1100101.jpg","1","","prediction_trial","1","","true","","1","true","true","true","true","true","true","[1]","100","101","1","","","","","","",""
"","","","","","image-keyboard-response","179","350079","0.0-154.0","63d7e70fd618cbdb3e2f3aa7","665500ab8938657b03fbdba8","665792c184cedbe2cba480c9","546","stimuli/11001011.jpg"," ","","feedback_trial","1","","","","","","","","","","","","","","","","","","","","",""
"","","","","","image-keyboard-response","180","352358","0.0-155.0","63d7e70fd618cbdb3e2f3aa7","665500ab8938657b03fbdba8","665792c184cedbe2cba480c9","2279","stimuli/1110011.jpg","1","","prediction_trial","1","","true","","1","false","false","false","false","false","false","[0,1]","110","011","1","","","","","","",""
"","","","","","image-keyboard-response","181","353249","0.0-156.0","63d7e70fd618cbdb3e2f3aa7","665500ab8938657b03fbdba8","665792c184cedbe2cba480c9","889","stimuli/11100111.jpg"," ","","feedback_trial","0","","","","","","","","","","","","","","","","","","","","",""
"","","","","","image-keyboard-response","182","355701","0.0-157.0","63d7e70fd618cbdb3e2f3aa7","665500ab8938657b03fbdba8","665792c184cedbe2cba480c9","2450","stimuli/0100001.jpg","0","","prediction_trial","0","","true","","0","true","true","false","true","false","true","[0]","100","001","1","","","","","","",""
"","","","","","image-keyboard-response","183","356729","0.0-158.0","63d7e70fd618cbdb3e2f3aa7","665500ab8938657b03fbdba8","665792c184cedbe2cba480c9","1026","stimuli/01000010.jpg"," ","","feedback_trial","0","","","","","","","","","","","","","","","","","","","","",""
"","","","","","image-keyboard-response","184","357668","0.0-159.0","63d7e70fd618cbdb3e2f3aa7","665500ab8938657b03fbdba8","665792c184cedbe2cba480c9","936","stimuli/2000100.jpg","2","","prediction_trial","2","","true","","2","true","true","true","true","true","true","[2]","000","100","1","","","","","","",""
"","","","","","image-keyboard-response","185","358239","0.0-160.0","63d7e70fd618cbdb3e2f3aa7","665500ab8938657b03fbdba8","665792c184cedbe2cba480c9","569","stimuli/20001002.jpg"," ","","feedback_trial","2","","","","","","","","","","","","","","","","","","","","",""
"","","","","","image-keyboard-response","186","360503","0.0-161.0","63d7e70fd618cbdb3e2f3aa7","665500ab8938657b03fbdba8","665792c184cedbe2cba480c9","2262","stimuli/1011010.jpg","1","","prediction_trial","1","","true","","1","false","true","false","false","false","false","[2,1]","011","010","1","","","","","","",""
"","","","","","image-keyboard-response","187","361201","0.0-162.0","63d7e70fd618cbdb3e2f3aa7","665500ab8938657b03fbdba8","665792c184cedbe2cba480c9","696","stimuli/10110101.jpg"," ","","feedback_trial","2","","","","","","","","","","","","","","","","","","","","",""
"","","","","","image-keyboard-response","188","363237","0.0-163.0","63d7e70fd618cbdb3e2f3aa7","665500ab8938657b03fbdba8","665792c184cedbe2cba480c9","2035","stimuli/0111001.jpg","0","","prediction_trial","0","","true","","0","true","true","false","false","false","false","[1,2,0]","111","001","1","","","","","","",""
"","","","","","image-keyboard-response","189","363986","0.0-164.0","63d7e70fd618cbdb3e2f3aa7","665500ab8938657b03fbdba8","665792c184cedbe2cba480c9","746","stimuli/01110010.jpg"," ","","feedback_trial","1","","","","","","","","","","","","","","","","","","","","",""
"","","","","","image-keyboard-response","190","367261","0.0-165.0","63d7e70fd618cbdb3e2f3aa7","665500ab8938657b03fbdba8","665792c184cedbe2cba480c9","3274","stimuli/1110111.jpg","1","","prediction_trial","0","","false","","1","false","false","false","false","false","false","[1,0]","110","111","0","","","","","","",""
"","","","","","image-keyboard-response","191","368138","0.0-166.0","63d7e70fd618cbdb3e2f3aa7","665500ab8938657b03fbdba8","665792c184cedbe2cba480c9","875","stimuli/11101110.jpg"," ","","feedback_trial","1","","","","","","","","","","","","","","","","","","","","",""
"","","","","","image-keyboard-response","192","370253","0.0-167.0","63d7e70fd618cbdb3e2f3aa7","665500ab8938657b03fbdba8","665792c184cedbe2cba480c9","2113","stimuli/1001011.jpg","2","","prediction_trial","1","","false","","1","false","false","true","true","false","false","[1]","001","011","0","","","","","","",""
"","","","","","image-keyboard-response","193","370915","0.0-168.0","63d7e70fd618cbdb3e2f3aa7","665500ab8938657b03fbdba8","665792c184cedbe2cba480c9","660","stimuli/10010111.jpg"," ","","feedback_trial","1","","","","","","","","","","","","","","","","","","","","",""
"","","","","","image-keyboard-response","194","373069","0.0-169.0","63d7e70fd618cbdb3e2f3aa7","665500ab8938657b03fbdba8","665792c184cedbe2cba480c9","2152","stimuli/0110000.jpg","0","","prediction_trial","0","","true","","0","true","true","false","false","false","false","[0,1]","110","000","1","","","","","","",""
"","","","","","image-keyboard-response","195","373792","0.0-170.0","63d7e70fd618cbdb3e2f3aa7","665500ab8938657b03fbdba8","665792c184cedbe2cba480c9","720","stimuli/01100000.jpg"," ","","feedback_trial","0","","","","","","","","","","","","","","","","","","","","",""
"","","","","","image-keyboard-response","196","375301","0.0-171.0","63d7e70fd618cbdb3e2f3aa7","665500ab8938657b03fbdba8","665792c184cedbe2cba480c9","1507","stimuli/1110110.jpg","0","","prediction_trial","1","","false","","1","false","false","false","false","false","false","[0,1]","110","110","0","","","","","","",""
"","","","","","image-keyboard-response","197","376017","0.0-172.0","63d7e70fd618cbdb3e2f3aa7","665500ab8938657b03fbdba8","665792c184cedbe2cba480c9","714","stimuli/11101101.jpg"," ","","feedback_trial","0","","","","","","","","","","","","","","","","","","","","",""
"","","","","","image-keyboard-response","198","377296","0.0-173.0","63d7e70fd618cbdb3e2f3aa7","665500ab8938657b03fbdba8","665792c184cedbe2cba480c9","1277","stimuli/0000001.jpg","0","","prediction_trial","0","","true","","0","true","true","true","true","true","true","[0]","000","001","1","","","","","","",""
"","","","","","image-keyboard-response","199","377784","0.0-174.0","63d7e70fd618cbdb3e2f3aa7","665500ab8938657b03fbdba8","665792c184cedbe2cba480c9","486","stimuli/00000010.jpg"," ","","feedback_trial","0","","","","","","","","","","","","","","","","","","","","",""
"","","","","","image-keyboard-response","200","379544","0.0-175.0","63d7e70fd618cbdb3e2f3aa7","665500ab8938657b03fbdba8","665792c184cedbe2cba480c9","1758","stimuli/1011101.jpg","1","","prediction_trial","1","","true","","1","true","true","false","false","false","false","[1,2]","011","101","1","","","","","","",""
"","","","","","image-keyboard-response","201","380247","0.0-176.0","63d7e70fd618cbdb3e2f3aa7","665500ab8938657b03fbdba8","665792c184cedbe2cba480c9","701","stimuli/10111011.jpg"," ","","feedback_trial","1","","","","","","","","","","","","","","","","","","","","",""
"","","","","","image-keyboard-response","202","382088","0.0-177.0","63d7e70fd618cbdb3e2f3aa7","665500ab8938657b03fbdba8","665792c184cedbe2cba480c9","1840","stimuli/1110101.jpg","1","","prediction_trial","0","","false","","1","true","true","false","false","false","false","[0,1]","110","101","0","","","","","","",""
"","","","","","image-keyboard-response","203","382877","0.0-178.0","63d7e70fd618cbdb3e2f3aa7","665500ab8938657b03fbdba8","665792c184cedbe2cba480c9","788","stimuli/11101010.jpg"," ","","feedback_trial","0","","","","","","","","","","","","","","","","","","","","",""
"","","","","","image-keyboard-response","204","385058","0.0-179.0","63d7e70fd618cbdb3e2f3aa7","665500ab8938657b03fbdba8","665792c184cedbe2cba480c9","2179","stimuli/2101001.jpg","2","","prediction_trial","2","","true","","2","false","true","false","false","false","false","[2,0]","101","001","1","","","","","","",""
"","","","","","image-keyboard-response","205","385938","0.0-180.0","63d7e70fd618cbdb3e2f3aa7","665500ab8938657b03fbdba8","665792c184cedbe2cba480c9","878","stimuli/21010012.jpg"," ","","feedback_trial","2","","","","","","","","","","","","","","","","","","","","",""
"","","","","","image-keyboard-response","206","388079","0.0-181.0","63d7e70fd618cbdb3e2f3aa7","665500ab8938657b03fbdba8","665792c184cedbe2cba480c9","2140","stimuli/0111011.jpg","0","","prediction_trial","2","","false","","0","true","true","false","false","false","false","[2,0,1]","111","011","0","","","","","","",""
"","","","","","image-keyboard-response","207","388867","0.0-182.0","63d7e70fd618cbdb3e2f3aa7","665500ab8938657b03fbdba8","665792c184cedbe2cba480c9","787","stimuli/01110112.jpg"," ","","feedback_trial","2","","","","","","","","","","","","","","","","","","","","",""
"","","","","","image-keyboard-response","208","390217","0.0-183.0","63d7e70fd618cbdb3e2f3aa7","665500ab8938657b03fbdba8","665792c184cedbe2cba480c9","1348","stimuli/1010000.jpg","1","","prediction_trial","1","","true","","1","true","true","false","true","false","true","[1]","010","000","1","","","","","","",""
"","","","","","image-keyboard-response","209","390914","0.0-184.0","63d7e70fd618cbdb3e2f3aa7","665500ab8938657b03fbdba8","665792c184cedbe2cba480c9","695","stimuli/10100001.jpg"," ","","feedback_trial","1","","","","","","","","","","","","","","","","","","","","",""
"","","","","","image-keyboard-response","210","393645","0.0-185.0","63d7e70fd618cbdb3e2f3aa7","665500ab8938657b03fbdba8","665792c184cedbe2cba480c9","2729","stimuli/0110101.jpg","0","","prediction_trial","0","","true","","0","false","false","false","false","false","false","[1,0]","110","101","1","","","","","","",""
"","","","","","image-keyboard-response","211","395211","0.0-186.0","63d7e70fd618cbdb3e2f3aa7","665500ab8938657b03fbdba8","665792c184cedbe2cba480c9","1564","stimuli/01101010.jpg"," ","","feedback_trial","1","","","","","","","","","","","","","","","","","","","","",""
"","","","","","image-keyboard-response","212","396129","0.0-187.0","63d7e70fd618cbdb3e2f3aa7","665500ab8938657b03fbdba8","665792c184cedbe2cba480c9","916","stimuli/1000101.jpg","1","","prediction_trial","1","","true","","1","true","true","true","true","true","true","[1]","000","101","1","","","","","","",""
"","","","","","image-keyboard-response","213","396727","0.0-188.0","63d7e70fd618cbdb3e2f3aa7","665500ab8938657b03fbdba8","665792c184cedbe2cba480c9","596","stimuli/10001011.jpg"," ","","feedback_trial","1","","","","","","","","","","","","","","","","","","","","",""
"","","","","","image-keyboard-response","214","397591","0.0-189.0","63d7e70fd618cbdb3e2f3aa7","665500ab8938657b03fbdba8","665792c184cedbe2cba480c9","859","stimuli/0000011.jpg","0","","prediction_trial","0","","true","","0","true","true","true","true","true","true","[0]","000","011","1","","","","","","",""
"","","","","","image-keyboard-response","215","398440","0.0-190.0","63d7e70fd618cbdb3e2f3aa7","665500ab8938657b03fbdba8","665792c184cedbe2cba480c9","848","stimuli/00000110.jpg"," ","","feedback_trial","0","","","","","","","","","","","","","","","","","","","","",""
"","","","","","image-keyboard-response","216","399734","0.0-191.0","63d7e70fd618cbdb3e2f3aa7","665500ab8938657b03fbdba8","665792c184cedbe2cba480c9","1292","stimuli/1011100.jpg","1","","prediction_trial","2","","false","","1","true","true","false","false","false","false","[1,2]","011","100","0","","","","","","",""
"","","","","","image-keyboard-response","217","400495","0.0-192.0","63d7e70fd618cbdb3e2f3aa7","665500ab8938657b03fbdba8","665792c184cedbe2cba480c9","759","stimuli/10111002.jpg"," ","","feedback_trial","1","","","","","","","","","","","","","","","","","","","","",""
"","","","","","image-keyboard-response","218","402042","0.0-193.0","63d7e70fd618cbdb3e2f3aa7","665500ab8938657b03fbdba8","665792c184cedbe2cba480c9","1546","stimuli/0010100.jpg","0","","prediction_trial","0","","true","","0","false","true","true","true","false","true","[0]","010","100","1","","","","","","",""
"","","","","","image-keyboard-response","219","402858","0.0-194.0","63d7e70fd618cbdb3e2f3aa7","665500ab8938657b03fbdba8","665792c184cedbe2cba480c9","815","stimuli/00101000.jpg"," ","","feedback_trial","0","","","","","","","","","","","","","","","","","","","","",""
"","","","","","image-keyboard-response","220","406820","0.0-195.0","63d7e70fd618cbdb3e2f3aa7","665500ab8938657b03fbdba8","665792c184cedbe2cba480c9","3961","stimuli/2110111.jpg","0","","prediction_trial","2","","false","","2","false","false","true","true","false","false","[2]","110","111","0","","","","","","",""
"","","","","","image-keyboard-response","221","407498","0.0-196.0","63d7e70fd618cbdb3e2f3aa7","665500ab8938657b03fbdba8","665792c184cedbe2cba480c9","676","stimuli/21101112.jpg"," ","","feedback_trial","2","","","","","","","","","","","","","","","","","","","","",""
"","","","","","image-keyboard-response","222","410411","0.0-197.0","63d7e70fd618cbdb3e2f3aa7","665500ab8938657b03fbdba8","665792c184cedbe2cba480c9","2911","stimuli/2011101.jpg","2","","prediction_trial","2","","true","","2","false","false","false","false","false","false","[1,2]","011","101","1","","","","","","",""
"","","","","","image-keyboard-response","223","411232","0.0-198.0","63d7e70fd618cbdb3e2f3aa7","665500ab8938657b03fbdba8","665792c184cedbe2cba480c9","820","stimuli/20111012.jpg"," ","","feedback_trial","1","","","","","","","","","","","","","","","","","","","","",""
"","","","","","image-keyboard-response","224","413351","0.0-199.0","63d7e70fd618cbdb3e2f3aa7","665500ab8938657b03fbdba8","665792c184cedbe2cba480c9","2117","stimuli/1011011.jpg","1","","prediction_trial","2","","false","","1","false","false","false","false","false","false","[1,2]","011","011","0","","","","","","",""
"","","","","","image-keyboard-response","225","413993","0.0-200.0","63d7e70fd618cbdb3e2f3aa7","665500ab8938657b03fbdba8","665792c184cedbe2cba480c9","639","stimuli/10110112.jpg"," ","","feedback_trial","1","","","","","","","","","","","","","","","","","","","","",""
"","","","","","image-keyboard-response","226","415304","0.0-201.0","63d7e70fd618cbdb3e2f3aa7","665500ab8938657b03fbdba8","665792c184cedbe2cba480c9","1310","stimuli/0011001.jpg","0","","prediction_trial","0","","true","","0","true","true","true","true","true","true","[0]","011","001","1","","","","","","",""
"","","","","","image-keyboard-response","227","415816","0.0-202.0","63d7e70fd618cbdb3e2f3aa7","665500ab8938657b03fbdba8","665792c184cedbe2cba480c9","510","stimuli/00110010.jpg"," ","","feedback_trial","0","","","","","","","","","","","","","","","","","","","","",""
"","","","","","image-keyboard-response","228","417150","0.0-203.0","63d7e70fd618cbdb3e2f3aa7","665500ab8938657b03fbdba8","665792c184cedbe2cba480c9","1332","stimuli/1010101.jpg","1","","prediction_trial","1","","true","","1","true","true","false","true","false","true","[1]","010","101","1","","","","","","",""
"","","","","","image-keyboard-response","229","417632","0.0-204.0","63d7e70fd618cbdb3e2f3aa7","665500ab8938657b03fbdba8","665792c184cedbe2cba480c9","480","stimuli/10101011.jpg"," ","","feedback_trial","1","","","","","","","","","","","","","","","","","","","","",""
"","","","","","image-keyboard-response","230","418473","0.0-205.0","63d7e70fd618cbdb3e2f3aa7","665500ab8938657b03fbdba8","665792c184cedbe2cba480c9","839","stimuli/1001101.jpg","1","","prediction_trial","1","","true","","1","true","true","true","true","true","true","[1]","001","101","1","","","","","","",""
"","","","","","image-keyboard-response","231","418890","0.0-206.0","63d7e70fd618cbdb3e2f3aa7","665500ab8938657b03fbdba8","665792c184cedbe2cba480c9","415","stimuli/10011011.jpg"," ","","feedback_trial","1","","","","","","","","","","","","","","","","","","","","",""
"","","","","","image-keyboard-response","232","420346","0.0-207.0","63d7e70fd618cbdb3e2f3aa7","665500ab8938657b03fbdba8","665792c184cedbe2cba480c9","1454","stimuli/1111001.jpg","1","","prediction_trial","0","","false","","1","true","true","false","false","false","false","[0,1,2]","111","001","0","","","","","","",""
"","","","","","image-keyboard-response","233","421286","0.0-208.0","63d7e70fd618cbdb3e2f3aa7","665500ab8938657b03fbdba8","665792c184cedbe2cba480c9","939","stimuli/11110010.jpg"," ","","feedback_trial","0","","","","","","","","","","","","","","","","","","","","",""
"","","","","","image-keyboard-response","234","423072","0.0-209.0","63d7e70fd618cbdb3e2f3aa7","665500ab8938657b03fbdba8","665792c184cedbe2cba480c9","1783","stimuli/2001010.jpg","2","","prediction_trial","2","","true","","2","true","true","false","true","false","true","[2]","001","010","1","","","","","","",""
"","","","","","image-keyboard-response","235","423981","0.0-210.0","63d7e70fd618cbdb3e2f3aa7","665500ab8938657b03fbdba8","665792c184cedbe2cba480c9","907","stimuli/20010102.jpg"," ","","feedback_trial","2","","","","","","","","","","","","","","","","","","","","",""
"","","","","","image-keyboard-response","236","425560","0.0-211.0","63d7e70fd618cbdb3e2f3aa7","665500ab8938657b03fbdba8","665792c184cedbe2cba480c9","1578","stimuli/1000010.jpg","1","","prediction_trial","1","","true","","1","false","true","true","true","false","true","[1]","000","010","1","","","","","","",""
"","","","","","image-keyboard-response","237","426062","0.0-212.0","63d7e70fd618cbdb3e2f3aa7","665500ab8938657b03fbdba8","665792c184cedbe2cba480c9","500","stimuli/10000101.jpg"," ","","feedback_trial","1","","","","","","","","","","","","","","","","","","","","",""
"","","","","","image-keyboard-response","238","427820","0.0-213.0","63d7e70fd618cbdb3e2f3aa7","665500ab8938657b03fbdba8","665792c184cedbe2cba480c9","1756","stimuli/0101000.jpg","0","","prediction_trial","0","","true","","0","true","true","false","false","false","false","[2,0]","101","000","1","","","","","","",""
"","","","","","image-keyboard-response","239","428406","0.0-214.0","63d7e70fd618cbdb3e2f3aa7","665500ab8938657b03fbdba8","665792c184cedbe2cba480c9","584","stimuli/01010000.jpg"," ","","feedback_trial","2","","","","","","","","","","","","","","","","","","","","",""
"","","","","","image-keyboard-response","240","430519","0.0-215.0","63d7e70fd618cbdb3e2f3aa7","665500ab8938657b03fbdba8","665792c184cedbe2cba480c9","2112","stimuli/1001111.jpg","2","","prediction_trial","1","","false","","1","false","false","true","true","false","false","[1]","001","111","0","","","","","","",""
"","","","","","image-keyboard-response","241","431200","0.0-216.0","63d7e70fd618cbdb3e2f3aa7","665500ab8938657b03fbdba8","665792c184cedbe2cba480c9","680","stimuli/10011111.jpg"," ","","feedback_trial","1","","","","","","","","","","","","","","","","","","","","",""
"","","","","","image-keyboard-response","242","434692","0.0-217.0","63d7e70fd618cbdb3e2f3aa7","665500ab8938657b03fbdba8","665792c184cedbe2cba480c9","3491","stimuli/2011111.jpg","2","","prediction_trial","1","","false","","2","false","false","false","false","false","false","[1,2]","011","111","0","","","","","","",""
"","","","","","image-keyboard-response","243","435428","0.0-218.0","63d7e70fd618cbdb3e2f3aa7","665500ab8938657b03fbdba8","665792c184cedbe2cba480c9","735","stimuli/20111111.jpg"," ","","feedback_trial","1","","","","","","","","","","","","","","","","","","","","",""
"","","","","","image-keyboard-response","244","437507","0.0-219.0","63d7e70fd618cbdb3e2f3aa7","665500ab8938657b03fbdba8","665792c184cedbe2cba480c9","2076","stimuli/1100111.jpg","1","","prediction_trial","1","","true","","1","false","false","true","true","false","false","[1]","100","111","1","","","","","","",""
"","","","","","image-keyboard-response","245","438218","0.0-220.0","63d7e70fd618cbdb3e2f3aa7","665500ab8938657b03fbdba8","665792c184cedbe2cba480c9","710","stimuli/11001111.jpg"," ","","feedback_trial","1","","","","","","","","","","","","","","","","","","","","",""
"","","","","","image-keyboard-response","246","439455","0.0-221.0","63d7e70fd618cbdb3e2f3aa7","665500ab8938657b03fbdba8","665792c184cedbe2cba480c9","1235","stimuli/1010010.jpg","1","","prediction_trial","1","","true","","1","false","true","false","true","false","true","[1]","010","010","1","","","","","","",""
"","","","","","image-keyboard-response","247","440198","0.0-222.0","63d7e70fd618cbdb3e2f3aa7","665500ab8938657b03fbdba8","665792c184cedbe2cba480c9","742","stimuli/10100101.jpg"," ","","feedback_trial","1","","","","","","","","","","","","","","","","","","","","",""
"","","","","","image-keyboard-response","248","442023","0.0-223.0","63d7e70fd618cbdb3e2f3aa7","665500ab8938657b03fbdba8","665792c184cedbe2cba480c9","1824","stimuli/1011001.jpg","1","","prediction_trial","1","","true","","1","true","true","false","false","false","false","[2,1]","011","001","1","","","","","","",""
"","","","","","image-keyboard-response","249","442639","0.0-224.0","63d7e70fd618cbdb3e2f3aa7","665500ab8938657b03fbdba8","665792c184cedbe2cba480c9","615","stimuli/10110011.jpg"," ","","feedback_trial","2","","","","","","","","","","","","","","","","","","","","",""
"","","","","","image-keyboard-response","250","443940","0.0-225.0","63d7e70fd618cbdb3e2f3aa7","665500ab8938657b03fbdba8","665792c184cedbe2cba480c9","1300","stimuli/2010111.jpg","1","","prediction_trial","2","","false","","2","false","false","true","true","false","false","[2]","010","111","0","","","","","","",""
"","","","","","image-keyboard-response","251","444559","0.0-226.0","63d7e70fd618cbdb3e2f3aa7","665500ab8938657b03fbdba8","665792c184cedbe2cba480c9","618","stimuli/20101112.jpg"," ","","feedback_trial","2","","","","","","","","","","","","","","","","","","","","",""
"","","","","","image-keyboard-response","252","446239","0.0-227.0","63d7e70fd618cbdb3e2f3aa7","665500ab8938657b03fbdba8","665792c184cedbe2cba480c9","1679","stimuli/0110111.jpg","0","","prediction_trial","0","","true","","0","false","false","false","false","false","false","[0,1]","110","111","1","","","","","","",""
"","","","","","image-keyboard-response","253","447374","0.0-228.0","63d7e70fd618cbdb3e2f3aa7","665500ab8938657b03fbdba8","665792c184cedbe2cba480c9","1134","stimuli/01101110.jpg"," ","","feedback_trial","0","","","","","","","","","","","","","","","","","","","","",""
"","","","","","image-keyboard-response","254","448474","0.0-229.0","63d7e70fd618cbdb3e2f3aa7","665500ab8938657b03fbdba8","665792c184cedbe2cba480c9","1099","stimuli/2110010.jpg","2","","prediction_trial","2","","true","","2","true","true","true","true","true","true","[2]","110","010","1","","","","","","",""
"","","","","","image-keyboard-response","255","449018","0.0-230.0","63d7e70fd618cbdb3e2f3aa7","665500ab8938657b03fbdba8","665792c184cedbe2cba480c9","542","stimuli/21100102.jpg"," ","","feedback_trial","2","","","","","","","","","","","","","","","","","","","","",""
"","","","","","image-keyboard-response","256","451657","0.0-231.0","63d7e70fd618cbdb3e2f3aa7","665500ab8938657b03fbdba8","665792c184cedbe2cba480c9","2637","stimuli/2100011.jpg","1","","prediction_trial","2","","false","","2","false","false","true","true","false","false","[2]","100","011","0","","","","","","",""
"","","","","","image-keyboard-response","257","452482","0.0-232.0","63d7e70fd618cbdb3e2f3aa7","665500ab8938657b03fbdba8","665792c184cedbe2cba480c9","822","stimuli/21000112.jpg"," ","","feedback_trial","2","","","","","","","","","","","","","","","","","","","","",""
"","","","","","image-keyboard-response","258","454398","0.0-233.0","63d7e70fd618cbdb3e2f3aa7","665500ab8938657b03fbdba8","665792c184cedbe2cba480c9","1915","stimuli/1000011.jpg","1","","prediction_trial","1","","true","","1","false","false","true","true","false","false","[1]","000","011","1","","","","","","",""
"","","","","","image-keyboard-response","259","455018","0.0-234.0","63d7e70fd618cbdb3e2f3aa7","665500ab8938657b03fbdba8","665792c184cedbe2cba480c9","619","stimuli/10000111.jpg"," ","","feedback_trial","1","","","","","","","","","","","","","","","","","","","","",""
"","","","","","image-keyboard-response","260","457312","0.0-235.0","63d7e70fd618cbdb3e2f3aa7","665500ab8938657b03fbdba8","665792c184cedbe2cba480c9","2292","stimuli/2111011.jpg","1","","prediction_trial","2","","false","","2","false","false","false","false","false","false","[0,1,2]","111","011","0","","","","","","",""
"","","","","","image-keyboard-response","261","457921","0.0-236.0","63d7e70fd618cbdb3e2f3aa7","665500ab8938657b03fbdba8","665792c184cedbe2cba480c9","607","stimuli/21110112.jpg"," ","","feedback_trial","0","","","","","","","","","","","","","","","","","","","","",""
"","","","","","image-keyboard-response","262","458673","0.0-237.0","63d7e70fd618cbdb3e2f3aa7","665500ab8938657b03fbdba8","665792c184cedbe2cba480c9","751","stimuli/1001100.jpg","1","","prediction_trial","1","","true","","1","true","true","true","true","true","true","[1]","001","100","1","","","","","","",""
"","","","","","image-keyboard-response","263","459197","0.0-238.0","63d7e70fd618cbdb3e2f3aa7","665500ab8938657b03fbdba8","665792c184cedbe2cba480c9","523","stimuli/10011001.jpg"," ","","feedback_trial","1","","","","","","","","","","","","","","","","","","","","",""
"","","","","","image-keyboard-response","264","460110","0.0-239.0","63d7e70fd618cbdb3e2f3aa7","665500ab8938657b03fbdba8","665792c184cedbe2cba480c9","912","stimuli/2110000.jpg","2","","prediction_trial","2","","true","","2","true","true","true","true","true","true","[2]","110","000","1","","","","","","",""
"","","","","","image-keyboard-response","265","460616","0.0-240.0","63d7e70fd618cbdb3e2f3aa7","665500ab8938657b03fbdba8","665792c184cedbe2cba480c9","505","stimuli/21100002.jpg"," ","","feedback_trial","2","","","","","","","","","","","","","","","","","","","","",""
"","","","","","image-keyboard-response","266","461414","0.0-241.0","63d7e70fd618cbdb3e2f3aa7","665500ab8938657b03fbdba8","665792c184cedbe2cba480c9","796","stimuli/0001011.jpg","0","","prediction_trial","0","","true","","0","true","true","true","true","true","true","[0]","001","011","1","","","","","","",""
"","","","","","image-keyboard-response","267","461941","0.0-242.0","63d7e70fd618cbdb3e2f3aa7","665500ab8938657b03fbdba8","665792c184cedbe2cba480c9","526","stimuli/00010110.jpg"," ","","feedback_trial","0","","","","","","","","","","","","","","","","","","","","",""
"","","","","","image-keyboard-response","268","463566","0.0-243.0","63d7e70fd618cbdb3e2f3aa7","665500ab8938657b03fbdba8","665792c184cedbe2cba480c9","1622","stimuli/0011100.jpg","0","","prediction_trial","0","","true","","0","false","true","true","true","false","true","[0]","011","100","1","","","","","","",""
"","","","","","image-keyboard-response","269","464048","0.0-244.0","63d7e70fd618cbdb3e2f3aa7","665500ab8938657b03fbdba8","665792c184cedbe2cba480c9","481","stimuli/00111000.jpg"," ","","feedback_trial","0","","","","","","","","","","","","","","","","","","","","",""
"","","","","","image-keyboard-response","270","465738","0.0-245.0","63d7e70fd618cbdb3e2f3aa7","665500ab8938657b03fbdba8","665792c184cedbe2cba480c9","1687","stimuli/1111000.jpg","1","","prediction_trial","0","","false","","1","true","true","false","false","false","false","[0,2,1]","111","000","0","","","","","","",""
"","","","","","image-keyboard-response","271","466429","0.0-246.0","63d7e70fd618cbdb3e2f3aa7","665500ab8938657b03fbdba8","665792c184cedbe2cba480c9","690","stimuli/11110000.jpg"," ","","feedback_trial","0","","","","","","","","","","","","","","","","","","","","",""
"","","","","","image-keyboard-response","272","467253","0.0-247.0","63d7e70fd618cbdb3e2f3aa7","665500ab8938657b03fbdba8","665792c184cedbe2cba480c9","823","stimuli/2100000.jpg","2","","prediction_trial","2","","true","","2","true","true","true","true","true","true","[2]","100","000","1","","","","","","",""
"","","","","","image-keyboard-response","273","467761","0.0-248.0","63d7e70fd618cbdb3e2f3aa7","665500ab8938657b03fbdba8","665792c184cedbe2cba480c9","505","stimuli/21000002.jpg"," ","","feedback_trial","2","","","","","","","","","","","","","","","","","","","","",""
"","","","","","image-keyboard-response","274","468456","0.0-249.0","63d7e70fd618cbdb3e2f3aa7","665500ab8938657b03fbdba8","665792c184cedbe2cba480c9","695","stimuli/0011011.jpg","0","","prediction_trial","0","","true","","0","true","true","true","true","true","true","[0]","011","011","1","","","","","","",""
"","","","","","image-keyboard-response","275","468947","0.0-250.0","63d7e70fd618cbdb3e2f3aa7","665500ab8938657b03fbdba8","665792c184cedbe2cba480c9","490","stimuli/00110110.jpg"," ","","feedback_trial","0","","","","","","","","","","","","","","","","","","","","",""
"","","","","","image-keyboard-response","276","470671","0.0-251.0","63d7e70fd618cbdb3e2f3aa7","665500ab8938657b03fbdba8","665792c184cedbe2cba480c9","1722","stimuli/0010101.jpg","0","","prediction_trial","0","","true","","0","false","false","true","true","false","false","[0]","010","101","1","","","","","","",""
"","","","","","image-keyboard-response","277","471491","0.0-252.0","63d7e70fd618cbdb3e2f3aa7","665500ab8938657b03fbdba8","665792c184cedbe2cba480c9","819","stimuli/00101010.jpg"," ","","feedback_trial","0","","","","","","","","","","","","","","","","","","","","",""
"","","","","","image-keyboard-response","278","475262","0.0-253.0","63d7e70fd618cbdb3e2f3aa7","665500ab8938657b03fbdba8","665792c184cedbe2cba480c9","3770","stimuli/0101100.jpg","0","","prediction_trial","2","","false","","0","false","true","false","false","false","false","[2,0]","101","100","0","","","","","","",""
"","","","","","image-keyboard-response","279","476147","0.0-254.0","63d7e70fd618cbdb3e2f3aa7","665500ab8938657b03fbdba8","665792c184cedbe2cba480c9","884","stimuli/01011002.jpg"," ","","feedback_trial","2","","","","","","","","","","","","","","","","","","","","",""
"","","","","","image-keyboard-response","280","479405","0.0-255.0","63d7e70fd618cbdb3e2f3aa7","665500ab8938657b03fbdba8","665792c184cedbe2cba480c9","3257","stimuli/0001111.jpg","0","","prediction_trial","0","","true","","0","false","false","true","true","false","false","[0]","001","111","1","","","","","","",""
"","","","","","image-keyboard-response","281","480091","0.0-256.0","63d7e70fd618cbdb3e2f3aa7","665500ab8938657b03fbdba8","665792c184cedbe2cba480c9","684","stimuli/00011110.jpg"," ","","feedback_trial","0","","","","","","","","","","","","","","","","","","","","",""
"","","","","","image-keyboard-response","282","481645","0.0-257.0","63d7e70fd618cbdb3e2f3aa7","665500ab8938657b03fbdba8","665792c184cedbe2cba480c9","1553","stimuli/0000110.jpg","1","","prediction_trial","0","","false","","0","false","false","true","true","false","false","[0]","000","110","0","","","","","","",""
"","","","","","image-keyboard-response","283","482361","0.0-258.0","63d7e70fd618cbdb3e2f3aa7","665500ab8938657b03fbdba8","665792c184cedbe2cba480c9","714","stimuli/00001100.jpg"," ","","feedback_trial","0","","","","","","","","","","","","","","","","","","","","",""
"","","","","","image-keyboard-response","284","484155","0.0-259.0","63d7e70fd618cbdb3e2f3aa7","665500ab8938657b03fbdba8","665792c184cedbe2cba480c9","1793","stimuli/1010001.jpg","1","","prediction_trial","1","","true","","1","true","true","false","true","false","true","[1]","010","001","1","","","","","","",""
"","","","","","image-keyboard-response","285","484698","0.0-260.0","63d7e70fd618cbdb3e2f3aa7","665500ab8938657b03fbdba8","665792c184cedbe2cba480c9","542","stimuli/10100011.jpg"," ","","feedback_trial","1","","","","","","","","","","","","","","","","","","","","",""
"","","","","","image-keyboard-response","286","486795","0.0-261.0","63d7e70fd618cbdb3e2f3aa7","665500ab8938657b03fbdba8","665792c184cedbe2cba480c9","2095","stimuli/1010011.jpg","1","","prediction_trial","1","","true","","1","false","false","false","true","false","false","[1]","010","011","1","","","","","","",""
"","","","","","image-keyboard-response","287","487493","0.0-262.0","63d7e70fd618cbdb3e2f3aa7","665500ab8938657b03fbdba8","665792c184cedbe2cba480c9","697","stimuli/10100111.jpg"," ","","feedback_trial","1","","","","","","","","","","","","","","","","","","","","",""
"","","","","","image-keyboard-response","288","488364","0.0-263.0","63d7e70fd618cbdb3e2f3aa7","665500ab8938657b03fbdba8","665792c184cedbe2cba480c9","870","stimuli/2110110.jpg","2","","prediction_trial","2","","true","","2","true","true","true","true","true","true","[2]","110","110","1","","","","","","",""
"","","","","","image-keyboard-response","289","488823","0.0-264.0","63d7e70fd618cbdb3e2f3aa7","665500ab8938657b03fbdba8","665792c184cedbe2cba480c9","459","stimuli/21101102.jpg"," ","","feedback_trial","2","","","","","","","","","","","","","","","","","","","","",""
"","","","","","image-keyboard-response","290","489485","0.0-265.0","63d7e70fd618cbdb3e2f3aa7","665500ab8938657b03fbdba8","665792c184cedbe2cba480c9","660","stimuli/0000010.jpg","0","","prediction_trial","0","","true","","0","true","true","true","true","true","true","[0]","000","010","1","","","","","","",""
"","","","","","image-keyboard-response","291","489901","0.0-266.0","63d7e70fd618cbdb3e2f3aa7","665500ab8938657b03fbdba8","665792c184cedbe2cba480c9","416","stimuli/00000100.jpg"," ","","feedback_trial","0","","","","","","","","","","","","","","","","","","","","",""
"","","","","","image-keyboard-response","292","492893","0.0-267.0","63d7e70fd618cbdb3e2f3aa7","665500ab8938657b03fbdba8","665792c184cedbe2cba480c9","2990","stimuli/0001101.jpg","0","","prediction_trial","0","","true","","0","false","false","true","true","false","false","[0]","001","101","1","","","","","","",""
"","","","","","image-keyboard-response","293","493665","0.0-268.0","63d7e70fd618cbdb3e2f3aa7","665500ab8938657b03fbdba8","665792c184cedbe2cba480c9","772","stimuli/00011010.jpg"," ","","feedback_trial","0","","","","","","","","","","","","","","","","","","","","",""
"","","","","","image-keyboard-response","294","494482","0.0-269.0","63d7e70fd618cbdb3e2f3aa7","665500ab8938657b03fbdba8","665792c184cedbe2cba480c9","815","stimuli/2110100.jpg","2","","prediction_trial","2","","true","","2","true","true","true","true","true","true","[2]","110","100","1","","","","","","",""
"","","","","","image-keyboard-response","295","494945","0.0-270.0","63d7e70fd618cbdb3e2f3aa7","665500ab8938657b03fbdba8","665792c184cedbe2cba480c9","462","stimuli/21101002.jpg"," ","","feedback_trial","2","","","","","","","","","","","","","","","","","","","","",""
"","","","","","image-keyboard-response","296","497037","0.0-271.0","63d7e70fd618cbdb3e2f3aa7","665500ab8938657b03fbdba8","665792c184cedbe2cba480c9","2091","stimuli/0000111.jpg","1","","prediction_trial","0","","false","","0","false","false","true","true","false","false","[0]","000","111","0","","","","","","",""
"","","","","","image-keyboard-response","297","497658","0.0-272.0","63d7e70fd618cbdb3e2f3aa7","665500ab8938657b03fbdba8","665792c184cedbe2cba480c9","620","stimuli/00001110.jpg"," ","","feedback_trial","0","","","","","","","","","","","","","","","","","","","","",""
"","","","","","image-keyboard-response","298","499967","0.0-273.0","63d7e70fd618cbdb3e2f3aa7","665500ab8938657b03fbdba8","665792c184cedbe2cba480c9","2307","stimuli/0110100.jpg","0","","prediction_trial","1","","false","","0","false","true","false","false","false","false","[1,0]","110","100","0","","","","","","",""
"","","","","","image-keyboard-response","299","500715","0.0-274.0","63d7e70fd618cbdb3e2f3aa7","665500ab8938657b03fbdba8","665792c184cedbe2cba480c9","747","stimuli/01101001.jpg"," ","","feedback_trial","1","","","","","","","","","","","","","","","","","","","","",""
"","","","","","image-keyboard-response","300","504245","0.0-275.0","63d7e70fd618cbdb3e2f3aa7","665500ab8938657b03fbdba8","665792c184cedbe2cba480c9","3528","stimuli/2101011.jpg","2","","prediction_trial","2","","true","","2","false","false","false","false","false","false","[0,2]","101","011","1","","","","","","",""
"","","","","","image-keyboard-response","301","504958","0.0-276.0","63d7e70fd618cbdb3e2f3aa7","665500ab8938657b03fbdba8","665792c184cedbe2cba480c9","712","stimuli/21010112.jpg"," ","","feedback_trial","0","","","","","","","","","","","","","","","","","","","","",""
"","","","","","image-keyboard-response","302","505913","0.0-277.0","63d7e70fd618cbdb3e2f3aa7","665500ab8938657b03fbdba8","665792c184cedbe2cba480c9","953","stimuli/0010011.jpg","0","","prediction_trial","0","","true","","0","true","true","true","true","true","true","[0]","010","011","1","","","","","","",""
"","","","","","image-keyboard-response","303","506360","0.0-278.0","63d7e70fd618cbdb3e2f3aa7","665500ab8938657b03fbdba8","665792c184cedbe2cba480c9","446","stimuli/00100110.jpg"," ","","feedback_trial","0","","","","","","","","","","","","","","","","","","","","",""
"","","","","","image-keyboard-response","304","507094","0.0-279.0","63d7e70fd618cbdb3e2f3aa7","665500ab8938657b03fbdba8","665792c184cedbe2cba480c9","733","stimuli/2101110.jpg","2","","prediction_trial","2","","true","","2","true","true","false","false","false","false","[2,0]","101","110","1","","","","","","",""
"","","","","","image-keyboard-response","305","508956","0.0-280.0","63d7e70fd618cbdb3e2f3aa7","665500ab8938657b03fbdba8","665792c184cedbe2cba480c9","1861","stimuli/21011102.jpg"," ","","feedback_trial","2","","","","","","","","","","","","","","","","","","","","",""
"","","","","","image-keyboard-response","306","511205","0.0-281.0","63d7e70fd618cbdb3e2f3aa7","665500ab8938657b03fbdba8","665792c184cedbe2cba480c9","2247","stimuli/0010111.jpg","1","","prediction_trial","0","","false","","0","false","false","true","true","false","false","[0]","010","111","0","","","","","","",""
"","","","","","image-keyboard-response","307","512114","0.0-282.0","63d7e70fd618cbdb3e2f3aa7","665500ab8938657b03fbdba8","665792c184cedbe2cba480c9","908","stimuli/00101110.jpg"," ","","feedback_trial","0","","","","","","","","","","","","","","","","","","","","",""
"","","","","","image-keyboard-response","308","513265","0.0-283.0","63d7e70fd618cbdb3e2f3aa7","665500ab8938657b03fbdba8","665792c184cedbe2cba480c9","1149","stimuli/0010010.jpg","0","","prediction_trial","0","","true","","0","true","true","true","true","true","true","[0]","010","010","1","","","","","","",""
"","","","","","image-keyboard-response","309","513653","0.0-284.0","63d7e70fd618cbdb3e2f3aa7","665500ab8938657b03fbdba8","665792c184cedbe2cba480c9","386","stimuli/00100100.jpg"," ","","feedback_trial","0","","","","","","","","","","","","","","","","","","","","",""
"","","","","","image-keyboard-response","310","514857","0.0-285.0","63d7e70fd618cbdb3e2f3aa7","665500ab8938657b03fbdba8","665792c184cedbe2cba480c9","1201","stimuli/0011010.jpg","0","","prediction_trial","0","","true","","0","true","true","true","true","true","true","[0]","011","010","1","","","","","","",""
"","","","","","image-keyboard-response","311","515237","0.0-286.0","63d7e70fd618cbdb3e2f3aa7","665500ab8938657b03fbdba8","665792c184cedbe2cba480c9","379","stimuli/00110100.jpg"," ","","feedback_trial","0","","","","","","","","","","","","","","","","","","","","",""
"","","","","","image-keyboard-response","312","518425","0.0-287.0","63d7e70fd618cbdb3e2f3aa7","665500ab8938657b03fbdba8","665792c184cedbe2cba480c9","3187","stimuli/0011111.jpg","2","","prediction_trial","0","","false","","0","false","false","true","true","false","false","[0]","011","111","0","","","","","","",""
"","","","","","image-keyboard-response","313","519033","0.0-288.0","63d7e70fd618cbdb3e2f3aa7","665500ab8938657b03fbdba8","665792c184cedbe2cba480c9","606","stimuli/00111110.jpg"," ","","feedback_trial","0","","","","","","","","","","","","","","","","","","","","",""
"","","","","","image-keyboard-response","314","520496","0.0-289.0","63d7e70fd618cbdb3e2f3aa7","665500ab8938657b03fbdba8","665792c184cedbe2cba480c9","1462","stimuli/1111011.jpg","1","","prediction_trial","0","","false","","1","false","false","false","false","false","false","[0,1,2]","111","011","0","","","","","","",""
"","","","","","image-keyboard-response","315","521254","0.0-290.0","63d7e70fd618cbdb3e2f3aa7","665500ab8938657b03fbdba8","665792c184cedbe2cba480c9","756","stimuli/11110110.jpg"," ","","feedback_trial","0","","","","","","","","","","","","","","","","","","","","",""
"","","","","","image-keyboard-response","316","523560","0.0-291.0","63d7e70fd618cbdb3e2f3aa7","665500ab8938657b03fbdba8","665792c184cedbe2cba480c9","2305","stimuli/1001110.jpg","1","","prediction_trial","1","","true","","1","false","false","true","true","false","false","[1]","001","110","1","","","","","","",""
"","","","","","image-keyboard-response","317","524261","0.0-292.0","63d7e70fd618cbdb3e2f3aa7","665500ab8938657b03fbdba8","665792c184cedbe2cba480c9","700","stimuli/10011101.jpg"," ","","feedback_trial","1","","","","","","","","","","","","","","","","","","","","",""
"","","","","","survey-html-form","318","580817","0.0-293.0","63d7e70fd618cbdb3e2f3aa7","665500ab8938657b03fbdba8","665792c184cedbe2cba480c9","56553","","{""feedback"":""Mostly what Sam was able to see, but then partially just based on what I could see as well if I still didn't know what to pick for Sam."",""age"":""38"",""gender"":""Female"",""other_gender"":"""",""race"":""White"",""other_race"":"""",""ethnicity"":""Non-Hispanic""}","","exit_survey","","","","","","","","","","","","","","","","Mostly what Sam was able to see, but then partially just based on what I could see as well if I still didn't know what to pick for Sam.","38","Non-Hispanic","Female","White","0.6875","0.6875"
