"success","timeout","failed_images","failed_audio","failed_video","trial_type","trial_index","time_elapsed","internal_node_id","prolific_id","prolific_study_id","prolific_session_id","rt","stimulus","response","view_history","trial","character_choice","stimulus_dict","accuracy","correct_response","ball_pos","ego_ball_visible","ego_can_infer","alter_ball_visible","alter_can_infer","collective_ball_visible","collective_can_infer","search_locations","alter_occluders","ego_occluders","accuracy_bool","feedback","age","ethnicity","gender","race","overall_accuracy","bonus"
"true","false","[]","[]","[]","preload","0","1018","0.0-0.0","5f4ad685a1429a13599bfb44","665500ab8938657b03fbdba8","66578162abdbd8f259109dca","","","","","","","","","","","","","","","","","","","","","","","","","","",""
"true","","","","","fullscreen","1","4643","0.0-1.0","5f4ad685a1429a13599bfb44","665500ab8938657b03fbdba8","66578162abdbd8f259109dca","","","","","","","","","","","","","","","","","","","","","","","","","","",""
"","","","","","html-button-response","2","11259","0.0-2.0","5f4ad685a1429a13599bfb44","665500ab8938657b03fbdba8","66578162abdbd8f259109dca","6613","<p><b>Consent Form</b></p> <div style=""text-align:left;background-color:lightgrey; padding:20px; max-width:900px;""><p>Please consider this information carefully before deciding whether to participate in this research.</p> <p>The purpose of this research is to examine which factors influence social judgment and decision-making. You will be asked to make judgements about individuals and actions in social scenarios. We are simply interested in your judgement. The study will take less than 1 hour to complete, and you will receive less than $20 on Prolific. Your compensation and time commitment are specified in the study description. There are no anticipated risks associated with participating in this study. The effects of participating should be comparable to those you would ordinarily experience from viewing a computer monitor and using a mouse or keyboard for a similar amount of time. At the end of the study, we will provide an explanation of the questions that motivate this line of research and will describe the potential implications. </p><p> Your participation in this study is completely voluntary and you may refuse to participate or you may choose to withdraw at any time without penalty or loss of benefits to you which are otherwise entitled. Your participation in this study will remain confidential. No personally identifiable information will be associated with your data. Also, all analyses of the data will be averaged across all the participants, so your individual responses will never be specifically analyzed. </p><p> If you have questions or concerns about your participation or payment, or want to request a summary of research findings, please contact Dr. Jonathan Phillips at Jonathan.S.Phillips@dartmouth.edu. </p><p> Please save a copy of this form for your records. </p><p><b>Agreement: </b>The nature and purpose of this research have been sufficiently explained and I agree to participate in this study. I understand that I am free to withdraw at any time without incurring any penalty. Please consent by clicking the button below to continue. Otherwise, please exit the study at any time. </p>","0","","","","","","","","","","","","","","","","","","","","","","","",""
"","","","","","instructions","3","96979","0.0-3.0-0.0","5f4ad685a1429a13599bfb44","665500ab8938657b03fbdba8","66578162abdbd8f259109dca","85718","","","[{""page_index"":0,""viewing_time"":2226},{""page_index"":1,""viewing_time"":4251},{""page_index"":2,""viewing_time"":4315},{""page_index"":3,""viewing_time"":5909},{""page_index"":4,""viewing_time"":4283},{""page_index"":5,""viewing_time"":3737},{""page_index"":6,""viewing_time"":5865},{""page_index"":7,""viewing_time"":3540},{""page_index"":8,""viewing_time"":4695},{""page_index"":9,""viewing_time"":3045},{""page_index"":10,""viewing_time"":30847},{""page_index"":11,""viewing_time"":7674},{""page_index"":12,""viewing_time"":3854},{""page_index"":13,""viewing_time"":1479}]","intro","","","","","","","","","","","","","","","","","","","","","",""
"","","","","","image-keyboard-response","4","104662","0.0-3.0-1.0","5f4ad685a1429a13599bfb44","665500ab8938657b03fbdba8","66578162abdbd8f259109dca","7680","stimuli/1001001.jpg","1","","prediction_practice","1","{""filepath"":""stimuli/1001001.jpg"",""ball_pos"":1,""ego_ball_visible"":true,""ego_can_infer"":true,""alter_ball_visible"":true,""alter_can_infer"":true,""collective_ball_visible"":true,""collective_can_infer"":true,""search_locations"":[1],""alter_occluders"":""001"",""ego_occluders"":""001""}","true","","","","","","","","","","","","","","","","","","",""
"","","","","","image-keyboard-response","5","107051","0.0-3.0-2.0","5f4ad685a1429a13599bfb44","665500ab8938657b03fbdba8","66578162abdbd8f259109dca","2388","stimuli/10010011.jpg"," ","","practrice_feedback","1","","","","","","","","","","","","","","","","","","","","",""
"","","","","","image-keyboard-response","6","110339","0.0-3.0-3.0","5f4ad685a1429a13599bfb44","665500ab8938657b03fbdba8","66578162abdbd8f259109dca","3287","stimuli/1001101.jpg","1","","prediction_practice","1","{""filepath"":""stimuli/1001101.jpg"",""ball_pos"":1,""ego_ball_visible"":true,""ego_can_infer"":true,""alter_ball_visible"":true,""alter_can_infer"":true,""collective_ball_visible"":true,""collective_can_infer"":true,""search_locations"":[1],""alter_occluders"":""001"",""ego_occluders"":""101""}","true","","","","","","","","","","","","","","","","","","",""
"","","","","","image-keyboard-response","7","111937","0.0-3.0-4.0","5f4ad685a1429a13599bfb44","665500ab8938657b03fbdba8","66578162abdbd8f259109dca","1597","stimuli/10011011.jpg"," ","","practrice_feedback","1","","","","","","","","","","","","","","","","","","","","",""
"","","","","","image-keyboard-response","8","119249","0.0-3.0-5.0","5f4ad685a1429a13599bfb44","665500ab8938657b03fbdba8","66578162abdbd8f259109dca","7311","stimuli/0011111.jpg","0","","prediction_practice","0","{""filepath"":""stimuli/0011111.jpg"",""ball_pos"":0,""ego_ball_visible"":false,""ego_can_infer"":false,""alter_ball_visible"":true,""alter_can_infer"":true,""collective_ball_visible"":false,""collective_can_infer"":false,""search_locations"":[0],""alter_occluders"":""011"",""ego_occluders"":""111""}","true","","","","","","","","","","","","","","","","","","",""
"","","","","","image-keyboard-response","9","121600","0.0-3.0-6.0","5f4ad685a1429a13599bfb44","665500ab8938657b03fbdba8","66578162abdbd8f259109dca","2350","stimuli/00111110.jpg"," ","","practrice_feedback","0","","","","","","","","","","","","","","","","","","","","",""
"","","","","","image-keyboard-response","10","124262","0.0-3.0-7.0","5f4ad685a1429a13599bfb44","665500ab8938657b03fbdba8","66578162abdbd8f259109dca","2661","stimuli/2001000.jpg","2","","prediction_practice","2","{""filepath"":""stimuli/2001000.jpg"",""ball_pos"":2,""ego_ball_visible"":true,""ego_can_infer"":true,""alter_ball_visible"":false,""alter_can_infer"":true,""collective_ball_visible"":false,""collective_can_infer"":true,""search_locations"":[2],""alter_occluders"":""001"",""ego_occluders"":""000""}","true","","","","","","","","","","","","","","","","","","",""
"","","","","","image-keyboard-response","11","126052","0.0-3.0-8.0","5f4ad685a1429a13599bfb44","665500ab8938657b03fbdba8","66578162abdbd8f259109dca","1789","stimuli/20010002.jpg"," ","","practrice_feedback","2","","","","","","","","","","","","","","","","","","","","",""
"","","","","","image-keyboard-response","12","129299","0.0-3.0-9.0","5f4ad685a1429a13599bfb44","665500ab8938657b03fbdba8","66578162abdbd8f259109dca","3246","stimuli/2110001.jpg","2","","prediction_practice","2","{""filepath"":""stimuli/2110001.jpg"",""ball_pos"":2,""ego_ball_visible"":false,""ego_can_infer"":true,""alter_ball_visible"":true,""alter_can_infer"":true,""collective_ball_visible"":false,""collective_can_infer"":true,""search_locations"":[2],""alter_occluders"":""110"",""ego_occluders"":""001""}","true","","","","","","","","","","","","","","","","","","",""
"","","","","","image-keyboard-response","13","130516","0.0-3.0-10.0","5f4ad685a1429a13599bfb44","665500ab8938657b03fbdba8","66578162abdbd8f259109dca","1215","stimuli/21100012.jpg"," ","","practrice_feedback","2","","","","","","","","","","","","","","","","","","","","",""
"","","","","","image-keyboard-response","14","133524","0.0-3.0-11.0","5f4ad685a1429a13599bfb44","665500ab8938657b03fbdba8","66578162abdbd8f259109dca","3007","stimuli/0110100.jpg","0","","prediction_practice","0","{""filepath"":""stimuli/0110100.jpg"",""ball_pos"":0,""ego_ball_visible"":false,""ego_can_infer"":true,""alter_ball_visible"":false,""alter_can_infer"":false,""collective_ball_visible"":false,""collective_can_infer"":false,""search_locations"":[1,0],""alter_occluders"":""110"",""ego_occluders"":""100""}","true","","","","","","","","","","","","","","","","","","",""
"","","","","","image-keyboard-response","15","134778","0.0-3.0-12.0","5f4ad685a1429a13599bfb44","665500ab8938657b03fbdba8","66578162abdbd8f259109dca","1253","stimuli/01101000.jpg"," ","","practrice_feedback","1","","","","","","","","","","","","","","","","","","","","",""
"","","","","","image-keyboard-response","16","137143","0.0-3.0-13.0","5f4ad685a1429a13599bfb44","665500ab8938657b03fbdba8","66578162abdbd8f259109dca","2364","stimuli/0001010.jpg","0","","prediction_practice","0","{""filepath"":""stimuli/0001010.jpg"",""ball_pos"":0,""ego_ball_visible"":true,""ego_can_infer"":true,""alter_ball_visible"":true,""alter_can_infer"":true,""collective_ball_visible"":true,""collective_can_infer"":true,""search_locations"":[0],""alter_occluders"":""001"",""ego_occluders"":""010""}","true","","","","","","","","","","","","","","","","","","",""
"","","","","","image-keyboard-response","17","138508","0.0-3.0-14.0","5f4ad685a1429a13599bfb44","665500ab8938657b03fbdba8","66578162abdbd8f259109dca","1364","stimuli/00010100.jpg"," ","","practrice_feedback","0","","","","","","","","","","","","","","","","","","","","",""
"","","","","","image-keyboard-response","18","142892","0.0-3.0-15.0","5f4ad685a1429a13599bfb44","665500ab8938657b03fbdba8","66578162abdbd8f259109dca","4394","stimuli/1000111.jpg","2","","prediction_practice","1","{""filepath"":""stimuli/1000111.jpg"",""ball_pos"":1,""ego_ball_visible"":false,""ego_can_infer"":false,""alter_ball_visible"":true,""alter_can_infer"":true,""collective_ball_visible"":false,""collective_can_infer"":false,""search_locations"":[1],""alter_occluders"":""000"",""ego_occluders"":""111""}","false","","","","","","","","","","","","","","","","","","",""
"","","","","","image-keyboard-response","19","144778","0.0-3.0-16.0","5f4ad685a1429a13599bfb44","665500ab8938657b03fbdba8","66578162abdbd8f259109dca","1885","stimuli/10001111.jpg"," ","","practrice_feedback","1","","","","","","","","","","","","","","","","","","","","",""
"","","","","","image-keyboard-response","20","146843","0.0-3.0-17.0","5f4ad685a1429a13599bfb44","665500ab8938657b03fbdba8","66578162abdbd8f259109dca","2064","stimuli/2011001.jpg","2","","prediction_practice","2","{""filepath"":""stimuli/2011001.jpg"",""ball_pos"":2,""ego_ball_visible"":false,""ego_can_infer"":true,""alter_ball_visible"":false,""alter_can_infer"":false,""collective_ball_visible"":false,""collective_can_infer"":false,""search_locations"":[1,2],""alter_occluders"":""011"",""ego_occluders"":""001""}","true","","","","","","","","","","","","","","","","","","",""
"","","","","","image-keyboard-response","21","148160","0.0-3.0-18.0","5f4ad685a1429a13599bfb44","665500ab8938657b03fbdba8","66578162abdbd8f259109dca","1316","stimuli/20110012.jpg"," ","","practrice_feedback","1","","","","","","","","","","","","","","","","","","","","",""
"","","","","","image-keyboard-response","22","150480","0.0-3.0-19.0","5f4ad685a1429a13599bfb44","665500ab8938657b03fbdba8","66578162abdbd8f259109dca","2319","stimuli/1111001.jpg","1","","prediction_practice","0","{""filepath"":""stimuli/1111001.jpg"",""ball_pos"":1,""ego_ball_visible"":true,""ego_can_infer"":true,""alter_ball_visible"":false,""alter_can_infer"":false,""collective_ball_visible"":false,""collective_can_infer"":false,""search_locations"":[2,1,0],""alter_occluders"":""111"",""ego_occluders"":""001""}","false","","","","","","","","","","","","","","","","","","",""
"","","","","","image-keyboard-response","23","153646","0.0-3.0-20.0","5f4ad685a1429a13599bfb44","665500ab8938657b03fbdba8","66578162abdbd8f259109dca","3165","stimuli/11110010.jpg"," ","","practrice_feedback","2","","","","","","","","","","","","","","","","","","","","",""
"","","","","","html-button-response","24","159047","0.0-3.0-21.0","5f4ad685a1429a13599bfb44","665500ab8938657b03fbdba8","66578162abdbd8f259109dca","5400","Now that you've had some practice, you'll be tested with a couple of easy trials. If you correctly predict Sam's choice, you'll move on to complete the experiment!","0","","","","","","","","","","","","","","","","","","","","","","","",""
"","","","","","image-keyboard-response","25","161565","0.0-3.0-22.0-0.0","5f4ad685a1429a13599bfb44","665500ab8938657b03fbdba8","66578162abdbd8f259109dca","2517","stimuli/0000011.jpg","arrowleft","","comprehension_quiz","","","true","arrowleft","","","","","","","","","","","","","","","","","",""
"","","","","","image-keyboard-response","26","163220","0.0-3.0-22.0-1.0","5f4ad685a1429a13599bfb44","665500ab8938657b03fbdba8","66578162abdbd8f259109dca","1653","stimuli/00000110.jpg"," ","","comprehension_quiz","","","true"," ","","","","","","","","","","","","","","","","","",""
"","","","","","image-keyboard-response","27","166865","0.0-3.0-22.0-2.0","5f4ad685a1429a13599bfb44","665500ab8938657b03fbdba8","66578162abdbd8f259109dca","3644","stimuli/1010010.jpg","arrowdown","","comprehension_quiz","","","true","arrowdown","","","","","","","","","","","","","","","","","",""
"","","","","","image-keyboard-response","28","168013","0.0-3.0-22.0-3.0","5f4ad685a1429a13599bfb44","665500ab8938657b03fbdba8","66578162abdbd8f259109dca","1147","stimuli/10100101.jpg"," ","","comprehension_quiz","","","true"," ","","","","","","","","","","","","","","","","","",""
"","","","","","html-button-response","29","169591","0.0-4.0","5f4ad685a1429a13599bfb44","665500ab8938657b03fbdba8","66578162abdbd8f259109dca","1577","The experiment will now begin.","0","","","","","","","","","","","","","","","","","","","","","","","",""
"","","","","","image-keyboard-response","30","171504","0.0-5.0","5f4ad685a1429a13599bfb44","665500ab8938657b03fbdba8","66578162abdbd8f259109dca","1911","stimuli/0111000.jpg","0","","prediction_trial","1","","false","","0","true","true","false","false","false","false","[0,1,2]","111","000","0","","","","","","",""
"","","","","","image-keyboard-response","31","175583","0.0-6.0","5f4ad685a1429a13599bfb44","665500ab8938657b03fbdba8","66578162abdbd8f259109dca","4077","stimuli/01110001.jpg"," ","","feedback_trial","0","","","","","","","","","","","","","","","","","","","","",""
"","","","","","image-keyboard-response","32","179389","0.0-7.0","5f4ad685a1429a13599bfb44","665500ab8938657b03fbdba8","66578162abdbd8f259109dca","3805","stimuli/1001100.jpg","1","","prediction_trial","1","","true","","1","true","true","true","true","true","true","[1]","001","100","1","","","","","","",""
"","","","","","image-keyboard-response","33","181196","0.0-8.0","5f4ad685a1429a13599bfb44","665500ab8938657b03fbdba8","66578162abdbd8f259109dca","1806","stimuli/10011001.jpg"," ","","feedback_trial","1","","","","","","","","","","","","","","","","","","","","",""
"","","","","","image-keyboard-response","34","182824","0.0-9.0","5f4ad685a1429a13599bfb44","665500ab8938657b03fbdba8","66578162abdbd8f259109dca","1627","stimuli/0010001.jpg","0","","prediction_trial","0","","true","","0","true","true","true","true","true","true","[0]","010","001","1","","","","","","",""
"","","","","","image-keyboard-response","35","184040","0.0-10.0","5f4ad685a1429a13599bfb44","665500ab8938657b03fbdba8","66578162abdbd8f259109dca","1215","stimuli/00100010.jpg"," ","","feedback_trial","0","","","","","","","","","","","","","","","","","","","","",""
"","","","","","image-keyboard-response","36","189056","0.0-11.0","5f4ad685a1429a13599bfb44","665500ab8938657b03fbdba8","66578162abdbd8f259109dca","5015","stimuli/1010000.jpg","1","","prediction_trial","1","","true","","1","true","true","false","true","false","true","[1]","010","000","1","","","","","","",""
"","","","","","image-keyboard-response","37","190339","0.0-12.0","5f4ad685a1429a13599bfb44","665500ab8938657b03fbdba8","66578162abdbd8f259109dca","1281","stimuli/10100001.jpg"," ","","feedback_trial","1","","","","","","","","","","","","","","","","","","","","",""
"","","","","","image-keyboard-response","38","194155","0.0-13.0","5f4ad685a1429a13599bfb44","665500ab8938657b03fbdba8","66578162abdbd8f259109dca","3816","stimuli/2000101.jpg","0","","prediction_trial","2","","false","","2","false","false","true","true","false","false","[2]","000","101","0","","","","","","",""
"","","","","","image-keyboard-response","39","196365","0.0-14.0","5f4ad685a1429a13599bfb44","665500ab8938657b03fbdba8","66578162abdbd8f259109dca","2209","stimuli/20001012.jpg"," ","","feedback_trial","2","","","","","","","","","","","","","","","","","","","","",""
"","","","","","image-keyboard-response","40","201242","0.0-15.0","5f4ad685a1429a13599bfb44","665500ab8938657b03fbdba8","66578162abdbd8f259109dca","4876","stimuli/2001001.jpg","2","","prediction_trial","2","","true","","2","false","true","false","true","false","true","[2]","001","001","1","","","","","","",""
"","","","","","image-keyboard-response","41","202556","0.0-16.0","5f4ad685a1429a13599bfb44","665500ab8938657b03fbdba8","66578162abdbd8f259109dca","1312","stimuli/20010012.jpg"," ","","feedback_trial","2","","","","","","","","","","","","","","","","","","","","",""
"","","","","","image-keyboard-response","42","205360","0.0-17.0","5f4ad685a1429a13599bfb44","665500ab8938657b03fbdba8","66578162abdbd8f259109dca","2794","stimuli/1001010.jpg","1","","prediction_trial","1","","true","","1","false","true","true","true","false","true","[1]","001","010","1","","","","","","",""
"","","","","","image-keyboard-response","43","206261","0.0-18.0","5f4ad685a1429a13599bfb44","665500ab8938657b03fbdba8","66578162abdbd8f259109dca","900","stimuli/10010101.jpg"," ","","feedback_trial","1","","","","","","","","","","","","","","","","","","","","",""
"","","","","","image-keyboard-response","44","208466","0.0-19.0","5f4ad685a1429a13599bfb44","665500ab8938657b03fbdba8","66578162abdbd8f259109dca","2204","stimuli/2011100.jpg","2","","prediction_trial","1","","false","","2","true","true","false","false","false","false","[2,1]","011","100","0","","","","","","",""
"","","","","","image-keyboard-response","45","210506","0.0-20.0","5f4ad685a1429a13599bfb44","665500ab8938657b03fbdba8","66578162abdbd8f259109dca","2039","stimuli/20111001.jpg"," ","","feedback_trial","2","","","","","","","","","","","","","","","","","","","","",""
"","","","","","image-keyboard-response","46","213869","0.0-21.0","5f4ad685a1429a13599bfb44","665500ab8938657b03fbdba8","66578162abdbd8f259109dca","3362","stimuli/1011100.jpg","0","","prediction_trial","2","","false","","1","true","true","false","false","false","false","[2,1]","011","100","0","","","","","","",""
"","","","","","image-keyboard-response","47","218105","0.0-22.0","5f4ad685a1429a13599bfb44","665500ab8938657b03fbdba8","66578162abdbd8f259109dca","4235","stimuli/10111002.jpg"," ","","feedback_trial","2","","","","","","","","","","","","","","","","","","","","",""
"","","","","","image-keyboard-response","48","222516","0.0-23.0","5f4ad685a1429a13599bfb44","665500ab8938657b03fbdba8","66578162abdbd8f259109dca","4410","stimuli/1011110.jpg","0","","prediction_trial","1","","false","","1","false","false","false","false","false","false","[2,1]","011","110","0","","","","","","",""
"","","","","","image-keyboard-response","49","224006","0.0-24.0","5f4ad685a1429a13599bfb44","665500ab8938657b03fbdba8","66578162abdbd8f259109dca","1488","stimuli/10111101.jpg"," ","","feedback_trial","2","","","","","","","","","","","","","","","","","","","","",""
"","","","","","image-keyboard-response","50","226620","0.0-25.0","5f4ad685a1429a13599bfb44","665500ab8938657b03fbdba8","66578162abdbd8f259109dca","2613","stimuli/2010111.jpg","1","","prediction_trial","2","","false","","2","false","false","true","true","false","false","[2]","010","111","0","","","","","","",""
"","","","","","image-keyboard-response","51","227951","0.0-26.0","5f4ad685a1429a13599bfb44","665500ab8938657b03fbdba8","66578162abdbd8f259109dca","1330","stimuli/20101112.jpg"," ","","feedback_trial","2","","","","","","","","","","","","","","","","","","","","",""
"","","","","","image-keyboard-response","52","231642","0.0-27.0","5f4ad685a1429a13599bfb44","665500ab8938657b03fbdba8","66578162abdbd8f259109dca","3690","stimuli/1111001.jpg","2","","prediction_trial","0","","false","","1","true","true","false","false","false","false","[2,1,0]","111","001","0","","","","","","",""
"","","","","","image-keyboard-response","53","233095","0.0-28.0","5f4ad685a1429a13599bfb44","665500ab8938657b03fbdba8","66578162abdbd8f259109dca","1452","stimuli/11110010.jpg"," ","","feedback_trial","2","","","","","","","","","","","","","","","","","","","","",""
"","","","","","image-keyboard-response","54","237902","0.0-29.0","5f4ad685a1429a13599bfb44","665500ab8938657b03fbdba8","66578162abdbd8f259109dca","4806","stimuli/2100001.jpg","0","","prediction_trial","2","","false","","2","false","true","true","true","false","true","[2]","100","001","0","","","","","","",""
"","","","","","image-keyboard-response","55","239329","0.0-30.0","5f4ad685a1429a13599bfb44","665500ab8938657b03fbdba8","66578162abdbd8f259109dca","1426","stimuli/21000012.jpg"," ","","feedback_trial","2","","","","","","","","","","","","","","","","","","","","",""
"","","","","","image-keyboard-response","56","242423","0.0-31.0","5f4ad685a1429a13599bfb44","665500ab8938657b03fbdba8","66578162abdbd8f259109dca","3093","stimuli/2011000.jpg","2","","prediction_trial","2","","true","","2","true","true","false","false","false","false","[2,1]","011","000","1","","","","","","",""
"","","","","","image-keyboard-response","57","243649","0.0-32.0","5f4ad685a1429a13599bfb44","665500ab8938657b03fbdba8","66578162abdbd8f259109dca","1226","stimuli/20110002.jpg"," ","","feedback_trial","2","","","","","","","","","","","","","","","","","","","","",""
"","","","","","image-keyboard-response","58","246094","0.0-33.0","5f4ad685a1429a13599bfb44","665500ab8938657b03fbdba8","66578162abdbd8f259109dca","2444","stimuli/0001111.jpg","2","","prediction_trial","0","","false","","0","false","false","true","true","false","false","[0]","001","111","0","","","","","","",""
"","","","","","image-keyboard-response","59","248283","0.0-34.0","5f4ad685a1429a13599bfb44","665500ab8938657b03fbdba8","66578162abdbd8f259109dca","2188","stimuli/00011110.jpg"," ","","feedback_trial","0","","","","","","","","","","","","","","","","","","","","",""
"","","","","","image-keyboard-response","60","252994","0.0-35.0","5f4ad685a1429a13599bfb44","665500ab8938657b03fbdba8","66578162abdbd8f259109dca","4710","stimuli/0101111.jpg","2","","prediction_trial","2","","true","","0","false","false","false","false","false","false","[0,2]","101","111","1","","","","","","",""
"","","","","","image-keyboard-response","61","254315","0.0-36.0","5f4ad685a1429a13599bfb44","665500ab8938657b03fbdba8","66578162abdbd8f259109dca","1320","stimuli/01011112.jpg"," ","","feedback_trial","0","","","","","","","","","","","","","","","","","","","","",""
"","","","","","image-keyboard-response","62","256511","0.0-37.0","5f4ad685a1429a13599bfb44","665500ab8938657b03fbdba8","66578162abdbd8f259109dca","2195","stimuli/1110001.jpg","2","","prediction_trial","0","","false","","1","true","true","false","false","false","false","[1,0]","110","001","0","","","","","","",""
"","","","","","image-keyboard-response","63","257425","0.0-38.0","5f4ad685a1429a13599bfb44","665500ab8938657b03fbdba8","66578162abdbd8f259109dca","913","stimuli/11100010.jpg"," ","","feedback_trial","1","","","","","","","","","","","","","","","","","","","","",""
"","","","","","image-keyboard-response","64","259194","0.0-39.0","5f4ad685a1429a13599bfb44","665500ab8938657b03fbdba8","66578162abdbd8f259109dca","1768","stimuli/1101000.jpg","1","","prediction_trial","1","","true","","1","true","true","true","true","true","true","[1]","101","000","1","","","","","","",""
"","","","","","image-keyboard-response","65","260073","0.0-40.0","5f4ad685a1429a13599bfb44","665500ab8938657b03fbdba8","66578162abdbd8f259109dca","879","stimuli/11010001.jpg"," ","","feedback_trial","1","","","","","","","","","","","","","","","","","","","","",""
"","","","","","image-keyboard-response","66","262103","0.0-41.0","5f4ad685a1429a13599bfb44","665500ab8938657b03fbdba8","66578162abdbd8f259109dca","2029","stimuli/2100000.jpg","2","","prediction_trial","2","","true","","2","true","true","true","true","true","true","[2]","100","000","1","","","","","","",""
"","","","","","image-keyboard-response","67","263089","0.0-42.0","5f4ad685a1429a13599bfb44","665500ab8938657b03fbdba8","66578162abdbd8f259109dca","985","stimuli/21000002.jpg"," ","","feedback_trial","2","","","","","","","","","","","","","","","","","","","","",""
"","","","","","image-keyboard-response","68","266121","0.0-43.0","5f4ad685a1429a13599bfb44","665500ab8938657b03fbdba8","66578162abdbd8f259109dca","3030","stimuli/1110111.jpg","0","","prediction_trial","1","","false","","1","false","false","false","false","false","false","[1,0]","110","111","0","","","","","","",""
"","","","","","image-keyboard-response","69","266961","0.0-44.0","5f4ad685a1429a13599bfb44","665500ab8938657b03fbdba8","66578162abdbd8f259109dca","839","stimuli/11101111.jpg"," ","","feedback_trial","1","","","","","","","","","","","","","","","","","","","","",""
"","","","","","image-keyboard-response","70","268835","0.0-45.0","5f4ad685a1429a13599bfb44","665500ab8938657b03fbdba8","66578162abdbd8f259109dca","1873","stimuli/2010101.jpg","2","","prediction_trial","2","","true","","2","false","false","true","true","false","false","[2]","010","101","1","","","","","","",""
"","","","","","image-keyboard-response","71","269818","0.0-46.0","5f4ad685a1429a13599bfb44","665500ab8938657b03fbdba8","66578162abdbd8f259109dca","982","stimuli/20101012.jpg"," ","","feedback_trial","2","","","","","","","","","","","","","","","","","","","","",""
"","","","","","image-keyboard-response","72","272548","0.0-47.0","5f4ad685a1429a13599bfb44","665500ab8938657b03fbdba8","66578162abdbd8f259109dca","2729","stimuli/0110100.jpg","0","","prediction_trial","1","","false","","0","false","true","false","false","false","false","[1,0]","110","100","0","","","","","","",""
"","","","","","image-keyboard-response","73","273993","0.0-48.0","5f4ad685a1429a13599bfb44","665500ab8938657b03fbdba8","66578162abdbd8f259109dca","1444","stimuli/01101001.jpg"," ","","feedback_trial","1","","","","","","","","","","","","","","","","","","","","",""
"","","","","","image-keyboard-response","74","277445","0.0-49.0","5f4ad685a1429a13599bfb44","665500ab8938657b03fbdba8","66578162abdbd8f259109dca","3451","stimuli/0000110.jpg","2","","prediction_trial","0","","false","","0","false","false","true","true","false","false","[0]","000","110","0","","","","","","",""
"","","","","","image-keyboard-response","75","278480","0.0-50.0","5f4ad685a1429a13599bfb44","665500ab8938657b03fbdba8","66578162abdbd8f259109dca","1034","stimuli/00001100.jpg"," ","","feedback_trial","0","","","","","","","","","","","","","","","","","","","","",""
"","","","","","image-keyboard-response","76","281582","0.0-51.0","5f4ad685a1429a13599bfb44","665500ab8938657b03fbdba8","66578162abdbd8f259109dca","3100","stimuli/0011100.jpg","0","","prediction_trial","0","","true","","0","false","true","true","true","false","true","[0]","011","100","1","","","","","","",""
"","","","","","image-keyboard-response","77","282624","0.0-52.0","5f4ad685a1429a13599bfb44","665500ab8938657b03fbdba8","66578162abdbd8f259109dca","1041","stimuli/00111000.jpg"," ","","feedback_trial","0","","","","","","","","","","","","","","","","","","","","",""
"","","","","","image-keyboard-response","78","285359","0.0-53.0","5f4ad685a1429a13599bfb44","665500ab8938657b03fbdba8","66578162abdbd8f259109dca","2735","stimuli/1001111.jpg","2","","prediction_trial","1","","false","","1","false","false","true","true","false","false","[1]","001","111","0","","","","","","",""
"","","","","","image-keyboard-response","79","286103","0.0-54.0","5f4ad685a1429a13599bfb44","665500ab8938657b03fbdba8","66578162abdbd8f259109dca","743","stimuli/10011111.jpg"," ","","feedback_trial","1","","","","","","","","","","","","","","","","","","","","",""
"","","","","","image-keyboard-response","80","290704","0.0-55.0","5f4ad685a1429a13599bfb44","665500ab8938657b03fbdba8","66578162abdbd8f259109dca","4600","stimuli/2101011.jpg","1","","prediction_trial","0","","false","","2","false","false","false","false","false","false","[0,2]","101","011","0","","","","","","",""
"","","","","","image-keyboard-response","81","291683","0.0-56.0","5f4ad685a1429a13599bfb44","665500ab8938657b03fbdba8","66578162abdbd8f259109dca","978","stimuli/21010110.jpg"," ","","feedback_trial","0","","","","","","","","","","","","","","","","","","","","",""
"","","","","","image-keyboard-response","82","294323","0.0-57.0","5f4ad685a1429a13599bfb44","665500ab8938657b03fbdba8","66578162abdbd8f259109dca","2639","stimuli/0010000.jpg","0","","prediction_trial","0","","true","","0","true","true","true","true","true","true","[0]","010","000","1","","","","","","",""
"","","","","","image-keyboard-response","83","295284","0.0-58.0","5f4ad685a1429a13599bfb44","665500ab8938657b03fbdba8","66578162abdbd8f259109dca","960","stimuli/00100000.jpg"," ","","feedback_trial","0","","","","","","","","","","","","","","","","","","","","",""
"","","","","","image-keyboard-response","84","296636","0.0-59.0","5f4ad685a1429a13599bfb44","665500ab8938657b03fbdba8","66578162abdbd8f259109dca","1351","stimuli/2010100.jpg","2","","prediction_trial","2","","true","","2","true","true","true","true","true","true","[2]","010","100","1","","","","","","",""
"","","","","","image-keyboard-response","85","297530","0.0-60.0","5f4ad685a1429a13599bfb44","665500ab8938657b03fbdba8","66578162abdbd8f259109dca","893","stimuli/20101002.jpg"," ","","feedback_trial","2","","","","","","","","","","","","","","","","","","","","",""
"","","","","","image-keyboard-response","86","300073","0.0-61.0","5f4ad685a1429a13599bfb44","665500ab8938657b03fbdba8","66578162abdbd8f259109dca","2542","stimuli/1111010.jpg","1","","prediction_trial","1","","true","","1","false","true","false","false","false","false","[1,2,0]","111","010","1","","","","","","",""
"","","","","","image-keyboard-response","87","300933","0.0-62.0","5f4ad685a1429a13599bfb44","665500ab8938657b03fbdba8","66578162abdbd8f259109dca","859","stimuli/11110101.jpg"," ","","feedback_trial","1","","","","","","","","","","","","","","","","","","","","",""
"","","","","","image-keyboard-response","88","303626","0.0-63.0","5f4ad685a1429a13599bfb44","665500ab8938657b03fbdba8","66578162abdbd8f259109dca","2692","stimuli/0110001.jpg","0","","prediction_trial","1","","false","","0","true","true","false","false","false","false","[0,1]","110","001","0","","","","","","",""
"","","","","","image-keyboard-response","89","304404","0.0-64.0","5f4ad685a1429a13599bfb44","665500ab8938657b03fbdba8","66578162abdbd8f259109dca","777","stimuli/01100011.jpg"," ","","feedback_trial","0","","","","","","","","","","","","","","","","","","","","",""
"","","","","","image-keyboard-response","90","307335","0.0-65.0","5f4ad685a1429a13599bfb44","665500ab8938657b03fbdba8","66578162abdbd8f259109dca","2930","stimuli/0011101.jpg","2","","prediction_trial","0","","false","","0","false","false","true","true","false","false","[0]","011","101","0","","","","","","",""
"","","","","","image-keyboard-response","91","308201","0.0-66.0","5f4ad685a1429a13599bfb44","665500ab8938657b03fbdba8","66578162abdbd8f259109dca","864","stimuli/00111010.jpg"," ","","feedback_trial","0","","","","","","","","","","","","","","","","","","","","",""
"","","","","","image-keyboard-response","92","310349","0.0-67.0","5f4ad685a1429a13599bfb44","665500ab8938657b03fbdba8","66578162abdbd8f259109dca","2148","stimuli/2001101.jpg","0","","prediction_trial","2","","false","","2","false","false","false","true","false","false","[2]","001","101","0","","","","","","",""
"","","","","","image-keyboard-response","93","311298","0.0-68.0","5f4ad685a1429a13599bfb44","665500ab8938657b03fbdba8","66578162abdbd8f259109dca","947","stimuli/20011012.jpg"," ","","feedback_trial","2","","","","","","","","","","","","","","","","","","","","",""
"","","","","","image-keyboard-response","94","312742","0.0-69.0","5f4ad685a1429a13599bfb44","665500ab8938657b03fbdba8","66578162abdbd8f259109dca","1443","stimuli/0101011.jpg","0","","prediction_trial","2","","false","","0","true","true","false","false","false","false","[2,0]","101","011","0","","","","","","",""
"","","","","","image-keyboard-response","95","313519","0.0-70.0","5f4ad685a1429a13599bfb44","665500ab8938657b03fbdba8","66578162abdbd8f259109dca","776","stimuli/01010112.jpg"," ","","feedback_trial","2","","","","","","","","","","","","","","","","","","","","",""
"","","","","","image-keyboard-response","96","315049","0.0-71.0","5f4ad685a1429a13599bfb44","665500ab8938657b03fbdba8","66578162abdbd8f259109dca","1529","stimuli/2010110.jpg","2","","prediction_trial","2","","true","","2","true","true","true","true","true","true","[2]","010","110","1","","","","","","",""
"","","","","","image-keyboard-response","97","315991","0.0-72.0","5f4ad685a1429a13599bfb44","665500ab8938657b03fbdba8","66578162abdbd8f259109dca","941","stimuli/20101102.jpg"," ","","feedback_trial","2","","","","","","","","","","","","","","","","","","","","",""
"","","","","","image-keyboard-response","98","318083","0.0-73.0","5f4ad685a1429a13599bfb44","665500ab8938657b03fbdba8","66578162abdbd8f259109dca","2091","stimuli/2010001.jpg","2","","prediction_trial","2","","true","","2","false","true","true","true","false","true","[2]","010","001","1","","","","","","",""
"","","","","","image-keyboard-response","99","318878","0.0-74.0","5f4ad685a1429a13599bfb44","665500ab8938657b03fbdba8","66578162abdbd8f259109dca","793","stimuli/20100012.jpg"," ","","feedback_trial","2","","","","","","","","","","","","","","","","","","","","",""
"","","","","","image-keyboard-response","100","320388","0.0-75.0","5f4ad685a1429a13599bfb44","665500ab8938657b03fbdba8","66578162abdbd8f259109dca","1509","stimuli/2010000.jpg","2","","prediction_trial","2","","true","","2","true","true","true","true","true","true","[2]","010","000","1","","","","","","",""
"","","","","","image-keyboard-response","101","321165","0.0-76.0","5f4ad685a1429a13599bfb44","665500ab8938657b03fbdba8","66578162abdbd8f259109dca","777","stimuli/20100002.jpg"," ","","feedback_trial","2","","","","","","","","","","","","","","","","","","","","",""
"","","","","","image-keyboard-response","102","322897","0.0-77.0","5f4ad685a1429a13599bfb44","665500ab8938657b03fbdba8","66578162abdbd8f259109dca","1730","stimuli/1100111.jpg","0","","prediction_trial","1","","false","","1","false","false","true","true","false","false","[1]","100","111","0","","","","","","",""
"","","","","","image-keyboard-response","103","323771","0.0-78.0","5f4ad685a1429a13599bfb44","665500ab8938657b03fbdba8","66578162abdbd8f259109dca","873","stimuli/11001111.jpg"," ","","feedback_trial","1","","","","","","","","","","","","","","","","","","","","",""
"","","","","","image-keyboard-response","104","325382","0.0-79.0","5f4ad685a1429a13599bfb44","665500ab8938657b03fbdba8","66578162abdbd8f259109dca","1609","stimuli/1010111.jpg","1","","prediction_trial","1","","true","","1","false","false","false","true","false","false","[1]","010","111","1","","","","","","",""
"","","","","","image-keyboard-response","105","326306","0.0-80.0","5f4ad685a1429a13599bfb44","665500ab8938657b03fbdba8","66578162abdbd8f259109dca","923","stimuli/10101111.jpg"," ","","feedback_trial","1","","","","","","","","","","","","","","","","","","","","",""
"","","","","","image-keyboard-response","106","327856","0.0-81.0","5f4ad685a1429a13599bfb44","665500ab8938657b03fbdba8","66578162abdbd8f259109dca","1549","stimuli/0000001.jpg","0","","prediction_trial","0","","true","","0","true","true","true","true","true","true","[0]","000","001","1","","","","","","",""
"","","","","","image-keyboard-response","107","329147","0.0-82.0","5f4ad685a1429a13599bfb44","665500ab8938657b03fbdba8","66578162abdbd8f259109dca","1289","stimuli/00000010.jpg"," ","","feedback_trial","0","","","","","","","","","","","","","","","","","","","","",""
"","","","","","image-keyboard-response","108","331075","0.0-83.0","5f4ad685a1429a13599bfb44","665500ab8938657b03fbdba8","66578162abdbd8f259109dca","1927","stimuli/1000000.jpg","1","","prediction_trial","1","","true","","1","true","true","true","true","true","true","[1]","000","000","1","","","","","","",""
"","","","","","image-keyboard-response","109","331960","0.0-84.0","5f4ad685a1429a13599bfb44","665500ab8938657b03fbdba8","66578162abdbd8f259109dca","884","stimuli/10000001.jpg"," ","","feedback_trial","1","","","","","","","","","","","","","","","","","","","","",""
"","","","","","image-keyboard-response","110","334697","0.0-85.0","5f4ad685a1429a13599bfb44","665500ab8938657b03fbdba8","66578162abdbd8f259109dca","2736","stimuli/0000111.jpg","2","","prediction_trial","0","","false","","0","false","false","true","true","false","false","[0]","000","111","0","","","","","","",""
"","","","","","image-keyboard-response","111","336170","0.0-86.0","5f4ad685a1429a13599bfb44","665500ab8938657b03fbdba8","66578162abdbd8f259109dca","1472","stimuli/00001110.jpg"," ","","feedback_trial","0","","","","","","","","","","","","","","","","","","","","",""
"","","","","","image-keyboard-response","112","338303","0.0-87.0","5f4ad685a1429a13599bfb44","665500ab8938657b03fbdba8","66578162abdbd8f259109dca","2132","stimuli/2101001.jpg","0","","prediction_trial","2","","false","","2","false","true","false","false","false","false","[2,0]","101","001","0","","","","","","",""
"","","","","","image-keyboard-response","113","339066","0.0-88.0","5f4ad685a1429a13599bfb44","665500ab8938657b03fbdba8","66578162abdbd8f259109dca","762","stimuli/21010012.jpg"," ","","feedback_trial","2","","","","","","","","","","","","","","","","","","","","",""
"","","","","","image-keyboard-response","114","340442","0.0-89.0","5f4ad685a1429a13599bfb44","665500ab8938657b03fbdba8","66578162abdbd8f259109dca","1375","stimuli/2101100.jpg","2","","prediction_trial","0","","false","","2","true","true","false","false","false","false","[0,2]","101","100","0","","","","","","",""
"","","","","","image-keyboard-response","115","342227","0.0-90.0","5f4ad685a1429a13599bfb44","665500ab8938657b03fbdba8","66578162abdbd8f259109dca","1784","stimuli/21011000.jpg"," ","","feedback_trial","0","","","","","","","","","","","","","","","","","","","","",""
"","","","","","image-keyboard-response","116","343792","0.0-91.0","5f4ad685a1429a13599bfb44","665500ab8938657b03fbdba8","66578162abdbd8f259109dca","1564","stimuli/2011010.jpg","2","","prediction_trial","2","","true","","2","true","true","false","false","false","false","[1,2]","011","010","1","","","","","","",""
"","","","","","image-keyboard-response","117","344616","0.0-92.0","5f4ad685a1429a13599bfb44","665500ab8938657b03fbdba8","66578162abdbd8f259109dca","822","stimuli/20110102.jpg"," ","","feedback_trial","1","","","","","","","","","","","","","","","","","","","","",""
"","","","","","image-keyboard-response","118","347756","0.0-93.0","5f4ad685a1429a13599bfb44","665500ab8938657b03fbdba8","66578162abdbd8f259109dca","3139","stimuli/0100101.jpg","0","","prediction_trial","0","","true","","0","false","false","false","true","false","false","[0]","100","101","1","","","","","","",""
"","","","","","image-keyboard-response","119","348747","0.0-94.0","5f4ad685a1429a13599bfb44","665500ab8938657b03fbdba8","66578162abdbd8f259109dca","990","stimuli/01001010.jpg"," ","","feedback_trial","0","","","","","","","","","","","","","","","","","","","","",""
"","","","","","image-keyboard-response","120","350120","0.0-95.0","5f4ad685a1429a13599bfb44","665500ab8938657b03fbdba8","66578162abdbd8f259109dca","1372","stimuli/0010010.jpg","0","","prediction_trial","0","","true","","0","true","true","true","true","true","true","[0]","010","010","1","","","","","","",""
"","","","","","image-keyboard-response","121","350942","0.0-96.0","5f4ad685a1429a13599bfb44","665500ab8938657b03fbdba8","66578162abdbd8f259109dca","821","stimuli/00100100.jpg"," ","","feedback_trial","0","","","","","","","","","","","","","","","","","","","","",""
"","","","","","image-keyboard-response","122","353370","0.0-97.0","5f4ad685a1429a13599bfb44","665500ab8938657b03fbdba8","66578162abdbd8f259109dca","2427","stimuli/2000111.jpg","0","","prediction_trial","2","","false","","2","false","false","true","true","false","false","[2]","000","111","0","","","","","","",""
"","","","","","image-keyboard-response","123","354242","0.0-98.0","5f4ad685a1429a13599bfb44","665500ab8938657b03fbdba8","66578162abdbd8f259109dca","871","stimuli/20001112.jpg"," ","","feedback_trial","2","","","","","","","","","","","","","","","","","","","","",""
"","","","","","image-keyboard-response","124","356346","0.0-99.0","5f4ad685a1429a13599bfb44","665500ab8938657b03fbdba8","66578162abdbd8f259109dca","2102","stimuli/2111011.jpg","2","","prediction_trial","0","","false","","2","false","false","false","false","false","false","[1,0,2]","111","011","0","","","","","","",""
"","","","","","image-keyboard-response","125","357492","0.0-100.0","5f4ad685a1429a13599bfb44","665500ab8938657b03fbdba8","66578162abdbd8f259109dca","1145","stimuli/21110110.jpg"," ","","feedback_trial","1","","","","","","","","","","","","","","","","","","","","",""
"","","","","","image-keyboard-response","126","358894","0.0-101.0","5f4ad685a1429a13599bfb44","665500ab8938657b03fbdba8","66578162abdbd8f259109dca","1401","stimuli/0100110.jpg","2","","prediction_trial","0","","false","","0","false","false","false","true","false","false","[0]","100","110","0","","","","","","",""
"","","","","","image-keyboard-response","127","359971","0.0-102.0","5f4ad685a1429a13599bfb44","665500ab8938657b03fbdba8","66578162abdbd8f259109dca","1075","stimuli/01001100.jpg"," ","","feedback_trial","0","","","","","","","","","","","","","","","","","","","","",""
"","","","","","image-keyboard-response","128","362191","0.0-103.0","5f4ad685a1429a13599bfb44","665500ab8938657b03fbdba8","66578162abdbd8f259109dca","2219","stimuli/1000010.jpg","1","","prediction_trial","1","","true","","1","false","true","true","true","false","true","[1]","000","010","1","","","","","","",""
"","","","","","image-keyboard-response","129","363010","0.0-104.0","5f4ad685a1429a13599bfb44","665500ab8938657b03fbdba8","66578162abdbd8f259109dca","818","stimuli/10000101.jpg"," ","","feedback_trial","1","","","","","","","","","","","","","","","","","","","","",""
"","","","","","image-keyboard-response","130","364402","0.0-105.0","5f4ad685a1429a13599bfb44","665500ab8938657b03fbdba8","66578162abdbd8f259109dca","1391","stimuli/2001110.jpg","2","","prediction_trial","2","","true","","2","true","true","false","true","false","true","[2]","001","110","1","","","","","","",""
"","","","","","image-keyboard-response","131","365276","0.0-106.0","5f4ad685a1429a13599bfb44","665500ab8938657b03fbdba8","66578162abdbd8f259109dca","873","stimuli/20011102.jpg"," ","","feedback_trial","2","","","","","","","","","","","","","","","","","","","","",""
"","","","","","image-keyboard-response","132","367533","0.0-107.0","5f4ad685a1429a13599bfb44","665500ab8938657b03fbdba8","66578162abdbd8f259109dca","2256","stimuli/1011101.jpg","1","","prediction_trial","2","","false","","1","true","true","false","false","false","false","[1,2]","011","101","0","","","","","","",""
"","","","","","image-keyboard-response","133","368297","0.0-108.0","5f4ad685a1429a13599bfb44","665500ab8938657b03fbdba8","66578162abdbd8f259109dca","764","stimuli/10111012.jpg"," ","","feedback_trial","1","","","","","","","","","","","","","","","","","","","","",""
"","","","","","image-keyboard-response","134","369956","0.0-109.0","5f4ad685a1429a13599bfb44","665500ab8938657b03fbdba8","66578162abdbd8f259109dca","1658","stimuli/0011001.jpg","0","","prediction_trial","0","","true","","0","true","true","true","true","true","true","[0]","011","001","1","","","","","","",""
"","","","","","image-keyboard-response","135","370628","0.0-110.0","5f4ad685a1429a13599bfb44","665500ab8938657b03fbdba8","66578162abdbd8f259109dca","670","stimuli/00110010.jpg"," ","","feedback_trial","0","","","","","","","","","","","","","","","","","","","","",""
"","","","","","image-keyboard-response","136","372409","0.0-111.0","5f4ad685a1429a13599bfb44","665500ab8938657b03fbdba8","66578162abdbd8f259109dca","1781","stimuli/1111100.jpg","1","","prediction_trial","0","","false","","1","true","true","false","false","false","false","[1,0,2]","111","100","0","","","","","","",""
"","","","","","image-keyboard-response","137","373192","0.0-112.0","5f4ad685a1429a13599bfb44","665500ab8938657b03fbdba8","66578162abdbd8f259109dca","781","stimuli/11111000.jpg"," ","","feedback_trial","1","","","","","","","","","","","","","","","","","","","","",""
"","","","","","image-keyboard-response","138","375496","0.0-113.0","5f4ad685a1429a13599bfb44","665500ab8938657b03fbdba8","66578162abdbd8f259109dca","2303","stimuli/1000100.jpg","1","","prediction_trial","1","","true","","1","true","true","true","true","true","true","[1]","000","100","1","","","","","","",""
"","","","","","image-keyboard-response","139","376122","0.0-114.0","5f4ad685a1429a13599bfb44","665500ab8938657b03fbdba8","66578162abdbd8f259109dca","625","stimuli/10001001.jpg"," ","","feedback_trial","1","","","","","","","","","","","","","","","","","","","","",""
"","","","","","image-keyboard-response","140","377728","0.0-115.0","5f4ad685a1429a13599bfb44","665500ab8938657b03fbdba8","66578162abdbd8f259109dca","1605","stimuli/2110100.jpg","2","","prediction_trial","2","","true","","2","true","true","true","true","true","true","[2]","110","100","1","","","","","","",""
"","","","","","image-keyboard-response","141","378536","0.0-116.0","5f4ad685a1429a13599bfb44","665500ab8938657b03fbdba8","66578162abdbd8f259109dca","807","stimuli/21101002.jpg"," ","","feedback_trial","2","","","","","","","","","","","","","","","","","","","","",""
"","","","","","image-keyboard-response","142","379945","0.0-117.0","5f4ad685a1429a13599bfb44","665500ab8938657b03fbdba8","66578162abdbd8f259109dca","1408","stimuli/2011111.jpg","0","","prediction_trial","2","","false","","2","false","false","false","false","false","false","[1,2]","011","111","0","","","","","","",""
"","","","","","image-keyboard-response","143","380705","0.0-118.0","5f4ad685a1429a13599bfb44","665500ab8938657b03fbdba8","66578162abdbd8f259109dca","759","stimuli/20111112.jpg"," ","","feedback_trial","1","","","","","","","","","","","","","","","","","","","","",""
"","","","","","image-keyboard-response","144","382484","0.0-119.0","5f4ad685a1429a13599bfb44","665500ab8938657b03fbdba8","66578162abdbd8f259109dca","1778","stimuli/1001000.jpg","1","","prediction_trial","1","","true","","1","true","true","true","true","true","true","[1]","001","000","1","","","","","","",""
"","","","","","image-keyboard-response","145","383128","0.0-120.0","5f4ad685a1429a13599bfb44","665500ab8938657b03fbdba8","66578162abdbd8f259109dca","643","stimuli/10010001.jpg"," ","","feedback_trial","1","","","","","","","","","","","","","","","","","","","","",""
"","","","","","image-keyboard-response","146","384496","0.0-121.0","5f4ad685a1429a13599bfb44","665500ab8938657b03fbdba8","66578162abdbd8f259109dca","1367","stimuli/2000110.jpg","2","","prediction_trial","2","","true","","2","true","true","true","true","true","true","[2]","000","110","1","","","","","","",""
"","","","","","image-keyboard-response","147","385278","0.0-122.0","5f4ad685a1429a13599bfb44","665500ab8938657b03fbdba8","66578162abdbd8f259109dca","792","stimuli/20001102.jpg"," ","","feedback_trial","2","","","","","","","","","","","","","","","","","","","","",""
"","","","","","image-keyboard-response","148","387172","0.0-123.0","5f4ad685a1429a13599bfb44","665500ab8938657b03fbdba8","66578162abdbd8f259109dca","1893","stimuli/1101011.jpg","0","","prediction_trial","1","","false","","1","false","false","true","true","false","false","[1]","101","011","0","","","","","","",""
"","","","","","image-keyboard-response","149","388137","0.0-124.0","5f4ad685a1429a13599bfb44","665500ab8938657b03fbdba8","66578162abdbd8f259109dca","964","stimuli/11010111.jpg"," ","","feedback_trial","1","","","","","","","","","","","","","","","","","","","","",""
"","","","","","image-keyboard-response","150","391206","0.0-125.0","5f4ad685a1429a13599bfb44","665500ab8938657b03fbdba8","66578162abdbd8f259109dca","3068","stimuli/0001110.jpg","0","","prediction_trial","0","","true","","0","false","false","true","true","false","false","[0]","001","110","1","","","","","","",""
"","","","","","image-keyboard-response","151","392405","0.0-126.0","5f4ad685a1429a13599bfb44","665500ab8938657b03fbdba8","66578162abdbd8f259109dca","1198","stimuli/00011100.jpg"," ","","feedback_trial","0","","","","","","","","","","","","","","","","","","","","",""
"","","","","","image-keyboard-response","152","394932","0.0-127.0","5f4ad685a1429a13599bfb44","665500ab8938657b03fbdba8","66578162abdbd8f259109dca","2526","stimuli/2110001.jpg","2","","prediction_trial","2","","true","","2","false","true","true","true","false","true","[2]","110","001","1","","","","","","",""
"","","","","","image-keyboard-response","153","395796","0.0-128.0","5f4ad685a1429a13599bfb44","665500ab8938657b03fbdba8","66578162abdbd8f259109dca","863","stimuli/21100012.jpg"," ","","feedback_trial","2","","","","","","","","","","","","","","","","","","","","",""
"","","","","","image-keyboard-response","154","397214","0.0-129.0","5f4ad685a1429a13599bfb44","665500ab8938657b03fbdba8","66578162abdbd8f259109dca","1417","stimuli/0011010.jpg","0","","prediction_trial","0","","true","","0","true","true","true","true","true","true","[0]","011","010","1","","","","","","",""
"","","","","","image-keyboard-response","155","397946","0.0-130.0","5f4ad685a1429a13599bfb44","665500ab8938657b03fbdba8","66578162abdbd8f259109dca","731","stimuli/00110100.jpg"," ","","feedback_trial","0","","","","","","","","","","","","","","","","","","","","",""
"","","","","","image-keyboard-response","156","399933","0.0-131.0","5f4ad685a1429a13599bfb44","665500ab8938657b03fbdba8","66578162abdbd8f259109dca","1986","stimuli/0101101.jpg","1","","prediction_trial","0","","false","","0","false","false","false","false","false","false","[0,2]","101","101","0","","","","","","",""
"","","","","","image-keyboard-response","157","400693","0.0-132.0","5f4ad685a1429a13599bfb44","665500ab8938657b03fbdba8","66578162abdbd8f259109dca","759","stimuli/01011010.jpg"," ","","feedback_trial","0","","","","","","","","","","","","","","","","","","","","",""
"","","","","","image-keyboard-response","158","402740","0.0-133.0","5f4ad685a1429a13599bfb44","665500ab8938657b03fbdba8","66578162abdbd8f259109dca","2045","stimuli/1001101.jpg","0","","prediction_trial","1","","false","","1","true","true","true","true","true","true","[1]","001","101","0","","","","","","",""
"","","","","","image-keyboard-response","159","403692","0.0-134.0","5f4ad685a1429a13599bfb44","665500ab8938657b03fbdba8","66578162abdbd8f259109dca","951","stimuli/10011011.jpg"," ","","feedback_trial","1","","","","","","","","","","","","","","","","","","","","",""
"","","","","","image-keyboard-response","160","405882","0.0-135.0","5f4ad685a1429a13599bfb44","665500ab8938657b03fbdba8","66578162abdbd8f259109dca","2188","stimuli/1110010.jpg","1","","prediction_trial","1","","true","","1","false","true","false","false","false","false","[1,0]","110","010","1","","","","","","",""
"","","","","","image-keyboard-response","161","406659","0.0-136.0","5f4ad685a1429a13599bfb44","665500ab8938657b03fbdba8","66578162abdbd8f259109dca","776","stimuli/11100101.jpg"," ","","feedback_trial","1","","","","","","","","","","","","","","","","","","","","",""
"","","","","","image-keyboard-response","162","408950","0.0-137.0","5f4ad685a1429a13599bfb44","665500ab8938657b03fbdba8","66578162abdbd8f259109dca","2290","stimuli/0010111.jpg","0","","prediction_trial","0","","true","","0","false","false","true","true","false","false","[0]","010","111","1","","","","","","",""
"","","","","","image-keyboard-response","163","409978","0.0-138.0","5f4ad685a1429a13599bfb44","665500ab8938657b03fbdba8","66578162abdbd8f259109dca","1027","stimuli/00101110.jpg"," ","","feedback_trial","0","","","","","","","","","","","","","","","","","","","","",""
"","","","","","image-keyboard-response","164","412281","0.0-139.0","5f4ad685a1429a13599bfb44","665500ab8938657b03fbdba8","66578162abdbd8f259109dca","2302","stimuli/0010110.jpg","2","","prediction_trial","0","","false","","0","false","false","true","true","false","false","[0]","010","110","0","","","","","","",""
"","","","","","image-keyboard-response","165","413006","0.0-140.0","5f4ad685a1429a13599bfb44","665500ab8938657b03fbdba8","66578162abdbd8f259109dca","724","stimuli/00101100.jpg"," ","","feedback_trial","0","","","","","","","","","","","","","","","","","","","","",""
"","","","","","image-keyboard-response","166","414371","0.0-141.0","5f4ad685a1429a13599bfb44","665500ab8938657b03fbdba8","66578162abdbd8f259109dca","1364","stimuli/2111000.jpg","2","","prediction_trial","1","","false","","2","true","true","false","false","false","false","[2,0,1]","111","000","0","","","","","","",""
"","","","","","image-keyboard-response","167","415588","0.0-142.0","5f4ad685a1429a13599bfb44","665500ab8938657b03fbdba8","66578162abdbd8f259109dca","1216","stimuli/21110001.jpg"," ","","feedback_trial","2","","","","","","","","","","","","","","","","","","","","",""
"","","","","","image-keyboard-response","168","416982","0.0-143.0","5f4ad685a1429a13599bfb44","665500ab8938657b03fbdba8","66578162abdbd8f259109dca","1393","stimuli/0001000.jpg","0","","prediction_trial","0","","true","","0","true","true","true","true","true","true","[0]","001","000","1","","","","","","",""
"","","","","","image-keyboard-response","169","417677","0.0-144.0","5f4ad685a1429a13599bfb44","665500ab8938657b03fbdba8","66578162abdbd8f259109dca","694","stimuli/00010000.jpg"," ","","feedback_trial","0","","","","","","","","","","","","","","","","","","","","",""
"","","","","","image-keyboard-response","170","419503","0.0-145.0","5f4ad685a1429a13599bfb44","665500ab8938657b03fbdba8","66578162abdbd8f259109dca","1825","stimuli/2100011.jpg","0","","prediction_trial","2","","false","","2","false","false","true","true","false","false","[2]","100","011","0","","","","","","",""
"","","","","","image-keyboard-response","171","420113","0.0-146.0","5f4ad685a1429a13599bfb44","665500ab8938657b03fbdba8","66578162abdbd8f259109dca","609","stimuli/21000112.jpg"," ","","feedback_trial","2","","","","","","","","","","","","","","","","","","","","",""
"","","","","","image-keyboard-response","172","421741","0.0-147.0","5f4ad685a1429a13599bfb44","665500ab8938657b03fbdba8","66578162abdbd8f259109dca","1627","stimuli/1010101.jpg","1","","prediction_trial","1","","true","","1","true","true","false","true","false","true","[1]","010","101","1","","","","","","",""
"","","","","","image-keyboard-response","173","422515","0.0-148.0","5f4ad685a1429a13599bfb44","665500ab8938657b03fbdba8","66578162abdbd8f259109dca","774","stimuli/10101011.jpg"," ","","feedback_trial","1","","","","","","","","","","","","","","","","","","","","",""
"","","","","","image-keyboard-response","174","424279","0.0-149.0","5f4ad685a1429a13599bfb44","665500ab8938657b03fbdba8","66578162abdbd8f259109dca","1762","stimuli/2001000.jpg","2","","prediction_trial","2","","true","","2","true","true","false","true","false","true","[2]","001","000","1","","","","","","",""
"","","","","","image-keyboard-response","175","425326","0.0-150.0","5f4ad685a1429a13599bfb44","665500ab8938657b03fbdba8","66578162abdbd8f259109dca","1046","stimuli/20010002.jpg"," ","","feedback_trial","2","","","","","","","","","","","","","","","","","","","","",""
"","","","","","image-keyboard-response","176","426496","0.0-151.0","5f4ad685a1429a13599bfb44","665500ab8938657b03fbdba8","66578162abdbd8f259109dca","1170","stimuli/0101000.jpg","0","","prediction_trial","0","","true","","0","true","true","false","false","false","false","[2,0]","101","000","1","","","","","","",""
"","","","","","image-keyboard-response","177","427197","0.0-152.0","5f4ad685a1429a13599bfb44","665500ab8938657b03fbdba8","66578162abdbd8f259109dca","699","stimuli/01010000.jpg"," ","","feedback_trial","2","","","","","","","","","","","","","","","","","","","","",""
"","","","","","image-keyboard-response","178","428521","0.0-153.0","5f4ad685a1429a13599bfb44","665500ab8938657b03fbdba8","66578162abdbd8f259109dca","1323","stimuli/2010010.jpg","2","","prediction_trial","2","","true","","2","true","true","true","true","true","true","[2]","010","010","1","","","","","","",""
"","","","","","image-keyboard-response","179","429289","0.0-154.0","5f4ad685a1429a13599bfb44","665500ab8938657b03fbdba8","66578162abdbd8f259109dca","767","stimuli/20100102.jpg"," ","","feedback_trial","2","","","","","","","","","","","","","","","","","","","","",""
"","","","","","image-keyboard-response","180","431626","0.0-155.0","5f4ad685a1429a13599bfb44","665500ab8938657b03fbdba8","66578162abdbd8f259109dca","2335","stimuli/2001111.jpg","0","","prediction_trial","2","","false","","2","false","false","false","true","false","false","[2]","001","111","0","","","","","","",""
"","","","","","image-keyboard-response","181","432674","0.0-156.0","5f4ad685a1429a13599bfb44","665500ab8938657b03fbdba8","66578162abdbd8f259109dca","1048","stimuli/20011112.jpg"," ","","feedback_trial","2","","","","","","","","","","","","","","","","","","","","",""
"","","","","","image-keyboard-response","182","434081","0.0-157.0","5f4ad685a1429a13599bfb44","665500ab8938657b03fbdba8","66578162abdbd8f259109dca","1406","stimuli/1011010.jpg","1","","prediction_trial","1","","true","","1","false","true","false","false","false","false","[1,2]","011","010","1","","","","","","",""
"","","","","","image-keyboard-response","183","434929","0.0-158.0","5f4ad685a1429a13599bfb44","665500ab8938657b03fbdba8","66578162abdbd8f259109dca","847","stimuli/10110101.jpg"," ","","feedback_trial","1","","","","","","","","","","","","","","","","","","","","",""
"","","","","","image-keyboard-response","184","436153","0.0-159.0","5f4ad685a1429a13599bfb44","665500ab8938657b03fbdba8","66578162abdbd8f259109dca","1223","stimuli/0100010.jpg","0","","prediction_trial","0","","true","","0","true","true","false","true","false","true","[0]","100","010","1","","","","","","",""
"","","","","","image-keyboard-response","185","436842","0.0-160.0","5f4ad685a1429a13599bfb44","665500ab8938657b03fbdba8","66578162abdbd8f259109dca","688","stimuli/01000100.jpg"," ","","feedback_trial","0","","","","","","","","","","","","","","","","","","","","",""
"","","","","","image-keyboard-response","186","438212","0.0-161.0","5f4ad685a1429a13599bfb44","665500ab8938657b03fbdba8","66578162abdbd8f259109dca","1370","stimuli/0100000.jpg","0","","prediction_trial","0","","true","","0","true","true","false","true","false","true","[0]","100","000","1","","","","","","",""
"","","","","","image-keyboard-response","187","438833","0.0-162.0","5f4ad685a1429a13599bfb44","665500ab8938657b03fbdba8","66578162abdbd8f259109dca","620","stimuli/01000000.jpg"," ","","feedback_trial","0","","","","","","","","","","","","","","","","","","","","",""
"","","","","","image-keyboard-response","188","440394","0.0-163.0","5f4ad685a1429a13599bfb44","665500ab8938657b03fbdba8","66578162abdbd8f259109dca","1559","stimuli/0110111.jpg","2","","prediction_trial","0","","false","","0","false","false","false","false","false","false","[0,1]","110","111","0","","","","","","",""
"","","","","","image-keyboard-response","189","441607","0.0-164.0","5f4ad685a1429a13599bfb44","665500ab8938657b03fbdba8","66578162abdbd8f259109dca","1212","stimuli/01101110.jpg"," ","","feedback_trial","0","","","","","","","","","","","","","","","","","","","","",""
"","","","","","image-keyboard-response","190","443782","0.0-165.0","5f4ad685a1429a13599bfb44","665500ab8938657b03fbdba8","66578162abdbd8f259109dca","2175","stimuli/2100101.jpg","0","","prediction_trial","2","","false","","2","false","false","true","true","false","false","[2]","100","101","0","","","","","","",""
"","","","","","image-keyboard-response","191","444715","0.0-166.0","5f4ad685a1429a13599bfb44","665500ab8938657b03fbdba8","66578162abdbd8f259109dca","931","stimuli/21001012.jpg"," ","","feedback_trial","2","","","","","","","","","","","","","","","","","","","","",""
"","","","","","image-keyboard-response","192","446999","0.0-167.0","5f4ad685a1429a13599bfb44","665500ab8938657b03fbdba8","66578162abdbd8f259109dca","2271","stimuli/1010010.jpg","1","","prediction_trial","1","","true","","1","false","true","false","true","false","true","[1]","010","010","1","","","","","","",""
"","","","","","image-keyboard-response","193","447896","0.0-168.0","5f4ad685a1429a13599bfb44","665500ab8938657b03fbdba8","66578162abdbd8f259109dca","896","stimuli/10100101.jpg"," ","","feedback_trial","1","","","","","","","","","","","","","","","","","","","","",""
"","","","","","image-keyboard-response","194","449385","0.0-169.0","5f4ad685a1429a13599bfb44","665500ab8938657b03fbdba8","66578162abdbd8f259109dca","1488","stimuli/1110100.jpg","1","","prediction_trial","0","","false","","1","true","true","false","false","false","false","[0,1]","110","100","0","","","","","","",""
"","","","","","image-keyboard-response","195","449963","0.0-170.0","5f4ad685a1429a13599bfb44","665500ab8938657b03fbdba8","66578162abdbd8f259109dca","577","stimuli/11101000.jpg"," ","","feedback_trial","0","","","","","","","","","","","","","","","","","","","","",""
"","","","","","image-keyboard-response","196","451691","0.0-171.0","5f4ad685a1429a13599bfb44","665500ab8938657b03fbdba8","66578162abdbd8f259109dca","1727","stimuli/0100100.jpg","0","","prediction_trial","0","","true","","0","false","true","false","true","false","true","[0]","100","100","1","","","","","","",""
"","","","","","image-keyboard-response","197","452661","0.0-172.0","5f4ad685a1429a13599bfb44","665500ab8938657b03fbdba8","66578162abdbd8f259109dca","969","stimuli/01001000.jpg"," ","","feedback_trial","0","","","","","","","","","","","","","","","","","","","","",""
"","","","","","image-keyboard-response","198","453906","0.0-173.0","5f4ad685a1429a13599bfb44","665500ab8938657b03fbdba8","66578162abdbd8f259109dca","1244","stimuli/1010110.jpg","1","","prediction_trial","1","","true","","1","false","false","false","true","false","false","[1]","010","110","1","","","","","","",""
"","","","","","image-keyboard-response","199","454734","0.0-174.0","5f4ad685a1429a13599bfb44","665500ab8938657b03fbdba8","66578162abdbd8f259109dca","826","stimuli/10101101.jpg"," ","","feedback_trial","1","","","","","","","","","","","","","","","","","","","","",""
"","","","","","image-keyboard-response","200","457001","0.0-175.0","5f4ad685a1429a13599bfb44","665500ab8938657b03fbdba8","66578162abdbd8f259109dca","2266","stimuli/1111011.jpg","2","","prediction_trial","1","","false","","1","false","false","false","false","false","false","[1,2,0]","111","011","0","","","","","","",""
"","","","","","image-keyboard-response","201","457809","0.0-176.0","5f4ad685a1429a13599bfb44","665500ab8938657b03fbdba8","66578162abdbd8f259109dca","808","stimuli/11110111.jpg"," ","","feedback_trial","1","","","","","","","","","","","","","","","","","","","","",""
"","","","","","image-keyboard-response","202","459499","0.0-177.0","5f4ad685a1429a13599bfb44","665500ab8938657b03fbdba8","66578162abdbd8f259109dca","1688","stimuli/1001001.jpg","1","","prediction_trial","1","","true","","1","true","true","true","true","true","true","[1]","001","001","1","","","","","","",""
"","","","","","image-keyboard-response","203","460097","0.0-178.0","5f4ad685a1429a13599bfb44","665500ab8938657b03fbdba8","66578162abdbd8f259109dca","597","stimuli/10010011.jpg"," ","","feedback_trial","1","","","","","","","","","","","","","","","","","","","","",""
"","","","","","image-keyboard-response","204","461812","0.0-179.0","5f4ad685a1429a13599bfb44","665500ab8938657b03fbdba8","66578162abdbd8f259109dca","1714","stimuli/2101110.jpg","2","","prediction_trial","2","","true","","2","true","true","false","false","false","false","[2,0]","101","110","1","","","","","","",""
"","","","","","image-keyboard-response","205","462548","0.0-180.0","5f4ad685a1429a13599bfb44","665500ab8938657b03fbdba8","66578162abdbd8f259109dca","735","stimuli/21011102.jpg"," ","","feedback_trial","2","","","","","","","","","","","","","","","","","","","","",""
"","","","","","image-keyboard-response","206","463609","0.0-181.0","5f4ad685a1429a13599bfb44","665500ab8938657b03fbdba8","66578162abdbd8f259109dca","1060","stimuli/0001010.jpg","0","","prediction_trial","0","","true","","0","true","true","true","true","true","true","[0]","001","010","1","","","","","","",""
"","","","","","image-keyboard-response","207","464262","0.0-182.0","5f4ad685a1429a13599bfb44","665500ab8938657b03fbdba8","66578162abdbd8f259109dca","652","stimuli/00010100.jpg"," ","","feedback_trial","0","","","","","","","","","","","","","","","","","","","","",""
"","","","","","image-keyboard-response","208","465684","0.0-183.0","5f4ad685a1429a13599bfb44","665500ab8938657b03fbdba8","66578162abdbd8f259109dca","1421","stimuli/2001100.jpg","2","","prediction_trial","2","","true","","2","true","true","false","true","false","true","[2]","001","100","1","","","","","","",""
"","","","","","image-keyboard-response","209","466542","0.0-184.0","5f4ad685a1429a13599bfb44","665500ab8938657b03fbdba8","66578162abdbd8f259109dca","857","stimuli/20011002.jpg"," ","","feedback_trial","2","","","","","","","","","","","","","","","","","","","","",""
"","","","","","image-keyboard-response","210","468103","0.0-185.0","5f4ad685a1429a13599bfb44","665500ab8938657b03fbdba8","66578162abdbd8f259109dca","1559","stimuli/1100100.jpg","1","","prediction_trial","1","","true","","1","true","true","true","true","true","true","[1]","100","100","1","","","","","","",""
"","","","","","image-keyboard-response","211","468737","0.0-186.0","5f4ad685a1429a13599bfb44","665500ab8938657b03fbdba8","66578162abdbd8f259109dca","633","stimuli/11001001.jpg"," ","","feedback_trial","1","","","","","","","","","","","","","","","","","","","","",""
"","","","","","image-keyboard-response","212","469843","0.0-187.0","5f4ad685a1429a13599bfb44","665500ab8938657b03fbdba8","66578162abdbd8f259109dca","1105","stimuli/2111110.jpg","2","","prediction_trial","1","","false","","2","true","true","false","false","false","false","[1,2,0]","111","110","0","","","","","","",""
"","","","","","image-keyboard-response","213","470847","0.0-188.0","5f4ad685a1429a13599bfb44","665500ab8938657b03fbdba8","66578162abdbd8f259109dca","1003","stimuli/21111101.jpg"," ","","feedback_trial","1","","","","","","","","","","","","","","","","","","","","",""
"","","","","","image-keyboard-response","214","472057","0.0-189.0","5f4ad685a1429a13599bfb44","665500ab8938657b03fbdba8","66578162abdbd8f259109dca","1209","stimuli/2110110.jpg","2","","prediction_trial","2","","true","","2","true","true","true","true","true","true","[2]","110","110","1","","","","","","",""
"","","","","","image-keyboard-response","215","473001","0.0-190.0","5f4ad685a1429a13599bfb44","665500ab8938657b03fbdba8","66578162abdbd8f259109dca","943","stimuli/21101102.jpg"," ","","feedback_trial","2","","","","","","","","","","","","","","","","","","","","",""
"","","","","","image-keyboard-response","216","475936","0.0-191.0","5f4ad685a1429a13599bfb44","665500ab8938657b03fbdba8","66578162abdbd8f259109dca","2935","stimuli/2110101.jpg","1","","prediction_trial","2","","false","","2","false","false","true","true","false","false","[2]","110","101","0","","","","","","",""
"","","","","","image-keyboard-response","217","476662","0.0-192.0","5f4ad685a1429a13599bfb44","665500ab8938657b03fbdba8","66578162abdbd8f259109dca","725","stimuli/21101012.jpg"," ","","feedback_trial","2","","","","","","","","","","","","","","","","","","","","",""
"","","","","","image-keyboard-response","218","478439","0.0-193.0","5f4ad685a1429a13599bfb44","665500ab8938657b03fbdba8","66578162abdbd8f259109dca","1775","stimuli/0110110.jpg","2","","prediction_trial","0","","false","","0","false","false","false","false","false","false","[0,1]","110","110","0","","","","","","",""
"","","","","","image-keyboard-response","219","479174","0.0-194.0","5f4ad685a1429a13599bfb44","665500ab8938657b03fbdba8","66578162abdbd8f259109dca","734","stimuli/01101100.jpg"," ","","feedback_trial","0","","","","","","","","","","","","","","","","","","","","",""
"","","","","","image-keyboard-response","220","480865","0.0-195.0","5f4ad685a1429a13599bfb44","665500ab8938657b03fbdba8","66578162abdbd8f259109dca","1690","stimuli/2100010.jpg","2","","prediction_trial","2","","true","","2","true","true","true","true","true","true","[2]","100","010","1","","","","","","",""
"","","","","","image-keyboard-response","221","481655","0.0-196.0","5f4ad685a1429a13599bfb44","665500ab8938657b03fbdba8","66578162abdbd8f259109dca","789","stimuli/21000102.jpg"," ","","feedback_trial","2","","","","","","","","","","","","","","","","","","","","",""
"","","","","","image-keyboard-response","222","483986","0.0-197.0","5f4ad685a1429a13599bfb44","665500ab8938657b03fbdba8","66578162abdbd8f259109dca","2330","stimuli/2000011.jpg","0","","prediction_trial","2","","false","","2","false","false","true","true","false","false","[2]","000","011","0","","","","","","",""
"","","","","","image-keyboard-response","223","484741","0.0-198.0","5f4ad685a1429a13599bfb44","665500ab8938657b03fbdba8","66578162abdbd8f259109dca","755","stimuli/20000112.jpg"," ","","feedback_trial","2","","","","","","","","","","","","","","","","","","","","",""
"","","","","","image-keyboard-response","224","486032","0.0-199.0","5f4ad685a1429a13599bfb44","665500ab8938657b03fbdba8","66578162abdbd8f259109dca","1290","stimuli/1110101.jpg","1","","prediction_trial","0","","false","","1","true","true","false","false","false","false","[0,1]","110","101","0","","","","","","",""
"","","","","","image-keyboard-response","225","486645","0.0-200.0","5f4ad685a1429a13599bfb44","665500ab8938657b03fbdba8","66578162abdbd8f259109dca","612","stimuli/11101010.jpg"," ","","feedback_trial","0","","","","","","","","","","","","","","","","","","","","",""
"","","","","","image-keyboard-response","226","488819","0.0-201.0","5f4ad685a1429a13599bfb44","665500ab8938657b03fbdba8","66578162abdbd8f259109dca","2173","stimuli/0010101.jpg","0","","prediction_trial","0","","true","","0","false","false","true","true","false","false","[0]","010","101","1","","","","","","",""
"","","","","","image-keyboard-response","227","489600","0.0-202.0","5f4ad685a1429a13599bfb44","665500ab8938657b03fbdba8","66578162abdbd8f259109dca","780","stimuli/00101010.jpg"," ","","feedback_trial","0","","","","","","","","","","","","","","","","","","","","",""
"","","","","","image-keyboard-response","228","491937","0.0-203.0","5f4ad685a1429a13599bfb44","665500ab8938657b03fbdba8","66578162abdbd8f259109dca","2336","stimuli/2101101.jpg","2","","prediction_trial","2","","true","","2","false","false","false","false","false","false","[0,2]","101","101","1","","","","","","",""
"","","","","","image-keyboard-response","229","492797","0.0-204.0","5f4ad685a1429a13599bfb44","665500ab8938657b03fbdba8","66578162abdbd8f259109dca","860","stimuli/21011012.jpg"," ","","feedback_trial","0","","","","","","","","","","","","","","","","","","","","",""
"","","","","","image-keyboard-response","230","494191","0.0-205.0","5f4ad685a1429a13599bfb44","665500ab8938657b03fbdba8","66578162abdbd8f259109dca","1393","stimuli/1000001.jpg","1","","prediction_trial","1","","true","","1","true","true","true","true","true","true","[1]","000","001","1","","","","","","",""
"","","","","","image-keyboard-response","231","494831","0.0-206.0","5f4ad685a1429a13599bfb44","665500ab8938657b03fbdba8","66578162abdbd8f259109dca","639","stimuli/10000011.jpg"," ","","feedback_trial","1","","","","","","","","","","","","","","","","","","","","",""
"","","","","","image-keyboard-response","232","496466","0.0-207.0","5f4ad685a1429a13599bfb44","665500ab8938657b03fbdba8","66578162abdbd8f259109dca","1634","stimuli/0111111.jpg","1","","prediction_trial","2","","false","","0","false","false","false","false","false","false","[2,0,1]","111","111","0","","","","","","",""
"","","","","","image-keyboard-response","233","497306","0.0-208.0","5f4ad685a1429a13599bfb44","665500ab8938657b03fbdba8","66578162abdbd8f259109dca","839","stimuli/01111112.jpg"," ","","feedback_trial","2","","","","","","","","","","","","","","","","","","","","",""
"","","","","","image-keyboard-response","234","498754","0.0-209.0","5f4ad685a1429a13599bfb44","665500ab8938657b03fbdba8","66578162abdbd8f259109dca","1447","stimuli/1110000.jpg","2","","prediction_trial","0","","false","","1","true","true","false","false","false","false","[0,1]","110","000","0","","","","","","",""
"","","","","","image-keyboard-response","235","499914","0.0-210.0","5f4ad685a1429a13599bfb44","665500ab8938657b03fbdba8","66578162abdbd8f259109dca","1159","stimuli/11100000.jpg"," ","","feedback_trial","0","","","","","","","","","","","","","","","","","","","","",""
"","","","","","image-keyboard-response","236","501093","0.0-211.0","5f4ad685a1429a13599bfb44","665500ab8938657b03fbdba8","66578162abdbd8f259109dca","1177","stimuli/2111010.jpg","2","","prediction_trial","0","","false","","2","true","true","false","false","false","false","[2,0,1]","111","010","0","","","","","","",""
"","","","","","image-keyboard-response","237","501887","0.0-212.0","5f4ad685a1429a13599bfb44","665500ab8938657b03fbdba8","66578162abdbd8f259109dca","793","stimuli/21110100.jpg"," ","","feedback_trial","2","","","","","","","","","","","","","","","","","","","","",""
"","","","","","image-keyboard-response","238","503513","0.0-213.0","5f4ad685a1429a13599bfb44","665500ab8938657b03fbdba8","66578162abdbd8f259109dca","1625","stimuli/0001101.jpg","1","","prediction_trial","0","","false","","0","false","false","true","true","false","false","[0]","001","101","0","","","","","","",""
"","","","","","image-keyboard-response","239","504211","0.0-214.0","5f4ad685a1429a13599bfb44","665500ab8938657b03fbdba8","66578162abdbd8f259109dca","698","stimuli/00011010.jpg"," ","","feedback_trial","0","","","","","","","","","","","","","","","","","","","","",""
"","","","","","image-keyboard-response","240","505915","0.0-215.0","5f4ad685a1429a13599bfb44","665500ab8938657b03fbdba8","66578162abdbd8f259109dca","1704","stimuli/0101001.jpg","0","","prediction_trial","2","","false","","0","true","true","false","false","false","false","[2,0]","101","001","0","","","","","","",""
"","","","","","image-keyboard-response","241","506493","0.0-216.0","5f4ad685a1429a13599bfb44","665500ab8938657b03fbdba8","66578162abdbd8f259109dca","576","stimuli/01010012.jpg"," ","","feedback_trial","2","","","","","","","","","","","","","","","","","","","","",""
"","","","","","image-keyboard-response","242","507678","0.0-217.0","5f4ad685a1429a13599bfb44","665500ab8938657b03fbdba8","66578162abdbd8f259109dca","1184","stimuli/2111001.jpg","2","","prediction_trial","1","","false","","2","false","true","false","false","false","false","[2,0,1]","111","001","0","","","","","","",""
"","","","","","image-keyboard-response","243","508416","0.0-218.0","5f4ad685a1429a13599bfb44","665500ab8938657b03fbdba8","66578162abdbd8f259109dca","737","stimuli/21110011.jpg"," ","","feedback_trial","2","","","","","","","","","","","","","","","","","","","","",""
"","","","","","image-keyboard-response","244","510278","0.0-219.0","5f4ad685a1429a13599bfb44","665500ab8938657b03fbdba8","66578162abdbd8f259109dca","1861","stimuli/2010011.jpg","1","","prediction_trial","2","","false","","2","false","false","true","true","false","false","[2]","010","011","0","","","","","","",""
"","","","","","image-keyboard-response","245","511682","0.0-220.0","5f4ad685a1429a13599bfb44","665500ab8938657b03fbdba8","66578162abdbd8f259109dca","1403","stimuli/20100112.jpg"," ","","feedback_trial","2","","","","","","","","","","","","","","","","","","","","",""
"","","","","","image-keyboard-response","246","515025","0.0-221.0","5f4ad685a1429a13599bfb44","665500ab8938657b03fbdba8","66578162abdbd8f259109dca","3341","stimuli/2011101.jpg","0","","prediction_trial","2","","false","","2","false","false","false","false","false","false","[2,1]","011","101","0","","","","","","",""
"","","","","","image-keyboard-response","247","516790","0.0-222.0","5f4ad685a1429a13599bfb44","665500ab8938657b03fbdba8","66578162abdbd8f259109dca","1764","stimuli/20111012.jpg"," ","","feedback_trial","2","","","","","","","","","","","","","","","","","","","","",""
"","","","","","image-keyboard-response","248","518468","0.0-223.0","5f4ad685a1429a13599bfb44","665500ab8938657b03fbdba8","66578162abdbd8f259109dca","1677","stimuli/1101001.jpg","1","","prediction_trial","1","","true","","1","true","true","true","true","true","true","[1]","101","001","1","","","","","","",""
"","","","","","image-keyboard-response","249","519074","0.0-224.0","5f4ad685a1429a13599bfb44","665500ab8938657b03fbdba8","66578162abdbd8f259109dca","604","stimuli/11010011.jpg"," ","","feedback_trial","1","","","","","","","","","","","","","","","","","","","","",""
"","","","","","image-keyboard-response","250","521051","0.0-225.0","5f4ad685a1429a13599bfb44","665500ab8938657b03fbdba8","66578162abdbd8f259109dca","1976","stimuli/0101100.jpg","0","","prediction_trial","0","","true","","0","false","true","false","false","false","false","[2,0]","101","100","1","","","","","","",""
"","","","","","image-keyboard-response","251","522109","0.0-226.0","5f4ad685a1429a13599bfb44","665500ab8938657b03fbdba8","66578162abdbd8f259109dca","1057","stimuli/01011000.jpg"," ","","feedback_trial","2","","","","","","","","","","","","","","","","","","","","",""
"","","","","","image-keyboard-response","252","524299","0.0-227.0","5f4ad685a1429a13599bfb44","665500ab8938657b03fbdba8","66578162abdbd8f259109dca","2189","stimuli/0100011.jpg","2","","prediction_trial","0","","false","","0","true","true","false","true","false","true","[0]","100","011","0","","","","","","",""
"","","","","","image-keyboard-response","253","525517","0.0-228.0","5f4ad685a1429a13599bfb44","665500ab8938657b03fbdba8","66578162abdbd8f259109dca","1216","stimuli/01000110.jpg"," ","","feedback_trial","0","","","","","","","","","","","","","","","","","","","","",""
"","","","","","image-keyboard-response","254","527637","0.0-229.0","5f4ad685a1429a13599bfb44","665500ab8938657b03fbdba8","66578162abdbd8f259109dca","2119","stimuli/0110010.jpg","0","","prediction_trial","0","","true","","0","true","true","false","false","false","false","[1,0]","110","010","1","","","","","","",""
"","","","","","image-keyboard-response","255","528430","0.0-230.0","5f4ad685a1429a13599bfb44","665500ab8938657b03fbdba8","66578162abdbd8f259109dca","792","stimuli/01100100.jpg"," ","","feedback_trial","1","","","","","","","","","","","","","","","","","","","","",""
"","","","","","image-keyboard-response","256","530338","0.0-231.0","5f4ad685a1429a13599bfb44","665500ab8938657b03fbdba8","66578162abdbd8f259109dca","1906","stimuli/2101111.jpg","2","","prediction_trial","2","","true","","2","false","false","false","false","false","false","[2,0]","101","111","1","","","","","","",""
"","","","","","image-keyboard-response","257","531619","0.0-232.0","5f4ad685a1429a13599bfb44","665500ab8938657b03fbdba8","66578162abdbd8f259109dca","1280","stimuli/21011112.jpg"," ","","feedback_trial","2","","","","","","","","","","","","","","","","","","","","",""
"","","","","","image-keyboard-response","258","532852","0.0-233.0","5f4ad685a1429a13599bfb44","665500ab8938657b03fbdba8","66578162abdbd8f259109dca","1231","stimuli/2011110.jpg","2","","prediction_trial","2","","true","","2","true","true","false","false","false","false","[1,2]","011","110","1","","","","","","",""
"","","","","","image-keyboard-response","259","533544","0.0-234.0","5f4ad685a1429a13599bfb44","665500ab8938657b03fbdba8","66578162abdbd8f259109dca","692","stimuli/20111102.jpg"," ","","feedback_trial","1","","","","","","","","","","","","","","","","","","","","",""
"","","","","","image-keyboard-response","260","534643","0.0-235.0","5f4ad685a1429a13599bfb44","665500ab8938657b03fbdba8","66578162abdbd8f259109dca","1098","stimuli/0011011.jpg","0","","prediction_trial","0","","true","","0","true","true","true","true","true","true","[0]","011","011","1","","","","","","",""
"","","","","","image-keyboard-response","261","535327","0.0-236.0","5f4ad685a1429a13599bfb44","665500ab8938657b03fbdba8","66578162abdbd8f259109dca","682","stimuli/00110110.jpg"," ","","feedback_trial","0","","","","","","","","","","","","","","","","","","","","",""
"","","","","","image-keyboard-response","262","536597","0.0-237.0","5f4ad685a1429a13599bfb44","665500ab8938657b03fbdba8","66578162abdbd8f259109dca","1269","stimuli/2001010.jpg","2","","prediction_trial","2","","true","","2","true","true","false","true","false","true","[2]","001","010","1","","","","","","",""
"","","","","","image-keyboard-response","263","537253","0.0-238.0","5f4ad685a1429a13599bfb44","665500ab8938657b03fbdba8","66578162abdbd8f259109dca","655","stimuli/20010102.jpg"," ","","feedback_trial","2","","","","","","","","","","","","","","","","","","","","",""
"","","","","","image-keyboard-response","264","539976","0.0-239.0","5f4ad685a1429a13599bfb44","665500ab8938657b03fbdba8","66578162abdbd8f259109dca","2721","stimuli/2100111.jpg","2","","prediction_trial","2","","true","","2","false","false","true","true","false","false","[2]","100","111","1","","","","","","",""
"","","","","","image-keyboard-response","265","541069","0.0-240.0","5f4ad685a1429a13599bfb44","665500ab8938657b03fbdba8","66578162abdbd8f259109dca","1092","stimuli/21001112.jpg"," ","","feedback_trial","2","","","","","","","","","","","","","","","","","","","","",""
"","","","","","image-keyboard-response","266","543799","0.0-241.0","5f4ad685a1429a13599bfb44","665500ab8938657b03fbdba8","66578162abdbd8f259109dca","2728","stimuli/1000110.jpg","1","","prediction_trial","1","","true","","1","false","false","true","true","false","false","[1]","000","110","1","","","","","","",""
"","","","","","image-keyboard-response","267","544636","0.0-242.0","5f4ad685a1429a13599bfb44","665500ab8938657b03fbdba8","66578162abdbd8f259109dca","836","stimuli/10001101.jpg"," ","","feedback_trial","1","","","","","","","","","","","","","","","","","","","","",""
"","","","","","image-keyboard-response","268","546051","0.0-243.0","5f4ad685a1429a13599bfb44","665500ab8938657b03fbdba8","66578162abdbd8f259109dca","1414","stimuli/0000011.jpg","0","","prediction_trial","0","","true","","0","true","true","true","true","true","true","[0]","000","011","1","","","","","","",""
"","","","","","image-keyboard-response","269","546797","0.0-244.0","5f4ad685a1429a13599bfb44","665500ab8938657b03fbdba8","66578162abdbd8f259109dca","746","stimuli/00000110.jpg"," ","","feedback_trial","0","","","","","","","","","","","","","","","","","","","","",""
"","","","","","image-keyboard-response","270","548649","0.0-245.0","5f4ad685a1429a13599bfb44","665500ab8938657b03fbdba8","66578162abdbd8f259109dca","1851","stimuli/1101101.jpg","1","","prediction_trial","1","","true","","1","true","true","true","true","true","true","[1]","101","101","1","","","","","","",""
"","","","","","image-keyboard-response","271","549384","0.0-246.0","5f4ad685a1429a13599bfb44","665500ab8938657b03fbdba8","66578162abdbd8f259109dca","733","stimuli/11011011.jpg"," ","","feedback_trial","1","","","","","","","","","","","","","","","","","","","","",""
"","","","","","image-keyboard-response","272","552077","0.0-247.0","5f4ad685a1429a13599bfb44","665500ab8938657b03fbdba8","66578162abdbd8f259109dca","2692","stimuli/2111101.jpg","2","","prediction_trial","0","","false","","2","false","false","false","false","false","false","[0,1,2]","111","101","0","","","","","","",""
"","","","","","image-keyboard-response","273","553159","0.0-248.0","5f4ad685a1429a13599bfb44","665500ab8938657b03fbdba8","66578162abdbd8f259109dca","1081","stimuli/21111010.jpg"," ","","feedback_trial","0","","","","","","","","","","","","","","","","","","","","",""
"","","","","","image-keyboard-response","274","555611","0.0-249.0","5f4ad685a1429a13599bfb44","665500ab8938657b03fbdba8","66578162abdbd8f259109dca","2451","stimuli/2110011.jpg","0","","prediction_trial","2","","false","","2","false","false","true","true","false","false","[2]","110","011","0","","","","","","",""
"","","","","","image-keyboard-response","275","556915","0.0-250.0","5f4ad685a1429a13599bfb44","665500ab8938657b03fbdba8","66578162abdbd8f259109dca","1302","stimuli/21100112.jpg"," ","","feedback_trial","2","","","","","","","","","","","","","","","","","","","","",""
"","","","","","image-keyboard-response","276","559417","0.0-251.0","5f4ad685a1429a13599bfb44","665500ab8938657b03fbdba8","66578162abdbd8f259109dca","2501","stimuli/2011011.jpg","1","","prediction_trial","2","","false","","2","false","false","false","false","false","false","[2,1]","011","011","0","","","","","","",""
"","","","","","image-keyboard-response","277","560404","0.0-252.0","5f4ad685a1429a13599bfb44","665500ab8938657b03fbdba8","66578162abdbd8f259109dca","986","stimuli/20110112.jpg"," ","","feedback_trial","2","","","","","","","","","","","","","","","","","","","","",""
"","","","","","image-keyboard-response","278","561624","0.0-253.0","5f4ad685a1429a13599bfb44","665500ab8938657b03fbdba8","66578162abdbd8f259109dca","1219","stimuli/1100000.jpg","1","","prediction_trial","1","","true","","1","true","true","true","true","true","true","[1]","100","000","1","","","","","","",""
"","","","","","image-keyboard-response","279","562244","0.0-254.0","5f4ad685a1429a13599bfb44","665500ab8938657b03fbdba8","66578162abdbd8f259109dca","619","stimuli/11000001.jpg"," ","","feedback_trial","1","","","","","","","","","","","","","","","","","","","","",""
"","","","","","image-keyboard-response","280","563979","0.0-255.0","5f4ad685a1429a13599bfb44","665500ab8938657b03fbdba8","66578162abdbd8f259109dca","1733","stimuli/2001011.jpg","0","","prediction_trial","2","","false","","2","false","false","false","true","false","false","[2]","001","011","0","","","","","","",""
"","","","","","image-keyboard-response","281","565083","0.0-256.0","5f4ad685a1429a13599bfb44","665500ab8938657b03fbdba8","66578162abdbd8f259109dca","1103","stimuli/20010112.jpg"," ","","feedback_trial","2","","","","","","","","","","","","","","","","","","","","",""
"","","","","","image-keyboard-response","282","566370","0.0-257.0","5f4ad685a1429a13599bfb44","665500ab8938657b03fbdba8","66578162abdbd8f259109dca","1285","stimuli/1100101.jpg","1","","prediction_trial","1","","true","","1","true","true","true","true","true","true","[1]","100","101","1","","","","","","",""
"","","","","","image-keyboard-response","283","566911","0.0-258.0","5f4ad685a1429a13599bfb44","665500ab8938657b03fbdba8","66578162abdbd8f259109dca","540","stimuli/11001011.jpg"," ","","feedback_trial","1","","","","","","","","","","","","","","","","","","","","",""
"","","","","","image-keyboard-response","284","568393","0.0-259.0","5f4ad685a1429a13599bfb44","665500ab8938657b03fbdba8","66578162abdbd8f259109dca","1481","stimuli/1011011.jpg","2","","prediction_trial","2","","true","","1","false","false","false","false","false","false","[2,1]","011","011","1","","","","","","",""
"","","","","","image-keyboard-response","285","569358","0.0-260.0","5f4ad685a1429a13599bfb44","665500ab8938657b03fbdba8","66578162abdbd8f259109dca","964","stimuli/10110112.jpg"," ","","feedback_trial","2","","","","","","","","","","","","","","","","","","","","",""
"","","","","","image-keyboard-response","286","571819","0.0-261.0","5f4ad685a1429a13599bfb44","665500ab8938657b03fbdba8","66578162abdbd8f259109dca","2460","stimuli/0110101.jpg","0","","prediction_trial","1","","false","","0","false","false","false","false","false","false","[1,0]","110","101","0","","","","","","",""
"","","","","","image-keyboard-response","287","573277","0.0-262.0","5f4ad685a1429a13599bfb44","665500ab8938657b03fbdba8","66578162abdbd8f259109dca","1457","stimuli/01101011.jpg"," ","","feedback_trial","1","","","","","","","","","","","","","","","","","","","","",""
"","","","","","image-keyboard-response","288","575104","0.0-263.0","5f4ad685a1429a13599bfb44","665500ab8938657b03fbdba8","66578162abdbd8f259109dca","1825","stimuli/1101100.jpg","1","","prediction_trial","1","","true","","1","true","true","true","true","true","true","[1]","101","100","1","","","","","","",""
"","","","","","image-keyboard-response","289","575843","0.0-264.0","5f4ad685a1429a13599bfb44","665500ab8938657b03fbdba8","66578162abdbd8f259109dca","738","stimuli/11011001.jpg"," ","","feedback_trial","1","","","","","","","","","","","","","","","","","","","","",""
"","","","","","image-keyboard-response","290","577250","0.0-265.0","5f4ad685a1429a13599bfb44","665500ab8938657b03fbdba8","66578162abdbd8f259109dca","1405","stimuli/1100001.jpg","1","","prediction_trial","1","","true","","1","true","true","true","true","true","true","[1]","100","001","1","","","","","","",""
"","","","","","image-keyboard-response","291","577824","0.0-266.0","5f4ad685a1429a13599bfb44","665500ab8938657b03fbdba8","66578162abdbd8f259109dca","573","stimuli/11000011.jpg"," ","","feedback_trial","1","","","","","","","","","","","","","","","","","","","","",""
"","","","","","image-keyboard-response","292","579028","0.0-267.0","5f4ad685a1429a13599bfb44","665500ab8938657b03fbdba8","66578162abdbd8f259109dca","1203","stimuli/2000100.jpg","2","","prediction_trial","2","","true","","2","true","true","true","true","true","true","[2]","000","100","1","","","","","","",""
"","","","","","image-keyboard-response","293","579848","0.0-268.0","5f4ad685a1429a13599bfb44","665500ab8938657b03fbdba8","66578162abdbd8f259109dca","819","stimuli/20001002.jpg"," ","","feedback_trial","2","","","","","","","","","","","","","","","","","","","","",""
"","","","","","image-keyboard-response","294","580857","0.0-269.0","5f4ad685a1429a13599bfb44","665500ab8938657b03fbdba8","66578162abdbd8f259109dca","1007","stimuli/2101000.jpg","2","","prediction_trial","0","","false","","2","true","true","false","false","false","false","[0,2]","101","000","0","","","","","","",""
"","","","","","image-keyboard-response","295","582944","0.0-270.0","5f4ad685a1429a13599bfb44","665500ab8938657b03fbdba8","66578162abdbd8f259109dca","2087","stimuli/21010000.jpg"," ","","feedback_trial","0","","","","","","","","","","","","","","","","","","","","",""
"","","","","","image-keyboard-response","296","586683","0.0-271.0","5f4ad685a1429a13599bfb44","665500ab8938657b03fbdba8","66578162abdbd8f259109dca","3738","stimuli/0000101.jpg","1","","prediction_trial","0","","false","","0","false","false","true","true","false","false","[0]","000","101","0","","","","","","",""
"","","","","","image-keyboard-response","297","587864","0.0-272.0","5f4ad685a1429a13599bfb44","665500ab8938657b03fbdba8","66578162abdbd8f259109dca","1181","stimuli/00001010.jpg"," ","","feedback_trial","0","","","","","","","","","","","","","","","","","","","","",""
"","","","","","image-keyboard-response","298","590426","0.0-273.0","5f4ad685a1429a13599bfb44","665500ab8938657b03fbdba8","66578162abdbd8f259109dca","2560","stimuli/0010100.jpg","0","","prediction_trial","0","","true","","0","false","true","true","true","false","true","[0]","010","100","1","","","","","","",""
"","","","","","image-keyboard-response","299","591312","0.0-274.0","5f4ad685a1429a13599bfb44","665500ab8938657b03fbdba8","66578162abdbd8f259109dca","885","stimuli/00101000.jpg"," ","","feedback_trial","0","","","","","","","","","","","","","","","","","","","","",""
"","","","","","image-keyboard-response","300","593972","0.0-275.0","5f4ad685a1429a13599bfb44","665500ab8938657b03fbdba8","66578162abdbd8f259109dca","2659","stimuli/0001001.jpg","0","","prediction_trial","0","","true","","0","true","true","true","true","true","true","[0]","001","001","1","","","","","","",""
"","","","","","image-keyboard-response","301","594534","0.0-276.0","5f4ad685a1429a13599bfb44","665500ab8938657b03fbdba8","66578162abdbd8f259109dca","560","stimuli/00010010.jpg"," ","","feedback_trial","0","","","","","","","","","","","","","","","","","","","","",""
"","","","","","image-keyboard-response","302","596196","0.0-277.0","5f4ad685a1429a13599bfb44","665500ab8938657b03fbdba8","66578162abdbd8f259109dca","1661","stimuli/0111100.jpg","0","","prediction_trial","2","","false","","0","false","true","false","false","false","false","[2,0,1]","111","100","0","","","","","","",""
"","","","","","image-keyboard-response","303","596875","0.0-278.0","5f4ad685a1429a13599bfb44","665500ab8938657b03fbdba8","66578162abdbd8f259109dca","678","stimuli/01111002.jpg"," ","","feedback_trial","2","","","","","","","","","","","","","","","","","","","","",""
"","","","","","image-keyboard-response","304","599172","0.0-279.0","5f4ad685a1429a13599bfb44","665500ab8938657b03fbdba8","66578162abdbd8f259109dca","2296","stimuli/2000001.jpg","2","","prediction_trial","2","","true","","2","false","true","true","true","false","true","[2]","000","001","1","","","","","","",""
"","","","","","image-keyboard-response","305","600603","0.0-280.0","5f4ad685a1429a13599bfb44","665500ab8938657b03fbdba8","66578162abdbd8f259109dca","1429","stimuli/20000012.jpg"," ","","feedback_trial","2","","","","","","","","","","","","","","","","","","","","",""
"","","","","","image-keyboard-response","306","602364","0.0-281.0","5f4ad685a1429a13599bfb44","665500ab8938657b03fbdba8","66578162abdbd8f259109dca","1761","stimuli/0111001.jpg","0","","prediction_trial","0","","true","","0","true","true","false","false","false","false","[0,1,2]","111","001","1","","","","","","",""
"","","","","","image-keyboard-response","307","603037","0.0-282.0","5f4ad685a1429a13599bfb44","665500ab8938657b03fbdba8","66578162abdbd8f259109dca","671","stimuli/01110010.jpg"," ","","feedback_trial","0","","","","","","","","","","","","","","","","","","","","",""
"","","","","","image-keyboard-response","308","604282","0.0-283.0","5f4ad685a1429a13599bfb44","665500ab8938657b03fbdba8","66578162abdbd8f259109dca","1244","stimuli/2100110.jpg","2","","prediction_trial","2","","true","","2","true","true","true","true","true","true","[2]","100","110","1","","","","","","",""
"","","","","","image-keyboard-response","309","604961","0.0-284.0","5f4ad685a1429a13599bfb44","665500ab8938657b03fbdba8","66578162abdbd8f259109dca","678","stimuli/21001102.jpg"," ","","feedback_trial","2","","","","","","","","","","","","","","","","","","","","",""
"","","","","","image-keyboard-response","310","606720","0.0-285.0","5f4ad685a1429a13599bfb44","665500ab8938657b03fbdba8","66578162abdbd8f259109dca","1758","stimuli/0011111.jpg","1","","prediction_trial","0","","false","","0","false","false","true","true","false","false","[0]","011","111","0","","","","","","",""
"","","","","","image-keyboard-response","311","607659","0.0-286.0","5f4ad685a1429a13599bfb44","665500ab8938657b03fbdba8","66578162abdbd8f259109dca","938","stimuli/00111110.jpg"," ","","feedback_trial","0","","","","","","","","","","","","","","","","","","","","",""
"","","","","","image-keyboard-response","312","609685","0.0-287.0","5f4ad685a1429a13599bfb44","665500ab8938657b03fbdba8","66578162abdbd8f259109dca","2024","stimuli/1001110.jpg","2","","prediction_trial","1","","false","","1","false","false","true","true","false","false","[1]","001","110","0","","","","","","",""
"","","","","","image-keyboard-response","313","610831","0.0-288.0","5f4ad685a1429a13599bfb44","665500ab8938657b03fbdba8","66578162abdbd8f259109dca","1146","stimuli/10011101.jpg"," ","","feedback_trial","1","","","","","","","","","","","","","","","","","","","","",""
"","","","","","image-keyboard-response","314","612075","0.0-289.0","5f4ad685a1429a13599bfb44","665500ab8938657b03fbdba8","66578162abdbd8f259109dca","1243","stimuli/2110010.jpg","2","","prediction_trial","2","","true","","2","true","true","true","true","true","true","[2]","110","010","1","","","","","","",""
"","","","","","image-keyboard-response","315","612676","0.0-290.0","5f4ad685a1429a13599bfb44","665500ab8938657b03fbdba8","66578162abdbd8f259109dca","600","stimuli/21100102.jpg"," ","","feedback_trial","2","","","","","","","","","","","","","","","","","","","","",""
"","","","","","image-keyboard-response","316","614067","0.0-291.0","5f4ad685a1429a13599bfb44","665500ab8938657b03fbdba8","66578162abdbd8f259109dca","1389","stimuli/0011000.jpg","0","","prediction_trial","0","","true","","0","true","true","true","true","true","true","[0]","011","000","1","","","","","","",""
"","","","","","image-keyboard-response","317","614784","0.0-292.0","5f4ad685a1429a13599bfb44","665500ab8938657b03fbdba8","66578162abdbd8f259109dca","717","stimuli/00110000.jpg"," ","","feedback_trial","0","","","","","","","","","","","","","","","","","","","","",""
"","","","","","survey-html-form","318","626399","0.0-293.0","5f4ad685a1429a13599bfb44","665500ab8938657b03fbdba8","66578162abdbd8f259109dca","11613","","{""feedback"":"""",""age"":""51"",""gender"":""Female"",""other_gender"":"""",""race"":""White"",""other_race"":"""",""ethnicity"":""Non-Hispanic""}","","exit_survey","","","","","","","","","","","","","","","","","51","Non-Hispanic","Female","White","0.5555555555555556","0.5555555555555556"
