"success","timeout","failed_images","failed_audio","failed_video","trial_type","trial_index","time_elapsed","internal_node_id","prolific_id","prolific_study_id","prolific_session_id","rt","stimulus","response","view_history","trial","character_choice","stimulus_dict","accuracy","correct_response","ball_pos","ego_ball_visible","ego_can_infer","alter_ball_visible","alter_can_infer","collective_ball_visible","collective_can_infer","search_locations","alter_occluders","ego_occluders","accuracy_bool","feedback","age","ethnicity","gender","race","overall_accuracy","bonus"
"true","false","[]","[]","[]","preload","0","2533","0.0-0.0","60ff7c8f4f066ccf6fe05587","665500ab8938657b03fbdba8","66579222a720deef8acb14c3","","","","","","","","","","","","","","","","","","","","","","","","","","",""
"true","","","","","fullscreen","1","5404","0.0-1.0","60ff7c8f4f066ccf6fe05587","665500ab8938657b03fbdba8","66579222a720deef8acb14c3","","","","","","","","","","","","","","","","","","","","","","","","","","",""
"","","","","","html-button-response","2","8339","0.0-2.0","60ff7c8f4f066ccf6fe05587","665500ab8938657b03fbdba8","66579222a720deef8acb14c3","2932","<p><b>Consent Form</b></p> <div style=""text-align:left;background-color:lightgrey; padding:20px; max-width:900px;""><p>Please consider this information carefully before deciding whether to participate in this research.</p> <p>The purpose of this research is to examine which factors influence social judgment and decision-making. You will be asked to make judgements about individuals and actions in social scenarios. We are simply interested in your judgement. The study will take less than 1 hour to complete, and you will receive less than $20 on Prolific. Your compensation and time commitment are specified in the study description. There are no anticipated risks associated with participating in this study. The effects of participating should be comparable to those you would ordinarily experience from viewing a computer monitor and using a mouse or keyboard for a similar amount of time. At the end of the study, we will provide an explanation of the questions that motivate this line of research and will describe the potential implications. </p><p> Your participation in this study is completely voluntary and you may refuse to participate or you may choose to withdraw at any time without penalty or loss of benefits to you which are otherwise entitled. Your participation in this study will remain confidential. No personally identifiable information will be associated with your data. Also, all analyses of the data will be averaged across all the participants, so your individual responses will never be specifically analyzed. </p><p> If you have questions or concerns about your participation or payment, or want to request a summary of research findings, please contact Dr. Jonathan Phillips at Jonathan.S.Phillips@dartmouth.edu. </p><p> Please save a copy of this form for your records. </p><p><b>Agreement: </b>The nature and purpose of this research have been sufficiently explained and I agree to participate in this study. I understand that I am free to withdraw at any time without incurring any penalty. Please consent by clicking the button below to continue. Otherwise, please exit the study at any time. </p>","0","","","","","","","","","","","","","","","","","","","","","","","",""
"","","","","","instructions","3","57813","0.0-3.0-0.0","60ff7c8f4f066ccf6fe05587","665500ab8938657b03fbdba8","66579222a720deef8acb14c3","49474","","","[{""page_index"":0,""viewing_time"":2109},{""page_index"":1,""viewing_time"":1704},{""page_index"":2,""viewing_time"":1985},{""page_index"":3,""viewing_time"":3381},{""page_index"":4,""viewing_time"":2096},{""page_index"":5,""viewing_time"":3297},{""page_index"":6,""viewing_time"":4118},{""page_index"":7,""viewing_time"":3376},{""page_index"":8,""viewing_time"":3806},{""page_index"":9,""viewing_time"":1839},{""page_index"":10,""viewing_time"":5031},{""page_index"":11,""viewing_time"":7784},{""page_index"":12,""viewing_time"":7685},{""page_index"":13,""viewing_time"":1263}]","intro","","","","","","","","","","","","","","","","","","","","","",""
"","","","","","image-keyboard-response","4","59323","0.0-3.0-1.0","60ff7c8f4f066ccf6fe05587","665500ab8938657b03fbdba8","66579222a720deef8acb14c3","1507","stimuli/2001000.jpg","2","","prediction_practice","2","{""filepath"":""stimuli/2001000.jpg"",""ball_pos"":2,""ego_ball_visible"":true,""ego_can_infer"":true,""alter_ball_visible"":false,""alter_can_infer"":true,""collective_ball_visible"":false,""collective_can_infer"":true,""search_locations"":[2],""alter_occluders"":""001"",""ego_occluders"":""000""}","true","","","","","","","","","","","","","","","","","","",""
"","","","","","image-keyboard-response","5","60745","0.0-3.0-2.0","60ff7c8f4f066ccf6fe05587","665500ab8938657b03fbdba8","66579222a720deef8acb14c3","1418","stimuli/20010002.jpg"," ","","practrice_feedback","2","","","","","","","","","","","","","","","","","","","","",""
"","","","","","image-keyboard-response","6","62527","0.0-3.0-3.0","60ff7c8f4f066ccf6fe05587","665500ab8938657b03fbdba8","66579222a720deef8acb14c3","1780","stimuli/2000100.jpg","2","","prediction_practice","2","{""filepath"":""stimuli/2000100.jpg"",""ball_pos"":2,""ego_ball_visible"":true,""ego_can_infer"":true,""alter_ball_visible"":true,""alter_can_infer"":true,""collective_ball_visible"":true,""collective_can_infer"":true,""search_locations"":[2],""alter_occluders"":""000"",""ego_occluders"":""100""}","true","","","","","","","","","","","","","","","","","","",""
"","","","","","image-keyboard-response","7","63345","0.0-3.0-4.0","60ff7c8f4f066ccf6fe05587","665500ab8938657b03fbdba8","66579222a720deef8acb14c3","816","stimuli/20001002.jpg"," ","","practrice_feedback","2","","","","","","","","","","","","","","","","","","","","",""
"","","","","","image-keyboard-response","8","65322","0.0-3.0-5.0","60ff7c8f4f066ccf6fe05587","665500ab8938657b03fbdba8","66579222a720deef8acb14c3","1976","stimuli/2111101.jpg","2","","prediction_practice","2","{""filepath"":""stimuli/2111101.jpg"",""ball_pos"":2,""ego_ball_visible"":false,""ego_can_infer"":false,""alter_ball_visible"":false,""alter_can_infer"":false,""collective_ball_visible"":false,""collective_can_infer"":false,""search_locations"":[2,1,0],""alter_occluders"":""111"",""ego_occluders"":""101""}","true","","","","","","","","","","","","","","","","","","",""
"","","","","","image-keyboard-response","9","66461","0.0-3.0-6.0","60ff7c8f4f066ccf6fe05587","665500ab8938657b03fbdba8","66579222a720deef8acb14c3","1137","stimuli/21111012.jpg"," ","","practrice_feedback","2","","","","","","","","","","","","","","","","","","","","",""
"","","","","","image-keyboard-response","10","67189","0.0-3.0-7.0","60ff7c8f4f066ccf6fe05587","665500ab8938657b03fbdba8","66579222a720deef8acb14c3","726","stimuli/0010001.jpg","0","","prediction_practice","0","{""filepath"":""stimuli/0010001.jpg"",""ball_pos"":0,""ego_ball_visible"":true,""ego_can_infer"":true,""alter_ball_visible"":true,""alter_can_infer"":true,""collective_ball_visible"":true,""collective_can_infer"":true,""search_locations"":[0],""alter_occluders"":""010"",""ego_occluders"":""001""}","true","","","","","","","","","","","","","","","","","","",""
"","","","","","image-keyboard-response","11","69128","0.0-3.0-8.0","60ff7c8f4f066ccf6fe05587","665500ab8938657b03fbdba8","66579222a720deef8acb14c3","1937","stimuli/00100010.jpg"," ","","practrice_feedback","0","","","","","","","","","","","","","","","","","","","","",""
"","","","","","image-keyboard-response","12","70540","0.0-3.0-9.0","60ff7c8f4f066ccf6fe05587","665500ab8938657b03fbdba8","66579222a720deef8acb14c3","1411","stimuli/0101100.jpg","0","","prediction_practice","0","{""filepath"":""stimuli/0101100.jpg"",""ball_pos"":0,""ego_ball_visible"":false,""ego_can_infer"":true,""alter_ball_visible"":false,""alter_can_infer"":false,""collective_ball_visible"":false,""collective_can_infer"":false,""search_locations"":[0,2],""alter_occluders"":""101"",""ego_occluders"":""100""}","true","","","","","","","","","","","","","","","","","","",""
"","","","","","image-keyboard-response","13","71194","0.0-3.0-10.0","60ff7c8f4f066ccf6fe05587","665500ab8938657b03fbdba8","66579222a720deef8acb14c3","642","stimuli/01011000.jpg"," ","","practrice_feedback","0","","","","","","","","","","","","","","","","","","","","",""
"","","","","","image-keyboard-response","14","71841","0.0-3.0-11.0","60ff7c8f4f066ccf6fe05587","665500ab8938657b03fbdba8","66579222a720deef8acb14c3","646","stimuli/0001000.jpg","0","","prediction_practice","0","{""filepath"":""stimuli/0001000.jpg"",""ball_pos"":0,""ego_ball_visible"":true,""ego_can_infer"":true,""alter_ball_visible"":true,""alter_can_infer"":true,""collective_ball_visible"":true,""collective_can_infer"":true,""search_locations"":[0],""alter_occluders"":""001"",""ego_occluders"":""000""}","true","","","","","","","","","","","","","","","","","","",""
"","","","","","image-keyboard-response","15","72243","0.0-3.0-12.0","60ff7c8f4f066ccf6fe05587","665500ab8938657b03fbdba8","66579222a720deef8acb14c3","401","stimuli/00010000.jpg"," ","","practrice_feedback","0","","","","","","","","","","","","","","","","","","","","",""
"","","","","","image-keyboard-response","16","74551","0.0-3.0-13.0","60ff7c8f4f066ccf6fe05587","665500ab8938657b03fbdba8","66579222a720deef8acb14c3","2307","stimuli/2100111.jpg","0","","prediction_practice","2","{""filepath"":""stimuli/2100111.jpg"",""ball_pos"":2,""ego_ball_visible"":false,""ego_can_infer"":false,""alter_ball_visible"":true,""alter_can_infer"":true,""collective_ball_visible"":false,""collective_can_infer"":false,""search_locations"":[2],""alter_occluders"":""100"",""ego_occluders"":""111""}","false","","","","","","","","","","","","","","","","","","",""
"","","","","","image-keyboard-response","17","75862","0.0-3.0-14.0","60ff7c8f4f066ccf6fe05587","665500ab8938657b03fbdba8","66579222a720deef8acb14c3","1309","stimuli/21001112.jpg"," ","","practrice_feedback","2","","","","","","","","","","","","","","","","","","","","",""
"","","","","","image-keyboard-response","18","76667","0.0-3.0-15.0","60ff7c8f4f066ccf6fe05587","665500ab8938657b03fbdba8","66579222a720deef8acb14c3","804","stimuli/2011100.jpg","2","","prediction_practice","1","{""filepath"":""stimuli/2011100.jpg"",""ball_pos"":2,""ego_ball_visible"":true,""ego_can_infer"":true,""alter_ball_visible"":false,""alter_can_infer"":false,""collective_ball_visible"":false,""collective_can_infer"":false,""search_locations"":[1,2],""alter_occluders"":""011"",""ego_occluders"":""100""}","false","","","","","","","","","","","","","","","","","","",""
"","","","","","image-keyboard-response","19","77970","0.0-3.0-16.0","60ff7c8f4f066ccf6fe05587","665500ab8938657b03fbdba8","66579222a720deef8acb14c3","1300","stimuli/20111001.jpg"," ","","practrice_feedback","1","","","","","","","","","","","","","","","","","","","","",""
"","","","","","image-keyboard-response","20","78602","0.0-3.0-17.0","60ff7c8f4f066ccf6fe05587","665500ab8938657b03fbdba8","66579222a720deef8acb14c3","630","stimuli/0110010.jpg","0","","prediction_practice","0","{""filepath"":""stimuli/0110010.jpg"",""ball_pos"":0,""ego_ball_visible"":true,""ego_can_infer"":true,""alter_ball_visible"":false,""alter_can_infer"":false,""collective_ball_visible"":false,""collective_can_infer"":false,""search_locations"":[0,1],""alter_occluders"":""110"",""ego_occluders"":""010""}","true","","","","","","","","","","","","","","","","","","",""
"","","","","","image-keyboard-response","21","79655","0.0-3.0-18.0","60ff7c8f4f066ccf6fe05587","665500ab8938657b03fbdba8","66579222a720deef8acb14c3","1051","stimuli/01100100.jpg"," ","","practrice_feedback","0","","","","","","","","","","","","","","","","","","","","",""
"","","","","","image-keyboard-response","22","80575","0.0-3.0-19.0","60ff7c8f4f066ccf6fe05587","665500ab8938657b03fbdba8","66579222a720deef8acb14c3","918","stimuli/2000101.jpg","2","","prediction_practice","2","{""filepath"":""stimuli/2000101.jpg"",""ball_pos"":2,""ego_ball_visible"":false,""ego_can_infer"":false,""alter_ball_visible"":true,""alter_can_infer"":true,""collective_ball_visible"":false,""collective_can_infer"":false,""search_locations"":[2],""alter_occluders"":""000"",""ego_occluders"":""101""}","true","","","","","","","","","","","","","","","","","","",""
"","","","","","image-keyboard-response","23","81259","0.0-3.0-20.0","60ff7c8f4f066ccf6fe05587","665500ab8938657b03fbdba8","66579222a720deef8acb14c3","675","stimuli/20001012.jpg"," ","","practrice_feedback","2","","","","","","","","","","","","","","","","","","","","",""
"","","","","","html-button-response","24","86232","0.0-3.0-21.0","60ff7c8f4f066ccf6fe05587","665500ab8938657b03fbdba8","66579222a720deef8acb14c3","4970","Now that you've had some practice, you'll be tested with a couple of easy trials. If you correctly predict Sam's choice, you'll move on to complete the experiment!","0","","","","","","","","","","","","","","","","","","","","","","","",""
"","","","","","image-keyboard-response","25","87009","0.0-3.0-22.0-0.0","60ff7c8f4f066ccf6fe05587","665500ab8938657b03fbdba8","66579222a720deef8acb14c3","774","stimuli/0000011.jpg","arrowleft","","comprehension_quiz","","","true","arrowleft","","","","","","","","","","","","","","","","","",""
"","","","","","image-keyboard-response","26","88177","0.0-3.0-22.0-1.0","60ff7c8f4f066ccf6fe05587","665500ab8938657b03fbdba8","66579222a720deef8acb14c3","1164","stimuli/00000110.jpg"," ","","comprehension_quiz","","","true"," ","","","","","","","","","","","","","","","","","",""
"","","","","","image-keyboard-response","27","90239","0.0-3.0-22.0-2.0","60ff7c8f4f066ccf6fe05587","665500ab8938657b03fbdba8","66579222a720deef8acb14c3","2061","stimuli/1010010.jpg","arrowdown","","comprehension_quiz","","","true","arrowdown","","","","","","","","","","","","","","","","","",""
"","","","","","image-keyboard-response","28","91036","0.0-3.0-22.0-3.0","60ff7c8f4f066ccf6fe05587","665500ab8938657b03fbdba8","66579222a720deef8acb14c3","797","stimuli/10100101.jpg"," ","","comprehension_quiz","","","true"," ","","","","","","","","","","","","","","","","","",""
"","","","","","html-button-response","29","92386","0.0-4.0","60ff7c8f4f066ccf6fe05587","665500ab8938657b03fbdba8","66579222a720deef8acb14c3","1348","The experiment will now begin.","0","","","","","","","","","","","","","","","","","","","","","","","",""
"","","","","","image-keyboard-response","30","95002","0.0-5.0","60ff7c8f4f066ccf6fe05587","665500ab8938657b03fbdba8","66579222a720deef8acb14c3","2613","stimuli/2011111.jpg","0","","prediction_trial","2","","false","","2","false","false","false","false","false","false","[1,2]","011","111","0","","","","","","",""
"","","","","","image-keyboard-response","31","96664","0.0-6.0","60ff7c8f4f066ccf6fe05587","665500ab8938657b03fbdba8","66579222a720deef8acb14c3","1659","stimuli/20111112.jpg"," ","","feedback_trial","1","","","","","","","","","","","","","","","","","","","","",""
"","","","","","image-keyboard-response","32","97486","0.0-7.0","60ff7c8f4f066ccf6fe05587","665500ab8938657b03fbdba8","66579222a720deef8acb14c3","821","stimuli/2111100.jpg","2","","prediction_trial","1","","false","","2","true","true","false","false","false","false","[0,1,2]","111","100","0","","","","","","",""
"","","","","","image-keyboard-response","33","101139","0.0-8.0","60ff7c8f4f066ccf6fe05587","665500ab8938657b03fbdba8","66579222a720deef8acb14c3","3649","stimuli/21111001.jpg"," ","","feedback_trial","0","","","","","","","","","","","","","","","","","","","","",""
"","","","","","image-keyboard-response","34","101922","0.0-9.0","60ff7c8f4f066ccf6fe05587","665500ab8938657b03fbdba8","66579222a720deef8acb14c3","781","stimuli/2000001.jpg","2","","prediction_trial","2","","true","","2","false","true","true","true","false","true","[2]","000","001","1","","","","","","",""
"","","","","","image-keyboard-response","35","102753","0.0-10.0","60ff7c8f4f066ccf6fe05587","665500ab8938657b03fbdba8","66579222a720deef8acb14c3","820","stimuli/20000012.jpg"," ","","feedback_trial","2","","","","","","","","","","","","","","","","","","","","",""
"","","","","","image-keyboard-response","36","103825","0.0-11.0","60ff7c8f4f066ccf6fe05587","665500ab8938657b03fbdba8","66579222a720deef8acb14c3","1070","stimuli/0111101.jpg","2","","prediction_trial","2","","true","","0","false","false","false","false","false","false","[0,1,2]","111","101","1","","","","","","",""
"","","","","","image-keyboard-response","37","104653","0.0-12.0","60ff7c8f4f066ccf6fe05587","665500ab8938657b03fbdba8","66579222a720deef8acb14c3","824","stimuli/01111012.jpg"," ","","feedback_trial","0","","","","","","","","","","","","","","","","","","","","",""
"","","","","","image-keyboard-response","38","105692","0.0-13.0","60ff7c8f4f066ccf6fe05587","665500ab8938657b03fbdba8","66579222a720deef8acb14c3","1038","stimuli/2010010.jpg","2","","prediction_trial","2","","true","","2","true","true","true","true","true","true","[2]","010","010","1","","","","","","",""
"","","","","","image-keyboard-response","39","107986","0.0-14.0","60ff7c8f4f066ccf6fe05587","665500ab8938657b03fbdba8","66579222a720deef8acb14c3","2292","stimuli/20100102.jpg"," ","","feedback_trial","2","","","","","","","","","","","","","","","","","","","","",""
"","","","","","image-keyboard-response","40","109115","0.0-15.0","60ff7c8f4f066ccf6fe05587","665500ab8938657b03fbdba8","66579222a720deef8acb14c3","1128","stimuli/1110100.jpg","1","","prediction_trial","1","","true","","1","true","true","false","false","false","false","[0,1]","110","100","1","","","","","","",""
"","","","","","image-keyboard-response","41","109966","0.0-16.0","60ff7c8f4f066ccf6fe05587","665500ab8938657b03fbdba8","66579222a720deef8acb14c3","850","stimuli/11101001.jpg"," ","","feedback_trial","0","","","","","","","","","","","","","","","","","","","","",""
"","","","","","image-keyboard-response","42","110729","0.0-17.0","60ff7c8f4f066ccf6fe05587","665500ab8938657b03fbdba8","66579222a720deef8acb14c3","762","stimuli/1110001.jpg","1","","prediction_trial","0","","false","","1","true","true","false","false","false","false","[0,1]","110","001","0","","","","","","",""
"","","","","","image-keyboard-response","43","114690","0.0-18.0","60ff7c8f4f066ccf6fe05587","665500ab8938657b03fbdba8","66579222a720deef8acb14c3","3958","stimuli/11100010.jpg"," ","","feedback_trial","0","","","","","","","","","","","","","","","","","","","","",""
"","","","","","image-keyboard-response","44","119684","0.0-19.0","60ff7c8f4f066ccf6fe05587","665500ab8938657b03fbdba8","66579222a720deef8acb14c3","4994","stimuli/1010010.jpg","1","","prediction_trial","1","","true","","1","false","true","false","true","false","true","[1]","010","010","1","","","","","","",""
"","","","","","image-keyboard-response","45","120538","0.0-20.0","60ff7c8f4f066ccf6fe05587","665500ab8938657b03fbdba8","66579222a720deef8acb14c3","849","stimuli/10100101.jpg"," ","","feedback_trial","1","","","","","","","","","","","","","","","","","","","","",""
"","","","","","image-keyboard-response","46","123647","0.0-21.0","60ff7c8f4f066ccf6fe05587","665500ab8938657b03fbdba8","66579222a720deef8acb14c3","3106","stimuli/2001011.jpg","2","","prediction_trial","2","","true","","2","false","false","false","true","false","false","[2]","001","011","1","","","","","","",""
"","","","","","image-keyboard-response","47","124387","0.0-22.0","60ff7c8f4f066ccf6fe05587","665500ab8938657b03fbdba8","66579222a720deef8acb14c3","738","stimuli/20010112.jpg"," ","","feedback_trial","2","","","","","","","","","","","","","","","","","","","","",""
"","","","","","image-keyboard-response","48","125177","0.0-23.0","60ff7c8f4f066ccf6fe05587","665500ab8938657b03fbdba8","66579222a720deef8acb14c3","789","stimuli/1111101.jpg","1","","prediction_trial","2","","false","","1","true","true","false","false","false","false","[0,1,2]","111","101","0","","","","","","",""
"","","","","","image-keyboard-response","49","126311","0.0-24.0","60ff7c8f4f066ccf6fe05587","665500ab8938657b03fbdba8","66579222a720deef8acb14c3","1131","stimuli/11111012.jpg"," ","","feedback_trial","0","","","","","","","","","","","","","","","","","","","","",""
"","","","","","image-keyboard-response","50","127232","0.0-25.0","60ff7c8f4f066ccf6fe05587","665500ab8938657b03fbdba8","66579222a720deef8acb14c3","919","stimuli/0000000.jpg","0","","prediction_trial","0","","true","","0","true","true","true","true","true","true","[0]","000","000","1","","","","","","",""
"","","","","","image-keyboard-response","51","128056","0.0-26.0","60ff7c8f4f066ccf6fe05587","665500ab8938657b03fbdba8","66579222a720deef8acb14c3","822","stimuli/00000000.jpg"," ","","feedback_trial","0","","","","","","","","","","","","","","","","","","","","",""
"","","","","","image-keyboard-response","52","129205","0.0-27.0","60ff7c8f4f066ccf6fe05587","665500ab8938657b03fbdba8","66579222a720deef8acb14c3","1147","stimuli/1010001.jpg","1","","prediction_trial","1","","true","","1","true","true","false","true","false","true","[1]","010","001","1","","","","","","",""
"","","","","","image-keyboard-response","53","129872","0.0-28.0","60ff7c8f4f066ccf6fe05587","665500ab8938657b03fbdba8","66579222a720deef8acb14c3","666","stimuli/10100011.jpg"," ","","feedback_trial","1","","","","","","","","","","","","","","","","","","","","",""
"","","","","","image-keyboard-response","54","130818","0.0-29.0","60ff7c8f4f066ccf6fe05587","665500ab8938657b03fbdba8","66579222a720deef8acb14c3","943","stimuli/0111001.jpg","0","","prediction_trial","2","","false","","0","true","true","false","false","false","false","[2,1,0]","111","001","0","","","","","","",""
"","","","","","image-keyboard-response","55","132344","0.0-30.0","60ff7c8f4f066ccf6fe05587","665500ab8938657b03fbdba8","66579222a720deef8acb14c3","1519","stimuli/01110012.jpg"," ","","feedback_trial","2","","","","","","","","","","","","","","","","","","","","",""
"","","","","","image-keyboard-response","56","133210","0.0-31.0","60ff7c8f4f066ccf6fe05587","665500ab8938657b03fbdba8","66579222a720deef8acb14c3","864","stimuli/0000010.jpg","0","","prediction_trial","0","","true","","0","true","true","true","true","true","true","[0]","000","010","1","","","","","","",""
"","","","","","image-keyboard-response","57","133703","0.0-32.0","60ff7c8f4f066ccf6fe05587","665500ab8938657b03fbdba8","66579222a720deef8acb14c3","492","stimuli/00000100.jpg"," ","","feedback_trial","0","","","","","","","","","","","","","","","","","","","","",""
"","","","","","image-keyboard-response","58","134338","0.0-33.0","60ff7c8f4f066ccf6fe05587","665500ab8938657b03fbdba8","66579222a720deef8acb14c3","635","stimuli/2110110.jpg","2","","prediction_trial","2","","true","","2","true","true","true","true","true","true","[2]","110","110","1","","","","","","",""
"","","","","","image-keyboard-response","59","134885","0.0-34.0","60ff7c8f4f066ccf6fe05587","665500ab8938657b03fbdba8","66579222a720deef8acb14c3","546","stimuli/21101102.jpg"," ","","feedback_trial","2","","","","","","","","","","","","","","","","","","","","",""
"","","","","","image-keyboard-response","60","135711","0.0-35.0","60ff7c8f4f066ccf6fe05587","665500ab8938657b03fbdba8","66579222a720deef8acb14c3","825","stimuli/1010000.jpg","1","","prediction_trial","1","","true","","1","true","true","false","true","false","true","[1]","010","000","1","","","","","","",""
"","","","","","image-keyboard-response","61","136108","0.0-36.0","60ff7c8f4f066ccf6fe05587","665500ab8938657b03fbdba8","66579222a720deef8acb14c3","397","stimuli/10100001.jpg"," ","","feedback_trial","1","","","","","","","","","","","","","","","","","","","","",""
"","","","","","image-keyboard-response","62","137112","0.0-37.0","60ff7c8f4f066ccf6fe05587","665500ab8938657b03fbdba8","66579222a720deef8acb14c3","1003","stimuli/1101001.jpg","1","","prediction_trial","1","","true","","1","true","true","true","true","true","true","[1]","101","001","1","","","","","","",""
"","","","","","image-keyboard-response","63","137716","0.0-38.0","60ff7c8f4f066ccf6fe05587","665500ab8938657b03fbdba8","66579222a720deef8acb14c3","603","stimuli/11010011.jpg"," ","","feedback_trial","1","","","","","","","","","","","","","","","","","","","","",""
"","","","","","image-keyboard-response","64","139165","0.0-39.0","60ff7c8f4f066ccf6fe05587","665500ab8938657b03fbdba8","66579222a720deef8acb14c3","1448","stimuli/2110011.jpg","2","","prediction_trial","2","","true","","2","false","false","true","true","false","false","[2]","110","011","1","","","","","","",""
"","","","","","image-keyboard-response","65","141051","0.0-40.0","60ff7c8f4f066ccf6fe05587","665500ab8938657b03fbdba8","66579222a720deef8acb14c3","1878","stimuli/21100112.jpg"," ","","feedback_trial","2","","","","","","","","","","","","","","","","","","","","",""
"","","","","","image-keyboard-response","66","148151","0.0-41.0","60ff7c8f4f066ccf6fe05587","665500ab8938657b03fbdba8","66579222a720deef8acb14c3","7100","stimuli/1011010.jpg","1","","prediction_trial","2","","false","","1","false","true","false","false","false","false","[1,2]","011","010","0","","","","","","",""
"","","","","","image-keyboard-response","67","149962","0.0-42.0","60ff7c8f4f066ccf6fe05587","665500ab8938657b03fbdba8","66579222a720deef8acb14c3","1809","stimuli/10110102.jpg"," ","","feedback_trial","1","","","","","","","","","","","","","","","","","","","","",""
"","","","","","image-keyboard-response","68","152558","0.0-43.0","60ff7c8f4f066ccf6fe05587","665500ab8938657b03fbdba8","66579222a720deef8acb14c3","2596","stimuli/0100001.jpg","0","","prediction_trial","0","","true","","0","true","true","false","true","false","true","[0]","100","001","1","","","","","","",""
"","","","","","image-keyboard-response","69","153241","0.0-44.0","60ff7c8f4f066ccf6fe05587","665500ab8938657b03fbdba8","66579222a720deef8acb14c3","682","stimuli/01000010.jpg"," ","","feedback_trial","0","","","","","","","","","","","","","","","","","","","","",""
"","","","","","image-keyboard-response","70","155629","0.0-45.0","60ff7c8f4f066ccf6fe05587","665500ab8938657b03fbdba8","66579222a720deef8acb14c3","2387","stimuli/1011011.jpg","2","","prediction_trial","2","","true","","1","false","false","false","false","false","false","[1,2]","011","011","1","","","","","","",""
"","","","","","image-keyboard-response","71","156295","0.0-46.0","60ff7c8f4f066ccf6fe05587","665500ab8938657b03fbdba8","66579222a720deef8acb14c3","665","stimuli/10110112.jpg"," ","","feedback_trial","1","","","","","","","","","","","","","","","","","","","","",""
"","","","","","image-keyboard-response","72","157126","0.0-47.0","60ff7c8f4f066ccf6fe05587","665500ab8938657b03fbdba8","66579222a720deef8acb14c3","830","stimuli/1100101.jpg","1","","prediction_trial","1","","true","","1","true","true","true","true","true","true","[1]","100","101","1","","","","","","",""
"","","","","","image-keyboard-response","73","158628","0.0-48.0","60ff7c8f4f066ccf6fe05587","665500ab8938657b03fbdba8","66579222a720deef8acb14c3","1502","stimuli/11001011.jpg"," ","","feedback_trial","1","","","","","","","","","","","","","","","","","","","","",""
"","","","","","image-keyboard-response","74","161022","0.0-49.0","60ff7c8f4f066ccf6fe05587","665500ab8938657b03fbdba8","66579222a720deef8acb14c3","2393","stimuli/2101000.jpg","2","","prediction_trial","2","","true","","2","true","true","false","false","false","false","[0,2]","101","000","1","","","","","","",""
"","","","","","image-keyboard-response","75","161648","0.0-50.0","60ff7c8f4f066ccf6fe05587","665500ab8938657b03fbdba8","66579222a720deef8acb14c3","619","stimuli/21010002.jpg"," ","","feedback_trial","0","","","","","","","","","","","","","","","","","","","","",""
"","","","","","image-keyboard-response","76","163484","0.0-51.0","60ff7c8f4f066ccf6fe05587","665500ab8938657b03fbdba8","66579222a720deef8acb14c3","1836","stimuli/2001010.jpg","2","","prediction_trial","2","","true","","2","true","true","false","true","false","true","[2]","001","010","1","","","","","","",""
"","","","","","image-keyboard-response","77","163784","0.0-52.0","60ff7c8f4f066ccf6fe05587","665500ab8938657b03fbdba8","66579222a720deef8acb14c3","299","stimuli/20010102.jpg"," ","","feedback_trial","2","","","","","","","","","","","","","","","","","","","","",""
"","","","","","image-keyboard-response","78","165382","0.0-53.0","60ff7c8f4f066ccf6fe05587","665500ab8938657b03fbdba8","66579222a720deef8acb14c3","1597","stimuli/1111001.jpg","1","","prediction_trial","2","","false","","1","true","true","false","false","false","false","[2,1,0]","111","001","0","","","","","","",""
"","","","","","image-keyboard-response","79","167960","0.0-54.0","60ff7c8f4f066ccf6fe05587","665500ab8938657b03fbdba8","66579222a720deef8acb14c3","2577","stimuli/11110012.jpg"," ","","feedback_trial","2","","","","","","","","","","","","","","","","","","","","",""
"","","","","","image-keyboard-response","80","168880","0.0-55.0","60ff7c8f4f066ccf6fe05587","665500ab8938657b03fbdba8","66579222a720deef8acb14c3","919","stimuli/1111000.jpg","1","","prediction_trial","2","","false","","1","true","true","false","false","false","false","[0,1,2]","111","000","0","","","","","","",""
"","","","","","image-keyboard-response","81","169598","0.0-56.0","60ff7c8f4f066ccf6fe05587","665500ab8938657b03fbdba8","66579222a720deef8acb14c3","717","stimuli/11110002.jpg"," ","","feedback_trial","0","","","","","","","","","","","","","","","","","","","","",""
"","","","","","image-keyboard-response","82","171936","0.0-57.0","60ff7c8f4f066ccf6fe05587","665500ab8938657b03fbdba8","66579222a720deef8acb14c3","2337","stimuli/0001111.jpg","2","","prediction_trial","0","","false","","0","false","false","true","true","false","false","[0]","001","111","0","","","","","","",""
"","","","","","image-keyboard-response","83","173486","0.0-58.0","60ff7c8f4f066ccf6fe05587","665500ab8938657b03fbdba8","66579222a720deef8acb14c3","1549","stimuli/00011110.jpg"," ","","feedback_trial","0","","","","","","","","","","","","","","","","","","","","",""
"","","","","","image-keyboard-response","84","176009","0.0-59.0","60ff7c8f4f066ccf6fe05587","665500ab8938657b03fbdba8","66579222a720deef8acb14c3","2522","stimuli/1000001.jpg","1","","prediction_trial","1","","true","","1","true","true","true","true","true","true","[1]","000","001","1","","","","","","",""
"","","","","","image-keyboard-response","85","176832","0.0-60.0","60ff7c8f4f066ccf6fe05587","665500ab8938657b03fbdba8","66579222a720deef8acb14c3","820","stimuli/10000011.jpg"," ","","feedback_trial","1","","","","","","","","","","","","","","","","","","","","",""
"","","","","","image-keyboard-response","86","179582","0.0-61.0","60ff7c8f4f066ccf6fe05587","665500ab8938657b03fbdba8","66579222a720deef8acb14c3","2747","stimuli/0010111.jpg","0","","prediction_trial","0","","true","","0","false","false","true","true","false","false","[0]","010","111","1","","","","","","",""
"","","","","","image-keyboard-response","87","180259","0.0-62.0","60ff7c8f4f066ccf6fe05587","665500ab8938657b03fbdba8","66579222a720deef8acb14c3","678","stimuli/00101110.jpg"," ","","feedback_trial","0","","","","","","","","","","","","","","","","","","","","",""
"","","","","","image-keyboard-response","88","181177","0.0-63.0","60ff7c8f4f066ccf6fe05587","665500ab8938657b03fbdba8","66579222a720deef8acb14c3","917","stimuli/0000011.jpg","0","","prediction_trial","0","","true","","0","true","true","true","true","true","true","[0]","000","011","1","","","","","","",""
"","","","","","image-keyboard-response","89","181919","0.0-64.0","60ff7c8f4f066ccf6fe05587","665500ab8938657b03fbdba8","66579222a720deef8acb14c3","741","stimuli/00000110.jpg"," ","","feedback_trial","0","","","","","","","","","","","","","","","","","","","","",""
"","","","","","image-keyboard-response","90","183940","0.0-65.0","60ff7c8f4f066ccf6fe05587","665500ab8938657b03fbdba8","66579222a720deef8acb14c3","2018","stimuli/2000101.jpg","2","","prediction_trial","2","","true","","2","false","false","true","true","false","false","[2]","000","101","1","","","","","","",""
"","","","","","image-keyboard-response","91","184552","0.0-66.0","60ff7c8f4f066ccf6fe05587","665500ab8938657b03fbdba8","66579222a720deef8acb14c3","610","stimuli/20001012.jpg"," ","","feedback_trial","2","","","","","","","","","","","","","","","","","","","","",""
"","","","","","image-keyboard-response","92","186600","0.0-67.0","60ff7c8f4f066ccf6fe05587","665500ab8938657b03fbdba8","66579222a720deef8acb14c3","2046","stimuli/2101100.jpg","2","","prediction_trial","0","","false","","2","true","true","false","false","false","false","[0,2]","101","100","0","","","","","","",""
"","","","","","image-keyboard-response","93","187139","0.0-68.0","60ff7c8f4f066ccf6fe05587","665500ab8938657b03fbdba8","66579222a720deef8acb14c3","536","stimuli/21011000.jpg"," ","","feedback_trial","0","","","","","","","","","","","","","","","","","","","","",""
"","","","","","image-keyboard-response","94","188070","0.0-69.0","60ff7c8f4f066ccf6fe05587","665500ab8938657b03fbdba8","66579222a720deef8acb14c3","930","stimuli/2000100.jpg","2","","prediction_trial","2","","true","","2","true","true","true","true","true","true","[2]","000","100","1","","","","","","",""
"","","","","","image-keyboard-response","95","188733","0.0-70.0","60ff7c8f4f066ccf6fe05587","665500ab8938657b03fbdba8","66579222a720deef8acb14c3","652","stimuli/20001002.jpg"," ","","feedback_trial","2","","","","","","","","","","","","","","","","","","","","",""
"","","","","","image-keyboard-response","96","191125","0.0-71.0","60ff7c8f4f066ccf6fe05587","665500ab8938657b03fbdba8","66579222a720deef8acb14c3","2389","stimuli/0111100.jpg","0","","prediction_trial","1","","false","","0","false","true","false","false","false","false","[0,2,1]","111","100","0","","","","","","",""
"","","","","","image-keyboard-response","97","192338","0.0-72.0","60ff7c8f4f066ccf6fe05587","665500ab8938657b03fbdba8","66579222a720deef8acb14c3","1211","stimuli/01111001.jpg"," ","","feedback_trial","0","","","","","","","","","","","","","","","","","","","","",""
"","","","","","image-keyboard-response","98","193795","0.0-73.0","60ff7c8f4f066ccf6fe05587","665500ab8938657b03fbdba8","66579222a720deef8acb14c3","1455","stimuli/1000101.jpg","1","","prediction_trial","1","","true","","1","true","true","true","true","true","true","[1]","000","101","1","","","","","","",""
"","","","","","image-keyboard-response","99","194589","0.0-74.0","60ff7c8f4f066ccf6fe05587","665500ab8938657b03fbdba8","66579222a720deef8acb14c3","792","stimuli/10001011.jpg"," ","","feedback_trial","1","","","","","","","","","","","","","","","","","","","","",""
"","","","","","image-keyboard-response","100","195457","0.0-75.0","60ff7c8f4f066ccf6fe05587","665500ab8938657b03fbdba8","66579222a720deef8acb14c3","865","stimuli/1101100.jpg","1","","prediction_trial","1","","true","","1","true","true","true","true","true","true","[1]","101","100","1","","","","","","",""
"","","","","","image-keyboard-response","101","195913","0.0-76.0","60ff7c8f4f066ccf6fe05587","665500ab8938657b03fbdba8","66579222a720deef8acb14c3","452","stimuli/11011001.jpg"," ","","feedback_trial","1","","","","","","","","","","","","","","","","","","","","",""
"","","","","","image-keyboard-response","102","197963","0.0-77.0","60ff7c8f4f066ccf6fe05587","665500ab8938657b03fbdba8","66579222a720deef8acb14c3","2049","stimuli/2110111.jpg","2","","prediction_trial","2","","true","","2","false","false","true","true","false","false","[2]","110","111","1","","","","","","",""
"","","","","","image-keyboard-response","103","198637","0.0-78.0","60ff7c8f4f066ccf6fe05587","665500ab8938657b03fbdba8","66579222a720deef8acb14c3","671","stimuli/21101112.jpg"," ","","feedback_trial","2","","","","","","","","","","","","","","","","","","","","",""
"","","","","","image-keyboard-response","104","199929","0.0-79.0","60ff7c8f4f066ccf6fe05587","665500ab8938657b03fbdba8","66579222a720deef8acb14c3","1290","stimuli/0110000.jpg","0","","prediction_trial","0","","true","","0","true","true","false","false","false","false","[1,0]","110","000","1","","","","","","",""
"","","","","","image-keyboard-response","105","200501","0.0-80.0","60ff7c8f4f066ccf6fe05587","665500ab8938657b03fbdba8","66579222a720deef8acb14c3","561","stimuli/01100000.jpg"," ","","feedback_trial","1","","","","","","","","","","","","","","","","","","","","",""
"","","","","","image-keyboard-response","106","201147","0.0-81.0","60ff7c8f4f066ccf6fe05587","665500ab8938657b03fbdba8","66579222a720deef8acb14c3","643","stimuli/2110100.jpg","2","","prediction_trial","2","","true","","2","true","true","true","true","true","true","[2]","110","100","1","","","","","","",""
"","","","","","image-keyboard-response","107","201555","0.0-82.0","60ff7c8f4f066ccf6fe05587","665500ab8938657b03fbdba8","66579222a720deef8acb14c3","406","stimuli/21101002.jpg"," ","","feedback_trial","2","","","","","","","","","","","","","","","","","","","","",""
"","","","","","image-keyboard-response","108","202937","0.0-83.0","60ff7c8f4f066ccf6fe05587","665500ab8938657b03fbdba8","66579222a720deef8acb14c3","1381","stimuli/0100011.jpg","0","","prediction_trial","0","","true","","0","true","true","false","true","false","true","[0]","100","011","1","","","","","","",""
"","","","","","image-keyboard-response","109","203226","0.0-84.0","60ff7c8f4f066ccf6fe05587","665500ab8938657b03fbdba8","66579222a720deef8acb14c3","286","stimuli/01000110.jpg"," ","","feedback_trial","0","","","","","","","","","","","","","","","","","","","","",""
"","","","","","image-keyboard-response","110","203987","0.0-85.0","60ff7c8f4f066ccf6fe05587","665500ab8938657b03fbdba8","66579222a720deef8acb14c3","758","stimuli/1001101.jpg","1","","prediction_trial","1","","true","","1","true","true","true","true","true","true","[1]","001","101","1","","","","","","",""
"","","","","","image-keyboard-response","111","204961","0.0-86.0","60ff7c8f4f066ccf6fe05587","665500ab8938657b03fbdba8","66579222a720deef8acb14c3","973","stimuli/10011011.jpg"," ","","feedback_trial","1","","","","","","","","","","","","","","","","","","","","",""
"","","","","","image-keyboard-response","112","206073","0.0-87.0","60ff7c8f4f066ccf6fe05587","665500ab8938657b03fbdba8","66579222a720deef8acb14c3","1109","stimuli/1111100.jpg","1","","prediction_trial","2","","false","","1","true","true","false","false","false","false","[0,2,1]","111","100","0","","","","","","",""
"","","","","","image-keyboard-response","113","206926","0.0-88.0","60ff7c8f4f066ccf6fe05587","665500ab8938657b03fbdba8","66579222a720deef8acb14c3","851","stimuli/11111002.jpg"," ","","feedback_trial","0","","","","","","","","","","","","","","","","","","","","",""
"","","","","","image-keyboard-response","114","209391","0.0-89.0","60ff7c8f4f066ccf6fe05587","665500ab8938657b03fbdba8","66579222a720deef8acb14c3","2462","stimuli/0000101.jpg","2","","prediction_trial","0","","false","","0","false","false","true","true","false","false","[0]","000","101","0","","","","","","",""
"","","","","","image-keyboard-response","115","210254","0.0-90.0","60ff7c8f4f066ccf6fe05587","665500ab8938657b03fbdba8","66579222a720deef8acb14c3","859","stimuli/00001010.jpg"," ","","feedback_trial","0","","","","","","","","","","","","","","","","","","","","",""
"","","","","","image-keyboard-response","116","211401","0.0-91.0","60ff7c8f4f066ccf6fe05587","665500ab8938657b03fbdba8","66579222a720deef8acb14c3","1146","stimuli/1011001.jpg","1","","prediction_trial","1","","true","","1","true","true","false","false","false","false","[2,1]","011","001","1","","","","","","",""
"","","","","","image-keyboard-response","117","212121","0.0-92.0","60ff7c8f4f066ccf6fe05587","665500ab8938657b03fbdba8","66579222a720deef8acb14c3","719","stimuli/10110011.jpg"," ","","feedback_trial","2","","","","","","","","","","","","","","","","","","","","",""
"","","","","","image-keyboard-response","118","214428","0.0-93.0","60ff7c8f4f066ccf6fe05587","665500ab8938657b03fbdba8","66579222a720deef8acb14c3","2306","stimuli/0011101.jpg","2","","prediction_trial","0","","false","","0","false","false","true","true","false","false","[0]","011","101","0","","","","","","",""
"","","","","","image-keyboard-response","119","215299","0.0-94.0","60ff7c8f4f066ccf6fe05587","665500ab8938657b03fbdba8","66579222a720deef8acb14c3","869","stimuli/00111010.jpg"," ","","feedback_trial","0","","","","","","","","","","","","","","","","","","","","",""
"","","","","","image-keyboard-response","120","217243","0.0-95.0","60ff7c8f4f066ccf6fe05587","665500ab8938657b03fbdba8","66579222a720deef8acb14c3","1941","stimuli/1110010.jpg","1","","prediction_trial","0","","false","","1","false","true","false","false","false","false","[0,1]","110","010","0","","","","","","",""
"","","","","","image-keyboard-response","121","217897","0.0-96.0","60ff7c8f4f066ccf6fe05587","665500ab8938657b03fbdba8","66579222a720deef8acb14c3","652","stimuli/11100100.jpg"," ","","feedback_trial","0","","","","","","","","","","","","","","","","","","","","",""
"","","","","","image-keyboard-response","122","221614","0.0-97.0","60ff7c8f4f066ccf6fe05587","665500ab8938657b03fbdba8","66579222a720deef8acb14c3","3716","stimuli/1100011.jpg","1","","prediction_trial","1","","true","","1","false","false","true","true","false","false","[1]","100","011","1","","","","","","",""
"","","","","","image-keyboard-response","123","222271","0.0-98.0","60ff7c8f4f066ccf6fe05587","665500ab8938657b03fbdba8","66579222a720deef8acb14c3","655","stimuli/11000111.jpg"," ","","feedback_trial","1","","","","","","","","","","","","","","","","","","","","",""
"","","","","","image-keyboard-response","124","224567","0.0-99.0","60ff7c8f4f066ccf6fe05587","665500ab8938657b03fbdba8","66579222a720deef8acb14c3","2294","stimuli/1111010.jpg","1","","prediction_trial","0","","false","","1","false","true","false","false","false","false","[1,0,2]","111","010","0","","","","","","",""
"","","","","","image-keyboard-response","125","225855","0.0-100.0","60ff7c8f4f066ccf6fe05587","665500ab8938657b03fbdba8","66579222a720deef8acb14c3","1286","stimuli/11110100.jpg"," ","","feedback_trial","1","","","","","","","","","","","","","","","","","","","","",""
"","","","","","image-keyboard-response","126","226667","0.0-101.0","60ff7c8f4f066ccf6fe05587","665500ab8938657b03fbdba8","66579222a720deef8acb14c3","810","stimuli/2000110.jpg","2","","prediction_trial","2","","true","","2","true","true","true","true","true","true","[2]","000","110","1","","","","","","",""
"","","","","","image-keyboard-response","127","227391","0.0-102.0","60ff7c8f4f066ccf6fe05587","665500ab8938657b03fbdba8","66579222a720deef8acb14c3","721","stimuli/20001102.jpg"," ","","feedback_trial","2","","","","","","","","","","","","","","","","","","","","",""
"","","","","","image-keyboard-response","128","228896","0.0-103.0","60ff7c8f4f066ccf6fe05587","665500ab8938657b03fbdba8","66579222a720deef8acb14c3","1503","stimuli/2100011.jpg","1","","prediction_trial","2","","false","","2","false","false","true","true","false","false","[2]","100","011","0","","","","","","",""
"","","","","","image-keyboard-response","129","229519","0.0-104.0","60ff7c8f4f066ccf6fe05587","665500ab8938657b03fbdba8","66579222a720deef8acb14c3","621","stimuli/21000112.jpg"," ","","feedback_trial","2","","","","","","","","","","","","","","","","","","","","",""
"","","","","","image-keyboard-response","130","230146","0.0-105.0","60ff7c8f4f066ccf6fe05587","665500ab8938657b03fbdba8","66579222a720deef8acb14c3","625","stimuli/0011001.jpg","0","","prediction_trial","0","","true","","0","true","true","true","true","true","true","[0]","011","001","1","","","","","","",""
"","","","","","image-keyboard-response","131","230510","0.0-106.0","60ff7c8f4f066ccf6fe05587","665500ab8938657b03fbdba8","66579222a720deef8acb14c3","362","stimuli/00110010.jpg"," ","","feedback_trial","0","","","","","","","","","","","","","","","","","","","","",""
"","","","","","image-keyboard-response","132","230962","0.0-107.0","60ff7c8f4f066ccf6fe05587","665500ab8938657b03fbdba8","66579222a720deef8acb14c3","449","stimuli/0011000.jpg","0","","prediction_trial","0","","true","","0","true","true","true","true","true","true","[0]","011","000","1","","","","","","",""
"","","","","","image-keyboard-response","133","231552","0.0-108.0","60ff7c8f4f066ccf6fe05587","665500ab8938657b03fbdba8","66579222a720deef8acb14c3","589","stimuli/00110000.jpg"," ","","feedback_trial","0","","","","","","","","","","","","","","","","","","","","",""
"","","","","","image-keyboard-response","134","233483","0.0-109.0","60ff7c8f4f066ccf6fe05587","665500ab8938657b03fbdba8","66579222a720deef8acb14c3","1930","stimuli/2001001.jpg","2","","prediction_trial","2","","true","","2","false","true","false","true","false","true","[2]","001","001","1","","","","","","",""
"","","","","","image-keyboard-response","135","233823","0.0-110.0","60ff7c8f4f066ccf6fe05587","665500ab8938657b03fbdba8","66579222a720deef8acb14c3","337","stimuli/20010012.jpg"," ","","feedback_trial","2","","","","","","","","","","","","","","","","","","","","",""
"","","","","","image-keyboard-response","136","235039","0.0-111.0","60ff7c8f4f066ccf6fe05587","665500ab8938657b03fbdba8","66579222a720deef8acb14c3","1215","stimuli/0110001.jpg","0","","prediction_trial","0","","true","","0","true","true","false","false","false","false","[0,1]","110","001","1","","","","","","",""
"","","","","","image-keyboard-response","137","235711","0.0-112.0","60ff7c8f4f066ccf6fe05587","665500ab8938657b03fbdba8","66579222a720deef8acb14c3","669","stimuli/01100010.jpg"," ","","feedback_trial","0","","","","","","","","","","","","","","","","","","","","",""
"","","","","","image-keyboard-response","138","236561","0.0-113.0","60ff7c8f4f066ccf6fe05587","665500ab8938657b03fbdba8","66579222a720deef8acb14c3","849","stimuli/1101000.jpg","1","","prediction_trial","1","","true","","1","true","true","true","true","true","true","[1]","101","000","1","","","","","","",""
"","","","","","image-keyboard-response","139","237019","0.0-114.0","60ff7c8f4f066ccf6fe05587","665500ab8938657b03fbdba8","66579222a720deef8acb14c3","456","stimuli/11010001.jpg"," ","","feedback_trial","1","","","","","","","","","","","","","","","","","","","","",""
"","","","","","image-keyboard-response","140","238249","0.0-115.0","60ff7c8f4f066ccf6fe05587","665500ab8938657b03fbdba8","66579222a720deef8acb14c3","1228","stimuli/2001110.jpg","2","","prediction_trial","2","","true","","2","true","true","false","true","false","true","[2]","001","110","1","","","","","","",""
"","","","","","image-keyboard-response","141","238564","0.0-116.0","60ff7c8f4f066ccf6fe05587","665500ab8938657b03fbdba8","66579222a720deef8acb14c3","314","stimuli/20011102.jpg"," ","","feedback_trial","2","","","","","","","","","","","","","","","","","","","","",""
"","","","","","image-keyboard-response","142","239371","0.0-117.0","60ff7c8f4f066ccf6fe05587","665500ab8938657b03fbdba8","66579222a720deef8acb14c3","805","stimuli/2011000.jpg","2","","prediction_trial","2","","true","","2","true","true","false","false","false","false","[1,2]","011","000","1","","","","","","",""
"","","","","","image-keyboard-response","143","239784","0.0-118.0","60ff7c8f4f066ccf6fe05587","665500ab8938657b03fbdba8","66579222a720deef8acb14c3","411","stimuli/20110002.jpg"," ","","feedback_trial","1","","","","","","","","","","","","","","","","","","","","",""
"","","","","","image-keyboard-response","144","240580","0.0-119.0","60ff7c8f4f066ccf6fe05587","665500ab8938657b03fbdba8","66579222a720deef8acb14c3","793","stimuli/1110101.jpg","1","","prediction_trial","0","","false","","1","true","true","false","false","false","false","[1,0]","110","101","0","","","","","","",""
"","","","","","image-keyboard-response","145","241493","0.0-120.0","60ff7c8f4f066ccf6fe05587","665500ab8938657b03fbdba8","66579222a720deef8acb14c3","905","stimuli/11101010.jpg"," ","","feedback_trial","1","","","","","","","","","","","","","","","","","","","","",""
"","","","","","image-keyboard-response","146","243332","0.0-121.0","60ff7c8f4f066ccf6fe05587","665500ab8938657b03fbdba8","66579222a720deef8acb14c3","1837","stimuli/2101010.jpg","2","","prediction_trial","2","","true","","2","true","true","false","false","false","false","[2,0]","101","010","1","","","","","","",""
"","","","","","image-keyboard-response","147","244143","0.0-122.0","60ff7c8f4f066ccf6fe05587","665500ab8938657b03fbdba8","66579222a720deef8acb14c3","809","stimuli/21010102.jpg"," ","","feedback_trial","2","","","","","","","","","","","","","","","","","","","","",""
"","","","","","image-keyboard-response","148","246245","0.0-123.0","60ff7c8f4f066ccf6fe05587","665500ab8938657b03fbdba8","66579222a720deef8acb14c3","2100","stimuli/2000010.jpg","2","","prediction_trial","2","","true","","2","true","true","true","true","true","true","[2]","000","010","1","","","","","","",""
"","","","","","image-keyboard-response","149","247119","0.0-124.0","60ff7c8f4f066ccf6fe05587","665500ab8938657b03fbdba8","66579222a720deef8acb14c3","873","stimuli/20000102.jpg"," ","","feedback_trial","2","","","","","","","","","","","","","","","","","","","","",""
"","","","","","image-keyboard-response","150","249951","0.0-125.0","60ff7c8f4f066ccf6fe05587","665500ab8938657b03fbdba8","66579222a720deef8acb14c3","2830","stimuli/0011100.jpg","0","","prediction_trial","0","","true","","0","false","true","true","true","false","true","[0]","011","100","1","","","","","","",""
"","","","","","image-keyboard-response","151","250680","0.0-126.0","60ff7c8f4f066ccf6fe05587","665500ab8938657b03fbdba8","66579222a720deef8acb14c3","727","stimuli/00111000.jpg"," ","","feedback_trial","0","","","","","","","","","","","","","","","","","","","","",""
"","","","","","image-keyboard-response","152","253347","0.0-127.0","60ff7c8f4f066ccf6fe05587","665500ab8938657b03fbdba8","66579222a720deef8acb14c3","2665","stimuli/1101011.jpg","1","","prediction_trial","1","","true","","1","false","false","true","true","false","false","[1]","101","011","1","","","","","","",""
"","","","","","image-keyboard-response","153","254019","0.0-128.0","60ff7c8f4f066ccf6fe05587","665500ab8938657b03fbdba8","66579222a720deef8acb14c3","671","stimuli/11010111.jpg"," ","","feedback_trial","1","","","","","","","","","","","","","","","","","","","","",""
"","","","","","image-keyboard-response","154","254738","0.0-129.0","60ff7c8f4f066ccf6fe05587","665500ab8938657b03fbdba8","66579222a720deef8acb14c3","718","stimuli/1000000.jpg","1","","prediction_trial","1","","true","","1","true","true","true","true","true","true","[1]","000","000","1","","","","","","",""
"","","","","","image-keyboard-response","155","255375","0.0-130.0","60ff7c8f4f066ccf6fe05587","665500ab8938657b03fbdba8","66579222a720deef8acb14c3","627","stimuli/10000001.jpg"," ","","feedback_trial","1","","","","","","","","","","","","","","","","","","","","",""
"","","","","","image-keyboard-response","156","257572","0.0-131.0","60ff7c8f4f066ccf6fe05587","665500ab8938657b03fbdba8","66579222a720deef8acb14c3","2195","stimuli/1110000.jpg","1","","prediction_trial","0","","false","","1","true","true","false","false","false","false","[1,0]","110","000","0","","","","","","",""
"","","","","","image-keyboard-response","157","258204","0.0-132.0","60ff7c8f4f066ccf6fe05587","665500ab8938657b03fbdba8","66579222a720deef8acb14c3","629","stimuli/11100000.jpg"," ","","feedback_trial","1","","","","","","","","","","","","","","","","","","","","",""
"","","","","","image-keyboard-response","158","260517","0.0-133.0","60ff7c8f4f066ccf6fe05587","665500ab8938657b03fbdba8","66579222a720deef8acb14c3","2312","stimuli/0111110.jpg","1","","prediction_trial","0","","false","","0","false","false","false","false","false","false","[1,2,0]","111","110","0","","","","","","",""
"","","","","","image-keyboard-response","159","261052","0.0-134.0","60ff7c8f4f066ccf6fe05587","665500ab8938657b03fbdba8","66579222a720deef8acb14c3","534","stimuli/01111100.jpg"," ","","feedback_trial","1","","","","","","","","","","","","","","","","","","","","",""
"","","","","","image-keyboard-response","160","262672","0.0-135.0","60ff7c8f4f066ccf6fe05587","665500ab8938657b03fbdba8","66579222a720deef8acb14c3","1619","stimuli/2100111.jpg","2","","prediction_trial","2","","true","","2","false","false","true","true","false","false","[2]","100","111","1","","","","","","",""
"","","","","","image-keyboard-response","161","263669","0.0-136.0","60ff7c8f4f066ccf6fe05587","665500ab8938657b03fbdba8","66579222a720deef8acb14c3","995","stimuli/21001112.jpg"," ","","feedback_trial","2","","","","","","","","","","","","","","","","","","","","",""
"","","","","","image-keyboard-response","162","265297","0.0-137.0","60ff7c8f4f066ccf6fe05587","665500ab8938657b03fbdba8","66579222a720deef8acb14c3","1626","stimuli/0111011.jpg","0","","prediction_trial","2","","false","","0","true","true","false","false","false","false","[1,0,2]","111","011","0","","","","","","",""
"","","","","","image-keyboard-response","163","265970","0.0-138.0","60ff7c8f4f066ccf6fe05587","665500ab8938657b03fbdba8","66579222a720deef8acb14c3","670","stimuli/01110112.jpg"," ","","feedback_trial","1","","","","","","","","","","","","","","","","","","","","",""
"","","","","","image-keyboard-response","164","269525","0.0-139.0","60ff7c8f4f066ccf6fe05587","665500ab8938657b03fbdba8","66579222a720deef8acb14c3","3554","stimuli/2000111.jpg","1","","prediction_trial","2","","false","","2","false","false","true","true","false","false","[2]","000","111","0","","","","","","",""
"","","","","","image-keyboard-response","165","270140","0.0-140.0","60ff7c8f4f066ccf6fe05587","665500ab8938657b03fbdba8","66579222a720deef8acb14c3","604","stimuli/20001112.jpg"," ","","feedback_trial","2","","","","","","","","","","","","","","","","","","","","",""
"","","","","","image-keyboard-response","166","272122","0.0-141.0","60ff7c8f4f066ccf6fe05587","665500ab8938657b03fbdba8","66579222a720deef8acb14c3","1981","stimuli/1101010.jpg","1","","prediction_trial","1","","true","","1","false","true","true","true","false","true","[1]","101","010","1","","","","","","",""
"","","","","","image-keyboard-response","167","272514","0.0-142.0","60ff7c8f4f066ccf6fe05587","665500ab8938657b03fbdba8","66579222a720deef8acb14c3","391","stimuli/11010101.jpg"," ","","feedback_trial","1","","","","","","","","","","","","","","","","","","","","",""
"","","","","","image-keyboard-response","168","273482","0.0-143.0","60ff7c8f4f066ccf6fe05587","665500ab8938657b03fbdba8","66579222a720deef8acb14c3","966","stimuli/1110111.jpg","2","","prediction_trial","1","","false","","1","false","false","false","false","false","false","[1,0]","110","111","0","","","","","","",""
"","","","","","image-keyboard-response","169","273921","0.0-144.0","60ff7c8f4f066ccf6fe05587","665500ab8938657b03fbdba8","66579222a720deef8acb14c3","438","stimuli/11101111.jpg"," ","","feedback_trial","1","","","","","","","","","","","","","","","","","","","","",""
"","","","","","image-keyboard-response","170","274631","0.0-145.0","60ff7c8f4f066ccf6fe05587","665500ab8938657b03fbdba8","66579222a720deef8acb14c3","707","stimuli/2101111.jpg","1","","prediction_trial","0","","false","","2","false","false","false","false","false","false","[2,0]","101","111","0","","","","","","",""
"","","","","","image-keyboard-response","171","275036","0.0-146.0","60ff7c8f4f066ccf6fe05587","665500ab8938657b03fbdba8","66579222a720deef8acb14c3","403","stimuli/21011110.jpg"," ","","feedback_trial","2","","","","","","","","","","","","","","","","","","","","",""
"","","","","","image-keyboard-response","172","275658","0.0-147.0","60ff7c8f4f066ccf6fe05587","665500ab8938657b03fbdba8","66579222a720deef8acb14c3","621","stimuli/2011110.jpg","2","","prediction_trial","2","","true","","2","true","true","false","false","false","false","[1,2]","011","110","1","","","","","","",""
"","","","","","image-keyboard-response","173","276413","0.0-148.0","60ff7c8f4f066ccf6fe05587","665500ab8938657b03fbdba8","66579222a720deef8acb14c3","752","stimuli/20111102.jpg"," ","","feedback_trial","1","","","","","","","","","","","","","","","","","","","","",""
"","","","","","image-keyboard-response","174","277960","0.0-149.0","60ff7c8f4f066ccf6fe05587","665500ab8938657b03fbdba8","66579222a720deef8acb14c3","1545","stimuli/1010110.jpg","1","","prediction_trial","1","","true","","1","false","false","false","true","false","false","[1]","010","110","1","","","","","","",""
"","","","","","image-keyboard-response","175","278401","0.0-150.0","60ff7c8f4f066ccf6fe05587","665500ab8938657b03fbdba8","66579222a720deef8acb14c3","440","stimuli/10101101.jpg"," ","","feedback_trial","1","","","","","","","","","","","","","","","","","","","","",""
"","","","","","image-keyboard-response","176","279439","0.0-151.0","60ff7c8f4f066ccf6fe05587","665500ab8938657b03fbdba8","66579222a720deef8acb14c3","1037","stimuli/0011111.jpg","1","","prediction_trial","0","","false","","0","false","false","true","true","false","false","[0]","011","111","0","","","","","","",""
"","","","","","image-keyboard-response","177","279915","0.0-152.0","60ff7c8f4f066ccf6fe05587","665500ab8938657b03fbdba8","66579222a720deef8acb14c3","474","stimuli/00111110.jpg"," ","","feedback_trial","0","","","","","","","","","","","","","","","","","","","","",""
"","","","","","image-keyboard-response","178","280824","0.0-153.0","60ff7c8f4f066ccf6fe05587","665500ab8938657b03fbdba8","66579222a720deef8acb14c3","907","stimuli/0101111.jpg","1","","prediction_trial","0","","false","","0","false","false","false","false","false","false","[2,0]","101","111","0","","","","","","",""
"","","","","","image-keyboard-response","179","281437","0.0-154.0","60ff7c8f4f066ccf6fe05587","665500ab8938657b03fbdba8","66579222a720deef8acb14c3","611","stimuli/01011110.jpg"," ","","feedback_trial","2","","","","","","","","","","","","","","","","","","","","",""
"","","","","","image-keyboard-response","180","282248","0.0-155.0","60ff7c8f4f066ccf6fe05587","665500ab8938657b03fbdba8","66579222a720deef8acb14c3","809","stimuli/0001011.jpg","0","","prediction_trial","0","","true","","0","true","true","true","true","true","true","[0]","001","011","1","","","","","","",""
"","","","","","image-keyboard-response","181","282852","0.0-156.0","60ff7c8f4f066ccf6fe05587","665500ab8938657b03fbdba8","66579222a720deef8acb14c3","602","stimuli/00010110.jpg"," ","","feedback_trial","0","","","","","","","","","","","","","","","","","","","","",""
"","","","","","image-keyboard-response","182","284981","0.0-157.0","60ff7c8f4f066ccf6fe05587","665500ab8938657b03fbdba8","66579222a720deef8acb14c3","2127","stimuli/0000110.jpg","1","","prediction_trial","0","","false","","0","false","false","true","true","false","false","[0]","000","110","0","","","","","","",""
"","","","","","image-keyboard-response","183","285623","0.0-158.0","60ff7c8f4f066ccf6fe05587","665500ab8938657b03fbdba8","66579222a720deef8acb14c3","640","stimuli/00001100.jpg"," ","","feedback_trial","0","","","","","","","","","","","","","","","","","","","","",""
"","","","","","image-keyboard-response","184","286304","0.0-159.0","60ff7c8f4f066ccf6fe05587","665500ab8938657b03fbdba8","66579222a720deef8acb14c3","679","stimuli/0010010.jpg","0","","prediction_trial","0","","true","","0","true","true","true","true","true","true","[0]","010","010","1","","","","","","",""
"","","","","","image-keyboard-response","185","287282","0.0-160.0","60ff7c8f4f066ccf6fe05587","665500ab8938657b03fbdba8","66579222a720deef8acb14c3","966","stimuli/00100100.jpg"," ","","feedback_trial","0","","","","","","","","","","","","","","","","","","","","",""
"","","","","","image-keyboard-response","186","289268","0.0-161.0","60ff7c8f4f066ccf6fe05587","665500ab8938657b03fbdba8","66579222a720deef8acb14c3","1985","stimuli/2111011.jpg","2","","prediction_trial","0","","false","","2","false","false","false","false","false","false","[2,0,1]","111","011","0","","","","","","",""
"","","","","","image-keyboard-response","187","289757","0.0-162.0","60ff7c8f4f066ccf6fe05587","665500ab8938657b03fbdba8","66579222a720deef8acb14c3","486","stimuli/21110110.jpg"," ","","feedback_trial","2","","","","","","","","","","","","","","","","","","","","",""
"","","","","","image-keyboard-response","188","290664","0.0-163.0","60ff7c8f4f066ccf6fe05587","665500ab8938657b03fbdba8","66579222a720deef8acb14c3","905","stimuli/1011110.jpg","2","","prediction_trial","2","","true","","1","false","false","false","false","false","false","[1,2]","011","110","1","","","","","","",""
"","","","","","image-keyboard-response","189","291792","0.0-164.0","60ff7c8f4f066ccf6fe05587","665500ab8938657b03fbdba8","66579222a720deef8acb14c3","1126","stimuli/10111102.jpg"," ","","feedback_trial","1","","","","","","","","","","","","","","","","","","","","",""
"","","","","","image-keyboard-response","190","292546","0.0-165.0","60ff7c8f4f066ccf6fe05587","665500ab8938657b03fbdba8","66579222a720deef8acb14c3","753","stimuli/1001111.jpg","1","","prediction_trial","1","","true","","1","false","false","true","true","false","false","[1]","001","111","1","","","","","","",""
"","","","","","image-keyboard-response","191","293205","0.0-166.0","60ff7c8f4f066ccf6fe05587","665500ab8938657b03fbdba8","66579222a720deef8acb14c3","657","stimuli/10011111.jpg"," ","","feedback_trial","1","","","","","","","","","","","","","","","","","","","","",""
"","","","","","image-keyboard-response","192","294299","0.0-167.0","60ff7c8f4f066ccf6fe05587","665500ab8938657b03fbdba8","66579222a720deef8acb14c3","1093","stimuli/1011111.jpg","1","","prediction_trial","2","","false","","1","false","false","false","false","false","false","[1,2]","011","111","0","","","","","","",""
"","","","","","image-keyboard-response","193","294834","0.0-168.0","60ff7c8f4f066ccf6fe05587","665500ab8938657b03fbdba8","66579222a720deef8acb14c3","532","stimuli/10111112.jpg"," ","","feedback_trial","1","","","","","","","","","","","","","","","","","","","","",""
"","","","","","image-keyboard-response","194","295404","0.0-169.0","60ff7c8f4f066ccf6fe05587","665500ab8938657b03fbdba8","66579222a720deef8acb14c3","570","stimuli/2000000.jpg","2","","prediction_trial","2","","true","","2","true","true","true","true","true","true","[2]","000","000","1","","","","","","",""
"","","","","","image-keyboard-response","195","295754","0.0-170.0","60ff7c8f4f066ccf6fe05587","665500ab8938657b03fbdba8","66579222a720deef8acb14c3","339","stimuli/20000002.jpg"," ","","feedback_trial","2","","","","","","","","","","","","","","","","","","","","",""
"","","","","","image-keyboard-response","196","296652","0.0-171.0","60ff7c8f4f066ccf6fe05587","665500ab8938657b03fbdba8","66579222a720deef8acb14c3","896","stimuli/2010001.jpg","2","","prediction_trial","2","","true","","2","false","true","true","true","false","true","[2]","010","001","1","","","","","","",""
"","","","","","image-keyboard-response","197","297055","0.0-172.0","60ff7c8f4f066ccf6fe05587","665500ab8938657b03fbdba8","66579222a720deef8acb14c3","401","stimuli/20100012.jpg"," ","","feedback_trial","2","","","","","","","","","","","","","","","","","","","","",""
"","","","","","image-keyboard-response","198","297923","0.0-173.0","60ff7c8f4f066ccf6fe05587","665500ab8938657b03fbdba8","66579222a720deef8acb14c3","865","stimuli/1000100.jpg","1","","prediction_trial","1","","true","","1","true","true","true","true","true","true","[1]","000","100","1","","","","","","",""
"","","","","","image-keyboard-response","199","298321","0.0-174.0","60ff7c8f4f066ccf6fe05587","665500ab8938657b03fbdba8","66579222a720deef8acb14c3","396","stimuli/10001001.jpg"," ","","feedback_trial","1","","","","","","","","","","","","","","","","","","","","",""
"","","","","","image-keyboard-response","200","299785","0.0-175.0","60ff7c8f4f066ccf6fe05587","665500ab8938657b03fbdba8","66579222a720deef8acb14c3","1462","stimuli/0100101.jpg","2","","prediction_trial","0","","false","","0","false","false","false","true","false","false","[0]","100","101","0","","","","","","",""
"","","","","","image-keyboard-response","201","300685","0.0-176.0","60ff7c8f4f066ccf6fe05587","665500ab8938657b03fbdba8","66579222a720deef8acb14c3","897","stimuli/01001010.jpg"," ","","feedback_trial","0","","","","","","","","","","","","","","","","","","","","",""
"","","","","","image-keyboard-response","202","301441","0.0-177.0","60ff7c8f4f066ccf6fe05587","665500ab8938657b03fbdba8","66579222a720deef8acb14c3","754","stimuli/1100100.jpg","1","","prediction_trial","1","","true","","1","true","true","true","true","true","true","[1]","100","100","1","","","","","","",""
"","","","","","image-keyboard-response","203","304530","0.0-178.0","60ff7c8f4f066ccf6fe05587","665500ab8938657b03fbdba8","66579222a720deef8acb14c3","3088","stimuli/11001001.jpg"," ","","feedback_trial","1","","","","","","","","","","","","","","","","","","","","",""
"","","","","","image-keyboard-response","204","305142","0.0-179.0","60ff7c8f4f066ccf6fe05587","665500ab8938657b03fbdba8","66579222a720deef8acb14c3","611","stimuli/0010000.jpg","0","","prediction_trial","0","","true","","0","true","true","true","true","true","true","[0]","010","000","1","","","","","","",""
"","","","","","image-keyboard-response","205","305552","0.0-180.0","60ff7c8f4f066ccf6fe05587","665500ab8938657b03fbdba8","66579222a720deef8acb14c3","406","stimuli/00100000.jpg"," ","","feedback_trial","0","","","","","","","","","","","","","","","","","","","","",""
"","","","","","image-keyboard-response","206","306615","0.0-181.0","60ff7c8f4f066ccf6fe05587","665500ab8938657b03fbdba8","66579222a720deef8acb14c3","1061","stimuli/1011100.jpg","1","","prediction_trial","2","","false","","1","true","true","false","false","false","false","[2,1]","011","100","0","","","","","","",""
"","","","","","image-keyboard-response","207","307730","0.0-182.0","60ff7c8f4f066ccf6fe05587","665500ab8938657b03fbdba8","66579222a720deef8acb14c3","1113","stimuli/10111002.jpg"," ","","feedback_trial","2","","","","","","","","","","","","","","","","","","","","",""
"","","","","","image-keyboard-response","208","309598","0.0-183.0","60ff7c8f4f066ccf6fe05587","665500ab8938657b03fbdba8","66579222a720deef8acb14c3","1866","stimuli/1000011.jpg","1","","prediction_trial","1","","true","","1","false","false","true","true","false","false","[1]","000","011","1","","","","","","",""
"","","","","","image-keyboard-response","209","310201","0.0-184.0","60ff7c8f4f066ccf6fe05587","665500ab8938657b03fbdba8","66579222a720deef8acb14c3","601","stimuli/10000111.jpg"," ","","feedback_trial","1","","","","","","","","","","","","","","","","","","","","",""
"","","","","","image-keyboard-response","210","311735","0.0-185.0","60ff7c8f4f066ccf6fe05587","665500ab8938657b03fbdba8","66579222a720deef8acb14c3","1532","stimuli/2001000.jpg","2","","prediction_trial","2","","true","","2","true","true","false","true","false","true","[2]","001","000","1","","","","","","",""
"","","","","","image-keyboard-response","211","312390","0.0-186.0","60ff7c8f4f066ccf6fe05587","665500ab8938657b03fbdba8","66579222a720deef8acb14c3","654","stimuli/20010002.jpg"," ","","feedback_trial","2","","","","","","","","","","","","","","","","","","","","",""
"","","","","","image-keyboard-response","212","314374","0.0-187.0","60ff7c8f4f066ccf6fe05587","665500ab8938657b03fbdba8","66579222a720deef8acb14c3","1981","stimuli/1000111.jpg","1","","prediction_trial","1","","true","","1","false","false","true","true","false","false","[1]","000","111","1","","","","","","",""
"","","","","","image-keyboard-response","213","314935","0.0-188.0","60ff7c8f4f066ccf6fe05587","665500ab8938657b03fbdba8","66579222a720deef8acb14c3","558","stimuli/10001111.jpg"," ","","feedback_trial","1","","","","","","","","","","","","","","","","","","","","",""
"","","","","","image-keyboard-response","214","318557","0.0-189.0","60ff7c8f4f066ccf6fe05587","665500ab8938657b03fbdba8","66579222a720deef8acb14c3","3620","stimuli/0110111.jpg","0","","prediction_trial","1","","false","","0","false","false","false","false","false","false","[1,0]","110","111","0","","","","","","",""
"","","","","","image-keyboard-response","215","319100","0.0-190.0","60ff7c8f4f066ccf6fe05587","665500ab8938657b03fbdba8","66579222a720deef8acb14c3","532","stimuli/01101111.jpg"," ","","feedback_trial","1","","","","","","","","","","","","","","","","","","","","",""
"","","","","","image-keyboard-response","216","319950","0.0-191.0","60ff7c8f4f066ccf6fe05587","665500ab8938657b03fbdba8","66579222a720deef8acb14c3","849","stimuli/2010000.jpg","2","","prediction_trial","2","","true","","2","true","true","true","true","true","true","[2]","010","000","1","","","","","","",""
"","","","","","image-keyboard-response","217","320505","0.0-192.0","60ff7c8f4f066ccf6fe05587","665500ab8938657b03fbdba8","66579222a720deef8acb14c3","552","stimuli/20100002.jpg"," ","","feedback_trial","2","","","","","","","","","","","","","","","","","","","","",""
"","","","","","image-keyboard-response","218","321794","0.0-193.0","60ff7c8f4f066ccf6fe05587","665500ab8938657b03fbdba8","66579222a720deef8acb14c3","1288","stimuli/1001010.jpg","1","","prediction_trial","1","","true","","1","false","true","true","true","false","true","[1]","001","010","1","","","","","","",""
"","","","","","image-keyboard-response","219","322248","0.0-194.0","60ff7c8f4f066ccf6fe05587","665500ab8938657b03fbdba8","66579222a720deef8acb14c3","452","stimuli/10010101.jpg"," ","","feedback_trial","1","","","","","","","","","","","","","","","","","","","","",""
"","","","","","image-keyboard-response","220","324157","0.0-195.0","60ff7c8f4f066ccf6fe05587","665500ab8938657b03fbdba8","66579222a720deef8acb14c3","1907","stimuli/2110101.jpg","2","","prediction_trial","2","","true","","2","false","false","true","true","false","false","[2]","110","101","1","","","","","","",""
"","","","","","image-keyboard-response","221","324884","0.0-196.0","60ff7c8f4f066ccf6fe05587","665500ab8938657b03fbdba8","66579222a720deef8acb14c3","724","stimuli/21101012.jpg"," ","","feedback_trial","2","","","","","","","","","","","","","","","","","","","","",""
"","","","","","image-keyboard-response","222","325491","0.0-197.0","60ff7c8f4f066ccf6fe05587","665500ab8938657b03fbdba8","66579222a720deef8acb14c3","606","stimuli/0010011.jpg","0","","prediction_trial","0","","true","","0","true","true","true","true","true","true","[0]","010","011","1","","","","","","",""
"","","","","","image-keyboard-response","223","326019","0.0-198.0","60ff7c8f4f066ccf6fe05587","665500ab8938657b03fbdba8","66579222a720deef8acb14c3","525","stimuli/00100110.jpg"," ","","feedback_trial","0","","","","","","","","","","","","","","","","","","","","",""
"","","","","","image-keyboard-response","224","327344","0.0-199.0","60ff7c8f4f066ccf6fe05587","665500ab8938657b03fbdba8","66579222a720deef8acb14c3","1323","stimuli/2111010.jpg","2","","prediction_trial","1","","false","","2","true","true","false","false","false","false","[0,1,2]","111","010","0","","","","","","",""
"","","","","","image-keyboard-response","225","328081","0.0-200.0","60ff7c8f4f066ccf6fe05587","665500ab8938657b03fbdba8","66579222a720deef8acb14c3","735","stimuli/21110101.jpg"," ","","feedback_trial","0","","","","","","","","","","","","","","","","","","","","",""
"","","","","","image-keyboard-response","226","330706","0.0-201.0","60ff7c8f4f066ccf6fe05587","665500ab8938657b03fbdba8","66579222a720deef8acb14c3","2624","stimuli/0001101.jpg","2","","prediction_trial","0","","false","","0","false","false","true","true","false","false","[0]","001","101","0","","","","","","",""
"","","","","","image-keyboard-response","227","331217","0.0-202.0","60ff7c8f4f066ccf6fe05587","665500ab8938657b03fbdba8","66579222a720deef8acb14c3","509","stimuli/00011010.jpg"," ","","feedback_trial","0","","","","","","","","","","","","","","","","","","","","",""
"","","","","","image-keyboard-response","228","331830","0.0-203.0","60ff7c8f4f066ccf6fe05587","665500ab8938657b03fbdba8","66579222a720deef8acb14c3","611","stimuli/2011011.jpg","2","","prediction_trial","1","","false","","2","false","false","false","false","false","false","[1,2]","011","011","0","","","","","","",""
"","","","","","image-keyboard-response","229","332298","0.0-204.0","60ff7c8f4f066ccf6fe05587","665500ab8938657b03fbdba8","66579222a720deef8acb14c3","466","stimuli/20110111.jpg"," ","","feedback_trial","1","","","","","","","","","","","","","","","","","","","","",""
"","","","","","image-keyboard-response","230","333964","0.0-205.0","60ff7c8f4f066ccf6fe05587","665500ab8938657b03fbdba8","66579222a720deef8acb14c3","1664","stimuli/0001100.jpg","0","","prediction_trial","0","","true","","0","false","true","true","true","false","true","[0]","001","100","1","","","","","","",""
"","","","","","image-keyboard-response","231","334658","0.0-206.0","60ff7c8f4f066ccf6fe05587","665500ab8938657b03fbdba8","66579222a720deef8acb14c3","692","stimuli/00011000.jpg"," ","","feedback_trial","0","","","","","","","","","","","","","","","","","","","","",""
"","","","","","image-keyboard-response","232","336106","0.0-207.0","60ff7c8f4f066ccf6fe05587","665500ab8938657b03fbdba8","66579222a720deef8acb14c3","1446","stimuli/2101011.jpg","1","","prediction_trial","0","","false","","2","false","false","false","false","false","false","[2,0]","101","011","0","","","","","","",""
"","","","","","image-keyboard-response","233","337899","0.0-208.0","60ff7c8f4f066ccf6fe05587","665500ab8938657b03fbdba8","66579222a720deef8acb14c3","1792","stimuli/21010110.jpg"," ","","feedback_trial","2","","","","","","","","","","","","","","","","","","","","",""
"","","","","","image-keyboard-response","234","339503","0.0-209.0","60ff7c8f4f066ccf6fe05587","665500ab8938657b03fbdba8","66579222a720deef8acb14c3","1603","stimuli/2001100.jpg","2","","prediction_trial","2","","true","","2","true","true","false","true","false","true","[2]","001","100","1","","","","","","",""
"","","","","","image-keyboard-response","235","340260","0.0-210.0","60ff7c8f4f066ccf6fe05587","665500ab8938657b03fbdba8","66579222a720deef8acb14c3","745","stimuli/20011002.jpg"," ","","feedback_trial","2","","","","","","","","","","","","","","","","","","","","",""
"","","","","","image-keyboard-response","236","343473","0.0-211.0","60ff7c8f4f066ccf6fe05587","665500ab8938657b03fbdba8","66579222a720deef8acb14c3","3212","stimuli/1100111.jpg","2","","prediction_trial","1","","false","","1","false","false","true","true","false","false","[1]","100","111","0","","","","","","",""
"","","","","","image-keyboard-response","237","344044","0.0-212.0","60ff7c8f4f066ccf6fe05587","665500ab8938657b03fbdba8","66579222a720deef8acb14c3","569","stimuli/11001111.jpg"," ","","feedback_trial","1","","","","","","","","","","","","","","","","","","","","",""
"","","","","","image-keyboard-response","238","344795","0.0-213.0","60ff7c8f4f066ccf6fe05587","665500ab8938657b03fbdba8","66579222a720deef8acb14c3","749","stimuli/1001100.jpg","1","","prediction_trial","1","","true","","1","true","true","true","true","true","true","[1]","001","100","1","","","","","","",""
"","","","","","image-keyboard-response","239","345337","0.0-214.0","60ff7c8f4f066ccf6fe05587","665500ab8938657b03fbdba8","66579222a720deef8acb14c3","540","stimuli/10011001.jpg"," ","","feedback_trial","1","","","","","","","","","","","","","","","","","","","","",""
"","","","","","image-keyboard-response","240","345887","0.0-215.0","60ff7c8f4f066ccf6fe05587","665500ab8938657b03fbdba8","66579222a720deef8acb14c3","548","stimuli/2100010.jpg","2","","prediction_trial","2","","true","","2","true","true","true","true","true","true","[2]","100","010","1","","","","","","",""
"","","","","","image-keyboard-response","241","346298","0.0-216.0","60ff7c8f4f066ccf6fe05587","665500ab8938657b03fbdba8","66579222a720deef8acb14c3","411","stimuli/21000102.jpg"," ","","feedback_trial","2","","","","","","","","","","","","","","","","","","","","",""
"","","","","","image-keyboard-response","242","347015","0.0-217.0","60ff7c8f4f066ccf6fe05587","665500ab8938657b03fbdba8","66579222a720deef8acb14c3","716","stimuli/0000001.jpg","0","","prediction_trial","0","","true","","0","true","true","true","true","true","true","[0]","000","001","1","","","","","","",""
"","","","","","image-keyboard-response","243","347398","0.0-218.0","60ff7c8f4f066ccf6fe05587","665500ab8938657b03fbdba8","66579222a720deef8acb14c3","381","stimuli/00000010.jpg"," ","","feedback_trial","0","","","","","","","","","","","","","","","","","","","","",""
"","","","","","image-keyboard-response","244","347897","0.0-219.0","60ff7c8f4f066ccf6fe05587","665500ab8938657b03fbdba8","66579222a720deef8acb14c3","497","stimuli/0101010.jpg","0","","prediction_trial","2","","false","","0","true","true","false","false","false","false","[2,0]","101","010","0","","","","","","",""
"","","","","","image-keyboard-response","245","348470","0.0-220.0","60ff7c8f4f066ccf6fe05587","665500ab8938657b03fbdba8","66579222a720deef8acb14c3","570","stimuli/01010102.jpg"," ","","feedback_trial","2","","","","","","","","","","","","","","","","","","","","",""
"","","","","","image-keyboard-response","246","349186","0.0-221.0","60ff7c8f4f066ccf6fe05587","665500ab8938657b03fbdba8","66579222a720deef8acb14c3","713","stimuli/1011101.jpg","1","","prediction_trial","1","","true","","1","true","true","false","false","false","false","[2,1]","011","101","1","","","","","","",""
"","","","","","image-keyboard-response","247","349643","0.0-222.0","60ff7c8f4f066ccf6fe05587","665500ab8938657b03fbdba8","66579222a720deef8acb14c3","455","stimuli/10111011.jpg"," ","","feedback_trial","2","","","","","","","","","","","","","","","","","","","","",""
"","","","","","image-keyboard-response","248","350186","0.0-223.0","60ff7c8f4f066ccf6fe05587","665500ab8938657b03fbdba8","66579222a720deef8acb14c3","541","stimuli/0010001.jpg","0","","prediction_trial","0","","true","","0","true","true","true","true","true","true","[0]","010","001","1","","","","","","",""
"","","","","","image-keyboard-response","249","350529","0.0-224.0","60ff7c8f4f066ccf6fe05587","665500ab8938657b03fbdba8","66579222a720deef8acb14c3","342","stimuli/00100010.jpg"," ","","feedback_trial","0","","","","","","","","","","","","","","","","","","","","",""
"","","","","","image-keyboard-response","250","350994","0.0-225.0","60ff7c8f4f066ccf6fe05587","665500ab8938657b03fbdba8","66579222a720deef8acb14c3","463","stimuli/0100010.jpg","0","","prediction_trial","0","","true","","0","true","true","false","true","false","true","[0]","100","010","1","","","","","","",""
"","","","","","image-keyboard-response","251","351346","0.0-226.0","60ff7c8f4f066ccf6fe05587","665500ab8938657b03fbdba8","66579222a720deef8acb14c3","350","stimuli/01000100.jpg"," ","","feedback_trial","0","","","","","","","","","","","","","","","","","","","","",""
"","","","","","image-keyboard-response","252","352021","0.0-227.0","60ff7c8f4f066ccf6fe05587","665500ab8938657b03fbdba8","66579222a720deef8acb14c3","674","stimuli/2111000.jpg","2","","prediction_trial","2","","true","","2","true","true","false","false","false","false","[0,2,1]","111","000","1","","","","","","",""
"","","","","","image-keyboard-response","253","352461","0.0-228.0","60ff7c8f4f066ccf6fe05587","665500ab8938657b03fbdba8","66579222a720deef8acb14c3","438","stimuli/21110002.jpg"," ","","feedback_trial","0","","","","","","","","","","","","","","","","","","","","",""
"","","","","","image-keyboard-response","254","354109","0.0-229.0","60ff7c8f4f066ccf6fe05587","665500ab8938657b03fbdba8","66579222a720deef8acb14c3","1647","stimuli/2010101.jpg","2","","prediction_trial","2","","true","","2","false","false","true","true","false","false","[2]","010","101","1","","","","","","",""
"","","","","","image-keyboard-response","255","354465","0.0-230.0","60ff7c8f4f066ccf6fe05587","665500ab8938657b03fbdba8","66579222a720deef8acb14c3","352","stimuli/20101012.jpg"," ","","feedback_trial","2","","","","","","","","","","","","","","","","","","","","",""
"","","","","","image-keyboard-response","256","355056","0.0-231.0","60ff7c8f4f066ccf6fe05587","665500ab8938657b03fbdba8","66579222a720deef8acb14c3","589","stimuli/2100000.jpg","2","","prediction_trial","2","","true","","2","true","true","true","true","true","true","[2]","100","000","1","","","","","","",""
"","","","","","image-keyboard-response","257","355382","0.0-232.0","60ff7c8f4f066ccf6fe05587","665500ab8938657b03fbdba8","66579222a720deef8acb14c3","324","stimuli/21000002.jpg"," ","","feedback_trial","2","","","","","","","","","","","","","","","","","","","","",""
"","","","","","image-keyboard-response","258","356100","0.0-233.0","60ff7c8f4f066ccf6fe05587","665500ab8938657b03fbdba8","66579222a720deef8acb14c3","716","stimuli/1001001.jpg","1","","prediction_trial","1","","true","","1","true","true","true","true","true","true","[1]","001","001","1","","","","","","",""
"","","","","","image-keyboard-response","259","356917","0.0-234.0","60ff7c8f4f066ccf6fe05587","665500ab8938657b03fbdba8","66579222a720deef8acb14c3","815","stimuli/10010011.jpg"," ","","feedback_trial","1","","","","","","","","","","","","","","","","","","","","",""
"","","","","","image-keyboard-response","260","357475","0.0-235.0","60ff7c8f4f066ccf6fe05587","665500ab8938657b03fbdba8","66579222a720deef8acb14c3","557","stimuli/2110010.jpg","2","","prediction_trial","2","","true","","2","true","true","true","true","true","true","[2]","110","010","1","","","","","","",""
"","","","","","image-keyboard-response","261","357810","0.0-236.0","60ff7c8f4f066ccf6fe05587","665500ab8938657b03fbdba8","66579222a720deef8acb14c3","333","stimuli/21100102.jpg"," ","","feedback_trial","2","","","","","","","","","","","","","","","","","","","","",""
"","","","","","image-keyboard-response","262","358665","0.0-237.0","60ff7c8f4f066ccf6fe05587","665500ab8938657b03fbdba8","66579222a720deef8acb14c3","852","stimuli/2011101.jpg","0","","prediction_trial","2","","false","","2","false","false","false","false","false","false","[2,1]","011","101","0","","","","","","",""
"","","","","","image-keyboard-response","263","359953","0.0-238.0","60ff7c8f4f066ccf6fe05587","665500ab8938657b03fbdba8","66579222a720deef8acb14c3","1286","stimuli/20111012.jpg"," ","","feedback_trial","2","","","","","","","","","","","","","","","","","","","","",""
"","","","","","image-keyboard-response","264","360548","0.0-239.0","60ff7c8f4f066ccf6fe05587","665500ab8938657b03fbdba8","66579222a720deef8acb14c3","593","stimuli/0010101.jpg","2","","prediction_trial","0","","false","","0","false","false","true","true","false","false","[0]","010","101","0","","","","","","",""
"","","","","","image-keyboard-response","265","361058","0.0-240.0","60ff7c8f4f066ccf6fe05587","665500ab8938657b03fbdba8","66579222a720deef8acb14c3","513","stimuli/00101010.jpg"," ","","feedback_trial","0","","","","","","","","","","","","","","","","","","","","",""
"","","","","","image-keyboard-response","266","361627","0.0-241.0","60ff7c8f4f066ccf6fe05587","665500ab8938657b03fbdba8","66579222a720deef8acb14c3","568","stimuli/2011100.jpg","2","","prediction_trial","2","","true","","2","true","true","false","false","false","false","[1,2]","011","100","1","","","","","","",""
"","","","","","image-keyboard-response","267","362117","0.0-242.0","60ff7c8f4f066ccf6fe05587","665500ab8938657b03fbdba8","66579222a720deef8acb14c3","488","stimuli/20111002.jpg"," ","","feedback_trial","1","","","","","","","","","","","","","","","","","","","","",""
"","","","","","image-keyboard-response","268","362716","0.0-243.0","60ff7c8f4f066ccf6fe05587","665500ab8938657b03fbdba8","66579222a720deef8acb14c3","597","stimuli/2010100.jpg","2","","prediction_trial","2","","true","","2","true","true","true","true","true","true","[2]","010","100","1","","","","","","",""
"","","","","","image-keyboard-response","269","363137","0.0-244.0","60ff7c8f4f066ccf6fe05587","665500ab8938657b03fbdba8","66579222a720deef8acb14c3","419","stimuli/20101002.jpg"," ","","feedback_trial","2","","","","","","","","","","","","","","","","","","","","",""
"","","","","","image-keyboard-response","270","363969","0.0-245.0","60ff7c8f4f066ccf6fe05587","665500ab8938657b03fbdba8","66579222a720deef8acb14c3","831","stimuli/0101100.jpg","0","","prediction_trial","0","","true","","0","false","true","false","false","false","false","[0,2]","101","100","1","","","","","","",""
"","","","","","image-keyboard-response","271","364268","0.0-246.0","60ff7c8f4f066ccf6fe05587","665500ab8938657b03fbdba8","66579222a720deef8acb14c3","297","stimuli/01011000.jpg"," ","","feedback_trial","0","","","","","","","","","","","","","","","","","","","","",""
"","","","","","image-keyboard-response","272","365006","0.0-247.0","60ff7c8f4f066ccf6fe05587","665500ab8938657b03fbdba8","66579222a720deef8acb14c3","737","stimuli/0100000.jpg","0","","prediction_trial","0","","true","","0","true","true","false","true","false","true","[0]","100","000","1","","","","","","",""
"","","","","","image-keyboard-response","273","365230","0.0-248.0","60ff7c8f4f066ccf6fe05587","665500ab8938657b03fbdba8","66579222a720deef8acb14c3","222","stimuli/01000000.jpg"," ","","feedback_trial","0","","","","","","","","","","","","","","","","","","","","",""
"","","","","","image-keyboard-response","274","366277","0.0-249.0","60ff7c8f4f066ccf6fe05587","665500ab8938657b03fbdba8","66579222a720deef8acb14c3","1046","stimuli/0110010.jpg","0","","prediction_trial","0","","true","","0","true","true","false","false","false","false","[0,1]","110","010","1","","","","","","",""
"","","","","","image-keyboard-response","275","366760","0.0-250.0","60ff7c8f4f066ccf6fe05587","665500ab8938657b03fbdba8","66579222a720deef8acb14c3","482","stimuli/01100100.jpg"," ","","feedback_trial","0","","","","","","","","","","","","","","","","","","","","",""
"","","","","","image-keyboard-response","276","367882","0.0-251.0","60ff7c8f4f066ccf6fe05587","665500ab8938657b03fbdba8","66579222a720deef8acb14c3","1120","stimuli/1100010.jpg","1","","prediction_trial","1","","true","","1","false","true","true","true","false","true","[1]","100","010","1","","","","","","",""
"","","","","","image-keyboard-response","277","368205","0.0-252.0","60ff7c8f4f066ccf6fe05587","665500ab8938657b03fbdba8","66579222a720deef8acb14c3","320","stimuli/11000101.jpg"," ","","feedback_trial","1","","","","","","","","","","","","","","","","","","","","",""
"","","","","","image-keyboard-response","278","370046","0.0-253.0","60ff7c8f4f066ccf6fe05587","665500ab8938657b03fbdba8","66579222a720deef8acb14c3","1840","stimuli/2101001.jpg","2","","prediction_trial","0","","false","","2","false","true","false","false","false","false","[0,2]","101","001","0","","","","","","",""
"","","","","","image-keyboard-response","279","371041","0.0-254.0","60ff7c8f4f066ccf6fe05587","665500ab8938657b03fbdba8","66579222a720deef8acb14c3","993","stimuli/21010010.jpg"," ","","feedback_trial","0","","","","","","","","","","","","","","","","","","","","",""
"","","","","","image-keyboard-response","280","372796","0.0-255.0","60ff7c8f4f066ccf6fe05587","665500ab8938657b03fbdba8","66579222a720deef8acb14c3","1754","stimuli/1010111.jpg","2","","prediction_trial","1","","false","","1","false","false","false","true","false","false","[1]","010","111","0","","","","","","",""
"","","","","","image-keyboard-response","281","373387","0.0-256.0","60ff7c8f4f066ccf6fe05587","665500ab8938657b03fbdba8","66579222a720deef8acb14c3","589","stimuli/10101111.jpg"," ","","feedback_trial","1","","","","","","","","","","","","","","","","","","","","",""
"","","","","","image-keyboard-response","282","374205","0.0-257.0","60ff7c8f4f066ccf6fe05587","665500ab8938657b03fbdba8","66579222a720deef8acb14c3","816","stimuli/2011001.jpg","2","","prediction_trial","2","","true","","2","false","true","false","false","false","false","[2,1]","011","001","1","","","","","","",""
"","","","","","image-keyboard-response","283","374586","0.0-258.0","60ff7c8f4f066ccf6fe05587","665500ab8938657b03fbdba8","66579222a720deef8acb14c3","378","stimuli/20110012.jpg"," ","","feedback_trial","2","","","","","","","","","","","","","","","","","","","","",""
"","","","","","image-keyboard-response","284","377642","0.0-259.0","60ff7c8f4f066ccf6fe05587","665500ab8938657b03fbdba8","66579222a720deef8acb14c3","3054","stimuli/1111011.jpg","2","","prediction_trial","1","","false","","1","false","false","false","false","false","false","[0,1,2]","111","011","0","","","","","","",""
"","","","","","image-keyboard-response","285","378585","0.0-260.0","60ff7c8f4f066ccf6fe05587","665500ab8938657b03fbdba8","66579222a720deef8acb14c3","939","stimuli/11110111.jpg"," ","","feedback_trial","0","","","","","","","","","","","","","","","","","","","","",""
"","","","","","image-keyboard-response","286","379370","0.0-261.0","60ff7c8f4f066ccf6fe05587","665500ab8938657b03fbdba8","66579222a720deef8acb14c3","783","stimuli/2100001.jpg","2","","prediction_trial","2","","true","","2","false","true","true","true","false","true","[2]","100","001","1","","","","","","",""
"","","","","","image-keyboard-response","287","380365","0.0-262.0","60ff7c8f4f066ccf6fe05587","665500ab8938657b03fbdba8","66579222a720deef8acb14c3","992","stimuli/21000012.jpg"," ","","feedback_trial","2","","","","","","","","","","","","","","","","","","","","",""
"","","","","","image-keyboard-response","288","381181","0.0-263.0","60ff7c8f4f066ccf6fe05587","665500ab8938657b03fbdba8","66579222a720deef8acb14c3","814","stimuli/0100111.jpg","1","","prediction_trial","0","","false","","0","false","false","false","true","false","false","[0]","100","111","0","","","","","","",""
"","","","","","image-keyboard-response","289","381771","0.0-264.0","60ff7c8f4f066ccf6fe05587","665500ab8938657b03fbdba8","66579222a720deef8acb14c3","587","stimuli/01001110.jpg"," ","","feedback_trial","0","","","","","","","","","","","","","","","","","","","","",""
"","","","","","image-keyboard-response","290","382502","0.0-265.0","60ff7c8f4f066ccf6fe05587","665500ab8938657b03fbdba8","66579222a720deef8acb14c3","728","stimuli/1010101.jpg","1","","prediction_trial","1","","true","","1","true","true","false","true","false","true","[1]","010","101","1","","","","","","",""
"","","","","","image-keyboard-response","291","382945","0.0-266.0","60ff7c8f4f066ccf6fe05587","665500ab8938657b03fbdba8","66579222a720deef8acb14c3","440","stimuli/10101011.jpg"," ","","feedback_trial","1","","","","","","","","","","","","","","","","","","","","",""
"","","","","","image-keyboard-response","292","383610","0.0-267.0","60ff7c8f4f066ccf6fe05587","665500ab8938657b03fbdba8","66579222a720deef8acb14c3","664","stimuli/1100001.jpg","1","","prediction_trial","1","","true","","1","true","true","true","true","true","true","[1]","100","001","1","","","","","","",""
"","","","","","image-keyboard-response","293","383966","0.0-268.0","60ff7c8f4f066ccf6fe05587","665500ab8938657b03fbdba8","66579222a720deef8acb14c3","353","stimuli/11000011.jpg"," ","","feedback_trial","1","","","","","","","","","","","","","","","","","","","","",""
"","","","","","image-keyboard-response","294","384795","0.0-269.0","60ff7c8f4f066ccf6fe05587","665500ab8938657b03fbdba8","66579222a720deef8acb14c3","828","stimuli/2111001.jpg","2","","prediction_trial","0","","false","","2","false","true","false","false","false","false","[1,0,2]","111","001","0","","","","","","",""
"","","","","","image-keyboard-response","295","385296","0.0-270.0","60ff7c8f4f066ccf6fe05587","665500ab8938657b03fbdba8","66579222a720deef8acb14c3","498","stimuli/21110010.jpg"," ","","feedback_trial","1","","","","","","","","","","","","","","","","","","","","",""
"","","","","","image-keyboard-response","296","386477","0.0-271.0","60ff7c8f4f066ccf6fe05587","665500ab8938657b03fbdba8","66579222a720deef8acb14c3","1180","stimuli/1111110.jpg","0","","prediction_trial","0","","true","","1","false","false","false","false","false","false","[2,0,1]","111","110","1","","","","","","",""
"","","","","","image-keyboard-response","297","386979","0.0-272.0","60ff7c8f4f066ccf6fe05587","665500ab8938657b03fbdba8","66579222a720deef8acb14c3","499","stimuli/11111100.jpg"," ","","feedback_trial","2","","","","","","","","","","","","","","","","","","","","",""
"","","","","","image-keyboard-response","298","387578","0.0-273.0","60ff7c8f4f066ccf6fe05587","665500ab8938657b03fbdba8","66579222a720deef8acb14c3","597","stimuli/1010100.jpg","1","","prediction_trial","1","","true","","1","true","true","false","true","false","true","[1]","010","100","1","","","","","","",""
"","","","","","image-keyboard-response","299","388030","0.0-274.0","60ff7c8f4f066ccf6fe05587","665500ab8938657b03fbdba8","66579222a720deef8acb14c3","450","stimuli/10101001.jpg"," ","","feedback_trial","1","","","","","","","","","","","","","","","","","","","","",""
"","","","","","image-keyboard-response","300","390221","0.0-275.0","60ff7c8f4f066ccf6fe05587","665500ab8938657b03fbdba8","66579222a720deef8acb14c3","2189","stimuli/1100110.jpg","1","","prediction_trial","1","","true","","1","false","false","true","true","false","false","[1]","100","110","1","","","","","","",""
"","","","","","image-keyboard-response","301","390730","0.0-276.0","60ff7c8f4f066ccf6fe05587","665500ab8938657b03fbdba8","66579222a720deef8acb14c3","507","stimuli/11001101.jpg"," ","","feedback_trial","1","","","","","","","","","","","","","","","","","","","","",""
"","","","","","image-keyboard-response","302","391423","0.0-277.0","60ff7c8f4f066ccf6fe05587","665500ab8938657b03fbdba8","66579222a720deef8acb14c3","691","stimuli/0101001.jpg","0","","prediction_trial","0","","true","","0","true","true","false","false","false","false","[2,0]","101","001","1","","","","","","",""
"","","","","","image-keyboard-response","303","391821","0.0-278.0","60ff7c8f4f066ccf6fe05587","665500ab8938657b03fbdba8","66579222a720deef8acb14c3","396","stimuli/01010010.jpg"," ","","feedback_trial","2","","","","","","","","","","","","","","","","","","","","",""
"","","","","","image-keyboard-response","304","392989","0.0-279.0","60ff7c8f4f066ccf6fe05587","665500ab8938657b03fbdba8","66579222a720deef8acb14c3","1167","stimuli/2011010.jpg","2","","prediction_trial","1","","false","","2","true","true","false","false","false","false","[1,2]","011","010","0","","","","","","",""
"","","","","","image-keyboard-response","305","394120","0.0-280.0","60ff7c8f4f066ccf6fe05587","665500ab8938657b03fbdba8","66579222a720deef8acb14c3","1128","stimuli/20110101.jpg"," ","","feedback_trial","1","","","","","","","","","","","","","","","","","","","","",""
"","","","","","image-keyboard-response","306","394654","0.0-281.0","60ff7c8f4f066ccf6fe05587","665500ab8938657b03fbdba8","66579222a720deef8acb14c3","532","stimuli/0111010.jpg","0","","prediction_trial","1","","false","","0","true","true","false","false","false","false","[2,1,0]","111","010","0","","","","","","",""
"","","","","","image-keyboard-response","307","395088","0.0-282.0","60ff7c8f4f066ccf6fe05587","665500ab8938657b03fbdba8","66579222a720deef8acb14c3","431","stimuli/01110101.jpg"," ","","feedback_trial","2","","","","","","","","","","","","","","","","","","","","",""
"","","","","","image-keyboard-response","308","396901","0.0-283.0","60ff7c8f4f066ccf6fe05587","665500ab8938657b03fbdba8","66579222a720deef8acb14c3","1812","stimuli/1110110.jpg","2","","prediction_trial","0","","false","","1","false","false","false","false","false","false","[0,1]","110","110","0","","","","","","",""
"","","","","","image-keyboard-response","309","397575","0.0-284.0","60ff7c8f4f066ccf6fe05587","665500ab8938657b03fbdba8","66579222a720deef8acb14c3","672","stimuli/11101100.jpg"," ","","feedback_trial","0","","","","","","","","","","","","","","","","","","","","",""
"","","","","","image-keyboard-response","310","398969","0.0-285.0","60ff7c8f4f066ccf6fe05587","665500ab8938657b03fbdba8","66579222a720deef8acb14c3","1392","stimuli/0100110.jpg","0","","prediction_trial","0","","true","","0","false","false","false","true","false","false","[0]","100","110","1","","","","","","",""
"","","","","","image-keyboard-response","311","399603","0.0-286.0","60ff7c8f4f066ccf6fe05587","665500ab8938657b03fbdba8","66579222a720deef8acb14c3","632","stimuli/01001100.jpg"," ","","feedback_trial","0","","","","","","","","","","","","","","","","","","","","",""
"","","","","","image-keyboard-response","312","400220","0.0-287.0","60ff7c8f4f066ccf6fe05587","665500ab8938657b03fbdba8","66579222a720deef8acb14c3","616","stimuli/0101000.jpg","0","","prediction_trial","2","","false","","0","true","true","false","false","false","false","[2,0]","101","000","0","","","","","","",""
"","","","","","image-keyboard-response","313","401258","0.0-288.0","60ff7c8f4f066ccf6fe05587","665500ab8938657b03fbdba8","66579222a720deef8acb14c3","1036","stimuli/01010002.jpg"," ","","feedback_trial","2","","","","","","","","","","","","","","","","","","","","",""
"","","","","","image-keyboard-response","314","402103","0.0-289.0","60ff7c8f4f066ccf6fe05587","665500ab8938657b03fbdba8","66579222a720deef8acb14c3","843","stimuli/1100000.jpg","1","","prediction_trial","1","","true","","1","true","true","true","true","true","true","[1]","100","000","1","","","","","","",""
"","","","","","image-keyboard-response","315","402525","0.0-290.0","60ff7c8f4f066ccf6fe05587","665500ab8938657b03fbdba8","66579222a720deef8acb14c3","419","stimuli/11000001.jpg"," ","","feedback_trial","1","","","","","","","","","","","","","","","","","","","","",""
"","","","","","image-keyboard-response","316","403968","0.0-291.0","60ff7c8f4f066ccf6fe05587","665500ab8938657b03fbdba8","66579222a720deef8acb14c3","1441","stimuli/0000100.jpg","0","","prediction_trial","0","","true","","0","false","true","true","true","false","true","[0]","000","100","1","","","","","","",""
"","","","","","image-keyboard-response","317","404323","0.0-292.0","60ff7c8f4f066ccf6fe05587","665500ab8938657b03fbdba8","66579222a720deef8acb14c3","353","stimuli/00001000.jpg"," ","","feedback_trial","0","","","","","","","","","","","","","","","","","","","","",""
"","","","","","survey-html-form","318","413936","0.0-293.0","60ff7c8f4f066ccf6fe05587","665500ab8938657b03fbdba8","66579222a720deef8acb14c3","9606","","{""feedback"":"""",""age"":""27"",""gender"":""Female"",""other_gender"":"""",""race"":""White"",""other_race"":"""",""ethnicity"":""Non-Hispanic""}","","exit_survey","","","","","","","","","","","","","","","","","27","Non-Hispanic","Female","White","0.6597222222222222","0.6597222222222222"
