"success","timeout","failed_images","failed_audio","failed_video","trial_type","trial_index","time_elapsed","internal_node_id","prolific_id","prolific_study_id","prolific_session_id","rt","stimulus","response","view_history","trial","character_choice","stimulus_dict","accuracy","correct_response","ball_pos","ego_ball_visible","ego_can_infer","alter_ball_visible","alter_can_infer","collective_ball_visible","collective_can_infer","search_locations","alter_occluders","ego_occluders","accuracy_bool","feedback","age","ethnicity","gender","race","overall_accuracy","bonus"
"true","false","[]","[]","[]","preload","0","13130","0.0-0.0","644a9d92849b27eb99202a91","665500ab8938657b03fbdba8","66579296ecd7a80314f5fd46","","","","","","","","","","","","","","","","","","","","","","","","","","",""
"true","","","","","fullscreen","1","16810","0.0-1.0","644a9d92849b27eb99202a91","665500ab8938657b03fbdba8","66579296ecd7a80314f5fd46","","","","","","","","","","","","","","","","","","","","","","","","","","",""
"","","","","","html-button-response","2","42399","0.0-2.0","644a9d92849b27eb99202a91","665500ab8938657b03fbdba8","66579296ecd7a80314f5fd46","25587","<p><b>Consent Form</b></p> <div style=""text-align:left;background-color:lightgrey; padding:20px; max-width:900px;""><p>Please consider this information carefully before deciding whether to participate in this research.</p> <p>The purpose of this research is to examine which factors influence social judgment and decision-making. You will be asked to make judgements about individuals and actions in social scenarios. We are simply interested in your judgement. The study will take less than 1 hour to complete, and you will receive less than $20 on Prolific. Your compensation and time commitment are specified in the study description. There are no anticipated risks associated with participating in this study. The effects of participating should be comparable to those you would ordinarily experience from viewing a computer monitor and using a mouse or keyboard for a similar amount of time. At the end of the study, we will provide an explanation of the questions that motivate this line of research and will describe the potential implications. </p><p> Your participation in this study is completely voluntary and you may refuse to participate or you may choose to withdraw at any time without penalty or loss of benefits to you which are otherwise entitled. Your participation in this study will remain confidential. No personally identifiable information will be associated with your data. Also, all analyses of the data will be averaged across all the participants, so your individual responses will never be specifically analyzed. </p><p> If you have questions or concerns about your participation or payment, or want to request a summary of research findings, please contact Dr. Jonathan Phillips at Jonathan.S.Phillips@dartmouth.edu. </p><p> Please save a copy of this form for your records. </p><p><b>Agreement: </b>The nature and purpose of this research have been sufficiently explained and I agree to participate in this study. I understand that I am free to withdraw at any time without incurring any penalty. Please consent by clicking the button below to continue. Otherwise, please exit the study at any time. </p>","0","","","","","","","","","","","","","","","","","","","","","","","",""
"","","","","","instructions","3","131403","0.0-3.0-0.0","644a9d92849b27eb99202a91","665500ab8938657b03fbdba8","66579296ecd7a80314f5fd46","89002","","","[{""page_index"":0,""viewing_time"":4696},{""page_index"":1,""viewing_time"":2946},{""page_index"":2,""viewing_time"":2621},{""page_index"":3,""viewing_time"":6228},{""page_index"":4,""viewing_time"":3173},{""page_index"":5,""viewing_time"":3174},{""page_index"":6,""viewing_time"":5187},{""page_index"":7,""viewing_time"":2693},{""page_index"":8,""viewing_time"":4926},{""page_index"":9,""viewing_time"":3222},{""page_index"":10,""viewing_time"":19697},{""page_index"":9,""viewing_time"":2599},{""page_index"":10,""viewing_time"":11904},{""page_index"":11,""viewing_time"":6338},{""page_index"":12,""viewing_time"":7312},{""page_index"":13,""viewing_time"":2286}]","intro","","","","","","","","","","","","","","","","","","","","","",""
"","","","","","image-keyboard-response","4","137218","0.0-3.0-1.0","644a9d92849b27eb99202a91","665500ab8938657b03fbdba8","66579296ecd7a80314f5fd46","5810","stimuli/1111001.jpg","1","","prediction_practice","1","{""filepath"":""stimuli/1111001.jpg"",""ball_pos"":1,""ego_ball_visible"":true,""ego_can_infer"":true,""alter_ball_visible"":false,""alter_can_infer"":false,""collective_ball_visible"":false,""collective_can_infer"":false,""search_locations"":[1,2,0],""alter_occluders"":""111"",""ego_occluders"":""001""}","true","","","","","","","","","","","","","","","","","","",""
"","","","","","image-keyboard-response","5","139723","0.0-3.0-2.0","644a9d92849b27eb99202a91","665500ab8938657b03fbdba8","66579296ecd7a80314f5fd46","2503","stimuli/11110011.jpg"," ","","practrice_feedback","1","","","","","","","","","","","","","","","","","","","","",""
"","","","","","image-keyboard-response","6","143729","0.0-3.0-3.0","644a9d92849b27eb99202a91","665500ab8938657b03fbdba8","66579296ecd7a80314f5fd46","4003","stimuli/2011100.jpg","2","","prediction_practice","2","{""filepath"":""stimuli/2011100.jpg"",""ball_pos"":2,""ego_ball_visible"":true,""ego_can_infer"":true,""alter_ball_visible"":false,""alter_can_infer"":false,""collective_ball_visible"":false,""collective_can_infer"":false,""search_locations"":[2,1],""alter_occluders"":""011"",""ego_occluders"":""100""}","true","","","","","","","","","","","","","","","","","","",""
"","","","","","image-keyboard-response","7","144946","0.0-3.0-4.0","644a9d92849b27eb99202a91","665500ab8938657b03fbdba8","66579296ecd7a80314f5fd46","1213","stimuli/20111002.jpg"," ","","practrice_feedback","2","","","","","","","","","","","","","","","","","","","","",""
"","","","","","image-keyboard-response","8","150074","0.0-3.0-5.0","644a9d92849b27eb99202a91","665500ab8938657b03fbdba8","66579296ecd7a80314f5fd46","5119","stimuli/2111010.jpg","2","","prediction_practice","1","{""filepath"":""stimuli/2111010.jpg"",""ball_pos"":2,""ego_ball_visible"":true,""ego_can_infer"":true,""alter_ball_visible"":false,""alter_can_infer"":false,""collective_ball_visible"":false,""collective_can_infer"":false,""search_locations"":[2,0,1],""alter_occluders"":""111"",""ego_occluders"":""010""}","false","","","","","","","","","","","","","","","","","","",""
"","","","","","image-keyboard-response","9","151705","0.0-3.0-6.0","644a9d92849b27eb99202a91","665500ab8938657b03fbdba8","66579296ecd7a80314f5fd46","1628","stimuli/21110101.jpg"," ","","practrice_feedback","2","","","","","","","","","","","","","","","","","","","","",""
"","","","","","image-keyboard-response","10","153753","0.0-3.0-7.0","644a9d92849b27eb99202a91","665500ab8938657b03fbdba8","66579296ecd7a80314f5fd46","2041","stimuli/1110001.jpg","1","","prediction_practice","1","{""filepath"":""stimuli/1110001.jpg"",""ball_pos"":1,""ego_ball_visible"":true,""ego_can_infer"":true,""alter_ball_visible"":false,""alter_can_infer"":false,""collective_ball_visible"":false,""collective_can_infer"":false,""search_locations"":[1,0],""alter_occluders"":""110"",""ego_occluders"":""001""}","true","","","","","","","","","","","","","","","","","","",""
"","","","","","image-keyboard-response","11","154738","0.0-3.0-8.0","644a9d92849b27eb99202a91","665500ab8938657b03fbdba8","66579296ecd7a80314f5fd46","980","stimuli/11100011.jpg"," ","","practrice_feedback","1","","","","","","","","","","","","","","","","","","","","",""
"","","","","","image-keyboard-response","12","164770","0.0-3.0-9.0","644a9d92849b27eb99202a91","665500ab8938657b03fbdba8","66579296ecd7a80314f5fd46","10024","stimuli/0011101.jpg","2","","prediction_practice","0","{""filepath"":""stimuli/0011101.jpg"",""ball_pos"":0,""ego_ball_visible"":false,""ego_can_infer"":false,""alter_ball_visible"":true,""alter_can_infer"":true,""collective_ball_visible"":false,""collective_can_infer"":false,""search_locations"":[0],""alter_occluders"":""011"",""ego_occluders"":""101""}","false","","","","","","","","","","","","","","","","","","",""
"","","","","","image-keyboard-response","13","165985","0.0-3.0-10.0","644a9d92849b27eb99202a91","665500ab8938657b03fbdba8","66579296ecd7a80314f5fd46","1212","stimuli/00111010.jpg"," ","","practrice_feedback","0","","","","","","","","","","","","","","","","","","","","",""
"","","","","","image-keyboard-response","14","167777","0.0-3.0-11.0","644a9d92849b27eb99202a91","665500ab8938657b03fbdba8","66579296ecd7a80314f5fd46","1790","stimuli/1000000.jpg","1","","prediction_practice","1","{""filepath"":""stimuli/1000000.jpg"",""ball_pos"":1,""ego_ball_visible"":true,""ego_can_infer"":true,""alter_ball_visible"":true,""alter_can_infer"":true,""collective_ball_visible"":true,""collective_can_infer"":true,""search_locations"":[1],""alter_occluders"":""000"",""ego_occluders"":""000""}","true","","","","","","","","","","","","","","","","","","",""
"","","","","","image-keyboard-response","15","168689","0.0-3.0-12.0","644a9d92849b27eb99202a91","665500ab8938657b03fbdba8","66579296ecd7a80314f5fd46","907","stimuli/10000001.jpg"," ","","practrice_feedback","1","","","","","","","","","","","","","","","","","","","","",""
"","","","","","image-keyboard-response","16","170497","0.0-3.0-13.0","644a9d92849b27eb99202a91","665500ab8938657b03fbdba8","66579296ecd7a80314f5fd46","1803","stimuli/0010100.jpg","0","","prediction_practice","0","{""filepath"":""stimuli/0010100.jpg"",""ball_pos"":0,""ego_ball_visible"":false,""ego_can_infer"":true,""alter_ball_visible"":true,""alter_can_infer"":true,""collective_ball_visible"":false,""collective_can_infer"":true,""search_locations"":[0],""alter_occluders"":""010"",""ego_occluders"":""100""}","true","","","","","","","","","","","","","","","","","","",""
"","","","","","image-keyboard-response","17","171368","0.0-3.0-14.0","644a9d92849b27eb99202a91","665500ab8938657b03fbdba8","66579296ecd7a80314f5fd46","868","stimuli/00101000.jpg"," ","","practrice_feedback","0","","","","","","","","","","","","","","","","","","","","",""
"","","","","","image-keyboard-response","18","173770","0.0-3.0-15.0","644a9d92849b27eb99202a91","665500ab8938657b03fbdba8","66579296ecd7a80314f5fd46","2399","stimuli/1100110.jpg","1","","prediction_practice","1","{""filepath"":""stimuli/1100110.jpg"",""ball_pos"":1,""ego_ball_visible"":false,""ego_can_infer"":false,""alter_ball_visible"":true,""alter_can_infer"":true,""collective_ball_visible"":false,""collective_can_infer"":false,""search_locations"":[1],""alter_occluders"":""100"",""ego_occluders"":""110""}","true","","","","","","","","","","","","","","","","","","",""
"","","","","","image-keyboard-response","19","174817","0.0-3.0-16.0","644a9d92849b27eb99202a91","665500ab8938657b03fbdba8","66579296ecd7a80314f5fd46","1042","stimuli/11001101.jpg"," ","","practrice_feedback","1","","","","","","","","","","","","","","","","","","","","",""
"","","","","","image-keyboard-response","20","176819","0.0-3.0-17.0","644a9d92849b27eb99202a91","665500ab8938657b03fbdba8","66579296ecd7a80314f5fd46","1996","stimuli/1000010.jpg","1","","prediction_practice","1","{""filepath"":""stimuli/1000010.jpg"",""ball_pos"":1,""ego_ball_visible"":false,""ego_can_infer"":true,""alter_ball_visible"":true,""alter_can_infer"":true,""collective_ball_visible"":false,""collective_can_infer"":true,""search_locations"":[1],""alter_occluders"":""000"",""ego_occluders"":""010""}","true","","","","","","","","","","","","","","","","","","",""
"","","","","","image-keyboard-response","21","177721","0.0-3.0-18.0","644a9d92849b27eb99202a91","665500ab8938657b03fbdba8","66579296ecd7a80314f5fd46","893","stimuli/10000101.jpg"," ","","practrice_feedback","1","","","","","","","","","","","","","","","","","","","","",""
"","","","","","image-keyboard-response","22","179666","0.0-3.0-19.0","644a9d92849b27eb99202a91","665500ab8938657b03fbdba8","66579296ecd7a80314f5fd46","1937","stimuli/2100100.jpg","2","","prediction_practice","2","{""filepath"":""stimuli/2100100.jpg"",""ball_pos"":2,""ego_ball_visible"":true,""ego_can_infer"":true,""alter_ball_visible"":true,""alter_can_infer"":true,""collective_ball_visible"":true,""collective_can_infer"":true,""search_locations"":[2],""alter_occluders"":""100"",""ego_occluders"":""100""}","true","","","","","","","","","","","","","","","","","","",""
"","","","","","image-keyboard-response","23","180785","0.0-3.0-20.0","644a9d92849b27eb99202a91","665500ab8938657b03fbdba8","66579296ecd7a80314f5fd46","1117","stimuli/21001002.jpg"," ","","practrice_feedback","2","","","","","","","","","","","","","","","","","","","","",""
"","","","","","html-button-response","24","187407","0.0-3.0-21.0","644a9d92849b27eb99202a91","665500ab8938657b03fbdba8","66579296ecd7a80314f5fd46","6621","Now that you've had some practice, you'll be tested with a couple of easy trials. If you correctly predict Sam's choice, you'll move on to complete the experiment!","0","","","","","","","","","","","","","","","","","","","","","","","",""
"","","","","","image-keyboard-response","25","188745","0.0-3.0-22.0-0.0","644a9d92849b27eb99202a91","665500ab8938657b03fbdba8","66579296ecd7a80314f5fd46","1334","stimuli/0000011.jpg","arrowleft","","comprehension_quiz","","","true","arrowleft","","","","","","","","","","","","","","","","","",""
"","","","","","image-keyboard-response","26","190722","0.0-3.0-22.0-1.0","644a9d92849b27eb99202a91","665500ab8938657b03fbdba8","66579296ecd7a80314f5fd46","1974","stimuli/00000110.jpg"," ","","comprehension_quiz","","","true"," ","","","","","","","","","","","","","","","","","",""
"","","","","","image-keyboard-response","27","192307","0.0-3.0-22.0-2.0","644a9d92849b27eb99202a91","665500ab8938657b03fbdba8","66579296ecd7a80314f5fd46","1576","stimuli/1010010.jpg","arrowdown","","comprehension_quiz","","","true","arrowdown","","","","","","","","","","","","","","","","","",""
"","","","","","image-keyboard-response","28","193185","0.0-3.0-22.0-3.0","644a9d92849b27eb99202a91","665500ab8938657b03fbdba8","66579296ecd7a80314f5fd46","869","stimuli/10100101.jpg"," ","","comprehension_quiz","","","true"," ","","","","","","","","","","","","","","","","","",""
"","","","","","html-button-response","29","199317","0.0-4.0","644a9d92849b27eb99202a91","665500ab8938657b03fbdba8","66579296ecd7a80314f5fd46","6130","The experiment will now begin.","0","","","","","","","","","","","","","","","","","","","","","","","",""
"","","","","","image-keyboard-response","30","200954","0.0-5.0","644a9d92849b27eb99202a91","665500ab8938657b03fbdba8","66579296ecd7a80314f5fd46","1632","stimuli/1111011.jpg","2","","prediction_trial","2","","true","","1","false","false","false","false","false","false","[0,2,1]","111","011","1","","","","","","",""
"","","","","","image-keyboard-response","31","202369","0.0-6.0","644a9d92849b27eb99202a91","665500ab8938657b03fbdba8","66579296ecd7a80314f5fd46","1403","stimuli/11110112.jpg"," ","","feedback_trial","0","","","","","","","","","","","","","","","","","","","","",""
"","","","","","image-keyboard-response","32","204321","0.0-7.0","644a9d92849b27eb99202a91","665500ab8938657b03fbdba8","66579296ecd7a80314f5fd46","1948","stimuli/1100101.jpg","0","","prediction_trial","1","","false","","1","true","true","true","true","true","true","[1]","100","101","0","","","","","","",""
"","","","","","image-keyboard-response","33","206009","0.0-8.0","644a9d92849b27eb99202a91","665500ab8938657b03fbdba8","66579296ecd7a80314f5fd46","1685","stimuli/11001011.jpg"," ","","feedback_trial","1","","","","","","","","","","","","","","","","","","","","",""
"","","","","","image-keyboard-response","34","207313","0.0-9.0","644a9d92849b27eb99202a91","665500ab8938657b03fbdba8","66579296ecd7a80314f5fd46","1296","stimuli/0111110.jpg","0","","prediction_trial","2","","false","","0","false","false","false","false","false","false","[0,1,2]","111","110","0","","","","","","",""
"","","","","","image-keyboard-response","35","209098","0.0-10.0","644a9d92849b27eb99202a91","665500ab8938657b03fbdba8","66579296ecd7a80314f5fd46","1781","stimuli/01111102.jpg"," ","","feedback_trial","0","","","","","","","","","","","","","","","","","","","","",""
"","","","","","image-keyboard-response","36","210321","0.0-11.0","644a9d92849b27eb99202a91","665500ab8938657b03fbdba8","66579296ecd7a80314f5fd46","1221","stimuli/2100100.jpg","2","","prediction_trial","2","","true","","2","true","true","true","true","true","true","[2]","100","100","1","","","","","","",""
"","","","","","image-keyboard-response","37","211193","0.0-12.0","644a9d92849b27eb99202a91","665500ab8938657b03fbdba8","66579296ecd7a80314f5fd46","872","stimuli/21001002.jpg"," ","","feedback_trial","2","","","","","","","","","","","","","","","","","","","","",""
"","","","","","image-keyboard-response","38","212250","0.0-13.0","644a9d92849b27eb99202a91","665500ab8938657b03fbdba8","66579296ecd7a80314f5fd46","1054","stimuli/1000101.jpg","1","","prediction_trial","1","","true","","1","true","true","true","true","true","true","[1]","000","101","1","","","","","","",""
"","","","","","image-keyboard-response","39","213083","0.0-14.0","644a9d92849b27eb99202a91","665500ab8938657b03fbdba8","66579296ecd7a80314f5fd46","828","stimuli/10001011.jpg"," ","","feedback_trial","1","","","","","","","","","","","","","","","","","","","","",""
"","","","","","image-keyboard-response","40","215531","0.0-15.0","644a9d92849b27eb99202a91","665500ab8938657b03fbdba8","66579296ecd7a80314f5fd46","2441","stimuli/2111110.jpg","2","","prediction_trial","2","","true","","2","true","true","false","false","false","false","[1,2,0]","111","110","1","","","","","","",""
"","","","","","image-keyboard-response","41","216425","0.0-16.0","644a9d92849b27eb99202a91","665500ab8938657b03fbdba8","66579296ecd7a80314f5fd46","891","stimuli/21111102.jpg"," ","","feedback_trial","1","","","","","","","","","","","","","","","","","","","","",""
"","","","","","image-keyboard-response","42","218321","0.0-17.0","644a9d92849b27eb99202a91","665500ab8938657b03fbdba8","66579296ecd7a80314f5fd46","1886","stimuli/2011010.jpg","2","","prediction_trial","2","","true","","2","true","true","false","false","false","false","[2,1]","011","010","1","","","","","","",""
"","","","","","image-keyboard-response","43","219425","0.0-18.0","644a9d92849b27eb99202a91","665500ab8938657b03fbdba8","66579296ecd7a80314f5fd46","1101","stimuli/20110102.jpg"," ","","feedback_trial","2","","","","","","","","","","","","","","","","","","","","",""
"","","","","","image-keyboard-response","44","220971","0.0-19.0","644a9d92849b27eb99202a91","665500ab8938657b03fbdba8","66579296ecd7a80314f5fd46","1543","stimuli/0100000.jpg","0","","prediction_trial","0","","true","","0","true","true","false","true","false","true","[0]","100","000","1","","","","","","",""
"","","","","","image-keyboard-response","45","221665","0.0-20.0","644a9d92849b27eb99202a91","665500ab8938657b03fbdba8","66579296ecd7a80314f5fd46","688","stimuli/01000000.jpg"," ","","feedback_trial","0","","","","","","","","","","","","","","","","","","","","",""
"","","","","","image-keyboard-response","46","222753","0.0-21.0","644a9d92849b27eb99202a91","665500ab8938657b03fbdba8","66579296ecd7a80314f5fd46","1083","stimuli/1000100.jpg","1","","prediction_trial","1","","true","","1","true","true","true","true","true","true","[1]","000","100","1","","","","","","",""
"","","","","","image-keyboard-response","47","223392","0.0-22.0","644a9d92849b27eb99202a91","665500ab8938657b03fbdba8","66579296ecd7a80314f5fd46","637","stimuli/10001001.jpg"," ","","feedback_trial","1","","","","","","","","","","","","","","","","","","","","",""
"","","","","","image-keyboard-response","48","225426","0.0-23.0","644a9d92849b27eb99202a91","665500ab8938657b03fbdba8","66579296ecd7a80314f5fd46","2029","stimuli/1110000.jpg","1","","prediction_trial","0","","false","","1","true","true","false","false","false","false","[0,1]","110","000","0","","","","","","",""
"","","","","","image-keyboard-response","49","226114","0.0-24.0","644a9d92849b27eb99202a91","665500ab8938657b03fbdba8","66579296ecd7a80314f5fd46","681","stimuli/11100000.jpg"," ","","feedback_trial","0","","","","","","","","","","","","","","","","","","","","",""
"","","","","","image-keyboard-response","50","227354","0.0-25.0","644a9d92849b27eb99202a91","665500ab8938657b03fbdba8","66579296ecd7a80314f5fd46","1237","stimuli/2110100.jpg","2","","prediction_trial","2","","true","","2","true","true","true","true","true","true","[2]","110","100","1","","","","","","",""
"","","","","","image-keyboard-response","51","227843","0.0-26.0","644a9d92849b27eb99202a91","665500ab8938657b03fbdba8","66579296ecd7a80314f5fd46","483","stimuli/21101002.jpg"," ","","feedback_trial","2","","","","","","","","","","","","","","","","","","","","",""
"","","","","","image-keyboard-response","52","229050","0.0-27.0","644a9d92849b27eb99202a91","665500ab8938657b03fbdba8","66579296ecd7a80314f5fd46","1201","stimuli/1100110.jpg","0","","prediction_trial","1","","false","","1","false","false","true","true","false","false","[1]","100","110","0","","","","","","",""
"","","","","","image-keyboard-response","53","230779","0.0-28.0","644a9d92849b27eb99202a91","665500ab8938657b03fbdba8","66579296ecd7a80314f5fd46","1727","stimuli/11001101.jpg"," ","","feedback_trial","1","","","","","","","","","","","","","","","","","","","","",""
"","","","","","image-keyboard-response","54","232738","0.0-29.0","644a9d92849b27eb99202a91","665500ab8938657b03fbdba8","66579296ecd7a80314f5fd46","1952","stimuli/0110111.jpg","2","","prediction_trial","0","","false","","0","false","false","false","false","false","false","[0,1]","110","111","0","","","","","","",""
"","","","","","image-keyboard-response","55","233533","0.0-30.0","644a9d92849b27eb99202a91","665500ab8938657b03fbdba8","66579296ecd7a80314f5fd46","791","stimuli/01101110.jpg"," ","","feedback_trial","0","","","","","","","","","","","","","","","","","","","","",""
"","","","","","image-keyboard-response","56","234865","0.0-31.0","644a9d92849b27eb99202a91","665500ab8938657b03fbdba8","66579296ecd7a80314f5fd46","1327","stimuli/2001001.jpg","2","","prediction_trial","2","","true","","2","false","true","false","true","false","true","[2]","001","001","1","","","","","","",""
"","","","","","image-keyboard-response","57","236819","0.0-32.0","644a9d92849b27eb99202a91","665500ab8938657b03fbdba8","66579296ecd7a80314f5fd46","1945","stimuli/20010012.jpg"," ","","feedback_trial","2","","","","","","","","","","","","","","","","","","","","",""
"","","","","","image-keyboard-response","58","238081","0.0-33.0","644a9d92849b27eb99202a91","665500ab8938657b03fbdba8","66579296ecd7a80314f5fd46","1256","stimuli/2010100.jpg","2","","prediction_trial","2","","true","","2","true","true","true","true","true","true","[2]","010","100","1","","","","","","",""
"","","","","","image-keyboard-response","59","238841","0.0-34.0","644a9d92849b27eb99202a91","665500ab8938657b03fbdba8","66579296ecd7a80314f5fd46","755","stimuli/20101002.jpg"," ","","feedback_trial","2","","","","","","","","","","","","","","","","","","","","",""
"","","","","","image-keyboard-response","60","239793","0.0-35.0","644a9d92849b27eb99202a91","665500ab8938657b03fbdba8","66579296ecd7a80314f5fd46","950","stimuli/0011010.jpg","0","","prediction_trial","0","","true","","0","true","true","true","true","true","true","[0]","011","010","1","","","","","","",""
"","","","","","image-keyboard-response","61","240577","0.0-36.0","644a9d92849b27eb99202a91","665500ab8938657b03fbdba8","66579296ecd7a80314f5fd46","779","stimuli/00110100.jpg"," ","","feedback_trial","0","","","","","","","","","","","","","","","","","","","","",""
"","","","","","image-keyboard-response","62","242347","0.0-37.0","644a9d92849b27eb99202a91","665500ab8938657b03fbdba8","66579296ecd7a80314f5fd46","1762","stimuli/2011101.jpg","0","","prediction_trial","1","","false","","2","false","false","false","false","false","false","[1,2]","011","101","0","","","","","","",""
"","","","","","image-keyboard-response","63","243401","0.0-38.0","644a9d92849b27eb99202a91","665500ab8938657b03fbdba8","66579296ecd7a80314f5fd46","1050","stimuli/20111011.jpg"," ","","feedback_trial","1","","","","","","","","","","","","","","","","","","","","",""
"","","","","","image-keyboard-response","64","247817","0.0-39.0","644a9d92849b27eb99202a91","665500ab8938657b03fbdba8","66579296ecd7a80314f5fd46","4412","stimuli/2001101.jpg","0","","prediction_trial","2","","false","","2","false","false","false","true","false","false","[2]","001","101","0","","","","","","",""
"","","","","","image-keyboard-response","65","248642","0.0-40.0","644a9d92849b27eb99202a91","665500ab8938657b03fbdba8","66579296ecd7a80314f5fd46","820","stimuli/20011012.jpg"," ","","feedback_trial","2","","","","","","","","","","","","","","","","","","","","",""
"","","","","","image-keyboard-response","66","249905","0.0-41.0","644a9d92849b27eb99202a91","665500ab8938657b03fbdba8","66579296ecd7a80314f5fd46","1256","stimuli/2101110.jpg","2","","prediction_trial","2","","true","","2","true","true","false","false","false","false","[0,2]","101","110","1","","","","","","",""
"","","","","","image-keyboard-response","67","250513","0.0-42.0","644a9d92849b27eb99202a91","665500ab8938657b03fbdba8","66579296ecd7a80314f5fd46","604","stimuli/21011102.jpg"," ","","feedback_trial","0","","","","","","","","","","","","","","","","","","","","",""
"","","","","","image-keyboard-response","68","252324","0.0-43.0","644a9d92849b27eb99202a91","665500ab8938657b03fbdba8","66579296ecd7a80314f5fd46","1804","stimuli/1010100.jpg","1","","prediction_trial","1","","true","","1","true","true","false","true","false","true","[1]","010","100","1","","","","","","",""
"","","","","","image-keyboard-response","69","253313","0.0-44.0","644a9d92849b27eb99202a91","665500ab8938657b03fbdba8","66579296ecd7a80314f5fd46","979","stimuli/10101001.jpg"," ","","feedback_trial","1","","","","","","","","","","","","","","","","","","","","",""
"","","","","","image-keyboard-response","70","254274","0.0-45.0","644a9d92849b27eb99202a91","665500ab8938657b03fbdba8","66579296ecd7a80314f5fd46","955","stimuli/0110000.jpg","0","","prediction_trial","1","","false","","0","true","true","false","false","false","false","[1,0]","110","000","0","","","","","","",""
"","","","","","image-keyboard-response","71","254923","0.0-46.0","644a9d92849b27eb99202a91","665500ab8938657b03fbdba8","66579296ecd7a80314f5fd46","635","stimuli/01100001.jpg"," ","","feedback_trial","1","","","","","","","","","","","","","","","","","","","","",""
"","","","","","image-keyboard-response","72","256018","0.0-47.0","644a9d92849b27eb99202a91","665500ab8938657b03fbdba8","66579296ecd7a80314f5fd46","1086","stimuli/0010001.jpg","0","","prediction_trial","0","","true","","0","true","true","true","true","true","true","[0]","010","001","1","","","","","","",""
"","","","","","image-keyboard-response","73","256475","0.0-48.0","644a9d92849b27eb99202a91","665500ab8938657b03fbdba8","66579296ecd7a80314f5fd46","452","stimuli/00100010.jpg"," ","","feedback_trial","0","","","","","","","","","","","","","","","","","","","","",""
"","","","","","image-keyboard-response","74","257666","0.0-49.0","644a9d92849b27eb99202a91","665500ab8938657b03fbdba8","66579296ecd7a80314f5fd46","1184","stimuli/0001111.jpg","1","","prediction_trial","0","","false","","0","false","false","true","true","false","false","[0]","001","111","0","","","","","","",""
"","","","","","image-keyboard-response","75","258393","0.0-50.0","644a9d92849b27eb99202a91","665500ab8938657b03fbdba8","66579296ecd7a80314f5fd46","717","stimuli/00011110.jpg"," ","","feedback_trial","0","","","","","","","","","","","","","","","","","","","","",""
"","","","","","image-keyboard-response","76","260666","0.0-51.0","644a9d92849b27eb99202a91","665500ab8938657b03fbdba8","66579296ecd7a80314f5fd46","2270","stimuli/1011001.jpg","1","","prediction_trial","1","","true","","1","true","true","false","false","false","false","[1,2]","011","001","1","","","","","","",""
"","","","","","image-keyboard-response","77","261754","0.0-52.0","644a9d92849b27eb99202a91","665500ab8938657b03fbdba8","66579296ecd7a80314f5fd46","1084","stimuli/10110011.jpg"," ","","feedback_trial","1","","","","","","","","","","","","","","","","","","","","",""
"","","","","","image-keyboard-response","78","262777","0.0-53.0","644a9d92849b27eb99202a91","665500ab8938657b03fbdba8","66579296ecd7a80314f5fd46","1014","stimuli/2011100.jpg","2","","prediction_trial","1","","false","","2","true","true","false","false","false","false","[2,1]","011","100","0","","","","","","",""
"","","","","","image-keyboard-response","79","263646","0.0-54.0","644a9d92849b27eb99202a91","665500ab8938657b03fbdba8","66579296ecd7a80314f5fd46","864","stimuli/20111001.jpg"," ","","feedback_trial","2","","","","","","","","","","","","","","","","","","","","",""
"","","","","","image-keyboard-response","80","264882","0.0-55.0","644a9d92849b27eb99202a91","665500ab8938657b03fbdba8","66579296ecd7a80314f5fd46","1227","stimuli/0011110.jpg","1","","prediction_trial","0","","false","","0","false","false","true","true","false","false","[0]","011","110","0","","","","","","",""
"","","","","","image-keyboard-response","81","266618","0.0-56.0","644a9d92849b27eb99202a91","665500ab8938657b03fbdba8","66579296ecd7a80314f5fd46","1728","stimuli/00111100.jpg"," ","","feedback_trial","0","","","","","","","","","","","","","","","","","","","","",""
"","","","","","image-keyboard-response","82","268931","0.0-57.0","644a9d92849b27eb99202a91","665500ab8938657b03fbdba8","66579296ecd7a80314f5fd46","2307","stimuli/0101110.jpg","1","","prediction_trial","2","","false","","0","false","false","false","false","false","false","[2,0]","101","110","0","","","","","","",""
"","","","","","image-keyboard-response","83","270657","0.0-58.0","644a9d92849b27eb99202a91","665500ab8938657b03fbdba8","66579296ecd7a80314f5fd46","1717","stimuli/01011102.jpg"," ","","feedback_trial","2","","","","","","","","","","","","","","","","","","","","",""
"","","","","","image-keyboard-response","84","272481","0.0-59.0","644a9d92849b27eb99202a91","665500ab8938657b03fbdba8","66579296ecd7a80314f5fd46","1820","stimuli/2010001.jpg","2","","prediction_trial","2","","true","","2","false","true","true","true","false","true","[2]","010","001","1","","","","","","",""
"","","","","","image-keyboard-response","85","273322","0.0-60.0","644a9d92849b27eb99202a91","665500ab8938657b03fbdba8","66579296ecd7a80314f5fd46","837","stimuli/20100012.jpg"," ","","feedback_trial","2","","","","","","","","","","","","","","","","","","","","",""
"","","","","","image-keyboard-response","86","276251","0.0-61.0","644a9d92849b27eb99202a91","665500ab8938657b03fbdba8","66579296ecd7a80314f5fd46","2924","stimuli/2101010.jpg","2","","prediction_trial","2","","true","","2","true","true","false","false","false","false","[2,0]","101","010","1","","","","","","",""
"","","","","","image-keyboard-response","87","276786","0.0-62.0","644a9d92849b27eb99202a91","665500ab8938657b03fbdba8","66579296ecd7a80314f5fd46","531","stimuli/21010102.jpg"," ","","feedback_trial","2","","","","","","","","","","","","","","","","","","","","",""
"","","","","","image-keyboard-response","88","277818","0.0-63.0","644a9d92849b27eb99202a91","665500ab8938657b03fbdba8","66579296ecd7a80314f5fd46","1032","stimuli/0000011.jpg","0","","prediction_trial","0","","true","","0","true","true","true","true","true","true","[0]","000","011","1","","","","","","",""
"","","","","","image-keyboard-response","89","278300","0.0-64.0","644a9d92849b27eb99202a91","665500ab8938657b03fbdba8","66579296ecd7a80314f5fd46","480","stimuli/00000110.jpg"," ","","feedback_trial","0","","","","","","","","","","","","","","","","","","","","",""
"","","","","","image-keyboard-response","90","279698","0.0-65.0","644a9d92849b27eb99202a91","665500ab8938657b03fbdba8","66579296ecd7a80314f5fd46","1393","stimuli/0000101.jpg","2","","prediction_trial","0","","false","","0","false","false","true","true","false","false","[0]","000","101","0","","","","","","",""
"","","","","","image-keyboard-response","91","280329","0.0-66.0","644a9d92849b27eb99202a91","665500ab8938657b03fbdba8","66579296ecd7a80314f5fd46","623","stimuli/00001010.jpg"," ","","feedback_trial","0","","","","","","","","","","","","","","","","","","","","",""
"","","","","","image-keyboard-response","92","282154","0.0-67.0","644a9d92849b27eb99202a91","665500ab8938657b03fbdba8","66579296ecd7a80314f5fd46","1814","stimuli/1100010.jpg","1","","prediction_trial","1","","true","","1","false","true","true","true","false","true","[1]","100","010","1","","","","","","",""
"","","","","","image-keyboard-response","93","282689","0.0-68.0","644a9d92849b27eb99202a91","665500ab8938657b03fbdba8","66579296ecd7a80314f5fd46","525","stimuli/11000101.jpg"," ","","feedback_trial","1","","","","","","","","","","","","","","","","","","","","",""
"","","","","","image-keyboard-response","94","283610","0.0-69.0","644a9d92849b27eb99202a91","665500ab8938657b03fbdba8","66579296ecd7a80314f5fd46","912","stimuli/2110000.jpg","2","","prediction_trial","2","","true","","2","true","true","true","true","true","true","[2]","110","000","1","","","","","","",""
"","","","","","image-keyboard-response","95","284145","0.0-70.0","644a9d92849b27eb99202a91","665500ab8938657b03fbdba8","66579296ecd7a80314f5fd46","529","stimuli/21100002.jpg"," ","","feedback_trial","2","","","","","","","","","","","","","","","","","","","","",""
"","","","","","image-keyboard-response","96","285092","0.0-71.0","644a9d92849b27eb99202a91","665500ab8938657b03fbdba8","66579296ecd7a80314f5fd46","941","stimuli/0010010.jpg","0","","prediction_trial","0","","true","","0","true","true","true","true","true","true","[0]","010","010","1","","","","","","",""
"","","","","","image-keyboard-response","97","285562","0.0-72.0","644a9d92849b27eb99202a91","665500ab8938657b03fbdba8","66579296ecd7a80314f5fd46","457","stimuli/00100100.jpg"," ","","feedback_trial","0","","","","","","","","","","","","","","","","","","","","",""
"","","","","","image-keyboard-response","98","286699","0.0-73.0","644a9d92849b27eb99202a91","665500ab8938657b03fbdba8","66579296ecd7a80314f5fd46","1127","stimuli/0001010.jpg","0","","prediction_trial","0","","true","","0","true","true","true","true","true","true","[0]","001","010","1","","","","","","",""
"","","","","","image-keyboard-response","99","287057","0.0-74.0","644a9d92849b27eb99202a91","665500ab8938657b03fbdba8","66579296ecd7a80314f5fd46","349","stimuli/00010100.jpg"," ","","feedback_trial","0","","","","","","","","","","","","","","","","","","","","",""
"","","","","","image-keyboard-response","100","288786","0.0-75.0","644a9d92849b27eb99202a91","665500ab8938657b03fbdba8","66579296ecd7a80314f5fd46","1723","stimuli/2010101.jpg","2","","prediction_trial","2","","true","","2","false","false","true","true","false","false","[2]","010","101","1","","","","","","",""
"","","","","","image-keyboard-response","101","289513","0.0-76.0","644a9d92849b27eb99202a91","665500ab8938657b03fbdba8","66579296ecd7a80314f5fd46","723","stimuli/20101012.jpg"," ","","feedback_trial","2","","","","","","","","","","","","","","","","","","","","",""
"","","","","","image-keyboard-response","102","290457","0.0-77.0","644a9d92849b27eb99202a91","665500ab8938657b03fbdba8","66579296ecd7a80314f5fd46","941","stimuli/0000001.jpg","0","","prediction_trial","0","","true","","0","true","true","true","true","true","true","[0]","000","001","1","","","","","","",""
"","","","","","image-keyboard-response","103","290890","0.0-78.0","644a9d92849b27eb99202a91","665500ab8938657b03fbdba8","66579296ecd7a80314f5fd46","426","stimuli/00000010.jpg"," ","","feedback_trial","0","","","","","","","","","","","","","","","","","","","","",""
"","","","","","image-keyboard-response","104","292153","0.0-79.0","644a9d92849b27eb99202a91","665500ab8938657b03fbdba8","66579296ecd7a80314f5fd46","1260","stimuli/2111000.jpg","2","","prediction_trial","1","","false","","2","true","true","false","false","false","false","[1,2,0]","111","000","0","","","","","","",""
"","","","","","image-keyboard-response","105","292859","0.0-80.0","644a9d92849b27eb99202a91","665500ab8938657b03fbdba8","66579296ecd7a80314f5fd46","701","stimuli/21110001.jpg"," ","","feedback_trial","1","","","","","","","","","","","","","","","","","","","","",""
"","","","","","image-keyboard-response","106","294368","0.0-81.0","644a9d92849b27eb99202a91","665500ab8938657b03fbdba8","66579296ecd7a80314f5fd46","1507","stimuli/2010111.jpg","0","","prediction_trial","2","","false","","2","false","false","true","true","false","false","[2]","010","111","0","","","","","","",""
"","","","","","image-keyboard-response","107","295218","0.0-82.0","644a9d92849b27eb99202a91","665500ab8938657b03fbdba8","66579296ecd7a80314f5fd46","845","stimuli/20101112.jpg"," ","","feedback_trial","2","","","","","","","","","","","","","","","","","","","","",""
"","","","","","image-keyboard-response","108","296513","0.0-83.0","644a9d92849b27eb99202a91","665500ab8938657b03fbdba8","66579296ecd7a80314f5fd46","1291","stimuli/2000010.jpg","2","","prediction_trial","2","","true","","2","true","true","true","true","true","true","[2]","000","010","1","","","","","","",""
"","","","","","image-keyboard-response","109","297321","0.0-84.0","644a9d92849b27eb99202a91","665500ab8938657b03fbdba8","66579296ecd7a80314f5fd46","804","stimuli/20000102.jpg"," ","","feedback_trial","2","","","","","","","","","","","","","","","","","","","","",""
"","","","","","image-keyboard-response","110","298619","0.0-85.0","644a9d92849b27eb99202a91","665500ab8938657b03fbdba8","66579296ecd7a80314f5fd46","1293","stimuli/0010101.jpg","0","","prediction_trial","0","","true","","0","false","false","true","true","false","false","[0]","010","101","1","","","","","","",""
"","","","","","image-keyboard-response","111","299345","0.0-86.0","644a9d92849b27eb99202a91","665500ab8938657b03fbdba8","66579296ecd7a80314f5fd46","723","stimuli/00101010.jpg"," ","","feedback_trial","0","","","","","","","","","","","","","","","","","","","","",""
"","","","","","image-keyboard-response","112","300721","0.0-87.0","644a9d92849b27eb99202a91","665500ab8938657b03fbdba8","66579296ecd7a80314f5fd46","1372","stimuli/0000110.jpg","1","","prediction_trial","0","","false","","0","false","false","true","true","false","false","[0]","000","110","0","","","","","","",""
"","","","","","image-keyboard-response","113","301330","0.0-88.0","644a9d92849b27eb99202a91","665500ab8938657b03fbdba8","66579296ecd7a80314f5fd46","606","stimuli/00001100.jpg"," ","","feedback_trial","0","","","","","","","","","","","","","","","","","","","","",""
"","","","","","image-keyboard-response","114","302809","0.0-89.0","644a9d92849b27eb99202a91","665500ab8938657b03fbdba8","66579296ecd7a80314f5fd46","1474","stimuli/1010110.jpg","1","","prediction_trial","1","","true","","1","false","false","false","true","false","false","[1]","010","110","1","","","","","","",""
"","","","","","image-keyboard-response","115","303441","0.0-90.0","644a9d92849b27eb99202a91","665500ab8938657b03fbdba8","66579296ecd7a80314f5fd46","629","stimuli/10101101.jpg"," ","","feedback_trial","1","","","","","","","","","","","","","","","","","","","","",""
"","","","","","image-keyboard-response","116","304634","0.0-91.0","644a9d92849b27eb99202a91","665500ab8938657b03fbdba8","66579296ecd7a80314f5fd46","1190","stimuli/2110111.jpg","0","","prediction_trial","2","","false","","2","false","false","true","true","false","false","[2]","110","111","0","","","","","","",""
"","","","","","image-keyboard-response","117","305241","0.0-92.0","644a9d92849b27eb99202a91","665500ab8938657b03fbdba8","66579296ecd7a80314f5fd46","603","stimuli/21101112.jpg"," ","","feedback_trial","2","","","","","","","","","","","","","","","","","","","","",""
"","","","","","image-keyboard-response","118","306849","0.0-93.0","644a9d92849b27eb99202a91","665500ab8938657b03fbdba8","66579296ecd7a80314f5fd46","1604","stimuli/2110001.jpg","2","","prediction_trial","2","","true","","2","false","true","true","true","false","true","[2]","110","001","1","","","","","","",""
"","","","","","image-keyboard-response","119","307250","0.0-94.0","644a9d92849b27eb99202a91","665500ab8938657b03fbdba8","66579296ecd7a80314f5fd46","387","stimuli/21100012.jpg"," ","","feedback_trial","2","","","","","","","","","","","","","","","","","","","","",""
"","","","","","image-keyboard-response","120","308266","0.0-95.0","644a9d92849b27eb99202a91","665500ab8938657b03fbdba8","66579296ecd7a80314f5fd46","999","stimuli/1111000.jpg","1","","prediction_trial","1","","true","","1","true","true","false","false","false","false","[2,1,0]","111","000","1","","","","","","",""
"","","","","","image-keyboard-response","121","308897","0.0-96.0","644a9d92849b27eb99202a91","665500ab8938657b03fbdba8","66579296ecd7a80314f5fd46","627","stimuli/11110001.jpg"," ","","feedback_trial","2","","","","","","","","","","","","","","","","","","","","",""
"","","","","","image-keyboard-response","122","310401","0.0-97.0","644a9d92849b27eb99202a91","665500ab8938657b03fbdba8","66579296ecd7a80314f5fd46","1500","stimuli/1101010.jpg","1","","prediction_trial","1","","true","","1","false","true","true","true","false","true","[1]","101","010","1","","","","","","",""
"","","","","","image-keyboard-response","123","310786","0.0-98.0","644a9d92849b27eb99202a91","665500ab8938657b03fbdba8","66579296ecd7a80314f5fd46","378","stimuli/11010101.jpg"," ","","feedback_trial","1","","","","","","","","","","","","","","","","","","","","",""
"","","","","","image-keyboard-response","124","311794","0.0-99.0","644a9d92849b27eb99202a91","665500ab8938657b03fbdba8","66579296ecd7a80314f5fd46","997","stimuli/0101010.jpg","0","","prediction_trial","0","","true","","0","true","true","false","false","false","false","[0,2]","101","010","1","","","","","","",""
"","","","","","image-keyboard-response","125","312210","0.0-100.0","644a9d92849b27eb99202a91","665500ab8938657b03fbdba8","66579296ecd7a80314f5fd46","403","stimuli/01010100.jpg"," ","","feedback_trial","0","","","","","","","","","","","","","","","","","","","","",""
"","","","","","image-keyboard-response","126","314114","0.0-101.0","644a9d92849b27eb99202a91","665500ab8938657b03fbdba8","66579296ecd7a80314f5fd46","1895","stimuli/1010010.jpg","1","","prediction_trial","1","","true","","1","false","true","false","true","false","true","[1]","010","010","1","","","","","","",""
"","","","","","image-keyboard-response","127","314561","0.0-102.0","644a9d92849b27eb99202a91","665500ab8938657b03fbdba8","66579296ecd7a80314f5fd46","444","stimuli/10100101.jpg"," ","","feedback_trial","1","","","","","","","","","","","","","","","","","","","","",""
"","","","","","image-keyboard-response","128","316656","0.0-103.0","644a9d92849b27eb99202a91","665500ab8938657b03fbdba8","66579296ecd7a80314f5fd46","2093","stimuli/2001011.jpg","2","","prediction_trial","2","","true","","2","false","false","false","true","false","false","[2]","001","011","1","","","","","","",""
"","","","","","image-keyboard-response","129","317065","0.0-104.0","644a9d92849b27eb99202a91","665500ab8938657b03fbdba8","66579296ecd7a80314f5fd46","404","stimuli/20010112.jpg"," ","","feedback_trial","2","","","","","","","","","","","","","","","","","","","","",""
"","","","","","image-keyboard-response","130","318146","0.0-105.0","644a9d92849b27eb99202a91","665500ab8938657b03fbdba8","66579296ecd7a80314f5fd46","1076","stimuli/0010000.jpg","0","","prediction_trial","0","","true","","0","true","true","true","true","true","true","[0]","010","000","1","","","","","","",""
"","","","","","image-keyboard-response","131","318505","0.0-106.0","644a9d92849b27eb99202a91","665500ab8938657b03fbdba8","66579296ecd7a80314f5fd46","356","stimuli/00100000.jpg"," ","","feedback_trial","0","","","","","","","","","","","","","","","","","","","","",""
"","","","","","image-keyboard-response","132","320521","0.0-107.0","644a9d92849b27eb99202a91","665500ab8938657b03fbdba8","66579296ecd7a80314f5fd46","2013","stimuli/1011111.jpg","1","","prediction_trial","2","","false","","1","false","false","false","false","false","false","[2,1]","011","111","0","","","","","","",""
"","","","","","image-keyboard-response","133","321010","0.0-108.0","644a9d92849b27eb99202a91","665500ab8938657b03fbdba8","66579296ecd7a80314f5fd46","486","stimuli/10111112.jpg"," ","","feedback_trial","2","","","","","","","","","","","","","","","","","","","","",""
"","","","","","image-keyboard-response","134","323002","0.0-109.0","644a9d92849b27eb99202a91","665500ab8938657b03fbdba8","66579296ecd7a80314f5fd46","1984","stimuli/2111011.jpg","1","","prediction_trial","1","","true","","2","false","false","false","false","false","false","[0,2,1]","111","011","1","","","","","","",""
"","","","","","image-keyboard-response","135","323394","0.0-110.0","644a9d92849b27eb99202a91","665500ab8938657b03fbdba8","66579296ecd7a80314f5fd46","388","stimuli/21110111.jpg"," ","","feedback_trial","0","","","","","","","","","","","","","","","","","","","","",""
"","","","","","image-keyboard-response","136","325658","0.0-111.0","644a9d92849b27eb99202a91","665500ab8938657b03fbdba8","66579296ecd7a80314f5fd46","2260","stimuli/0000111.jpg","1","","prediction_trial","0","","false","","0","false","false","true","true","false","false","[0]","000","111","0","","","","","","",""
"","","","","","image-keyboard-response","137","326210","0.0-112.0","644a9d92849b27eb99202a91","665500ab8938657b03fbdba8","66579296ecd7a80314f5fd46","549","stimuli/00001110.jpg"," ","","feedback_trial","0","","","","","","","","","","","","","","","","","","","","",""
"","","","","","image-keyboard-response","138","327298","0.0-113.0","644a9d92849b27eb99202a91","665500ab8938657b03fbdba8","66579296ecd7a80314f5fd46","1081","stimuli/2000110.jpg","2","","prediction_trial","2","","true","","2","true","true","true","true","true","true","[2]","000","110","1","","","","","","",""
"","","","","","image-keyboard-response","139","327825","0.0-114.0","644a9d92849b27eb99202a91","665500ab8938657b03fbdba8","66579296ecd7a80314f5fd46","524","stimuli/20001102.jpg"," ","","feedback_trial","2","","","","","","","","","","","","","","","","","","","","",""
"","","","","","image-keyboard-response","140","329769","0.0-115.0","644a9d92849b27eb99202a91","665500ab8938657b03fbdba8","66579296ecd7a80314f5fd46","1936","stimuli/0110010.jpg","0","","prediction_trial","0","","true","","0","true","true","false","false","false","false","[1,0]","110","010","1","","","","","","",""
"","","","","","image-keyboard-response","141","330450","0.0-116.0","644a9d92849b27eb99202a91","665500ab8938657b03fbdba8","66579296ecd7a80314f5fd46","673","stimuli/01100100.jpg"," ","","feedback_trial","1","","","","","","","","","","","","","","","","","","","","",""
"","","","","","image-keyboard-response","142","331537","0.0-117.0","644a9d92849b27eb99202a91","665500ab8938657b03fbdba8","66579296ecd7a80314f5fd46","1080","stimuli/0000000.jpg","0","","prediction_trial","0","","true","","0","true","true","true","true","true","true","[0]","000","000","1","","","","","","",""
"","","","","","image-keyboard-response","143","332082","0.0-118.0","644a9d92849b27eb99202a91","665500ab8938657b03fbdba8","66579296ecd7a80314f5fd46","540","stimuli/00000000.jpg"," ","","feedback_trial","0","","","","","","","","","","","","","","","","","","","","",""
"","","","","","image-keyboard-response","144","333066","0.0-119.0","644a9d92849b27eb99202a91","665500ab8938657b03fbdba8","66579296ecd7a80314f5fd46","981","stimuli/0011011.jpg","0","","prediction_trial","0","","true","","0","true","true","true","true","true","true","[0]","011","011","1","","","","","","",""
"","","","","","image-keyboard-response","145","333514","0.0-120.0","644a9d92849b27eb99202a91","665500ab8938657b03fbdba8","66579296ecd7a80314f5fd46","445","stimuli/00110110.jpg"," ","","feedback_trial","0","","","","","","","","","","","","","","","","","","","","",""
"","","","","","image-keyboard-response","146","334529","0.0-121.0","644a9d92849b27eb99202a91","665500ab8938657b03fbdba8","66579296ecd7a80314f5fd46","1011","stimuli/1000010.jpg","1","","prediction_trial","1","","true","","1","false","true","true","true","false","true","[1]","000","010","1","","","","","","",""
"","","","","","image-keyboard-response","147","334882","0.0-122.0","644a9d92849b27eb99202a91","665500ab8938657b03fbdba8","66579296ecd7a80314f5fd46","348","stimuli/10000101.jpg"," ","","feedback_trial","1","","","","","","","","","","","","","","","","","","","","",""
"","","","","","image-keyboard-response","148","336289","0.0-123.0","644a9d92849b27eb99202a91","665500ab8938657b03fbdba8","66579296ecd7a80314f5fd46","1393","stimuli/2010011.jpg","2","","prediction_trial","2","","true","","2","false","false","true","true","false","false","[2]","010","011","1","","","","","","",""
"","","","","","image-keyboard-response","149","336834","0.0-124.0","644a9d92849b27eb99202a91","665500ab8938657b03fbdba8","66579296ecd7a80314f5fd46","540","stimuli/20100112.jpg"," ","","feedback_trial","2","","","","","","","","","","","","","","","","","","","","",""
"","","","","","image-keyboard-response","150","337681","0.0-125.0","644a9d92849b27eb99202a91","665500ab8938657b03fbdba8","66579296ecd7a80314f5fd46","842","stimuli/1001100.jpg","1","","prediction_trial","1","","true","","1","true","true","true","true","true","true","[1]","001","100","1","","","","","","",""
"","","","","","image-keyboard-response","151","338139","0.0-126.0","644a9d92849b27eb99202a91","665500ab8938657b03fbdba8","66579296ecd7a80314f5fd46","453","stimuli/10011001.jpg"," ","","feedback_trial","1","","","","","","","","","","","","","","","","","","","","",""
"","","","","","image-keyboard-response","152","338921","0.0-127.0","644a9d92849b27eb99202a91","665500ab8938657b03fbdba8","66579296ecd7a80314f5fd46","778","stimuli/1000001.jpg","1","","prediction_trial","1","","true","","1","true","true","true","true","true","true","[1]","000","001","1","","","","","","",""
"","","","","","image-keyboard-response","153","339346","0.0-128.0","644a9d92849b27eb99202a91","665500ab8938657b03fbdba8","66579296ecd7a80314f5fd46","421","stimuli/10000011.jpg"," ","","feedback_trial","1","","","","","","","","","","","","","","","","","","","","",""
"","","","","","image-keyboard-response","154","340282","0.0-129.0","644a9d92849b27eb99202a91","665500ab8938657b03fbdba8","66579296ecd7a80314f5fd46","933","stimuli/1100111.jpg","1","","prediction_trial","1","","true","","1","false","false","true","true","false","false","[1]","100","111","1","","","","","","",""
"","","","","","image-keyboard-response","155","340683","0.0-130.0","644a9d92849b27eb99202a91","665500ab8938657b03fbdba8","66579296ecd7a80314f5fd46","396","stimuli/11001111.jpg"," ","","feedback_trial","1","","","","","","","","","","","","","","","","","","","","",""
"","","","","","image-keyboard-response","156","342641","0.0-131.0","644a9d92849b27eb99202a91","665500ab8938657b03fbdba8","66579296ecd7a80314f5fd46","1953","stimuli/0100101.jpg","2","","prediction_trial","0","","false","","0","false","false","false","true","false","false","[0]","100","101","0","","","","","","",""
"","","","","","image-keyboard-response","157","343434","0.0-132.0","644a9d92849b27eb99202a91","665500ab8938657b03fbdba8","66579296ecd7a80314f5fd46","789","stimuli/01001010.jpg"," ","","feedback_trial","0","","","","","","","","","","","","","","","","","","","","",""
"","","","","","image-keyboard-response","158","344602","0.0-133.0","644a9d92849b27eb99202a91","665500ab8938657b03fbdba8","66579296ecd7a80314f5fd46","1165","stimuli/0111101.jpg","0","","prediction_trial","2","","false","","0","false","false","false","false","false","false","[0,1,2]","111","101","0","","","","","","",""
"","","","","","image-keyboard-response","159","345234","0.0-134.0","644a9d92849b27eb99202a91","665500ab8938657b03fbdba8","66579296ecd7a80314f5fd46","627","stimuli/01111012.jpg"," ","","feedback_trial","0","","","","","","","","","","","","","","","","","","","","",""
"","","","","","image-keyboard-response","160","346611","0.0-135.0","644a9d92849b27eb99202a91","665500ab8938657b03fbdba8","66579296ecd7a80314f5fd46","1373","stimuli/2010000.jpg","2","","prediction_trial","2","","true","","2","true","true","true","true","true","true","[2]","010","000","1","","","","","","",""
"","","","","","image-keyboard-response","161","347026","0.0-136.0","644a9d92849b27eb99202a91","665500ab8938657b03fbdba8","66579296ecd7a80314f5fd46","410","stimuli/20100002.jpg"," ","","feedback_trial","2","","","","","","","","","","","","","","","","","","","","",""
"","","","","","image-keyboard-response","162","348810","0.0-137.0","644a9d92849b27eb99202a91","665500ab8938657b03fbdba8","66579296ecd7a80314f5fd46","1779","stimuli/1110010.jpg","1","","prediction_trial","0","","false","","1","false","true","false","false","false","false","[1,0]","110","010","0","","","","","","",""
"","","","","","image-keyboard-response","163","349842","0.0-138.0","644a9d92849b27eb99202a91","665500ab8938657b03fbdba8","66579296ecd7a80314f5fd46","1028","stimuli/11100100.jpg"," ","","feedback_trial","1","","","","","","","","","","","","","","","","","","","","",""
"","","","","","image-keyboard-response","164","351777","0.0-139.0","644a9d92849b27eb99202a91","665500ab8938657b03fbdba8","66579296ecd7a80314f5fd46","1931","stimuli/1110100.jpg","1","","prediction_trial","1","","true","","1","true","true","false","false","false","false","[1,0]","110","100","1","","","","","","",""
"","","","","","image-keyboard-response","165","352505","0.0-140.0","644a9d92849b27eb99202a91","665500ab8938657b03fbdba8","66579296ecd7a80314f5fd46","726","stimuli/11101001.jpg"," ","","feedback_trial","1","","","","","","","","","","","","","","","","","","","","",""
"","","","","","image-keyboard-response","166","354242","0.0-141.0","644a9d92849b27eb99202a91","665500ab8938657b03fbdba8","66579296ecd7a80314f5fd46","1729","stimuli/0010110.jpg","1","","prediction_trial","0","","false","","0","false","false","true","true","false","false","[0]","010","110","0","","","","","","",""
"","","","","","image-keyboard-response","167","354881","0.0-142.0","644a9d92849b27eb99202a91","665500ab8938657b03fbdba8","66579296ecd7a80314f5fd46","635","stimuli/00101100.jpg"," ","","feedback_trial","0","","","","","","","","","","","","","","","","","","","","",""
"","","","","","image-keyboard-response","168","357002","0.0-143.0","644a9d92849b27eb99202a91","665500ab8938657b03fbdba8","66579296ecd7a80314f5fd46","2116","stimuli/2111001.jpg","2","","prediction_trial","1","","false","","2","false","true","false","false","false","false","[1,0,2]","111","001","0","","","","","","",""
"","","","","","image-keyboard-response","169","357770","0.0-144.0","644a9d92849b27eb99202a91","665500ab8938657b03fbdba8","66579296ecd7a80314f5fd46","764","stimuli/21110011.jpg"," ","","feedback_trial","1","","","","","","","","","","","","","","","","","","","","",""
"","","","","","image-keyboard-response","170","358618","0.0-145.0","644a9d92849b27eb99202a91","665500ab8938657b03fbdba8","66579296ecd7a80314f5fd46","845","stimuli/0100010.jpg","0","","prediction_trial","0","","true","","0","true","true","false","true","false","true","[0]","100","010","1","","","","","","",""
"","","","","","image-keyboard-response","171","359105","0.0-146.0","644a9d92849b27eb99202a91","665500ab8938657b03fbdba8","66579296ecd7a80314f5fd46","482","stimuli/01000100.jpg"," ","","feedback_trial","0","","","","","","","","","","","","","","","","","","","","",""
"","","","","","image-keyboard-response","172","359985","0.0-147.0","644a9d92849b27eb99202a91","665500ab8938657b03fbdba8","66579296ecd7a80314f5fd46","877","stimuli/2000111.jpg","1","","prediction_trial","2","","false","","2","false","false","true","true","false","false","[2]","000","111","0","","","","","","",""
"","","","","","image-keyboard-response","173","360721","0.0-148.0","644a9d92849b27eb99202a91","665500ab8938657b03fbdba8","66579296ecd7a80314f5fd46","731","stimuli/20001112.jpg"," ","","feedback_trial","2","","","","","","","","","","","","","","","","","","","","",""
"","","","","","image-keyboard-response","174","362154","0.0-149.0","644a9d92849b27eb99202a91","665500ab8938657b03fbdba8","66579296ecd7a80314f5fd46","1429","stimuli/1101111.jpg","1","","prediction_trial","1","","true","","1","false","false","true","true","false","false","[1]","101","111","1","","","","","","",""
"","","","","","image-keyboard-response","175","363249","0.0-150.0","644a9d92849b27eb99202a91","665500ab8938657b03fbdba8","66579296ecd7a80314f5fd46","1087","stimuli/11011111.jpg"," ","","feedback_trial","1","","","","","","","","","","","","","","","","","","","","",""
"","","","","","image-keyboard-response","176","364514","0.0-151.0","644a9d92849b27eb99202a91","665500ab8938657b03fbdba8","66579296ecd7a80314f5fd46","1261","stimuli/2101101.jpg","2","","prediction_trial","0","","false","","2","false","false","false","false","false","false","[0,2]","101","101","0","","","","","","",""
"","","","","","image-keyboard-response","177","365026","0.0-152.0","644a9d92849b27eb99202a91","665500ab8938657b03fbdba8","66579296ecd7a80314f5fd46","503","stimuli/21011010.jpg"," ","","feedback_trial","0","","","","","","","","","","","","","","","","","","","","",""
"","","","","","image-keyboard-response","178","366825","0.0-153.0","644a9d92849b27eb99202a91","665500ab8938657b03fbdba8","66579296ecd7a80314f5fd46","1794","stimuli/1000011.jpg","2","","prediction_trial","1","","false","","1","false","false","true","true","false","false","[1]","000","011","0","","","","","","",""
"","","","","","image-keyboard-response","179","367370","0.0-154.0","644a9d92849b27eb99202a91","665500ab8938657b03fbdba8","66579296ecd7a80314f5fd46","540","stimuli/10000111.jpg"," ","","feedback_trial","1","","","","","","","","","","","","","","","","","","","","",""
"","","","","","image-keyboard-response","180","368498","0.0-155.0","644a9d92849b27eb99202a91","665500ab8938657b03fbdba8","66579296ecd7a80314f5fd46","1121","stimuli/0101101.jpg","0","","prediction_trial","0","","true","","0","false","false","false","false","false","false","[2,0]","101","101","1","","","","","","",""
"","","","","","image-keyboard-response","181","368833","0.0-156.0","644a9d92849b27eb99202a91","665500ab8938657b03fbdba8","66579296ecd7a80314f5fd46","323","stimuli/01011010.jpg"," ","","feedback_trial","2","","","","","","","","","","","","","","","","","","","","",""
"","","","","","image-keyboard-response","182","372993","0.0-157.0","644a9d92849b27eb99202a91","665500ab8938657b03fbdba8","66579296ecd7a80314f5fd46","4155","stimuli/0101001.jpg","0","","prediction_trial","2","","false","","0","true","true","false","false","false","false","[0,2]","101","001","0","","","","","","",""
"","","","","","image-keyboard-response","183","374026","0.0-158.0","644a9d92849b27eb99202a91","665500ab8938657b03fbdba8","66579296ecd7a80314f5fd46","1029","stimuli/01010012.jpg"," ","","feedback_trial","0","","","","","","","","","","","","","","","","","","","","",""
"","","","","","image-keyboard-response","184","376082","0.0-159.0","644a9d92849b27eb99202a91","665500ab8938657b03fbdba8","66579296ecd7a80314f5fd46","2044","stimuli/0111000.jpg","1","","prediction_trial","0","","false","","0","true","true","false","false","false","false","[1,2,0]","111","000","0","","","","","","",""
"","","","","","image-keyboard-response","185","376794","0.0-160.0","644a9d92849b27eb99202a91","665500ab8938657b03fbdba8","66579296ecd7a80314f5fd46","708","stimuli/01110000.jpg"," ","","feedback_trial","1","","","","","","","","","","","","","","","","","","","","",""
"","","","","","image-keyboard-response","186","377913","0.0-161.0","644a9d92849b27eb99202a91","665500ab8938657b03fbdba8","66579296ecd7a80314f5fd46","1117","stimuli/2111010.jpg","2","","prediction_trial","2","","true","","2","true","true","false","false","false","false","[2,0,1]","111","010","1","","","","","","",""
"","","","","","image-keyboard-response","187","378385","0.0-162.0","644a9d92849b27eb99202a91","665500ab8938657b03fbdba8","66579296ecd7a80314f5fd46","468","stimuli/21110102.jpg"," ","","feedback_trial","2","","","","","","","","","","","","","","","","","","","","",""
"","","","","","image-keyboard-response","188","380065","0.0-163.0","644a9d92849b27eb99202a91","665500ab8938657b03fbdba8","66579296ecd7a80314f5fd46","1677","stimuli/2110011.jpg","2","","prediction_trial","2","","true","","2","false","false","true","true","false","false","[2]","110","011","1","","","","","","",""
"","","","","","image-keyboard-response","189","380434","0.0-164.0","644a9d92849b27eb99202a91","665500ab8938657b03fbdba8","66579296ecd7a80314f5fd46","364","stimuli/21100112.jpg"," ","","feedback_trial","2","","","","","","","","","","","","","","","","","","","","",""
"","","","","","image-keyboard-response","190","381322","0.0-165.0","644a9d92849b27eb99202a91","665500ab8938657b03fbdba8","66579296ecd7a80314f5fd46","885","stimuli/0111011.jpg","0","","prediction_trial","1","","false","","0","true","true","false","false","false","false","[0,2,1]","111","011","0","","","","","","",""
"","","","","","image-keyboard-response","191","381867","0.0-166.0","644a9d92849b27eb99202a91","665500ab8938657b03fbdba8","66579296ecd7a80314f5fd46","541","stimuli/01110111.jpg"," ","","feedback_trial","0","","","","","","","","","","","","","","","","","","","","",""
"","","","","","image-keyboard-response","192","382763","0.0-167.0","644a9d92849b27eb99202a91","665500ab8938657b03fbdba8","66579296ecd7a80314f5fd46","893","stimuli/2110110.jpg","2","","prediction_trial","2","","true","","2","true","true","true","true","true","true","[2]","110","110","1","","","","","","",""
"","","","","","image-keyboard-response","193","383153","0.0-168.0","644a9d92849b27eb99202a91","665500ab8938657b03fbdba8","66579296ecd7a80314f5fd46","386","stimuli/21101102.jpg"," ","","feedback_trial","2","","","","","","","","","","","","","","","","","","","","",""
"","","","","","image-keyboard-response","194","386705","0.0-169.0","644a9d92849b27eb99202a91","665500ab8938657b03fbdba8","66579296ecd7a80314f5fd46","3547","stimuli/0010100.jpg","0","","prediction_trial","0","","true","","0","false","true","true","true","false","true","[0]","010","100","1","","","","","","",""
"","","","","","image-keyboard-response","195","387050","0.0-170.0","644a9d92849b27eb99202a91","665500ab8938657b03fbdba8","66579296ecd7a80314f5fd46","342","stimuli/00101000.jpg"," ","","feedback_trial","0","","","","","","","","","","","","","","","","","","","","",""
"","","","","","image-keyboard-response","196","388266","0.0-171.0","644a9d92849b27eb99202a91","665500ab8938657b03fbdba8","66579296ecd7a80314f5fd46","1209","stimuli/0101100.jpg","0","","prediction_trial","2","","false","","0","false","true","false","false","false","false","[2,0]","101","100","0","","","","","","",""
"","","","","","image-keyboard-response","197","388834","0.0-172.0","644a9d92849b27eb99202a91","665500ab8938657b03fbdba8","66579296ecd7a80314f5fd46","562","stimuli/01011002.jpg"," ","","feedback_trial","2","","","","","","","","","","","","","","","","","","","","",""
"","","","","","image-keyboard-response","198","389822","0.0-173.0","644a9d92849b27eb99202a91","665500ab8938657b03fbdba8","66579296ecd7a80314f5fd46","982","stimuli/1110111.jpg","0","","prediction_trial","1","","false","","1","false","false","false","false","false","false","[0,1]","110","111","0","","","","","","",""
"","","","","","image-keyboard-response","199","390187","0.0-174.0","644a9d92849b27eb99202a91","665500ab8938657b03fbdba8","66579296ecd7a80314f5fd46","361","stimuli/11101111.jpg"," ","","feedback_trial","0","","","","","","","","","","","","","","","","","","","","",""
"","","","","","image-keyboard-response","200","390945","0.0-175.0","644a9d92849b27eb99202a91","665500ab8938657b03fbdba8","66579296ecd7a80314f5fd46","746","stimuli/1000110.jpg","0","","prediction_trial","1","","false","","1","false","false","true","true","false","false","[1]","000","110","0","","","","","","",""
"","","","","","image-keyboard-response","201","391324","0.0-176.0","644a9d92849b27eb99202a91","665500ab8938657b03fbdba8","66579296ecd7a80314f5fd46","375","stimuli/10001101.jpg"," ","","feedback_trial","1","","","","","","","","","","","","","","","","","","","","",""
"","","","","","image-keyboard-response","202","392569","0.0-177.0","644a9d92849b27eb99202a91","665500ab8938657b03fbdba8","66579296ecd7a80314f5fd46","1241","stimuli/0010111.jpg","2","","prediction_trial","0","","false","","0","false","false","true","true","false","false","[0]","010","111","0","","","","","","",""
"","","","","","image-keyboard-response","203","392994","0.0-178.0","644a9d92849b27eb99202a91","665500ab8938657b03fbdba8","66579296ecd7a80314f5fd46","420","stimuli/00101110.jpg"," ","","feedback_trial","0","","","","","","","","","","","","","","","","","","","","",""
"","","","","","image-keyboard-response","204","394002","0.0-179.0","644a9d92849b27eb99202a91","665500ab8938657b03fbdba8","66579296ecd7a80314f5fd46","1001","stimuli/1110101.jpg","1","","prediction_trial","1","","true","","1","true","true","false","false","false","false","[0,1]","110","101","1","","","","","","",""
"","","","","","image-keyboard-response","205","394690","0.0-180.0","644a9d92849b27eb99202a91","665500ab8938657b03fbdba8","66579296ecd7a80314f5fd46","684","stimuli/11101011.jpg"," ","","feedback_trial","0","","","","","","","","","","","","","","","","","","","","",""
"","","","","","image-keyboard-response","206","395481","0.0-181.0","644a9d92849b27eb99202a91","665500ab8938657b03fbdba8","66579296ecd7a80314f5fd46","785","stimuli/0100011.jpg","0","","prediction_trial","0","","true","","0","true","true","false","true","false","true","[0]","100","011","1","","","","","","",""
"","","","","","image-keyboard-response","207","395915","0.0-182.0","644a9d92849b27eb99202a91","665500ab8938657b03fbdba8","66579296ecd7a80314f5fd46","430","stimuli/01000110.jpg"," ","","feedback_trial","0","","","","","","","","","","","","","","","","","","","","",""
"","","","","","image-keyboard-response","208","397265","0.0-183.0","644a9d92849b27eb99202a91","665500ab8938657b03fbdba8","66579296ecd7a80314f5fd46","1347","stimuli/0100100.jpg","0","","prediction_trial","0","","true","","0","false","true","false","true","false","true","[0]","100","100","1","","","","","","",""
"","","","","","image-keyboard-response","209","397626","0.0-184.0","644a9d92849b27eb99202a91","665500ab8938657b03fbdba8","66579296ecd7a80314f5fd46","357","stimuli/01001000.jpg"," ","","feedback_trial","0","","","","","","","","","","","","","","","","","","","","",""
"","","","","","image-keyboard-response","210","398547","0.0-185.0","644a9d92849b27eb99202a91","665500ab8938657b03fbdba8","66579296ecd7a80314f5fd46","916","stimuli/2000001.jpg","2","","prediction_trial","2","","true","","2","false","true","true","true","false","true","[2]","000","001","1","","","","","","",""
"","","","","","image-keyboard-response","211","398930","0.0-186.0","644a9d92849b27eb99202a91","665500ab8938657b03fbdba8","66579296ecd7a80314f5fd46","374","stimuli/20000012.jpg"," ","","feedback_trial","2","","","","","","","","","","","","","","","","","","","","",""
"","","","","","image-keyboard-response","212","399842","0.0-187.0","644a9d92849b27eb99202a91","665500ab8938657b03fbdba8","66579296ecd7a80314f5fd46","900","stimuli/0011100.jpg","0","","prediction_trial","0","","true","","0","false","true","true","true","false","true","[0]","011","100","1","","","","","","",""
"","","","","","image-keyboard-response","213","400225","0.0-188.0","644a9d92849b27eb99202a91","665500ab8938657b03fbdba8","66579296ecd7a80314f5fd46","377","stimuli/00111000.jpg"," ","","feedback_trial","0","","","","","","","","","","","","","","","","","","","","",""
"","","","","","image-keyboard-response","214","401065","0.0-189.0","644a9d92849b27eb99202a91","665500ab8938657b03fbdba8","66579296ecd7a80314f5fd46","833","stimuli/2000000.jpg","2","","prediction_trial","2","","true","","2","true","true","true","true","true","true","[2]","000","000","1","","","","","","",""
"","","","","","image-keyboard-response","215","401457","0.0-190.0","644a9d92849b27eb99202a91","665500ab8938657b03fbdba8","66579296ecd7a80314f5fd46","389","stimuli/20000002.jpg"," ","","feedback_trial","2","","","","","","","","","","","","","","","","","","","","",""
"","","","","","image-keyboard-response","216","402817","0.0-191.0","644a9d92849b27eb99202a91","665500ab8938657b03fbdba8","66579296ecd7a80314f5fd46","1355","stimuli/2101100.jpg","2","","prediction_trial","0","","false","","2","true","true","false","false","false","false","[2,0]","101","100","0","","","","","","",""
"","","","","","image-keyboard-response","217","403658","0.0-192.0","644a9d92849b27eb99202a91","665500ab8938657b03fbdba8","66579296ecd7a80314f5fd46","836","stimuli/21011000.jpg"," ","","feedback_trial","2","","","","","","","","","","","","","","","","","","","","",""
"","","","","","image-keyboard-response","218","404602","0.0-193.0","644a9d92849b27eb99202a91","665500ab8938657b03fbdba8","66579296ecd7a80314f5fd46","941","stimuli/0111100.jpg","0","","prediction_trial","0","","true","","0","false","true","false","false","false","false","[0,1,2]","111","100","1","","","","","","",""
"","","","","","image-keyboard-response","219","405009","0.0-194.0","644a9d92849b27eb99202a91","665500ab8938657b03fbdba8","66579296ecd7a80314f5fd46","405","stimuli/01111000.jpg"," ","","feedback_trial","0","","","","","","","","","","","","","","","","","","","","",""
"","","","","","image-keyboard-response","220","406529","0.0-195.0","644a9d92849b27eb99202a91","665500ab8938657b03fbdba8","66579296ecd7a80314f5fd46","1516","stimuli/2111100.jpg","2","","prediction_trial","0","","false","","2","true","true","false","false","false","false","[2,0,1]","111","100","0","","","","","","",""
"","","","","","image-keyboard-response","221","407146","0.0-196.0","644a9d92849b27eb99202a91","665500ab8938657b03fbdba8","66579296ecd7a80314f5fd46","612","stimuli/21111000.jpg"," ","","feedback_trial","2","","","","","","","","","","","","","","","","","","","","",""
"","","","","","image-keyboard-response","222","408579","0.0-197.0","644a9d92849b27eb99202a91","665500ab8938657b03fbdba8","66579296ecd7a80314f5fd46","1429","stimuli/2011111.jpg","1","","prediction_trial","2","","false","","2","false","false","false","false","false","false","[1,2]","011","111","0","","","","","","",""
"","","","","","image-keyboard-response","223","409298","0.0-198.0","644a9d92849b27eb99202a91","665500ab8938657b03fbdba8","66579296ecd7a80314f5fd46","710","stimuli/20111112.jpg"," ","","feedback_trial","1","","","","","","","","","","","","","","","","","","","","",""
"","","","","","image-keyboard-response","224","410225","0.0-199.0","644a9d92849b27eb99202a91","665500ab8938657b03fbdba8","66579296ecd7a80314f5fd46","925","stimuli/1001101.jpg","1","","prediction_trial","1","","true","","1","true","true","true","true","true","true","[1]","001","101","1","","","","","","",""
"","","","","","image-keyboard-response","225","410633","0.0-200.0","644a9d92849b27eb99202a91","665500ab8938657b03fbdba8","66579296ecd7a80314f5fd46","404","stimuli/10011011.jpg"," ","","feedback_trial","1","","","","","","","","","","","","","","","","","","","","",""
"","","","","","image-keyboard-response","226","411409","0.0-201.0","644a9d92849b27eb99202a91","665500ab8938657b03fbdba8","66579296ecd7a80314f5fd46","772","stimuli/0111010.jpg","0","","prediction_trial","0","","true","","0","true","true","false","false","false","false","[0,1,2]","111","010","1","","","","","","",""
"","","","","","image-keyboard-response","227","411785","0.0-202.0","644a9d92849b27eb99202a91","665500ab8938657b03fbdba8","66579296ecd7a80314f5fd46","372","stimuli/01110100.jpg"," ","","feedback_trial","0","","","","","","","","","","","","","","","","","","","","",""
"","","","","","image-keyboard-response","228","412601","0.0-203.0","644a9d92849b27eb99202a91","665500ab8938657b03fbdba8","66579296ecd7a80314f5fd46","813","stimuli/2001100.jpg","2","","prediction_trial","2","","true","","2","true","true","false","true","false","true","[2]","001","100","1","","","","","","",""
"","","","","","image-keyboard-response","229","413028","0.0-204.0","644a9d92849b27eb99202a91","665500ab8938657b03fbdba8","66579296ecd7a80314f5fd46","425","stimuli/20011002.jpg"," ","","feedback_trial","2","","","","","","","","","","","","","","","","","","","","",""
"","","","","","image-keyboard-response","230","414378","0.0-205.0","644a9d92849b27eb99202a91","665500ab8938657b03fbdba8","66579296ecd7a80314f5fd46","1343","stimuli/1001011.jpg","1","","prediction_trial","1","","true","","1","false","false","true","true","false","false","[1]","001","011","1","","","","","","",""
"","","","","","image-keyboard-response","231","414810","0.0-206.0","644a9d92849b27eb99202a91","665500ab8938657b03fbdba8","66579296ecd7a80314f5fd46","429","stimuli/10010111.jpg"," ","","feedback_trial","1","","","","","","","","","","","","","","","","","","","","",""
"","","","","","image-keyboard-response","232","416129","0.0-207.0","644a9d92849b27eb99202a91","665500ab8938657b03fbdba8","66579296ecd7a80314f5fd46","1314","stimuli/2100001.jpg","2","","prediction_trial","2","","true","","2","false","true","true","true","false","true","[2]","100","001","1","","","","","","",""
"","","","","","image-keyboard-response","233","416563","0.0-208.0","644a9d92849b27eb99202a91","665500ab8938657b03fbdba8","66579296ecd7a80314f5fd46","430","stimuli/21000012.jpg"," ","","feedback_trial","2","","","","","","","","","","","","","","","","","","","","",""
"","","","","","image-keyboard-response","234","418731","0.0-209.0","644a9d92849b27eb99202a91","665500ab8938657b03fbdba8","66579296ecd7a80314f5fd46","2160","stimuli/2101001.jpg","2","","prediction_trial","0","","false","","2","false","true","false","false","false","false","[2,0]","101","001","0","","","","","","",""
"","","","","","image-keyboard-response","235","420729","0.0-210.0","644a9d92849b27eb99202a91","665500ab8938657b03fbdba8","66579296ecd7a80314f5fd46","1993","stimuli/21010010.jpg"," ","","feedback_trial","2","","","","","","","","","","","","","","","","","","","","",""
"","","","","","image-keyboard-response","236","423057","0.0-211.0","644a9d92849b27eb99202a91","665500ab8938657b03fbdba8","66579296ecd7a80314f5fd46","2323","stimuli/0001101.jpg","2","","prediction_trial","0","","false","","0","false","false","true","true","false","false","[0]","001","101","0","","","","","","",""
"","","","","","image-keyboard-response","237","423682","0.0-212.0","644a9d92849b27eb99202a91","665500ab8938657b03fbdba8","66579296ecd7a80314f5fd46","621","stimuli/00011010.jpg"," ","","feedback_trial","0","","","","","","","","","","","","","","","","","","","","",""
"","","","","","image-keyboard-response","238","426001","0.0-213.0","644a9d92849b27eb99202a91","665500ab8938657b03fbdba8","66579296ecd7a80314f5fd46","2315","stimuli/1100100.jpg","0","","prediction_trial","1","","false","","1","true","true","true","true","true","true","[1]","100","100","0","","","","","","",""
"","","","","","image-keyboard-response","239","427891","0.0-214.0","644a9d92849b27eb99202a91","665500ab8938657b03fbdba8","66579296ecd7a80314f5fd46","1883","stimuli/11001001.jpg"," ","","feedback_trial","1","","","","","","","","","","","","","","","","","","","","",""
"","","","","","image-keyboard-response","240","428785","0.0-215.0","644a9d92849b27eb99202a91","665500ab8938657b03fbdba8","66579296ecd7a80314f5fd46","890","stimuli/1111111.jpg","0","","prediction_trial","0","","true","","1","false","false","false","false","false","false","[2,1,0]","111","111","1","","","","","","",""
"","","","","","image-keyboard-response","241","429369","0.0-216.0","644a9d92849b27eb99202a91","665500ab8938657b03fbdba8","66579296ecd7a80314f5fd46","581","stimuli/11111110.jpg"," ","","feedback_trial","2","","","","","","","","","","","","","","","","","","","","",""
"","","","","","image-keyboard-response","242","430353","0.0-217.0","644a9d92849b27eb99202a91","665500ab8938657b03fbdba8","66579296ecd7a80314f5fd46","980","stimuli/0000010.jpg","0","","prediction_trial","0","","true","","0","true","true","true","true","true","true","[0]","000","010","1","","","","","","",""
"","","","","","image-keyboard-response","243","430682","0.0-218.0","644a9d92849b27eb99202a91","665500ab8938657b03fbdba8","66579296ecd7a80314f5fd46","323","stimuli/00000100.jpg"," ","","feedback_trial","0","","","","","","","","","","","","","","","","","","","","",""
"","","","","","image-keyboard-response","244","431489","0.0-219.0","644a9d92849b27eb99202a91","665500ab8938657b03fbdba8","66579296ecd7a80314f5fd46","797","stimuli/0011001.jpg","0","","prediction_trial","0","","true","","0","true","true","true","true","true","true","[0]","011","001","1","","","","","","",""
"","","","","","image-keyboard-response","245","431795","0.0-220.0","644a9d92849b27eb99202a91","665500ab8938657b03fbdba8","66579296ecd7a80314f5fd46","302","stimuli/00110010.jpg"," ","","feedback_trial","0","","","","","","","","","","","","","","","","","","","","",""
"","","","","","image-keyboard-response","246","433265","0.0-221.0","644a9d92849b27eb99202a91","665500ab8938657b03fbdba8","66579296ecd7a80314f5fd46","1462","stimuli/0111001.jpg","1","","prediction_trial","2","","false","","0","true","true","false","false","false","false","[2,0,1]","111","001","0","","","","","","",""
"","","","","","image-keyboard-response","247","433801","0.0-222.0","644a9d92849b27eb99202a91","665500ab8938657b03fbdba8","66579296ecd7a80314f5fd46","528","stimuli/01110012.jpg"," ","","feedback_trial","2","","","","","","","","","","","","","","","","","","","","",""
"","","","","","image-keyboard-response","248","435147","0.0-223.0","644a9d92849b27eb99202a91","665500ab8938657b03fbdba8","66579296ecd7a80314f5fd46","1342","stimuli/1011011.jpg","1","","prediction_trial","2","","false","","1","false","false","false","false","false","false","[2,1]","011","011","0","","","","","","",""
"","","","","","image-keyboard-response","249","435938","0.0-224.0","644a9d92849b27eb99202a91","665500ab8938657b03fbdba8","66579296ecd7a80314f5fd46","786","stimuli/10110112.jpg"," ","","feedback_trial","2","","","","","","","","","","","","","","","","","","","","",""
"","","","","","image-keyboard-response","250","437281","0.0-225.0","644a9d92849b27eb99202a91","665500ab8938657b03fbdba8","66579296ecd7a80314f5fd46","1340","stimuli/1101011.jpg","1","","prediction_trial","1","","true","","1","false","false","true","true","false","false","[1]","101","011","1","","","","","","",""
"","","","","","image-keyboard-response","251","437977","0.0-226.0","644a9d92849b27eb99202a91","665500ab8938657b03fbdba8","66579296ecd7a80314f5fd46","692","stimuli/11010111.jpg"," ","","feedback_trial","1","","","","","","","","","","","","","","","","","","","","",""
"","","","","","image-keyboard-response","252","438825","0.0-227.0","644a9d92849b27eb99202a91","665500ab8938657b03fbdba8","66579296ecd7a80314f5fd46","844","stimuli/1100000.jpg","1","","prediction_trial","1","","true","","1","true","true","true","true","true","true","[1]","100","000","1","","","","","","",""
"","","","","","image-keyboard-response","253","439233","0.0-228.0","644a9d92849b27eb99202a91","665500ab8938657b03fbdba8","66579296ecd7a80314f5fd46","404","stimuli/11000001.jpg"," ","","feedback_trial","1","","","","","","","","","","","","","","","","","","","","",""
"","","","","","image-keyboard-response","254","440043","0.0-229.0","644a9d92849b27eb99202a91","665500ab8938657b03fbdba8","66579296ecd7a80314f5fd46","802","stimuli/0100001.jpg","0","","prediction_trial","0","","true","","0","true","true","false","true","false","true","[0]","100","001","1","","","","","","",""
"","","","","","image-keyboard-response","255","440530","0.0-230.0","644a9d92849b27eb99202a91","665500ab8938657b03fbdba8","66579296ecd7a80314f5fd46","482","stimuli/01000010.jpg"," ","","feedback_trial","0","","","","","","","","","","","","","","","","","","","","",""
"","","","","","image-keyboard-response","256","441393","0.0-231.0","644a9d92849b27eb99202a91","665500ab8938657b03fbdba8","66579296ecd7a80314f5fd46","857","stimuli/2010110.jpg","2","","prediction_trial","2","","true","","2","true","true","true","true","true","true","[2]","010","110","1","","","","","","",""
"","","","","","image-keyboard-response","257","441761","0.0-232.0","644a9d92849b27eb99202a91","665500ab8938657b03fbdba8","66579296ecd7a80314f5fd46","365","stimuli/20101102.jpg"," ","","feedback_trial","2","","","","","","","","","","","","","","","","","","","","",""
"","","","","","image-keyboard-response","258","442481","0.0-233.0","644a9d92849b27eb99202a91","665500ab8938657b03fbdba8","66579296ecd7a80314f5fd46","716","stimuli/1110001.jpg","1","","prediction_trial","1","","true","","1","true","true","false","false","false","false","[1,0]","110","001","1","","","","","","",""
"","","","","","image-keyboard-response","259","442866","0.0-234.0","644a9d92849b27eb99202a91","665500ab8938657b03fbdba8","66579296ecd7a80314f5fd46","381","stimuli/11100011.jpg"," ","","feedback_trial","1","","","","","","","","","","","","","","","","","","","","",""
"","","","","","image-keyboard-response","260","443562","0.0-235.0","644a9d92849b27eb99202a91","665500ab8938657b03fbdba8","66579296ecd7a80314f5fd46","690","stimuli/1101001.jpg","1","","prediction_trial","1","","true","","1","true","true","true","true","true","true","[1]","101","001","1","","","","","","",""
"","","","","","image-keyboard-response","261","443898","0.0-236.0","644a9d92849b27eb99202a91","665500ab8938657b03fbdba8","66579296ecd7a80314f5fd46","328","stimuli/11010011.jpg"," ","","feedback_trial","1","","","","","","","","","","","","","","","","","","","","",""
"","","","","","image-keyboard-response","262","444546","0.0-237.0","644a9d92849b27eb99202a91","665500ab8938657b03fbdba8","66579296ecd7a80314f5fd46","644","stimuli/1111100.jpg","1","","prediction_trial","2","","false","","1","true","true","false","false","false","false","[2,1,0]","111","100","0","","","","","","",""
"","","","","","image-keyboard-response","263","445329","0.0-238.0","644a9d92849b27eb99202a91","665500ab8938657b03fbdba8","66579296ecd7a80314f5fd46","780","stimuli/11111002.jpg"," ","","feedback_trial","2","","","","","","","","","","","","","","","","","","","","",""
"","","","","","image-keyboard-response","264","446442","0.0-239.0","644a9d92849b27eb99202a91","665500ab8938657b03fbdba8","66579296ecd7a80314f5fd46","1109","stimuli/1100001.jpg","1","","prediction_trial","1","","true","","1","true","true","true","true","true","true","[1]","100","001","1","","","","","","",""
"","","","","","image-keyboard-response","265","446874","0.0-240.0","644a9d92849b27eb99202a91","665500ab8938657b03fbdba8","66579296ecd7a80314f5fd46","428","stimuli/11000011.jpg"," ","","feedback_trial","1","","","","","","","","","","","","","","","","","","","","",""
"","","","","","image-keyboard-response","266","447826","0.0-241.0","644a9d92849b27eb99202a91","665500ab8938657b03fbdba8","66579296ecd7a80314f5fd46","942","stimuli/1011100.jpg","0","","prediction_trial","2","","false","","1","true","true","false","false","false","false","[2,1]","011","100","0","","","","","","",""
"","","","","","image-keyboard-response","267","449353","0.0-242.0","644a9d92849b27eb99202a91","665500ab8938657b03fbdba8","66579296ecd7a80314f5fd46","1522","stimuli/10111002.jpg"," ","","feedback_trial","2","","","","","","","","","","","","","","","","","","","","",""
"","","","","","image-keyboard-response","268","451066","0.0-243.0","644a9d92849b27eb99202a91","665500ab8938657b03fbdba8","66579296ecd7a80314f5fd46","1710","stimuli/0001100.jpg","0","","prediction_trial","0","","true","","0","false","true","true","true","false","true","[0]","001","100","1","","","","","","",""
"","","","","","image-keyboard-response","269","451585","0.0-244.0","644a9d92849b27eb99202a91","665500ab8938657b03fbdba8","66579296ecd7a80314f5fd46","516","stimuli/00011000.jpg"," ","","feedback_trial","0","","","","","","","","","","","","","","","","","","","","",""
"","","","","","image-keyboard-response","270","452297","0.0-245.0","644a9d92849b27eb99202a91","665500ab8938657b03fbdba8","66579296ecd7a80314f5fd46","708","stimuli/1101101.jpg","1","","prediction_trial","1","","true","","1","true","true","true","true","true","true","[1]","101","101","1","","","","","","",""
"","","","","","image-keyboard-response","271","452665","0.0-246.0","644a9d92849b27eb99202a91","665500ab8938657b03fbdba8","66579296ecd7a80314f5fd46","365","stimuli/11011011.jpg"," ","","feedback_trial","1","","","","","","","","","","","","","","","","","","","","",""
"","","","","","image-keyboard-response","272","453841","0.0-247.0","644a9d92849b27eb99202a91","665500ab8938657b03fbdba8","66579296ecd7a80314f5fd46","1172","stimuli/0110011.jpg","1","","prediction_trial","1","","true","","0","true","true","false","false","false","false","[1,0]","110","011","1","","","","","","",""
"","","","","","image-keyboard-response","273","454258","0.0-248.0","644a9d92849b27eb99202a91","665500ab8938657b03fbdba8","66579296ecd7a80314f5fd46","414","stimuli/01100111.jpg"," ","","feedback_trial","1","","","","","","","","","","","","","","","","","","","","",""
"","","","","","image-keyboard-response","274","455521","0.0-249.0","644a9d92849b27eb99202a91","665500ab8938657b03fbdba8","66579296ecd7a80314f5fd46","1259","stimuli/0011111.jpg","0","","prediction_trial","0","","true","","0","false","false","true","true","false","false","[0]","011","111","1","","","","","","",""
"","","","","","image-keyboard-response","275","455850","0.0-250.0","644a9d92849b27eb99202a91","665500ab8938657b03fbdba8","66579296ecd7a80314f5fd46","325","stimuli/00111110.jpg"," ","","feedback_trial","0","","","","","","","","","","","","","","","","","","","","",""
"","","","","","image-keyboard-response","276","456723","0.0-251.0","644a9d92849b27eb99202a91","665500ab8938657b03fbdba8","66579296ecd7a80314f5fd46","867","stimuli/0110001.jpg","0","","prediction_trial","1","","false","","0","true","true","false","false","false","false","[0,1]","110","001","0","","","","","","",""
"","","","","","image-keyboard-response","277","458235","0.0-252.0","644a9d92849b27eb99202a91","665500ab8938657b03fbdba8","66579296ecd7a80314f5fd46","1505","stimuli/01100011.jpg"," ","","feedback_trial","0","","","","","","","","","","","","","","","","","","","","",""
"","","","","","image-keyboard-response","278","459401","0.0-253.0","644a9d92849b27eb99202a91","665500ab8938657b03fbdba8","66579296ecd7a80314f5fd46","1161","stimuli/0001110.jpg","1","","prediction_trial","0","","false","","0","false","false","true","true","false","false","[0]","001","110","0","","","","","","",""
"","","","","","image-keyboard-response","279","460209","0.0-254.0","644a9d92849b27eb99202a91","665500ab8938657b03fbdba8","66579296ecd7a80314f5fd46","799","stimuli/00011100.jpg"," ","","feedback_trial","0","","","","","","","","","","","","","","","","","","","","",""
"","","","","","image-keyboard-response","280","461530","0.0-255.0","644a9d92849b27eb99202a91","665500ab8938657b03fbdba8","66579296ecd7a80314f5fd46","1316","stimuli/2100101.jpg","2","","prediction_trial","2","","true","","2","false","false","true","true","false","false","[2]","100","101","1","","","","","","",""
"","","","","","image-keyboard-response","281","462570","0.0-256.0","644a9d92849b27eb99202a91","665500ab8938657b03fbdba8","66579296ecd7a80314f5fd46","1035","stimuli/21001012.jpg"," ","","feedback_trial","2","","","","","","","","","","","","","","","","","","","","",""
"","","","","","image-keyboard-response","282","464154","0.0-257.0","644a9d92849b27eb99202a91","665500ab8938657b03fbdba8","66579296ecd7a80314f5fd46","1574","stimuli/2111111.jpg","1","","prediction_trial","2","","false","","2","false","false","false","false","false","false","[1,0,2]","111","111","0","","","","","","",""
"","","","","","image-keyboard-response","283","465091","0.0-258.0","644a9d92849b27eb99202a91","665500ab8938657b03fbdba8","66579296ecd7a80314f5fd46","931","stimuli/21111112.jpg"," ","","feedback_trial","1","","","","","","","","","","","","","","","","","","","","",""
"","","","","","image-keyboard-response","284","466481","0.0-259.0","644a9d92849b27eb99202a91","665500ab8938657b03fbdba8","66579296ecd7a80314f5fd46","1381","stimuli/1001110.jpg","1","","prediction_trial","1","","true","","1","false","false","true","true","false","false","[1]","001","110","1","","","","","","",""
"","","","","","image-keyboard-response","285","467138","0.0-260.0","644a9d92849b27eb99202a91","665500ab8938657b03fbdba8","66579296ecd7a80314f5fd46","652","stimuli/10011101.jpg"," ","","feedback_trial","1","","","","","","","","","","","","","","","","","","","","",""
"","","","","","image-keyboard-response","286","468689","0.0-261.0","644a9d92849b27eb99202a91","665500ab8938657b03fbdba8","66579296ecd7a80314f5fd46","1549","stimuli/1011010.jpg","1","","prediction_trial","2","","false","","1","false","true","false","false","false","false","[2,1]","011","010","0","","","","","","",""
"","","","","","image-keyboard-response","287","469401","0.0-262.0","644a9d92849b27eb99202a91","665500ab8938657b03fbdba8","66579296ecd7a80314f5fd46","709","stimuli/10110102.jpg"," ","","feedback_trial","2","","","","","","","","","","","","","","","","","","","","",""
"","","","","","image-keyboard-response","288","470777","0.0-263.0","644a9d92849b27eb99202a91","665500ab8938657b03fbdba8","66579296ecd7a80314f5fd46","1372","stimuli/2101011.jpg","1","","prediction_trial","2","","false","","2","false","false","false","false","false","false","[2,0]","101","011","0","","","","","","",""
"","","","","","image-keyboard-response","289","471473","0.0-264.0","644a9d92849b27eb99202a91","665500ab8938657b03fbdba8","66579296ecd7a80314f5fd46","692","stimuli/21010112.jpg"," ","","feedback_trial","2","","","","","","","","","","","","","","","","","","","","",""
"","","","","","image-keyboard-response","290","472681","0.0-265.0","644a9d92849b27eb99202a91","665500ab8938657b03fbdba8","66579296ecd7a80314f5fd46","1204","stimuli/0100111.jpg","1","","prediction_trial","0","","false","","0","false","false","false","true","false","false","[0]","100","111","0","","","","","","",""
"","","","","","image-keyboard-response","291","473394","0.0-266.0","644a9d92849b27eb99202a91","665500ab8938657b03fbdba8","66579296ecd7a80314f5fd46","707","stimuli/01001110.jpg"," ","","feedback_trial","0","","","","","","","","","","","","","","","","","","","","",""
"","","","","","image-keyboard-response","292","474257","0.0-267.0","644a9d92849b27eb99202a91","665500ab8938657b03fbdba8","66579296ecd7a80314f5fd46","861","stimuli/1001001.jpg","1","","prediction_trial","1","","true","","1","true","true","true","true","true","true","[1]","001","001","1","","","","","","",""
"","","","","","image-keyboard-response","293","474721","0.0-268.0","644a9d92849b27eb99202a91","665500ab8938657b03fbdba8","66579296ecd7a80314f5fd46","457","stimuli/10010011.jpg"," ","","feedback_trial","1","","","","","","","","","","","","","","","","","","","","",""
"","","","","","image-keyboard-response","294","475362","0.0-269.0","644a9d92849b27eb99202a91","665500ab8938657b03fbdba8","66579296ecd7a80314f5fd46","633","stimuli/0001011.jpg","0","","prediction_trial","0","","true","","0","true","true","true","true","true","true","[0]","001","011","1","","","","","","",""
"","","","","","image-keyboard-response","295","475724","0.0-270.0","644a9d92849b27eb99202a91","665500ab8938657b03fbdba8","66579296ecd7a80314f5fd46","359","stimuli/00010110.jpg"," ","","feedback_trial","0","","","","","","","","","","","","","","","","","","","","",""
"","","","","","image-keyboard-response","296","476681","0.0-271.0","644a9d92849b27eb99202a91","665500ab8938657b03fbdba8","66579296ecd7a80314f5fd46","952","stimuli/2100111.jpg","1","","prediction_trial","2","","false","","2","false","false","true","true","false","false","[2]","100","111","0","","","","","","",""
"","","","","","image-keyboard-response","297","477001","0.0-272.0","644a9d92849b27eb99202a91","665500ab8938657b03fbdba8","66579296ecd7a80314f5fd46","317","stimuli/21001112.jpg"," ","","feedback_trial","2","","","","","","","","","","","","","","","","","","","","",""
"","","","","","image-keyboard-response","298","478289","0.0-273.0","644a9d92849b27eb99202a91","665500ab8938657b03fbdba8","66579296ecd7a80314f5fd46","1281","stimuli/1110011.jpg","1","","prediction_trial","0","","false","","1","false","false","false","false","false","false","[0,1]","110","011","0","","","","","","",""
"","","","","","image-keyboard-response","299","480018","0.0-274.0","644a9d92849b27eb99202a91","665500ab8938657b03fbdba8","66579296ecd7a80314f5fd46","1722","stimuli/11100110.jpg"," ","","feedback_trial","0","","","","","","","","","","","","","","","","","","","","",""
"","","","","","image-keyboard-response","300","481137","0.0-275.0","644a9d92849b27eb99202a91","665500ab8938657b03fbdba8","66579296ecd7a80314f5fd46","1116","stimuli/0101011.jpg","0","","prediction_trial","2","","false","","0","true","true","false","false","false","false","[0,2]","101","011","0","","","","","","",""
"","","","","","image-keyboard-response","301","481674","0.0-276.0","644a9d92849b27eb99202a91","665500ab8938657b03fbdba8","66579296ecd7a80314f5fd46","532","stimuli/01010112.jpg"," ","","feedback_trial","0","","","","","","","","","","","","","","","","","","","","",""
"","","","","","image-keyboard-response","302","482489","0.0-277.0","644a9d92849b27eb99202a91","665500ab8938657b03fbdba8","66579296ecd7a80314f5fd46","807","stimuli/2000100.jpg","2","","prediction_trial","2","","true","","2","true","true","true","true","true","true","[2]","000","100","1","","","","","","",""
"","","","","","image-keyboard-response","303","482963","0.0-278.0","644a9d92849b27eb99202a91","665500ab8938657b03fbdba8","66579296ecd7a80314f5fd46","466","stimuli/20001002.jpg"," ","","feedback_trial","2","","","","","","","","","","","","","","","","","","","","",""
"","","","","","image-keyboard-response","304","484049","0.0-279.0","644a9d92849b27eb99202a91","665500ab8938657b03fbdba8","66579296ecd7a80314f5fd46","1079","stimuli/1010011.jpg","1","","prediction_trial","1","","true","","1","false","false","false","true","false","false","[1]","010","011","1","","","","","","",""
"","","","","","image-keyboard-response","305","484466","0.0-280.0","644a9d92849b27eb99202a91","665500ab8938657b03fbdba8","66579296ecd7a80314f5fd46","413","stimuli/10100111.jpg"," ","","feedback_trial","1","","","","","","","","","","","","","","","","","","","","",""
"","","","","","image-keyboard-response","306","485337","0.0-281.0","644a9d92849b27eb99202a91","665500ab8938657b03fbdba8","66579296ecd7a80314f5fd46","868","stimuli/2010010.jpg","2","","prediction_trial","2","","true","","2","true","true","true","true","true","true","[2]","010","010","1","","","","","","",""
"","","","","","image-keyboard-response","307","485698","0.0-282.0","644a9d92849b27eb99202a91","665500ab8938657b03fbdba8","66579296ecd7a80314f5fd46","354","stimuli/20100102.jpg"," ","","feedback_trial","2","","","","","","","","","","","","","","","","","","","","",""
"","","","","","image-keyboard-response","308","486490","0.0-283.0","644a9d92849b27eb99202a91","665500ab8938657b03fbdba8","66579296ecd7a80314f5fd46","788","stimuli/0110110.jpg","0","","prediction_trial","0","","true","","0","false","false","false","false","false","false","[1,0]","110","110","1","","","","","","",""
"","","","","","image-keyboard-response","309","486770","0.0-284.0","644a9d92849b27eb99202a91","665500ab8938657b03fbdba8","66579296ecd7a80314f5fd46","270","stimuli/01101100.jpg"," ","","feedback_trial","1","","","","","","","","","","","","","","","","","","","","",""
"","","","","","image-keyboard-response","310","488010","0.0-285.0","644a9d92849b27eb99202a91","665500ab8938657b03fbdba8","66579296ecd7a80314f5fd46","1236","stimuli/2111101.jpg","2","","prediction_trial","1","","false","","2","false","false","false","false","false","false","[1,2,0]","111","101","0","","","","","","",""
"","","","","","image-keyboard-response","311","488562","0.0-286.0","644a9d92849b27eb99202a91","665500ab8938657b03fbdba8","66579296ecd7a80314f5fd46","541","stimuli/21111011.jpg"," ","","feedback_trial","1","","","","","","","","","","","","","","","","","","","","",""
"","","","","","image-keyboard-response","312","489730","0.0-287.0","644a9d92849b27eb99202a91","665500ab8938657b03fbdba8","66579296ecd7a80314f5fd46","1159","stimuli/2001111.jpg","0","","prediction_trial","2","","false","","2","false","false","false","true","false","false","[2]","001","111","0","","","","","","",""
"","","","","","image-keyboard-response","313","490250","0.0-288.0","644a9d92849b27eb99202a91","665500ab8938657b03fbdba8","66579296ecd7a80314f5fd46","514","stimuli/20011112.jpg"," ","","feedback_trial","2","","","","","","","","","","","","","","","","","","","","",""
"","","","","","image-keyboard-response","314","491116","0.0-289.0","644a9d92849b27eb99202a91","665500ab8938657b03fbdba8","66579296ecd7a80314f5fd46","860","stimuli/1101000.jpg","1","","prediction_trial","1","","true","","1","true","true","true","true","true","true","[1]","101","000","1","","","","","","",""
"","","","","","image-keyboard-response","315","491650","0.0-290.0","644a9d92849b27eb99202a91","665500ab8938657b03fbdba8","66579296ecd7a80314f5fd46","519","stimuli/11010001.jpg"," ","","feedback_trial","1","","","","","","","","","","","","","","","","","","","","",""
"","","","","","image-keyboard-response","316","492450","0.0-291.0","644a9d92849b27eb99202a91","665500ab8938657b03fbdba8","66579296ecd7a80314f5fd46","791","stimuli/2100110.jpg","2","","prediction_trial","2","","true","","2","true","true","true","true","true","true","[2]","100","110","1","","","","","","",""
"","","","","","image-keyboard-response","317","492785","0.0-292.0","644a9d92849b27eb99202a91","665500ab8938657b03fbdba8","66579296ecd7a80314f5fd46","327","stimuli/21001102.jpg"," ","","feedback_trial","2","","","","","","","","","","","","","","","","","","","","",""
"","","","","","survey-html-form","318","536541","0.0-293.0","644a9d92849b27eb99202a91","665500ab8938657b03fbdba8","66579296ecd7a80314f5fd46","43752","","{""feedback"":""I could see the ones that he say, I don't really know the other factors other than maybe intuition"",""age"":""56"",""gender"":""Female"",""other_gender"":"""",""other_race"":"""",""ethnicity"":""Non-Hispanic""}","","exit_survey","","","","","","","","","","","","","","","","I could see the ones that he say, I don't really know the other factors other than maybe intuition","56","Non-Hispanic","Female","","0.6180555555555556","0.6180555555555556"
