"success","timeout","failed_images","failed_audio","failed_video","trial_type","trial_index","time_elapsed","internal_node_id","prolific_id","prolific_study_id","prolific_session_id","rt","stimulus","response","view_history","trial","character_choice","stimulus_dict","accuracy","correct_response","ball_pos","ego_ball_visible","ego_can_infer","alter_ball_visible","alter_can_infer","collective_ball_visible","collective_can_infer","search_locations","alter_occluders","ego_occluders","accuracy_bool","feedback","age","ethnicity","gender","race","overall_accuracy","bonus"
"true","false","[]","[]","[]","preload","0","1285","0.0-0.0","5e80a85916cd8c000ad9cd65","665500ab8938657b03fbdba8","665792db167444180ef3f8ce","","","","","","","","","","","","","","","","","","","","","","","","","","",""
"true","","","","","fullscreen","1","3388","0.0-1.0","5e80a85916cd8c000ad9cd65","665500ab8938657b03fbdba8","665792db167444180ef3f8ce","","","","","","","","","","","","","","","","","","","","","","","","","","",""
"","","","","","html-button-response","2","5376","0.0-2.0","5e80a85916cd8c000ad9cd65","665500ab8938657b03fbdba8","665792db167444180ef3f8ce","1987","<p><b>Consent Form</b></p> <div style=""text-align:left;background-color:lightgrey; padding:20px; max-width:900px;""><p>Please consider this information carefully before deciding whether to participate in this research.</p> <p>The purpose of this research is to examine which factors influence social judgment and decision-making. You will be asked to make judgements about individuals and actions in social scenarios. We are simply interested in your judgement. The study will take less than 1 hour to complete, and you will receive less than $20 on Prolific. Your compensation and time commitment are specified in the study description. There are no anticipated risks associated with participating in this study. The effects of participating should be comparable to those you would ordinarily experience from viewing a computer monitor and using a mouse or keyboard for a similar amount of time. At the end of the study, we will provide an explanation of the questions that motivate this line of research and will describe the potential implications. </p><p> Your participation in this study is completely voluntary and you may refuse to participate or you may choose to withdraw at any time without penalty or loss of benefits to you which are otherwise entitled. Your participation in this study will remain confidential. No personally identifiable information will be associated with your data. Also, all analyses of the data will be averaged across all the participants, so your individual responses will never be specifically analyzed. </p><p> If you have questions or concerns about your participation or payment, or want to request a summary of research findings, please contact Dr. Jonathan Phillips at Jonathan.S.Phillips@dartmouth.edu. </p><p> Please save a copy of this form for your records. </p><p><b>Agreement: </b>The nature and purpose of this research have been sufficiently explained and I agree to participate in this study. I understand that I am free to withdraw at any time without incurring any penalty. Please consent by clicking the button below to continue. Otherwise, please exit the study at any time. </p>","0","","","","","","","","","","","","","","","","","","","","","","","",""
"","","","","","instructions","3","51295","0.0-3.0-0.0","5e80a85916cd8c000ad9cd65","665500ab8938657b03fbdba8","665792db167444180ef3f8ce","45919","","","[{""page_index"":0,""viewing_time"":1245},{""page_index"":1,""viewing_time"":1151},{""page_index"":2,""viewing_time"":1378},{""page_index"":3,""viewing_time"":4649},{""page_index"":4,""viewing_time"":1592},{""page_index"":5,""viewing_time"":2932},{""page_index"":6,""viewing_time"":3328},{""page_index"":7,""viewing_time"":2118},{""page_index"":8,""viewing_time"":3265},{""page_index"":9,""viewing_time"":1464},{""page_index"":10,""viewing_time"":9754},{""page_index"":11,""viewing_time"":6602},{""page_index"":12,""viewing_time"":5554},{""page_index"":13,""viewing_time"":885}]","intro","","","","","","","","","","","","","","","","","","","","","",""
"","","","","","image-keyboard-response","4","54179","0.0-3.0-1.0","5e80a85916cd8c000ad9cd65","665500ab8938657b03fbdba8","665792db167444180ef3f8ce","2883","stimuli/2001101.jpg","2","","prediction_practice","2","{""filepath"":""stimuli/2001101.jpg"",""ball_pos"":2,""ego_ball_visible"":false,""ego_can_infer"":false,""alter_ball_visible"":false,""alter_can_infer"":true,""collective_ball_visible"":false,""collective_can_infer"":false,""search_locations"":[2],""alter_occluders"":""001"",""ego_occluders"":""101""}","true","","","","","","","","","","","","","","","","","","",""
"","","","","","image-keyboard-response","5","55276","0.0-3.0-2.0","5e80a85916cd8c000ad9cd65","665500ab8938657b03fbdba8","665792db167444180ef3f8ce","1096","stimuli/20011012.jpg"," ","","practrice_feedback","2","","","","","","","","","","","","","","","","","","","","",""
"","","","","","image-keyboard-response","6","59551","0.0-3.0-3.0","5e80a85916cd8c000ad9cd65","665500ab8938657b03fbdba8","665792db167444180ef3f8ce","4275","stimuli/2001111.jpg","1","","prediction_practice","2","{""filepath"":""stimuli/2001111.jpg"",""ball_pos"":2,""ego_ball_visible"":false,""ego_can_infer"":false,""alter_ball_visible"":false,""alter_can_infer"":true,""collective_ball_visible"":false,""collective_can_infer"":false,""search_locations"":[2],""alter_occluders"":""001"",""ego_occluders"":""111""}","false","","","","","","","","","","","","","","","","","","",""
"","","","","","image-keyboard-response","7","60774","0.0-3.0-4.0","5e80a85916cd8c000ad9cd65","665500ab8938657b03fbdba8","665792db167444180ef3f8ce","1222","stimuli/20011112.jpg"," ","","practrice_feedback","2","","","","","","","","","","","","","","","","","","","","",""
"","","","","","image-keyboard-response","8","64087","0.0-3.0-5.0","5e80a85916cd8c000ad9cd65","665500ab8938657b03fbdba8","665792db167444180ef3f8ce","3312","stimuli/2010111.jpg","1","","prediction_practice","2","{""filepath"":""stimuli/2010111.jpg"",""ball_pos"":2,""ego_ball_visible"":false,""ego_can_infer"":false,""alter_ball_visible"":true,""alter_can_infer"":true,""collective_ball_visible"":false,""collective_can_infer"":false,""search_locations"":[2],""alter_occluders"":""010"",""ego_occluders"":""111""}","false","","","","","","","","","","","","","","","","","","",""
"","","","","","image-keyboard-response","9","64994","0.0-3.0-6.0","5e80a85916cd8c000ad9cd65","665500ab8938657b03fbdba8","665792db167444180ef3f8ce","906","stimuli/20101112.jpg"," ","","practrice_feedback","2","","","","","","","","","","","","","","","","","","","","",""
"","","","","","image-keyboard-response","10","65882","0.0-3.0-7.0","5e80a85916cd8c000ad9cd65","665500ab8938657b03fbdba8","665792db167444180ef3f8ce","887","stimuli/2000000.jpg","2","","prediction_practice","2","{""filepath"":""stimuli/2000000.jpg"",""ball_pos"":2,""ego_ball_visible"":true,""ego_can_infer"":true,""alter_ball_visible"":true,""alter_can_infer"":true,""collective_ball_visible"":true,""collective_can_infer"":true,""search_locations"":[2],""alter_occluders"":""000"",""ego_occluders"":""000""}","true","","","","","","","","","","","","","","","","","","",""
"","","","","","image-keyboard-response","11","66613","0.0-3.0-8.0","5e80a85916cd8c000ad9cd65","665500ab8938657b03fbdba8","665792db167444180ef3f8ce","730","stimuli/20000002.jpg"," ","","practrice_feedback","2","","","","","","","","","","","","","","","","","","","","",""
"","","","","","image-keyboard-response","12","67947","0.0-3.0-9.0","5e80a85916cd8c000ad9cd65","665500ab8938657b03fbdba8","665792db167444180ef3f8ce","1333","stimuli/1010110.jpg","0","","prediction_practice","1","{""filepath"":""stimuli/1010110.jpg"",""ball_pos"":1,""ego_ball_visible"":false,""ego_can_infer"":false,""alter_ball_visible"":false,""alter_can_infer"":true,""collective_ball_visible"":false,""collective_can_infer"":false,""search_locations"":[1],""alter_occluders"":""010"",""ego_occluders"":""110""}","false","","","","","","","","","","","","","","","","","","",""
"","","","","","image-keyboard-response","13","68613","0.0-3.0-10.0","5e80a85916cd8c000ad9cd65","665500ab8938657b03fbdba8","665792db167444180ef3f8ce","665","stimuli/10101101.jpg"," ","","practrice_feedback","1","","","","","","","","","","","","","","","","","","","","",""
"","","","","","image-keyboard-response","14","69636","0.0-3.0-11.0","5e80a85916cd8c000ad9cd65","665500ab8938657b03fbdba8","665792db167444180ef3f8ce","1022","stimuli/2000110.jpg","1","","prediction_practice","2","{""filepath"":""stimuli/2000110.jpg"",""ball_pos"":2,""ego_ball_visible"":true,""ego_can_infer"":true,""alter_ball_visible"":true,""alter_can_infer"":true,""collective_ball_visible"":true,""collective_can_infer"":true,""search_locations"":[2],""alter_occluders"":""000"",""ego_occluders"":""110""}","false","","","","","","","","","","","","","","","","","","",""
"","","","","","image-keyboard-response","15","70753","0.0-3.0-12.0","5e80a85916cd8c000ad9cd65","665500ab8938657b03fbdba8","665792db167444180ef3f8ce","1116","stimuli/20001102.jpg"," ","","practrice_feedback","2","","","","","","","","","","","","","","","","","","","","",""
"","","","","","image-keyboard-response","16","71892","0.0-3.0-13.0","5e80a85916cd8c000ad9cd65","665500ab8938657b03fbdba8","665792db167444180ef3f8ce","1138","stimuli/1011101.jpg","1","","prediction_practice","2","{""filepath"":""stimuli/1011101.jpg"",""ball_pos"":1,""ego_ball_visible"":true,""ego_can_infer"":true,""alter_ball_visible"":false,""alter_can_infer"":false,""collective_ball_visible"":false,""collective_can_infer"":false,""search_locations"":[1,2],""alter_occluders"":""011"",""ego_occluders"":""101""}","false","","","","","","","","","","","","","","","","","","",""
"","","","","","image-keyboard-response","17","74923","0.0-3.0-14.0","5e80a85916cd8c000ad9cd65","665500ab8938657b03fbdba8","665792db167444180ef3f8ce","3031","stimuli/10111012.jpg"," ","","practrice_feedback","1","","","","","","","","","","","","","","","","","","","","",""
"","","","","","image-keyboard-response","18","76303","0.0-3.0-15.0","5e80a85916cd8c000ad9cd65","665500ab8938657b03fbdba8","665792db167444180ef3f8ce","1378","stimuli/1100100.jpg","1","","prediction_practice","1","{""filepath"":""stimuli/1100100.jpg"",""ball_pos"":1,""ego_ball_visible"":true,""ego_can_infer"":true,""alter_ball_visible"":true,""alter_can_infer"":true,""collective_ball_visible"":true,""collective_can_infer"":true,""search_locations"":[1],""alter_occluders"":""100"",""ego_occluders"":""100""}","true","","","","","","","","","","","","","","","","","","",""
"","","","","","image-keyboard-response","19","76919","0.0-3.0-16.0","5e80a85916cd8c000ad9cd65","665500ab8938657b03fbdba8","665792db167444180ef3f8ce","615","stimuli/11001001.jpg"," ","","practrice_feedback","1","","","","","","","","","","","","","","","","","","","","",""
"","","","","","image-keyboard-response","20","77836","0.0-3.0-17.0","5e80a85916cd8c000ad9cd65","665500ab8938657b03fbdba8","665792db167444180ef3f8ce","916","stimuli/2000111.jpg","0","","prediction_practice","2","{""filepath"":""stimuli/2000111.jpg"",""ball_pos"":2,""ego_ball_visible"":false,""ego_can_infer"":false,""alter_ball_visible"":true,""alter_can_infer"":true,""collective_ball_visible"":false,""collective_can_infer"":false,""search_locations"":[2],""alter_occluders"":""000"",""ego_occluders"":""111""}","false","","","","","","","","","","","","","","","","","","",""
"","","","","","image-keyboard-response","21","78698","0.0-3.0-18.0","5e80a85916cd8c000ad9cd65","665500ab8938657b03fbdba8","665792db167444180ef3f8ce","861","stimuli/20001112.jpg"," ","","practrice_feedback","2","","","","","","","","","","","","","","","","","","","","",""
"","","","","","image-keyboard-response","22","80362","0.0-3.0-19.0","5e80a85916cd8c000ad9cd65","665500ab8938657b03fbdba8","665792db167444180ef3f8ce","1663","stimuli/2100001.jpg","2","","prediction_practice","2","{""filepath"":""stimuli/2100001.jpg"",""ball_pos"":2,""ego_ball_visible"":false,""ego_can_infer"":true,""alter_ball_visible"":true,""alter_can_infer"":true,""collective_ball_visible"":false,""collective_can_infer"":true,""search_locations"":[2],""alter_occluders"":""100"",""ego_occluders"":""001""}","true","","","","","","","","","","","","","","","","","","",""
"","","","","","image-keyboard-response","23","81139","0.0-3.0-20.0","5e80a85916cd8c000ad9cd65","665500ab8938657b03fbdba8","665792db167444180ef3f8ce","776","stimuli/21000012.jpg"," ","","practrice_feedback","2","","","","","","","","","","","","","","","","","","","","",""
"","","","","","html-button-response","24","83461","0.0-3.0-21.0","5e80a85916cd8c000ad9cd65","665500ab8938657b03fbdba8","665792db167444180ef3f8ce","2322","Now that you've had some practice, you'll be tested with a couple of easy trials. If you correctly predict Sam's choice, you'll move on to complete the experiment!","0","","","","","","","","","","","","","","","","","","","","","","","",""
"","","","","","image-keyboard-response","25","84537","0.0-3.0-22.0-0.0","5e80a85916cd8c000ad9cd65","665500ab8938657b03fbdba8","665792db167444180ef3f8ce","1075","stimuli/0000011.jpg","arrowleft","","comprehension_quiz","","","true","arrowleft","","","","","","","","","","","","","","","","","",""
"","","","","","image-keyboard-response","26","85068","0.0-3.0-22.0-1.0","5e80a85916cd8c000ad9cd65","665500ab8938657b03fbdba8","665792db167444180ef3f8ce","530","stimuli/00000110.jpg"," ","","comprehension_quiz","","","true"," ","","","","","","","","","","","","","","","","","",""
"","","","","","image-keyboard-response","27","86161","0.0-3.0-22.0-2.0","5e80a85916cd8c000ad9cd65","665500ab8938657b03fbdba8","665792db167444180ef3f8ce","1092","stimuli/1010010.jpg","arrowdown","","comprehension_quiz","","","true","arrowdown","","","","","","","","","","","","","","","","","",""
"","","","","","image-keyboard-response","28","86547","0.0-3.0-22.0-3.0","5e80a85916cd8c000ad9cd65","665500ab8938657b03fbdba8","665792db167444180ef3f8ce","379","stimuli/10100101.jpg"," ","","comprehension_quiz","","","true"," ","","","","","","","","","","","","","","","","","",""
"","","","","","html-button-response","29","88788","0.0-4.0","5e80a85916cd8c000ad9cd65","665500ab8938657b03fbdba8","665792db167444180ef3f8ce","2240","The experiment will now begin.","0","","","","","","","","","","","","","","","","","","","","","","","",""
"","","","","","image-keyboard-response","30","89885","0.0-5.0","5e80a85916cd8c000ad9cd65","665500ab8938657b03fbdba8","665792db167444180ef3f8ce","1096","stimuli/2000001.jpg","2","","prediction_trial","2","","true","","2","false","true","true","true","false","true","[2]","000","001","1","","","","","","",""
"","","","","","image-keyboard-response","31","90226","0.0-6.0","5e80a85916cd8c000ad9cd65","665500ab8938657b03fbdba8","665792db167444180ef3f8ce","340","stimuli/20000012.jpg"," ","","feedback_trial","2","","","","","","","","","","","","","","","","","","","","",""
"","","","","","image-keyboard-response","32","91153","0.0-7.0","5e80a85916cd8c000ad9cd65","665500ab8938657b03fbdba8","665792db167444180ef3f8ce","927","stimuli/2110110.jpg","2","","prediction_trial","2","","true","","2","true","true","true","true","true","true","[2]","110","110","1","","","","","","",""
"","","","","","image-keyboard-response","33","91519","0.0-8.0","5e80a85916cd8c000ad9cd65","665500ab8938657b03fbdba8","665792db167444180ef3f8ce","365","stimuli/21101102.jpg"," ","","feedback_trial","2","","","","","","","","","","","","","","","","","","","","",""
"","","","","","image-keyboard-response","34","97408","0.0-9.0","5e80a85916cd8c000ad9cd65","665500ab8938657b03fbdba8","665792db167444180ef3f8ce","5889","stimuli/0011110.jpg","1","","prediction_trial","0","","false","","0","false","false","true","true","false","false","[0]","011","110","0","","","","","","",""
"","","","","","image-keyboard-response","35","98014","0.0-10.0","5e80a85916cd8c000ad9cd65","665500ab8938657b03fbdba8","665792db167444180ef3f8ce","599","stimuli/00111100.jpg"," ","","feedback_trial","0","","","","","","","","","","","","","","","","","","","","",""
"","","","","","image-keyboard-response","36","98877","0.0-11.0","5e80a85916cd8c000ad9cd65","665500ab8938657b03fbdba8","665792db167444180ef3f8ce","862","stimuli/1000101.jpg","1","","prediction_trial","1","","true","","1","true","true","true","true","true","true","[1]","000","101","1","","","","","","",""
"","","","","","image-keyboard-response","37","99177","0.0-12.0","5e80a85916cd8c000ad9cd65","665500ab8938657b03fbdba8","665792db167444180ef3f8ce","299","stimuli/10001011.jpg"," ","","feedback_trial","1","","","","","","","","","","","","","","","","","","","","",""
"","","","","","image-keyboard-response","38","100525","0.0-13.0","5e80a85916cd8c000ad9cd65","665500ab8938657b03fbdba8","665792db167444180ef3f8ce","1348","stimuli/2000011.jpg","2","","prediction_trial","2","","true","","2","false","false","true","true","false","false","[2]","000","011","1","","","","","","",""
"","","","","","image-keyboard-response","39","100946","0.0-14.0","5e80a85916cd8c000ad9cd65","665500ab8938657b03fbdba8","665792db167444180ef3f8ce","420","stimuli/20000112.jpg"," ","","feedback_trial","2","","","","","","","","","","","","","","","","","","","","",""
"","","","","","image-keyboard-response","40","101829","0.0-15.0","5e80a85916cd8c000ad9cd65","665500ab8938657b03fbdba8","665792db167444180ef3f8ce","883","stimuli/0101101.jpg","0","","prediction_trial","2","","false","","0","false","false","false","false","false","false","[2,0]","101","101","0","","","","","","",""
"","","","","","image-keyboard-response","41","102490","0.0-16.0","5e80a85916cd8c000ad9cd65","665500ab8938657b03fbdba8","665792db167444180ef3f8ce","660","stimuli/01011012.jpg"," ","","feedback_trial","2","","","","","","","","","","","","","","","","","","","","",""
"","","","","","image-keyboard-response","42","103643","0.0-17.0","5e80a85916cd8c000ad9cd65","665500ab8938657b03fbdba8","665792db167444180ef3f8ce","1152","stimuli/1000110.jpg","1","","prediction_trial","1","","true","","1","false","false","true","true","false","false","[1]","000","110","1","","","","","","",""
"","","","","","image-keyboard-response","43","103994","0.0-18.0","5e80a85916cd8c000ad9cd65","665500ab8938657b03fbdba8","665792db167444180ef3f8ce","350","stimuli/10001101.jpg"," ","","feedback_trial","1","","","","","","","","","","","","","","","","","","","","",""
"","","","","","image-keyboard-response","44","104786","0.0-19.0","5e80a85916cd8c000ad9cd65","665500ab8938657b03fbdba8","665792db167444180ef3f8ce","792","stimuli/0011001.jpg","0","","prediction_trial","0","","true","","0","true","true","true","true","true","true","[0]","011","001","1","","","","","","",""
"","","","","","image-keyboard-response","45","105111","0.0-20.0","5e80a85916cd8c000ad9cd65","665500ab8938657b03fbdba8","665792db167444180ef3f8ce","324","stimuli/00110010.jpg"," ","","feedback_trial","0","","","","","","","","","","","","","","","","","","","","",""
"","","","","","image-keyboard-response","46","105678","0.0-21.0","5e80a85916cd8c000ad9cd65","665500ab8938657b03fbdba8","665792db167444180ef3f8ce","567","stimuli/1011000.jpg","1","","prediction_trial","1","","true","","1","true","true","false","false","false","false","[2,1]","011","000","1","","","","","","",""
"","","","","","image-keyboard-response","47","105873","0.0-22.0","5e80a85916cd8c000ad9cd65","665500ab8938657b03fbdba8","665792db167444180ef3f8ce","194","stimuli/10110001.jpg"," ","","feedback_trial","2","","","","","","","","","","","","","","","","","","","","",""
"","","","","","image-keyboard-response","48","106976","0.0-23.0","5e80a85916cd8c000ad9cd65","665500ab8938657b03fbdba8","665792db167444180ef3f8ce","1103","stimuli/1101010.jpg","1","","prediction_trial","1","","true","","1","false","true","true","true","false","true","[1]","101","010","1","","","","","","",""
"","","","","","image-keyboard-response","49","107201","0.0-24.0","5e80a85916cd8c000ad9cd65","665500ab8938657b03fbdba8","665792db167444180ef3f8ce","224","stimuli/11010101.jpg"," ","","feedback_trial","1","","","","","","","","","","","","","","","","","","","","",""
"","","","","","image-keyboard-response","50","107829","0.0-25.0","5e80a85916cd8c000ad9cd65","665500ab8938657b03fbdba8","665792db167444180ef3f8ce","627","stimuli/0001001.jpg","0","","prediction_trial","0","","true","","0","true","true","true","true","true","true","[0]","001","001","1","","","","","","",""
"","","","","","image-keyboard-response","51","108043","0.0-26.0","5e80a85916cd8c000ad9cd65","665500ab8938657b03fbdba8","665792db167444180ef3f8ce","214","stimuli/00010010.jpg"," ","","feedback_trial","0","","","","","","","","","","","","","","","","","","","","",""
"","","","","","image-keyboard-response","52","108670","0.0-27.0","5e80a85916cd8c000ad9cd65","665500ab8938657b03fbdba8","665792db167444180ef3f8ce","627","stimuli/0001011.jpg","0","","prediction_trial","0","","true","","0","true","true","true","true","true","true","[0]","001","011","1","","","","","","",""
"","","","","","image-keyboard-response","53","108916","0.0-28.0","5e80a85916cd8c000ad9cd65","665500ab8938657b03fbdba8","665792db167444180ef3f8ce","239","stimuli/00010110.jpg"," ","","feedback_trial","0","","","","","","","","","","","","","","","","","","","","",""
"","","","","","image-keyboard-response","54","109583","0.0-29.0","5e80a85916cd8c000ad9cd65","665500ab8938657b03fbdba8","665792db167444180ef3f8ce","665","stimuli/2010001.jpg","2","","prediction_trial","2","","true","","2","false","true","true","true","false","true","[2]","010","001","1","","","","","","",""
"","","","","","image-keyboard-response","55","109803","0.0-30.0","5e80a85916cd8c000ad9cd65","665500ab8938657b03fbdba8","665792db167444180ef3f8ce","220","stimuli/20100012.jpg"," ","","feedback_trial","2","","","","","","","","","","","","","","","","","","","","",""
"","","","","","image-keyboard-response","56","114761","0.0-31.0","5e80a85916cd8c000ad9cd65","665500ab8938657b03fbdba8","665792db167444180ef3f8ce","4957","stimuli/1111010.jpg","1","","prediction_trial","2","","false","","1","false","true","false","false","false","false","[0,1,2]","111","010","0","","","","","","",""
"","","","","","image-keyboard-response","57","115357","0.0-32.0","5e80a85916cd8c000ad9cd65","665500ab8938657b03fbdba8","665792db167444180ef3f8ce","595","stimuli/11110102.jpg"," ","","feedback_trial","0","","","","","","","","","","","","","","","","","","","","",""
"","","","","","image-keyboard-response","58","116420","0.0-33.0","5e80a85916cd8c000ad9cd65","665500ab8938657b03fbdba8","665792db167444180ef3f8ce","1062","stimuli/1111111.jpg","1","","prediction_trial","2","","false","","1","false","false","false","false","false","false","[1,2,0]","111","111","0","","","","","","",""
"","","","","","image-keyboard-response","59","117026","0.0-34.0","5e80a85916cd8c000ad9cd65","665500ab8938657b03fbdba8","665792db167444180ef3f8ce","605","stimuli/11111112.jpg"," ","","feedback_trial","1","","","","","","","","","","","","","","","","","","","","",""
"","","","","","image-keyboard-response","60","117657","0.0-35.0","5e80a85916cd8c000ad9cd65","665500ab8938657b03fbdba8","665792db167444180ef3f8ce","630","stimuli/2100010.jpg","2","","prediction_trial","2","","true","","2","true","true","true","true","true","true","[2]","100","010","1","","","","","","",""
"","","","","","image-keyboard-response","61","117858","0.0-36.0","5e80a85916cd8c000ad9cd65","665500ab8938657b03fbdba8","665792db167444180ef3f8ce","200","stimuli/21000102.jpg"," ","","feedback_trial","2","","","","","","","","","","","","","","","","","","","","",""
"","","","","","image-keyboard-response","62","118815","0.0-37.0","5e80a85916cd8c000ad9cd65","665500ab8938657b03fbdba8","665792db167444180ef3f8ce","956","stimuli/0101111.jpg","0","","prediction_trial","2","","false","","0","false","false","false","false","false","false","[0,2]","101","111","0","","","","","","",""
"","","","","","image-keyboard-response","63","119502","0.0-38.0","5e80a85916cd8c000ad9cd65","665500ab8938657b03fbdba8","665792db167444180ef3f8ce","686","stimuli/01011112.jpg"," ","","feedback_trial","0","","","","","","","","","","","","","","","","","","","","",""
"","","","","","image-keyboard-response","64","121743","0.0-39.0","5e80a85916cd8c000ad9cd65","665500ab8938657b03fbdba8","665792db167444180ef3f8ce","2240","stimuli/0100101.jpg","2","","prediction_trial","0","","false","","0","false","false","false","true","false","false","[0]","100","101","0","","","","","","",""
"","","","","","image-keyboard-response","65","122419","0.0-40.0","5e80a85916cd8c000ad9cd65","665500ab8938657b03fbdba8","665792db167444180ef3f8ce","669","stimuli/01001010.jpg"," ","","feedback_trial","0","","","","","","","","","","","","","","","","","","","","",""
"","","","","","image-keyboard-response","66","125066","0.0-41.0","5e80a85916cd8c000ad9cd65","665500ab8938657b03fbdba8","665792db167444180ef3f8ce","2645","stimuli/1010111.jpg","1","","prediction_trial","1","","true","","1","false","false","false","true","false","false","[1]","010","111","1","","","","","","",""
"","","","","","image-keyboard-response","67","125693","0.0-42.0","5e80a85916cd8c000ad9cd65","665500ab8938657b03fbdba8","665792db167444180ef3f8ce","626","stimuli/10101111.jpg"," ","","feedback_trial","1","","","","","","","","","","","","","","","","","","","","",""
"","","","","","image-keyboard-response","68","127061","0.0-43.0","5e80a85916cd8c000ad9cd65","665500ab8938657b03fbdba8","665792db167444180ef3f8ce","1367","stimuli/0100110.jpg","0","","prediction_trial","0","","true","","0","false","false","false","true","false","false","[0]","100","110","1","","","","","","",""
"","","","","","image-keyboard-response","69","127617","0.0-44.0","5e80a85916cd8c000ad9cd65","665500ab8938657b03fbdba8","665792db167444180ef3f8ce","555","stimuli/01001100.jpg"," ","","feedback_trial","0","","","","","","","","","","","","","","","","","","","","",""
"","","","","","image-keyboard-response","70","128274","0.0-45.0","5e80a85916cd8c000ad9cd65","665500ab8938657b03fbdba8","665792db167444180ef3f8ce","656","stimuli/1111101.jpg","1","","prediction_trial","2","","false","","1","true","true","false","false","false","false","[2,0,1]","111","101","0","","","","","","",""
"","","","","","image-keyboard-response","71","128529","0.0-46.0","5e80a85916cd8c000ad9cd65","665500ab8938657b03fbdba8","665792db167444180ef3f8ce","248","stimuli/11111012.jpg"," ","","feedback_trial","2","","","","","","","","","","","","","","","","","","","","",""
"","","","","","image-keyboard-response","72","131727","0.0-47.0","5e80a85916cd8c000ad9cd65","665500ab8938657b03fbdba8","665792db167444180ef3f8ce","3198","stimuli/0111000.jpg","2","","prediction_trial","2","","true","","0","true","true","false","false","false","false","[1,0,2]","111","000","1","","","","","","",""
"","","","","","image-keyboard-response","73","132334","0.0-48.0","5e80a85916cd8c000ad9cd65","665500ab8938657b03fbdba8","665792db167444180ef3f8ce","606","stimuli/01110002.jpg"," ","","feedback_trial","1","","","","","","","","","","","","","","","","","","","","",""
"","","","","","image-keyboard-response","74","134825","0.0-49.0","5e80a85916cd8c000ad9cd65","665500ab8938657b03fbdba8","665792db167444180ef3f8ce","2491","stimuli/0100000.jpg","0","","prediction_trial","0","","true","","0","true","true","false","true","false","true","[0]","100","000","1","","","","","","",""
"","","","","","image-keyboard-response","75","135105","0.0-50.0","5e80a85916cd8c000ad9cd65","665500ab8938657b03fbdba8","665792db167444180ef3f8ce","279","stimuli/01000000.jpg"," ","","feedback_trial","0","","","","","","","","","","","","","","","","","","","","",""
"","","","","","image-keyboard-response","76","136458","0.0-51.0","5e80a85916cd8c000ad9cd65","665500ab8938657b03fbdba8","665792db167444180ef3f8ce","1353","stimuli/2111010.jpg","1","","prediction_trial","1","","true","","2","true","true","false","false","false","false","[1,0,2]","111","010","1","","","","","","",""
"","","","","","image-keyboard-response","77","136920","0.0-52.0","5e80a85916cd8c000ad9cd65","665500ab8938657b03fbdba8","665792db167444180ef3f8ce","453","stimuli/21110101.jpg"," ","","feedback_trial","1","","","","","","","","","","","","","","","","","","","","",""
"","","","","","image-keyboard-response","78","138809","0.0-53.0","5e80a85916cd8c000ad9cd65","665500ab8938657b03fbdba8","665792db167444180ef3f8ce","1889","stimuli/1111100.jpg","0","","prediction_trial","2","","false","","1","true","true","false","false","false","false","[2,1,0]","111","100","0","","","","","","",""
"","","","","","image-keyboard-response","79","139411","0.0-54.0","5e80a85916cd8c000ad9cd65","665500ab8938657b03fbdba8","665792db167444180ef3f8ce","601","stimuli/11111002.jpg"," ","","feedback_trial","2","","","","","","","","","","","","","","","","","","","","",""
"","","","","","image-keyboard-response","80","141225","0.0-55.0","5e80a85916cd8c000ad9cd65","665500ab8938657b03fbdba8","665792db167444180ef3f8ce","1814","stimuli/1111110.jpg","2","","prediction_trial","0","","false","","1","false","false","false","false","false","false","[2,1,0]","111","110","0","","","","","","",""
"","","","","","image-keyboard-response","81","141821","0.0-56.0","5e80a85916cd8c000ad9cd65","665500ab8938657b03fbdba8","665792db167444180ef3f8ce","595","stimuli/11111100.jpg"," ","","feedback_trial","2","","","","","","","","","","","","","","","","","","","","",""
"","","","","","image-keyboard-response","82","142598","0.0-57.0","5e80a85916cd8c000ad9cd65","665500ab8938657b03fbdba8","665792db167444180ef3f8ce","776","stimuli/1000001.jpg","1","","prediction_trial","1","","true","","1","true","true","true","true","true","true","[1]","000","001","1","","","","","","",""
"","","","","","image-keyboard-response","83","143069","0.0-58.0","5e80a85916cd8c000ad9cd65","665500ab8938657b03fbdba8","665792db167444180ef3f8ce","470","stimuli/10000011.jpg"," ","","feedback_trial","1","","","","","","","","","","","","","","","","","","","","",""
"","","","","","image-keyboard-response","84","145625","0.0-59.0","5e80a85916cd8c000ad9cd65","665500ab8938657b03fbdba8","665792db167444180ef3f8ce","2556","stimuli/2110011.jpg","1","","prediction_trial","2","","false","","2","false","false","true","true","false","false","[2]","110","011","0","","","","","","",""
"","","","","","image-keyboard-response","85","146147","0.0-60.0","5e80a85916cd8c000ad9cd65","665500ab8938657b03fbdba8","665792db167444180ef3f8ce","521","stimuli/21100112.jpg"," ","","feedback_trial","2","","","","","","","","","","","","","","","","","","","","",""
"","","","","","image-keyboard-response","86","149279","0.0-61.0","5e80a85916cd8c000ad9cd65","665500ab8938657b03fbdba8","665792db167444180ef3f8ce","3132","stimuli/2111001.jpg","0","","prediction_trial","1","","false","","2","false","true","false","false","false","false","[2,1,0]","111","001","0","","","","","","",""
"","","","","","image-keyboard-response","87","149755","0.0-62.0","5e80a85916cd8c000ad9cd65","665500ab8938657b03fbdba8","665792db167444180ef3f8ce","475","stimuli/21110011.jpg"," ","","feedback_trial","2","","","","","","","","","","","","","","","","","","","","",""
"","","","","","image-keyboard-response","88","151770","0.0-63.0","5e80a85916cd8c000ad9cd65","665500ab8938657b03fbdba8","665792db167444180ef3f8ce","2014","stimuli/1110001.jpg","0","","prediction_trial","0","","true","","1","true","true","false","false","false","false","[0,1]","110","001","1","","","","","","",""
"","","","","","image-keyboard-response","89","152246","0.0-64.0","5e80a85916cd8c000ad9cd65","665500ab8938657b03fbdba8","665792db167444180ef3f8ce","475","stimuli/11100010.jpg"," ","","feedback_trial","0","","","","","","","","","","","","","","","","","","","","",""
"","","","","","image-keyboard-response","90","153279","0.0-65.0","5e80a85916cd8c000ad9cd65","665500ab8938657b03fbdba8","665792db167444180ef3f8ce","1032","stimuli/1001101.jpg","1","","prediction_trial","1","","true","","1","true","true","true","true","true","true","[1]","001","101","1","","","","","","",""
"","","","","","image-keyboard-response","91","153599","0.0-66.0","5e80a85916cd8c000ad9cd65","665500ab8938657b03fbdba8","665792db167444180ef3f8ce","319","stimuli/10011011.jpg"," ","","feedback_trial","1","","","","","","","","","","","","","","","","","","","","",""
"","","","","","image-keyboard-response","92","155776","0.0-67.0","5e80a85916cd8c000ad9cd65","665500ab8938657b03fbdba8","665792db167444180ef3f8ce","2176","stimuli/2011101.jpg","0","","prediction_trial","1","","false","","2","false","false","false","false","false","false","[1,2]","011","101","0","","","","","","",""
"","","","","","image-keyboard-response","93","156331","0.0-68.0","5e80a85916cd8c000ad9cd65","665500ab8938657b03fbdba8","665792db167444180ef3f8ce","555","stimuli/20111011.jpg"," ","","feedback_trial","1","","","","","","","","","","","","","","","","","","","","",""
"","","","","","image-keyboard-response","94","157440","0.0-69.0","5e80a85916cd8c000ad9cd65","665500ab8938657b03fbdba8","665792db167444180ef3f8ce","1108","stimuli/2111101.jpg","2","","prediction_trial","2","","true","","2","false","false","false","false","false","false","[2,0,1]","111","101","1","","","","","","",""
"","","","","","image-keyboard-response","95","157921","0.0-70.0","5e80a85916cd8c000ad9cd65","665500ab8938657b03fbdba8","665792db167444180ef3f8ce","480","stimuli/21111012.jpg"," ","","feedback_trial","2","","","","","","","","","","","","","","","","","","","","",""
"","","","","","image-keyboard-response","96","159790","0.0-71.0","5e80a85916cd8c000ad9cd65","665500ab8938657b03fbdba8","665792db167444180ef3f8ce","1869","stimuli/2001101.jpg","2","","prediction_trial","2","","true","","2","false","false","false","true","false","false","[2]","001","101","1","","","","","","",""
"","","","","","image-keyboard-response","97","160250","0.0-72.0","5e80a85916cd8c000ad9cd65","665500ab8938657b03fbdba8","665792db167444180ef3f8ce","460","stimuli/20011012.jpg"," ","","feedback_trial","2","","","","","","","","","","","","","","","","","","","","",""
"","","","","","image-keyboard-response","98","162256","0.0-73.0","5e80a85916cd8c000ad9cd65","665500ab8938657b03fbdba8","665792db167444180ef3f8ce","2005","stimuli/1011110.jpg","2","","prediction_trial","1","","false","","1","false","false","false","false","false","false","[1,2]","011","110","0","","","","","","",""
"","","","","","image-keyboard-response","99","162752","0.0-74.0","5e80a85916cd8c000ad9cd65","665500ab8938657b03fbdba8","665792db167444180ef3f8ce","495","stimuli/10111101.jpg"," ","","feedback_trial","1","","","","","","","","","","","","","","","","","","","","",""
"","","","","","image-keyboard-response","100","163499","0.0-75.0","5e80a85916cd8c000ad9cd65","665500ab8938657b03fbdba8","665792db167444180ef3f8ce","746","stimuli/1001001.jpg","1","","prediction_trial","1","","true","","1","true","true","true","true","true","true","[1]","001","001","1","","","","","","",""
"","","","","","image-keyboard-response","101","163765","0.0-76.0","5e80a85916cd8c000ad9cd65","665500ab8938657b03fbdba8","665792db167444180ef3f8ce","265","stimuli/10010011.jpg"," ","","feedback_trial","1","","","","","","","","","","","","","","","","","","","","",""
"","","","","","image-keyboard-response","102","166196","0.0-77.0","5e80a85916cd8c000ad9cd65","665500ab8938657b03fbdba8","665792db167444180ef3f8ce","2431","stimuli/0110100.jpg","1","","prediction_trial","1","","true","","0","false","true","false","false","false","false","[0,1]","110","100","1","","","","","","",""
"","","","","","image-keyboard-response","103","166627","0.0-78.0","5e80a85916cd8c000ad9cd65","665500ab8938657b03fbdba8","665792db167444180ef3f8ce","430","stimuli/01101001.jpg"," ","","feedback_trial","0","","","","","","","","","","","","","","","","","","","","",""
"","","","","","image-keyboard-response","104","167970","0.0-79.0","5e80a85916cd8c000ad9cd65","665500ab8938657b03fbdba8","665792db167444180ef3f8ce","1343","stimuli/1110110.jpg","0","","prediction_trial","0","","true","","1","false","false","false","false","false","false","[1,0]","110","110","1","","","","","","",""
"","","","","","image-keyboard-response","105","168441","0.0-80.0","5e80a85916cd8c000ad9cd65","665500ab8938657b03fbdba8","665792db167444180ef3f8ce","470","stimuli/11101100.jpg"," ","","feedback_trial","1","","","","","","","","","","","","","","","","","","","","",""
"","","","","","image-keyboard-response","106","170090","0.0-81.0","5e80a85916cd8c000ad9cd65","665500ab8938657b03fbdba8","665792db167444180ef3f8ce","1642","stimuli/2001010.jpg","1","","prediction_trial","2","","false","","2","true","true","false","true","false","true","[2]","001","010","0","","","","","","",""
"","","","","","image-keyboard-response","107","170576","0.0-82.0","5e80a85916cd8c000ad9cd65","665500ab8938657b03fbdba8","665792db167444180ef3f8ce","485","stimuli/20010102.jpg"," ","","feedback_trial","2","","","","","","","","","","","","","","","","","","","","",""
"","","","","","image-keyboard-response","108","175358","0.0-83.0","5e80a85916cd8c000ad9cd65","665500ab8938657b03fbdba8","665792db167444180ef3f8ce","4781","stimuli/2110001.jpg","2","","prediction_trial","2","","true","","2","false","true","true","true","false","true","[2]","110","001","1","","","","","","",""
"","","","","","image-keyboard-response","109","175708","0.0-84.0","5e80a85916cd8c000ad9cd65","665500ab8938657b03fbdba8","665792db167444180ef3f8ce","349","stimuli/21100012.jpg"," ","","feedback_trial","2","","","","","","","","","","","","","","","","","","","","",""
"","","","","","image-keyboard-response","110","178044","0.0-85.0","5e80a85916cd8c000ad9cd65","665500ab8938657b03fbdba8","665792db167444180ef3f8ce","2336","stimuli/2011010.jpg","1","","prediction_trial","1","","true","","2","true","true","false","false","false","false","[2,1]","011","010","1","","","","","","",""
"","","","","","image-keyboard-response","111","178375","0.0-86.0","5e80a85916cd8c000ad9cd65","665500ab8938657b03fbdba8","665792db167444180ef3f8ce","330","stimuli/20110101.jpg"," ","","feedback_trial","2","","","","","","","","","","","","","","","","","","","","",""
"","","","","","image-keyboard-response","112","180024","0.0-87.0","5e80a85916cd8c000ad9cd65","665500ab8938657b03fbdba8","665792db167444180ef3f8ce","1642","stimuli/2000101.jpg","0","","prediction_trial","2","","false","","2","false","false","true","true","false","false","[2]","000","101","0","","","","","","",""
"","","","","","image-keyboard-response","113","180841","0.0-88.0","5e80a85916cd8c000ad9cd65","665500ab8938657b03fbdba8","665792db167444180ef3f8ce","816","stimuli/20001012.jpg"," ","","feedback_trial","2","","","","","","","","","","","","","","","","","","","","",""
"","","","","","image-keyboard-response","114","183372","0.0-89.0","5e80a85916cd8c000ad9cd65","665500ab8938657b03fbdba8","665792db167444180ef3f8ce","2530","stimuli/2011110.jpg","1","","prediction_trial","1","","true","","2","true","true","false","false","false","false","[1,2]","011","110","1","","","","","","",""
"","","","","","image-keyboard-response","115","183763","0.0-90.0","5e80a85916cd8c000ad9cd65","665500ab8938657b03fbdba8","665792db167444180ef3f8ce","390","stimuli/20111101.jpg"," ","","feedback_trial","1","","","","","","","","","","","","","","","","","","","","",""
"","","","","","image-keyboard-response","116","184830","0.0-91.0","5e80a85916cd8c000ad9cd65","665500ab8938657b03fbdba8","665792db167444180ef3f8ce","1067","stimuli/2000010.jpg","2","","prediction_trial","2","","true","","2","true","true","true","true","true","true","[2]","000","010","1","","","","","","",""
"","","","","","image-keyboard-response","117","185111","0.0-92.0","5e80a85916cd8c000ad9cd65","665500ab8938657b03fbdba8","665792db167444180ef3f8ce","280","stimuli/20000102.jpg"," ","","feedback_trial","2","","","","","","","","","","","","","","","","","","","","",""
"","","","","","image-keyboard-response","118","186730","0.0-93.0","5e80a85916cd8c000ad9cd65","665500ab8938657b03fbdba8","665792db167444180ef3f8ce","1612","stimuli/1111001.jpg","2","","prediction_trial","2","","true","","1","true","true","false","false","false","false","[0,2,1]","111","001","1","","","","","","",""
"","","","","","image-keyboard-response","119","187025","0.0-94.0","5e80a85916cd8c000ad9cd65","665500ab8938657b03fbdba8","665792db167444180ef3f8ce","294","stimuli/11110012.jpg"," ","","feedback_trial","0","","","","","","","","","","","","","","","","","","","","",""
"","","","","","image-keyboard-response","120","188008","0.0-95.0","5e80a85916cd8c000ad9cd65","665500ab8938657b03fbdba8","665792db167444180ef3f8ce","982","stimuli/2100100.jpg","2","","prediction_trial","2","","true","","2","true","true","true","true","true","true","[2]","100","100","1","","","","","","",""
"","","","","","image-keyboard-response","121","188208","0.0-96.0","5e80a85916cd8c000ad9cd65","665500ab8938657b03fbdba8","665792db167444180ef3f8ce","199","stimuli/21001002.jpg"," ","","feedback_trial","2","","","","","","","","","","","","","","","","","","","","",""
"","","","","","image-keyboard-response","122","189933","0.0-97.0","5e80a85916cd8c000ad9cd65","665500ab8938657b03fbdba8","665792db167444180ef3f8ce","1724","stimuli/1110010.jpg","0","","prediction_trial","0","","true","","1","false","true","false","false","false","false","[0,1]","110","010","1","","","","","","",""
"","","","","","image-keyboard-response","123","190224","0.0-98.0","5e80a85916cd8c000ad9cd65","665500ab8938657b03fbdba8","665792db167444180ef3f8ce","290","stimuli/11100100.jpg"," ","","feedback_trial","0","","","","","","","","","","","","","","","","","","","","",""
"","","","","","image-keyboard-response","124","191953","0.0-99.0","5e80a85916cd8c000ad9cd65","665500ab8938657b03fbdba8","665792db167444180ef3f8ce","1722","stimuli/0000111.jpg","1","","prediction_trial","0","","false","","0","false","false","true","true","false","false","[0]","000","111","0","","","","","","",""
"","","","","","image-keyboard-response","125","192515","0.0-100.0","5e80a85916cd8c000ad9cd65","665500ab8938657b03fbdba8","665792db167444180ef3f8ce","561","stimuli/00001110.jpg"," ","","feedback_trial","0","","","","","","","","","","","","","","","","","","","","",""
"","","","","","image-keyboard-response","126","194324","0.0-101.0","5e80a85916cd8c000ad9cd65","665500ab8938657b03fbdba8","665792db167444180ef3f8ce","1808","stimuli/1011001.jpg","2","","prediction_trial","2","","true","","1","true","true","false","false","false","false","[2,1]","011","001","1","","","","","","",""
"","","","","","image-keyboard-response","127","194590","0.0-102.0","5e80a85916cd8c000ad9cd65","665500ab8938657b03fbdba8","665792db167444180ef3f8ce","265","stimuli/10110012.jpg"," ","","feedback_trial","2","","","","","","","","","","","","","","","","","","","","",""
"","","","","","image-keyboard-response","128","197000","0.0-103.0","5e80a85916cd8c000ad9cd65","665500ab8938657b03fbdba8","665792db167444180ef3f8ce","2409","stimuli/0100001.jpg","0","","prediction_trial","0","","true","","0","true","true","false","true","false","true","[0]","100","001","1","","","","","","",""
"","","","","","image-keyboard-response","129","197221","0.0-104.0","5e80a85916cd8c000ad9cd65","665500ab8938657b03fbdba8","665792db167444180ef3f8ce","220","stimuli/01000010.jpg"," ","","feedback_trial","0","","","","","","","","","","","","","","","","","","","","",""
"","","","","","image-keyboard-response","130","201596","0.0-105.0","5e80a85916cd8c000ad9cd65","665500ab8938657b03fbdba8","665792db167444180ef3f8ce","4368","stimuli/2101011.jpg","2","","prediction_trial","0","","false","","2","false","false","false","false","false","false","[2,0]","101","011","0","","","","","","",""
"","","","","","image-keyboard-response","131","202178","0.0-106.0","5e80a85916cd8c000ad9cd65","665500ab8938657b03fbdba8","665792db167444180ef3f8ce","581","stimuli/21010110.jpg"," ","","feedback_trial","2","","","","","","","","","","","","","","","","","","","","",""
"","","","","","image-keyboard-response","132","203832","0.0-107.0","5e80a85916cd8c000ad9cd65","665500ab8938657b03fbdba8","665792db167444180ef3f8ce","1653","stimuli/0011011.jpg","0","","prediction_trial","0","","true","","0","true","true","true","true","true","true","[0]","011","011","1","","","","","","",""
"","","","","","image-keyboard-response","133","204173","0.0-108.0","5e80a85916cd8c000ad9cd65","665500ab8938657b03fbdba8","665792db167444180ef3f8ce","340","stimuli/00110110.jpg"," ","","feedback_trial","0","","","","","","","","","","","","","","","","","","","","",""
"","","","","","image-keyboard-response","134","205616","0.0-109.0","5e80a85916cd8c000ad9cd65","665500ab8938657b03fbdba8","665792db167444180ef3f8ce","1442","stimuli/0111010.jpg","2","","prediction_trial","0","","false","","0","true","true","false","false","false","false","[1,0,2]","111","010","0","","","","","","",""
"","","","","","image-keyboard-response","135","206729","0.0-110.0","5e80a85916cd8c000ad9cd65","665500ab8938657b03fbdba8","665792db167444180ef3f8ce","1112","stimuli/01110100.jpg"," ","","feedback_trial","1","","","","","","","","","","","","","","","","","","","","",""
"","","","","","image-keyboard-response","136","208733","0.0-111.0","5e80a85916cd8c000ad9cd65","665500ab8938657b03fbdba8","665792db167444180ef3f8ce","1997","stimuli/0010111.jpg","2","","prediction_trial","0","","false","","0","false","false","true","true","false","false","[0]","010","111","0","","","","","","",""
"","","","","","image-keyboard-response","137","209390","0.0-112.0","5e80a85916cd8c000ad9cd65","665500ab8938657b03fbdba8","665792db167444180ef3f8ce","656","stimuli/00101110.jpg"," ","","feedback_trial","0","","","","","","","","","","","","","","","","","","","","",""
"","","","","","image-keyboard-response","138","210468","0.0-113.0","5e80a85916cd8c000ad9cd65","665500ab8938657b03fbdba8","665792db167444180ef3f8ce","1078","stimuli/2011011.jpg","2","","prediction_trial","1","","false","","2","false","false","false","false","false","false","[2,1]","011","011","0","","","","","","",""
"","","","","","image-keyboard-response","139","211229","0.0-114.0","5e80a85916cd8c000ad9cd65","665500ab8938657b03fbdba8","665792db167444180ef3f8ce","760","stimuli/20110111.jpg"," ","","feedback_trial","2","","","","","","","","","","","","","","","","","","","","",""
"","","","","","image-keyboard-response","140","212868","0.0-115.0","5e80a85916cd8c000ad9cd65","665500ab8938657b03fbdba8","665792db167444180ef3f8ce","1639","stimuli/0101011.jpg","0","","prediction_trial","0","","true","","0","true","true","false","false","false","false","[2,0]","101","011","1","","","","","","",""
"","","","","","image-keyboard-response","141","213209","0.0-116.0","5e80a85916cd8c000ad9cd65","665500ab8938657b03fbdba8","665792db167444180ef3f8ce","340","stimuli/01010110.jpg"," ","","feedback_trial","2","","","","","","","","","","","","","","","","","","","","",""
"","","","","","image-keyboard-response","142","214186","0.0-117.0","5e80a85916cd8c000ad9cd65","665500ab8938657b03fbdba8","665792db167444180ef3f8ce","970","stimuli/2111100.jpg","2","","prediction_trial","0","","false","","2","true","true","false","false","false","false","[2,0,1]","111","100","0","","","","","","",""
"","","","","","image-keyboard-response","143","215119","0.0-118.0","5e80a85916cd8c000ad9cd65","665500ab8938657b03fbdba8","665792db167444180ef3f8ce","932","stimuli/21111000.jpg"," ","","feedback_trial","2","","","","","","","","","","","","","","","","","","","","",""
"","","","","","image-keyboard-response","144","216261","0.0-119.0","5e80a85916cd8c000ad9cd65","665500ab8938657b03fbdba8","665792db167444180ef3f8ce","1141","stimuli/0010011.jpg","0","","prediction_trial","0","","true","","0","true","true","true","true","true","true","[0]","010","011","1","","","","","","",""
"","","","","","image-keyboard-response","145","216527","0.0-120.0","5e80a85916cd8c000ad9cd65","665500ab8938657b03fbdba8","665792db167444180ef3f8ce","265","stimuli/00100110.jpg"," ","","feedback_trial","0","","","","","","","","","","","","","","","","","","","","",""
"","","","","","image-keyboard-response","146","218523","0.0-121.0","5e80a85916cd8c000ad9cd65","665500ab8938657b03fbdba8","665792db167444180ef3f8ce","1995","stimuli/1100011.jpg","2","","prediction_trial","1","","false","","1","false","false","true","true","false","false","[1]","100","011","0","","","","","","",""
"","","","","","image-keyboard-response","147","218978","0.0-122.0","5e80a85916cd8c000ad9cd65","665500ab8938657b03fbdba8","665792db167444180ef3f8ce","455","stimuli/11000111.jpg"," ","","feedback_trial","1","","","","","","","","","","","","","","","","","","","","",""
"","","","","","image-keyboard-response","148","220643","0.0-123.0","5e80a85916cd8c000ad9cd65","665500ab8938657b03fbdba8","665792db167444180ef3f8ce","1657","stimuli/0100011.jpg","0","","prediction_trial","0","","true","","0","true","true","false","true","false","true","[0]","100","011","1","","","","","","",""
"","","","","","image-keyboard-response","149","220958","0.0-124.0","5e80a85916cd8c000ad9cd65","665500ab8938657b03fbdba8","665792db167444180ef3f8ce","315","stimuli/01000110.jpg"," ","","feedback_trial","0","","","","","","","","","","","","","","","","","","","","",""
"","","","","","image-keyboard-response","150","221841","0.0-125.0","5e80a85916cd8c000ad9cd65","665500ab8938657b03fbdba8","665792db167444180ef3f8ce","881","stimuli/1000100.jpg","1","","prediction_trial","1","","true","","1","true","true","true","true","true","true","[1]","000","100","1","","","","","","",""
"","","","","","image-keyboard-response","151","222085","0.0-126.0","5e80a85916cd8c000ad9cd65","665500ab8938657b03fbdba8","665792db167444180ef3f8ce","244","stimuli/10001001.jpg"," ","","feedback_trial","1","","","","","","","","","","","","","","","","","","","","",""
"","","","","","image-keyboard-response","152","224642","0.0-127.0","5e80a85916cd8c000ad9cd65","665500ab8938657b03fbdba8","665792db167444180ef3f8ce","2556","stimuli/1001010.jpg","1","","prediction_trial","1","","true","","1","false","true","true","true","false","true","[1]","001","010","1","","","","","","",""
"","","","","","image-keyboard-response","153","224912","0.0-128.0","5e80a85916cd8c000ad9cd65","665500ab8938657b03fbdba8","665792db167444180ef3f8ce","270","stimuli/10010101.jpg"," ","","feedback_trial","1","","","","","","","","","","","","","","","","","","","","",""
"","","","","","image-keyboard-response","154","225850","0.0-129.0","5e80a85916cd8c000ad9cd65","665500ab8938657b03fbdba8","665792db167444180ef3f8ce","936","stimuli/2010110.jpg","2","","prediction_trial","2","","true","","2","true","true","true","true","true","true","[2]","010","110","1","","","","","","",""
"","","","","","image-keyboard-response","155","226061","0.0-130.0","5e80a85916cd8c000ad9cd65","665500ab8938657b03fbdba8","665792db167444180ef3f8ce","210","stimuli/20101102.jpg"," ","","feedback_trial","2","","","","","","","","","","","","","","","","","","","","",""
"","","","","","image-keyboard-response","156","227053","0.0-131.0","5e80a85916cd8c000ad9cd65","665500ab8938657b03fbdba8","665792db167444180ef3f8ce","992","stimuli/2000110.jpg","2","","prediction_trial","2","","true","","2","true","true","true","true","true","true","[2]","000","110","1","","","","","","",""
"","","","","","image-keyboard-response","157","227219","0.0-132.0","5e80a85916cd8c000ad9cd65","665500ab8938657b03fbdba8","665792db167444180ef3f8ce","165","stimuli/20001102.jpg"," ","","feedback_trial","2","","","","","","","","","","","","","","","","","","","","",""
"","","","","","image-keyboard-response","158","229033","0.0-133.0","5e80a85916cd8c000ad9cd65","665500ab8938657b03fbdba8","665792db167444180ef3f8ce","1814","stimuli/0110010.jpg","0","","prediction_trial","1","","false","","0","true","true","false","false","false","false","[1,0]","110","010","0","","","","","","",""
"","","","","","image-keyboard-response","159","229594","0.0-134.0","5e80a85916cd8c000ad9cd65","665500ab8938657b03fbdba8","665792db167444180ef3f8ce","560","stimuli/01100101.jpg"," ","","feedback_trial","1","","","","","","","","","","","","","","","","","","","","",""
"","","","","","image-keyboard-response","160","230381","0.0-135.0","5e80a85916cd8c000ad9cd65","665500ab8938657b03fbdba8","665792db167444180ef3f8ce","780","stimuli/2000100.jpg","2","","prediction_trial","2","","true","","2","true","true","true","true","true","true","[2]","000","100","1","","","","","","",""
"","","","","","image-keyboard-response","161","230597","0.0-136.0","5e80a85916cd8c000ad9cd65","665500ab8938657b03fbdba8","665792db167444180ef3f8ce","215","stimuli/20001002.jpg"," ","","feedback_trial","2","","","","","","","","","","","","","","","","","","","","",""
"","","","","","image-keyboard-response","162","232752","0.0-137.0","5e80a85916cd8c000ad9cd65","665500ab8938657b03fbdba8","665792db167444180ef3f8ce","2155","stimuli/0001100.jpg","0","","prediction_trial","0","","true","","0","false","true","true","true","false","true","[0]","001","100","1","","","","","","",""
"","","","","","image-keyboard-response","163","233002","0.0-138.0","5e80a85916cd8c000ad9cd65","665500ab8938657b03fbdba8","665792db167444180ef3f8ce","249","stimuli/00011000.jpg"," ","","feedback_trial","0","","","","","","","","","","","","","","","","","","","","",""
"","","","","","image-keyboard-response","164","234957","0.0-139.0","5e80a85916cd8c000ad9cd65","665500ab8938657b03fbdba8","665792db167444180ef3f8ce","1955","stimuli/2010111.jpg","1","","prediction_trial","2","","false","","2","false","false","true","true","false","false","[2]","010","111","0","","","","","","",""
"","","","","","image-keyboard-response","165","235629","0.0-140.0","5e80a85916cd8c000ad9cd65","665500ab8938657b03fbdba8","665792db167444180ef3f8ce","671","stimuli/20101112.jpg"," ","","feedback_trial","2","","","","","","","","","","","","","","","","","","","","",""
"","","","","","image-keyboard-response","166","237398","0.0-141.0","5e80a85916cd8c000ad9cd65","665500ab8938657b03fbdba8","665792db167444180ef3f8ce","1762","stimuli/2010011.jpg","1","","prediction_trial","2","","false","","2","false","false","true","true","false","false","[2]","010","011","0","","","","","","",""
"","","","","","image-keyboard-response","167","237989","0.0-142.0","5e80a85916cd8c000ad9cd65","665500ab8938657b03fbdba8","665792db167444180ef3f8ce","590","stimuli/20100112.jpg"," ","","feedback_trial","2","","","","","","","","","","","","","","","","","","","","",""
"","","","","","image-keyboard-response","168","240626","0.0-143.0","5e80a85916cd8c000ad9cd65","665500ab8938657b03fbdba8","665792db167444180ef3f8ce","2636","stimuli/1001011.jpg","2","","prediction_trial","1","","false","","1","false","false","true","true","false","false","[1]","001","011","0","","","","","","",""
"","","","","","image-keyboard-response","169","241197","0.0-144.0","5e80a85916cd8c000ad9cd65","665500ab8938657b03fbdba8","665792db167444180ef3f8ce","570","stimuli/10010111.jpg"," ","","feedback_trial","1","","","","","","","","","","","","","","","","","","","","",""
"","","","","","image-keyboard-response","170","243037","0.0-145.0","5e80a85916cd8c000ad9cd65","665500ab8938657b03fbdba8","665792db167444180ef3f8ce","1839","stimuli/1010101.jpg","1","","prediction_trial","1","","true","","1","true","true","false","true","false","true","[1]","010","101","1","","","","","","",""
"","","","","","image-keyboard-response","171","243272","0.0-146.0","5e80a85916cd8c000ad9cd65","665500ab8938657b03fbdba8","665792db167444180ef3f8ce","234","stimuli/10101011.jpg"," ","","feedback_trial","1","","","","","","","","","","","","","","","","","","","","",""
"","","","","","image-keyboard-response","172","244643","0.0-147.0","5e80a85916cd8c000ad9cd65","665500ab8938657b03fbdba8","665792db167444180ef3f8ce","1367","stimuli/0110101.jpg","0","","prediction_trial","1","","false","","0","false","false","false","false","false","false","[0,1]","110","101","0","","","","","","",""
"","","","","","image-keyboard-response","173","244869","0.0-148.0","5e80a85916cd8c000ad9cd65","665500ab8938657b03fbdba8","665792db167444180ef3f8ce","225","stimuli/01101011.jpg"," ","","feedback_trial","0","","","","","","","","","","","","","","","","","","","","",""
"","","","","","image-keyboard-response","174","246228","0.0-149.0","5e80a85916cd8c000ad9cd65","665500ab8938657b03fbdba8","665792db167444180ef3f8ce","1358","stimuli/2001110.jpg","2","","prediction_trial","2","","true","","2","true","true","false","true","false","true","[2]","001","110","1","","","","","","",""
"","","","","","image-keyboard-response","175","246433","0.0-150.0","5e80a85916cd8c000ad9cd65","665500ab8938657b03fbdba8","665792db167444180ef3f8ce","205","stimuli/20011102.jpg"," ","","feedback_trial","2","","","","","","","","","","","","","","","","","","","","",""
"","","","","","image-keyboard-response","176","248093","0.0-151.0","5e80a85916cd8c000ad9cd65","665500ab8938657b03fbdba8","665792db167444180ef3f8ce","1659","stimuli/1001110.jpg","1","","prediction_trial","1","","true","","1","false","false","true","true","false","false","[1]","001","110","1","","","","","","",""
"","","","","","image-keyboard-response","177","248347","0.0-152.0","5e80a85916cd8c000ad9cd65","665500ab8938657b03fbdba8","665792db167444180ef3f8ce","254","stimuli/10011101.jpg"," ","","feedback_trial","1","","","","","","","","","","","","","","","","","","","","",""
"","","","","","image-keyboard-response","178","250879","0.0-153.0","5e80a85916cd8c000ad9cd65","665500ab8938657b03fbdba8","665792db167444180ef3f8ce","2524","stimuli/2110111.jpg","1","","prediction_trial","2","","false","","2","false","false","true","true","false","false","[2]","110","111","0","","","","","","",""
"","","","","","image-keyboard-response","179","251526","0.0-154.0","5e80a85916cd8c000ad9cd65","665500ab8938657b03fbdba8","665792db167444180ef3f8ce","646","stimuli/21101112.jpg"," ","","feedback_trial","2","","","","","","","","","","","","","","","","","","","","",""
"","","","","","image-keyboard-response","180","253250","0.0-155.0","5e80a85916cd8c000ad9cd65","665500ab8938657b03fbdba8","665792db167444180ef3f8ce","1723","stimuli/1111011.jpg","2","","prediction_trial","0","","false","","1","false","false","false","false","false","false","[0,2,1]","111","011","0","","","","","","",""
"","","","","","image-keyboard-response","181","253721","0.0-156.0","5e80a85916cd8c000ad9cd65","665500ab8938657b03fbdba8","665792db167444180ef3f8ce","470","stimuli/11110110.jpg"," ","","feedback_trial","0","","","","","","","","","","","","","","","","","","","","",""
"","","","","","image-keyboard-response","182","255916","0.0-157.0","5e80a85916cd8c000ad9cd65","665500ab8938657b03fbdba8","665792db167444180ef3f8ce","2194","stimuli/0101100.jpg","2","","prediction_trial","2","","true","","0","false","true","false","false","false","false","[0,2]","101","100","1","","","","","","",""
"","","","","","image-keyboard-response","183","256217","0.0-158.0","5e80a85916cd8c000ad9cd65","665500ab8938657b03fbdba8","665792db167444180ef3f8ce","300","stimuli/01011002.jpg"," ","","feedback_trial","0","","","","","","","","","","","","","","","","","","","","",""
"","","","","","image-keyboard-response","184","258031","0.0-159.0","5e80a85916cd8c000ad9cd65","665500ab8938657b03fbdba8","665792db167444180ef3f8ce","1808","stimuli/0110001.jpg","1","","prediction_trial","0","","false","","0","true","true","false","false","false","false","[0,1]","110","001","0","","","","","","",""
"","","","","","image-keyboard-response","185","258462","0.0-160.0","5e80a85916cd8c000ad9cd65","665500ab8938657b03fbdba8","665792db167444180ef3f8ce","430","stimuli/01100010.jpg"," ","","feedback_trial","0","","","","","","","","","","","","","","","","","","","","",""
"","","","","","image-keyboard-response","186","260638","0.0-161.0","5e80a85916cd8c000ad9cd65","665500ab8938657b03fbdba8","665792db167444180ef3f8ce","2175","stimuli/2110101.jpg","1","","prediction_trial","2","","false","","2","false","false","true","true","false","false","[2]","110","101","0","","","","","","",""
"","","","","","image-keyboard-response","187","261645","0.0-162.0","5e80a85916cd8c000ad9cd65","665500ab8938657b03fbdba8","665792db167444180ef3f8ce","1006","stimuli/21101012.jpg"," ","","feedback_trial","2","","","","","","","","","","","","","","","","","","","","",""
"","","","","","image-keyboard-response","188","263078","0.0-163.0","5e80a85916cd8c000ad9cd65","665500ab8938657b03fbdba8","665792db167444180ef3f8ce","1432","stimuli/0110000.jpg","0","","prediction_trial","1","","false","","0","true","true","false","false","false","false","[0,1]","110","000","0","","","","","","",""
"","","","","","image-keyboard-response","189","263464","0.0-164.0","5e80a85916cd8c000ad9cd65","665500ab8938657b03fbdba8","665792db167444180ef3f8ce","385","stimuli/01100001.jpg"," ","","feedback_trial","0","","","","","","","","","","","","","","","","","","","","",""
"","","","","","image-keyboard-response","190","265910","0.0-165.0","5e80a85916cd8c000ad9cd65","665500ab8938657b03fbdba8","665792db167444180ef3f8ce","2439","stimuli/0010110.jpg","0","","prediction_trial","0","","true","","0","false","false","true","true","false","false","[0]","010","110","1","","","","","","",""
"","","","","","image-keyboard-response","191","266251","0.0-166.0","5e80a85916cd8c000ad9cd65","665500ab8938657b03fbdba8","665792db167444180ef3f8ce","340","stimuli/00101100.jpg"," ","","feedback_trial","0","","","","","","","","","","","","","","","","","","","","",""
"","","","","","image-keyboard-response","192","267529","0.0-167.0","5e80a85916cd8c000ad9cd65","665500ab8938657b03fbdba8","665792db167444180ef3f8ce","1277","stimuli/1111000.jpg","2","","prediction_trial","1","","false","","1","true","true","false","false","false","false","[2,0,1]","111","000","0","","","","","","",""
"","","","","","image-keyboard-response","193","268020","0.0-168.0","5e80a85916cd8c000ad9cd65","665500ab8938657b03fbdba8","665792db167444180ef3f8ce","490","stimuli/11110001.jpg"," ","","feedback_trial","2","","","","","","","","","","","","","","","","","","","","",""
"","","","","","image-keyboard-response","194","270932","0.0-169.0","5e80a85916cd8c000ad9cd65","665500ab8938657b03fbdba8","665792db167444180ef3f8ce","2912","stimuli/1011010.jpg","2","","prediction_trial","2","","true","","1","false","true","false","false","false","false","[1,2]","011","010","1","","","","","","",""
"","","","","","image-keyboard-response","195","271068","0.0-170.0","5e80a85916cd8c000ad9cd65","665500ab8938657b03fbdba8","665792db167444180ef3f8ce","135","stimuli/10110102.jpg"," ","","feedback_trial","1","","","","","","","","","","","","","","","","","","","","",""
"","","","","","image-keyboard-response","196","272005","0.0-171.0","5e80a85916cd8c000ad9cd65","665500ab8938657b03fbdba8","665792db167444180ef3f8ce","931","stimuli/2100000.jpg","2","","prediction_trial","2","","true","","2","true","true","true","true","true","true","[2]","100","000","1","","","","","","",""
"","","","","","image-keyboard-response","197","272130","0.0-172.0","5e80a85916cd8c000ad9cd65","665500ab8938657b03fbdba8","665792db167444180ef3f8ce","124","stimuli/21000002.jpg"," ","","feedback_trial","2","","","","","","","","","","","","","","","","","","","","",""
"","","","","","image-keyboard-response","198","273879","0.0-173.0","5e80a85916cd8c000ad9cd65","665500ab8938657b03fbdba8","665792db167444180ef3f8ce","1749","stimuli/1000111.jpg","1","","prediction_trial","1","","true","","1","false","false","true","true","false","false","[1]","000","111","1","","","","","","",""
"","","","","","image-keyboard-response","199","274130","0.0-174.0","5e80a85916cd8c000ad9cd65","665500ab8938657b03fbdba8","665792db167444180ef3f8ce","250","stimuli/10001111.jpg"," ","","feedback_trial","1","","","","","","","","","","","","","","","","","","","","",""
"","","","","","image-keyboard-response","200","275719","0.0-175.0","5e80a85916cd8c000ad9cd65","665500ab8938657b03fbdba8","665792db167444180ef3f8ce","1588","stimuli/1100000.jpg","1","","prediction_trial","1","","true","","1","true","true","true","true","true","true","[1]","100","000","1","","","","","","",""
"","","","","","image-keyboard-response","201","275874","0.0-176.0","5e80a85916cd8c000ad9cd65","665500ab8938657b03fbdba8","665792db167444180ef3f8ce","154","stimuli/11000001.jpg"," ","","feedback_trial","1","","","","","","","","","","","","","","","","","","","","",""
"","","","","","image-keyboard-response","202","277132","0.0-177.0","5e80a85916cd8c000ad9cd65","665500ab8938657b03fbdba8","665792db167444180ef3f8ce","1251","stimuli/1110100.jpg","0","","prediction_trial","1","","false","","1","true","true","false","false","false","false","[1,0]","110","100","0","","","","","","",""
"","","","","","image-keyboard-response","203","277563","0.0-178.0","5e80a85916cd8c000ad9cd65","665500ab8938657b03fbdba8","665792db167444180ef3f8ce","430","stimuli/11101001.jpg"," ","","feedback_trial","1","","","","","","","","","","","","","","","","","","","","",""
"","","","","","image-keyboard-response","204","278440","0.0-179.0","5e80a85916cd8c000ad9cd65","665500ab8938657b03fbdba8","665792db167444180ef3f8ce","876","stimuli/2011000.jpg","2","","prediction_trial","2","","true","","2","true","true","false","false","false","false","[2,1]","011","000","1","","","","","","",""
"","","","","","image-keyboard-response","205","278671","0.0-180.0","5e80a85916cd8c000ad9cd65","665500ab8938657b03fbdba8","665792db167444180ef3f8ce","230","stimuli/20110002.jpg"," ","","feedback_trial","2","","","","","","","","","","","","","","","","","","","","",""
"","","","","","image-keyboard-response","206","280139","0.0-181.0","5e80a85916cd8c000ad9cd65","665500ab8938657b03fbdba8","665792db167444180ef3f8ce","1467","stimuli/0010001.jpg","0","","prediction_trial","0","","true","","0","true","true","true","true","true","true","[0]","010","001","1","","","","","","",""
"","","","","","image-keyboard-response","207","280305","0.0-182.0","5e80a85916cd8c000ad9cd65","665500ab8938657b03fbdba8","665792db167444180ef3f8ce","165","stimuli/00100010.jpg"," ","","feedback_trial","0","","","","","","","","","","","","","","","","","","","","",""
"","","","","","image-keyboard-response","208","281368","0.0-183.0","5e80a85916cd8c000ad9cd65","665500ab8938657b03fbdba8","665792db167444180ef3f8ce","1055","stimuli/1010000.jpg","1","","prediction_trial","1","","true","","1","true","true","false","true","false","true","[1]","010","000","1","","","","","","",""
"","","","","","image-keyboard-response","209","281553","0.0-184.0","5e80a85916cd8c000ad9cd65","665500ab8938657b03fbdba8","665792db167444180ef3f8ce","185","stimuli/10100001.jpg"," ","","feedback_trial","1","","","","","","","","","","","","","","","","","","","","",""
"","","","","","image-keyboard-response","210","283739","0.0-185.0","5e80a85916cd8c000ad9cd65","665500ab8938657b03fbdba8","665792db167444180ef3f8ce","2184","stimuli/1011011.jpg","1","","prediction_trial","1","","true","","1","false","false","false","false","false","false","[1,2]","011","011","1","","","","","","",""
"","","","","","image-keyboard-response","211","283824","0.0-186.0","5e80a85916cd8c000ad9cd65","665500ab8938657b03fbdba8","665792db167444180ef3f8ce","84","stimuli/10110111.jpg"," ","","feedback_trial","1","","","","","","","","","","","","","","","","","","","","",""
"","","","","","image-keyboard-response","212","284696","0.0-187.0","5e80a85916cd8c000ad9cd65","665500ab8938657b03fbdba8","665792db167444180ef3f8ce","871","stimuli/2000000.jpg","2","","prediction_trial","2","","true","","2","true","true","true","true","true","true","[2]","000","000","1","","","","","","",""
"","","","","","image-keyboard-response","213","284896","0.0-188.0","5e80a85916cd8c000ad9cd65","665500ab8938657b03fbdba8","665792db167444180ef3f8ce","200","stimuli/20000002.jpg"," ","","feedback_trial","2","","","","","","","","","","","","","","","","","","","","",""
"","","","","","image-keyboard-response","214","287618","0.0-189.0","5e80a85916cd8c000ad9cd65","665500ab8938657b03fbdba8","665792db167444180ef3f8ce","2715","stimuli/0011100.jpg","0","","prediction_trial","0","","true","","0","false","true","true","true","false","true","[0]","011","100","1","","","","","","",""
"","","","","","image-keyboard-response","215","287789","0.0-190.0","5e80a85916cd8c000ad9cd65","665500ab8938657b03fbdba8","665792db167444180ef3f8ce","170","stimuli/00111000.jpg"," ","","feedback_trial","0","","","","","","","","","","","","","","","","","","","","",""
"","","","","","image-keyboard-response","216","289683","0.0-191.0","5e80a85916cd8c000ad9cd65","665500ab8938657b03fbdba8","665792db167444180ef3f8ce","1894","stimuli/2011111.jpg","2","","prediction_trial","2","","true","","2","false","false","false","false","false","false","[1,2]","011","111","1","","","","","","",""
"","","","","","image-keyboard-response","217","289894","0.0-192.0","5e80a85916cd8c000ad9cd65","665500ab8938657b03fbdba8","665792db167444180ef3f8ce","210","stimuli/20111112.jpg"," ","","feedback_trial","1","","","","","","","","","","","","","","","","","","","","",""
"","","","","","image-keyboard-response","218","291137","0.0-193.0","5e80a85916cd8c000ad9cd65","665500ab8938657b03fbdba8","665792db167444180ef3f8ce","1242","stimuli/2101000.jpg","2","","prediction_trial","2","","true","","2","true","true","false","false","false","false","[0,2]","101","000","1","","","","","","",""
"","","","","","image-keyboard-response","219","291337","0.0-194.0","5e80a85916cd8c000ad9cd65","665500ab8938657b03fbdba8","665792db167444180ef3f8ce","199","stimuli/21010002.jpg"," ","","feedback_trial","0","","","","","","","","","","","","","","","","","","","","",""
"","","","","","image-keyboard-response","220","293502","0.0-195.0","5e80a85916cd8c000ad9cd65","665500ab8938657b03fbdba8","665792db167444180ef3f8ce","2164","stimuli/0001111.jpg","0","","prediction_trial","0","","true","","0","false","false","true","true","false","false","[0]","001","111","1","","","","","","",""
"","","","","","image-keyboard-response","221","293933","0.0-196.0","5e80a85916cd8c000ad9cd65","665500ab8938657b03fbdba8","665792db167444180ef3f8ce","430","stimuli/00011110.jpg"," ","","feedback_trial","0","","","","","","","","","","","","","","","","","","","","",""
"","","","","","image-keyboard-response","222","295833","0.0-197.0","5e80a85916cd8c000ad9cd65","665500ab8938657b03fbdba8","665792db167444180ef3f8ce","1899","stimuli/2101111.jpg","2","","prediction_trial","2","","true","","2","false","false","false","false","false","false","[0,2]","101","111","1","","","","","","",""
"","","","","","image-keyboard-response","223","296139","0.0-198.0","5e80a85916cd8c000ad9cd65","665500ab8938657b03fbdba8","665792db167444180ef3f8ce","305","stimuli/21011112.jpg"," ","","feedback_trial","0","","","","","","","","","","","","","","","","","","","","",""
"","","","","","image-keyboard-response","224","298830","0.0-199.0","5e80a85916cd8c000ad9cd65","665500ab8938657b03fbdba8","665792db167444180ef3f8ce","2691","stimuli/0111100.jpg","1","","prediction_trial","1","","true","","0","false","true","false","false","false","false","[1,2,0]","111","100","1","","","","","","",""
"","","","","","image-keyboard-response","225","299086","0.0-200.0","5e80a85916cd8c000ad9cd65","665500ab8938657b03fbdba8","665792db167444180ef3f8ce","255","stimuli/01111001.jpg"," ","","feedback_trial","1","","","","","","","","","","","","","","","","","","","","",""
"","","","","","image-keyboard-response","226","300223","0.0-201.0","5e80a85916cd8c000ad9cd65","665500ab8938657b03fbdba8","665792db167444180ef3f8ce","1130","stimuli/1100100.jpg","1","","prediction_trial","1","","true","","1","true","true","true","true","true","true","[1]","100","100","1","","","","","","",""
"","","","","","image-keyboard-response","227","300359","0.0-202.0","5e80a85916cd8c000ad9cd65","665500ab8938657b03fbdba8","665792db167444180ef3f8ce","135","stimuli/11001001.jpg"," ","","feedback_trial","1","","","","","","","","","","","","","","","","","","","","",""
"","","","","","image-keyboard-response","228","301717","0.0-203.0","5e80a85916cd8c000ad9cd65","665500ab8938657b03fbdba8","665792db167444180ef3f8ce","1358","stimuli/0011000.jpg","0","","prediction_trial","0","","true","","0","true","true","true","true","true","true","[0]","011","000","1","","","","","","",""
"","","","","","image-keyboard-response","229","301889","0.0-204.0","5e80a85916cd8c000ad9cd65","665500ab8938657b03fbdba8","665792db167444180ef3f8ce","172","stimuli/00110000.jpg"," ","","feedback_trial","0","","","","","","","","","","","","","","","","","","","","",""
"","","","","","image-keyboard-response","230","302910","0.0-205.0","5e80a85916cd8c000ad9cd65","665500ab8938657b03fbdba8","665792db167444180ef3f8ce","1020","stimuli/0111101.jpg","2","","prediction_trial","1","","false","","0","false","false","false","false","false","false","[2,1,0]","111","101","0","","","","","","",""
"","","","","","image-keyboard-response","231","303125","0.0-206.0","5e80a85916cd8c000ad9cd65","665500ab8938657b03fbdba8","665792db167444180ef3f8ce","214","stimuli/01111011.jpg"," ","","feedback_trial","2","","","","","","","","","","","","","","","","","","","","",""
"","","","","","image-keyboard-response","232","304795","0.0-207.0","5e80a85916cd8c000ad9cd65","665500ab8938657b03fbdba8","665792db167444180ef3f8ce","1662","stimuli/2001011.jpg","1","","prediction_trial","2","","false","","2","false","false","false","true","false","false","[2]","001","011","0","","","","","","",""
"","","","","","image-keyboard-response","233","304966","0.0-208.0","5e80a85916cd8c000ad9cd65","665500ab8938657b03fbdba8","665792db167444180ef3f8ce","170","stimuli/20010112.jpg"," ","","feedback_trial","2","","","","","","","","","","","","","","","","","","","","",""
"","","","","","image-keyboard-response","234","306184","0.0-209.0","5e80a85916cd8c000ad9cd65","665500ab8938657b03fbdba8","665792db167444180ef3f8ce","1217","stimuli/0010000.jpg","0","","prediction_trial","0","","true","","0","true","true","true","true","true","true","[0]","010","000","1","","","","","","",""
"","","","","","image-keyboard-response","235","306359","0.0-210.0","5e80a85916cd8c000ad9cd65","665500ab8938657b03fbdba8","665792db167444180ef3f8ce","174","stimuli/00100000.jpg"," ","","feedback_trial","0","","","","","","","","","","","","","","","","","","","","",""
"","","","","","image-keyboard-response","236","307041","0.0-211.0","5e80a85916cd8c000ad9cd65","665500ab8938657b03fbdba8","665792db167444180ef3f8ce","681","stimuli/1101000.jpg","1","","prediction_trial","1","","true","","1","true","true","true","true","true","true","[1]","101","000","1","","","","","","",""
"","","","","","image-keyboard-response","237","307216","0.0-212.0","5e80a85916cd8c000ad9cd65","665500ab8938657b03fbdba8","665792db167444180ef3f8ce","174","stimuli/11010001.jpg"," ","","feedback_trial","1","","","","","","","","","","","","","","","","","","","","",""
"","","","","","image-keyboard-response","238","308564","0.0-213.0","5e80a85916cd8c000ad9cd65","665500ab8938657b03fbdba8","665792db167444180ef3f8ce","1341","stimuli/0101001.jpg","2","","prediction_trial","0","","false","","0","true","true","false","false","false","false","[2,0]","101","001","0","","","","","","",""
"","","","","","image-keyboard-response","239","308780","0.0-214.0","5e80a85916cd8c000ad9cd65","665500ab8938657b03fbdba8","665792db167444180ef3f8ce","215","stimuli/01010010.jpg"," ","","feedback_trial","2","","","","","","","","","","","","","","","","","","","","",""
"","","","","","image-keyboard-response","240","310820","0.0-215.0","5e80a85916cd8c000ad9cd65","665500ab8938657b03fbdba8","665792db167444180ef3f8ce","2040","stimuli/1110111.jpg","1","","prediction_trial","1","","true","","1","false","false","false","false","false","false","[0,1]","110","111","1","","","","","","",""
"","","","","","image-keyboard-response","241","311080","0.0-216.0","5e80a85916cd8c000ad9cd65","665500ab8938657b03fbdba8","665792db167444180ef3f8ce","259","stimuli/11101111.jpg"," ","","feedback_trial","0","","","","","","","","","","","","","","","","","","","","",""
"","","","","","image-keyboard-response","242","313110","0.0-217.0","5e80a85916cd8c000ad9cd65","665500ab8938657b03fbdba8","665792db167444180ef3f8ce","2029","stimuli/2100011.jpg","2","","prediction_trial","2","","true","","2","false","false","true","true","false","false","[2]","100","011","1","","","","","","",""
"","","","","","image-keyboard-response","243","313411","0.0-218.0","5e80a85916cd8c000ad9cd65","665500ab8938657b03fbdba8","665792db167444180ef3f8ce","300","stimuli/21000112.jpg"," ","","feedback_trial","2","","","","","","","","","","","","","","","","","","","","",""
"","","","","","image-keyboard-response","244","315741","0.0-219.0","5e80a85916cd8c000ad9cd65","665500ab8938657b03fbdba8","665792db167444180ef3f8ce","2323","stimuli/2011001.jpg","2","","prediction_trial","1","","false","","2","false","true","false","false","false","false","[2,1]","011","001","0","","","","","","",""
"","","","","","image-keyboard-response","245","315937","0.0-220.0","5e80a85916cd8c000ad9cd65","665500ab8938657b03fbdba8","665792db167444180ef3f8ce","195","stimuli/20110011.jpg"," ","","feedback_trial","2","","","","","","","","","","","","","","","","","","","","",""
"","","","","","image-keyboard-response","246","317385","0.0-221.0","5e80a85916cd8c000ad9cd65","665500ab8938657b03fbdba8","665792db167444180ef3f8ce","1447","stimuli/2001000.jpg","2","","prediction_trial","2","","true","","2","true","true","false","true","false","true","[2]","001","000","1","","","","","","",""
"","","","","","image-keyboard-response","247","317516","0.0-222.0","5e80a85916cd8c000ad9cd65","665500ab8938657b03fbdba8","665792db167444180ef3f8ce","130","stimuli/20010002.jpg"," ","","feedback_trial","2","","","","","","","","","","","","","","","","","","","","",""
"","","","","","image-keyboard-response","248","318227","0.0-223.0","5e80a85916cd8c000ad9cd65","665500ab8938657b03fbdba8","665792db167444180ef3f8ce","710","stimuli/0000000.jpg","0","","prediction_trial","0","","true","","0","true","true","true","true","true","true","[0]","000","000","1","","","","","","",""
"","","","","","image-keyboard-response","249","318393","0.0-224.0","5e80a85916cd8c000ad9cd65","665500ab8938657b03fbdba8","665792db167444180ef3f8ce","165","stimuli/00000000.jpg"," ","","feedback_trial","0","","","","","","","","","","","","","","","","","","","","",""
"","","","","","image-keyboard-response","250","319180","0.0-225.0","5e80a85916cd8c000ad9cd65","665500ab8938657b03fbdba8","665792db167444180ef3f8ce","780","stimuli/2010100.jpg","2","","prediction_trial","2","","true","","2","true","true","true","true","true","true","[2]","010","100","1","","","","","","",""
"","","","","","image-keyboard-response","251","319345","0.0-226.0","5e80a85916cd8c000ad9cd65","665500ab8938657b03fbdba8","665792db167444180ef3f8ce","164","stimuli/20101002.jpg"," ","","feedback_trial","2","","","","","","","","","","","","","","","","","","","","",""
"","","","","","image-keyboard-response","252","320568","0.0-227.0","5e80a85916cd8c000ad9cd65","665500ab8938657b03fbdba8","665792db167444180ef3f8ce","1223","stimuli/1001111.jpg","0","","prediction_trial","1","","false","","1","false","false","true","true","false","false","[1]","001","111","0","","","","","","",""
"","","","","","image-keyboard-response","253","320718","0.0-228.0","5e80a85916cd8c000ad9cd65","665500ab8938657b03fbdba8","665792db167444180ef3f8ce","149","stimuli/10011111.jpg"," ","","feedback_trial","1","","","","","","","","","","","","","","","","","","","","",""
"","","","","","image-keyboard-response","254","323230","0.0-229.0","5e80a85916cd8c000ad9cd65","665500ab8938657b03fbdba8","665792db167444180ef3f8ce","2511","stimuli/0100010.jpg","0","","prediction_trial","0","","true","","0","true","true","false","true","false","true","[0]","100","010","1","","","","","","",""
"","","","","","image-keyboard-response","255","323380","0.0-230.0","5e80a85916cd8c000ad9cd65","665500ab8938657b03fbdba8","665792db167444180ef3f8ce","150","stimuli/01000100.jpg"," ","","feedback_trial","0","","","","","","","","","","","","","","","","","","","","",""
"","","","","","image-keyboard-response","256","324894","0.0-231.0","5e80a85916cd8c000ad9cd65","665500ab8938657b03fbdba8","665792db167444180ef3f8ce","1507","stimuli/1000000.jpg","1","","prediction_trial","1","","true","","1","true","true","true","true","true","true","[1]","000","000","1","","","","","","",""
"","","","","","image-keyboard-response","257","325014","0.0-232.0","5e80a85916cd8c000ad9cd65","665500ab8938657b03fbdba8","665792db167444180ef3f8ce","120","stimuli/10000001.jpg"," ","","feedback_trial","1","","","","","","","","","","","","","","","","","","","","",""
"","","","","","image-keyboard-response","258","326323","0.0-233.0","5e80a85916cd8c000ad9cd65","665500ab8938657b03fbdba8","665792db167444180ef3f8ce","1308","stimuli/1011101.jpg","2","","prediction_trial","1","","false","","1","true","true","false","false","false","false","[1,2]","011","101","0","","","","","","",""
"","","","","","image-keyboard-response","259","326538","0.0-234.0","5e80a85916cd8c000ad9cd65","665500ab8938657b03fbdba8","665792db167444180ef3f8ce","214","stimuli/10111011.jpg"," ","","feedback_trial","1","","","","","","","","","","","","","","","","","","","","",""
"","","","","","image-keyboard-response","260","327791","0.0-235.0","5e80a85916cd8c000ad9cd65","665500ab8938657b03fbdba8","665792db167444180ef3f8ce","1252","stimuli/1011111.jpg","2","","prediction_trial","2","","true","","1","false","false","false","false","false","false","[2,1]","011","111","1","","","","","","",""
"","","","","","image-keyboard-response","261","327947","0.0-236.0","5e80a85916cd8c000ad9cd65","665500ab8938657b03fbdba8","665792db167444180ef3f8ce","155","stimuli/10111112.jpg"," ","","feedback_trial","2","","","","","","","","","","","","","","","","","","","","",""
"","","","","","image-keyboard-response","262","329921","0.0-237.0","5e80a85916cd8c000ad9cd65","665500ab8938657b03fbdba8","665792db167444180ef3f8ce","1967","stimuli/2111111.jpg","0","","prediction_trial","1","","false","","2","false","false","false","false","false","false","[1,0,2]","111","111","0","","","","","","",""
"","","","","","image-keyboard-response","263","330538","0.0-238.0","5e80a85916cd8c000ad9cd65","665500ab8938657b03fbdba8","665792db167444180ef3f8ce","616","stimuli/21111111.jpg"," ","","feedback_trial","1","","","","","","","","","","","","","","","","","","","","",""
"","","","","","image-keyboard-response","264","331495","0.0-239.0","5e80a85916cd8c000ad9cd65","665500ab8938657b03fbdba8","665792db167444180ef3f8ce","956","stimuli/0000100.jpg","0","","prediction_trial","0","","true","","0","false","true","true","true","false","true","[0]","000","100","1","","","","","","",""
"","","","","","image-keyboard-response","265","331676","0.0-240.0","5e80a85916cd8c000ad9cd65","665500ab8938657b03fbdba8","665792db167444180ef3f8ce","180","stimuli/00001000.jpg"," ","","feedback_trial","0","","","","","","","","","","","","","","","","","","","","",""
"","","","","","image-keyboard-response","266","335460","0.0-241.0","5e80a85916cd8c000ad9cd65","665500ab8938657b03fbdba8","665792db167444180ef3f8ce","3784","stimuli/0010101.jpg","2","","prediction_trial","0","","false","","0","false","false","true","true","false","false","[0]","010","101","0","","","","","","",""
"","","","","","image-keyboard-response","267","335996","0.0-242.0","5e80a85916cd8c000ad9cd65","665500ab8938657b03fbdba8","665792db167444180ef3f8ce","535","stimuli/00101010.jpg"," ","","feedback_trial","0","","","","","","","","","","","","","","","","","","","","",""
"","","","","","image-keyboard-response","268","337008","0.0-243.0","5e80a85916cd8c000ad9cd65","665500ab8938657b03fbdba8","665792db167444180ef3f8ce","1011","stimuli/2101110.jpg","2","","prediction_trial","0","","false","","2","true","true","false","false","false","false","[2,0]","101","110","0","","","","","","",""
"","","","","","image-keyboard-response","269","337620","0.0-244.0","5e80a85916cd8c000ad9cd65","665500ab8938657b03fbdba8","665792db167444180ef3f8ce","611","stimuli/21011100.jpg"," ","","feedback_trial","2","","","","","","","","","","","","","","","","","","","","",""
"","","","","","image-keyboard-response","270","338597","0.0-245.0","5e80a85916cd8c000ad9cd65","665500ab8938657b03fbdba8","665792db167444180ef3f8ce","976","stimuli/1100101.jpg","1","","prediction_trial","1","","true","","1","true","true","true","true","true","true","[1]","100","101","1","","","","","","",""
"","","","","","image-keyboard-response","271","338768","0.0-246.0","5e80a85916cd8c000ad9cd65","665500ab8938657b03fbdba8","665792db167444180ef3f8ce","170","stimuli/11001011.jpg"," ","","feedback_trial","1","","","","","","","","","","","","","","","","","","","","",""
"","","","","","image-keyboard-response","272","339950","0.0-247.0","5e80a85916cd8c000ad9cd65","665500ab8938657b03fbdba8","665792db167444180ef3f8ce","1182","stimuli/2011100.jpg","2","","prediction_trial","1","","false","","2","true","true","false","false","false","false","[2,1]","011","100","0","","","","","","",""
"","","","","","image-keyboard-response","273","340201","0.0-248.0","5e80a85916cd8c000ad9cd65","665500ab8938657b03fbdba8","665792db167444180ef3f8ce","250","stimuli/20111001.jpg"," ","","feedback_trial","2","","","","","","","","","","","","","","","","","","","","",""
"","","","","","image-keyboard-response","274","342752","0.0-249.0","5e80a85916cd8c000ad9cd65","665500ab8938657b03fbdba8","665792db167444180ef3f8ce","2544","stimuli/1110101.jpg","0","","prediction_trial","0","","true","","1","true","true","false","false","false","false","[0,1]","110","101","1","","","","","","",""
"","","","","","image-keyboard-response","275","342933","0.0-250.0","5e80a85916cd8c000ad9cd65","665500ab8938657b03fbdba8","665792db167444180ef3f8ce","180","stimuli/11101010.jpg"," ","","feedback_trial","0","","","","","","","","","","","","","","","","","","","","",""
"","","","","","image-keyboard-response","276","344045","0.0-251.0","5e80a85916cd8c000ad9cd65","665500ab8938657b03fbdba8","665792db167444180ef3f8ce","1111","stimuli/0001010.jpg","0","","prediction_trial","0","","true","","0","true","true","true","true","true","true","[0]","001","010","1","","","","","","",""
"","","","","","image-keyboard-response","277","344191","0.0-252.0","5e80a85916cd8c000ad9cd65","665500ab8938657b03fbdba8","665792db167444180ef3f8ce","145","stimuli/00010100.jpg"," ","","feedback_trial","0","","","","","","","","","","","","","","","","","","","","",""
"","","","","","image-keyboard-response","278","346040","0.0-253.0","5e80a85916cd8c000ad9cd65","665500ab8938657b03fbdba8","665792db167444180ef3f8ce","1849","stimuli/0110011.jpg","0","","prediction_trial","1","","false","","0","true","true","false","false","false","false","[0,1]","110","011","0","","","","","","",""
"","","","","","image-keyboard-response","279","346356","0.0-254.0","5e80a85916cd8c000ad9cd65","665500ab8938657b03fbdba8","665792db167444180ef3f8ce","315","stimuli/01100111.jpg"," ","","feedback_trial","0","","","","","","","","","","","","","","","","","","","","",""
"","","","","","image-keyboard-response","280","347203","0.0-255.0","5e80a85916cd8c000ad9cd65","665500ab8938657b03fbdba8","665792db167444180ef3f8ce","840","stimuli/0100100.jpg","0","","prediction_trial","0","","true","","0","false","true","false","true","false","true","[0]","100","100","1","","","","","","",""
"","","","","","image-keyboard-response","281","347373","0.0-256.0","5e80a85916cd8c000ad9cd65","665500ab8938657b03fbdba8","665792db167444180ef3f8ce","169","stimuli/01001000.jpg"," ","","feedback_trial","0","","","","","","","","","","","","","","","","","","","","",""
"","","","","","image-keyboard-response","282","349002","0.0-257.0","5e80a85916cd8c000ad9cd65","665500ab8938657b03fbdba8","665792db167444180ef3f8ce","1628","stimuli/0000101.jpg","2","","prediction_trial","0","","false","","0","false","false","true","true","false","false","[0]","000","101","0","","","","","","",""
"","","","","","image-keyboard-response","283","349494","0.0-258.0","5e80a85916cd8c000ad9cd65","665500ab8938657b03fbdba8","665792db167444180ef3f8ce","491","stimuli/00001010.jpg"," ","","feedback_trial","0","","","","","","","","","","","","","","","","","","","","",""
"","","","","","image-keyboard-response","284","350771","0.0-259.0","5e80a85916cd8c000ad9cd65","665500ab8938657b03fbdba8","665792db167444180ef3f8ce","1277","stimuli/1101101.jpg","1","","prediction_trial","1","","true","","1","true","true","true","true","true","true","[1]","101","101","1","","","","","","",""
"","","","","","image-keyboard-response","285","350902","0.0-260.0","5e80a85916cd8c000ad9cd65","665500ab8938657b03fbdba8","665792db167444180ef3f8ce","130","stimuli/11011011.jpg"," ","","feedback_trial","1","","","","","","","","","","","","","","","","","","","","",""
"","","","","","image-keyboard-response","286","351608","0.0-261.0","5e80a85916cd8c000ad9cd65","665500ab8938657b03fbdba8","665792db167444180ef3f8ce","705","stimuli/0001000.jpg","0","","prediction_trial","0","","true","","0","true","true","true","true","true","true","[0]","001","000","1","","","","","","",""
"","","","","","image-keyboard-response","287","351759","0.0-262.0","5e80a85916cd8c000ad9cd65","665500ab8938657b03fbdba8","665792db167444180ef3f8ce","150","stimuli/00010000.jpg"," ","","feedback_trial","0","","","","","","","","","","","","","","","","","","","","",""
"","","","","","image-keyboard-response","288","352380","0.0-263.0","5e80a85916cd8c000ad9cd65","665500ab8938657b03fbdba8","665792db167444180ef3f8ce","620","stimuli/1101001.jpg","1","","prediction_trial","1","","true","","1","true","true","true","true","true","true","[1]","101","001","1","","","","","","",""
"","","","","","image-keyboard-response","289","352546","0.0-264.0","5e80a85916cd8c000ad9cd65","665500ab8938657b03fbdba8","665792db167444180ef3f8ce","165","stimuli/11010011.jpg"," ","","feedback_trial","1","","","","","","","","","","","","","","","","","","","","",""
"","","","","","image-keyboard-response","290","353192","0.0-265.0","5e80a85916cd8c000ad9cd65","665500ab8938657b03fbdba8","665792db167444180ef3f8ce","645","stimuli/2110000.jpg","2","","prediction_trial","2","","true","","2","true","true","true","true","true","true","[2]","110","000","1","","","","","","",""
"","","","","","image-keyboard-response","291","353342","0.0-266.0","5e80a85916cd8c000ad9cd65","665500ab8938657b03fbdba8","665792db167444180ef3f8ce","149","stimuli/21100002.jpg"," ","","feedback_trial","2","","","","","","","","","","","","","","","","","","","","",""
"","","","","","image-keyboard-response","292","354697","0.0-267.0","5e80a85916cd8c000ad9cd65","665500ab8938657b03fbdba8","665792db167444180ef3f8ce","1347","stimuli/0000011.jpg","0","","prediction_trial","0","","true","","0","true","true","true","true","true","true","[0]","000","011","1","","","","","","",""
"","","","","","image-keyboard-response","293","354876","0.0-268.0","5e80a85916cd8c000ad9cd65","665500ab8938657b03fbdba8","665792db167444180ef3f8ce","179","stimuli/00000110.jpg"," ","","feedback_trial","0","","","","","","","","","","","","","","","","","","","","",""
"","","","","","image-keyboard-response","294","356401","0.0-269.0","5e80a85916cd8c000ad9cd65","665500ab8938657b03fbdba8","665792db167444180ef3f8ce","1523","stimuli/1000011.jpg","1","","prediction_trial","1","","true","","1","false","false","true","true","false","false","[1]","000","011","1","","","","","","",""
"","","","","","image-keyboard-response","295","356595","0.0-270.0","5e80a85916cd8c000ad9cd65","665500ab8938657b03fbdba8","665792db167444180ef3f8ce","194","stimuli/10000111.jpg"," ","","feedback_trial","1","","","","","","","","","","","","","","","","","","","","",""
"","","","","","image-keyboard-response","296","357679","0.0-271.0","5e80a85916cd8c000ad9cd65","665500ab8938657b03fbdba8","665792db167444180ef3f8ce","1083","stimuli/2111011.jpg","2","","prediction_trial","1","","false","","2","false","false","false","false","false","false","[2,0,1]","111","011","0","","","","","","",""
"","","","","","image-keyboard-response","297","358174","0.0-272.0","5e80a85916cd8c000ad9cd65","665500ab8938657b03fbdba8","665792db167444180ef3f8ce","495","stimuli/21110111.jpg"," ","","feedback_trial","2","","","","","","","","","","","","","","","","","","","","",""
"","","","","","image-keyboard-response","298","359689","0.0-273.0","5e80a85916cd8c000ad9cd65","665500ab8938657b03fbdba8","665792db167444180ef3f8ce","1507","stimuli/1101111.jpg","2","","prediction_trial","1","","false","","1","false","false","true","true","false","false","[1]","101","111","0","","","","","","",""
"","","","","","image-keyboard-response","299","360075","0.0-274.0","5e80a85916cd8c000ad9cd65","665500ab8938657b03fbdba8","665792db167444180ef3f8ce","385","stimuli/11011111.jpg"," ","","feedback_trial","1","","","","","","","","","","","","","","","","","","","","",""
"","","","","","image-keyboard-response","300","361187","0.0-275.0","5e80a85916cd8c000ad9cd65","665500ab8938657b03fbdba8","665792db167444180ef3f8ce","1112","stimuli/1001000.jpg","1","","prediction_trial","1","","true","","1","true","true","true","true","true","true","[1]","001","000","1","","","","","","",""
"","","","","","image-keyboard-response","301","361318","0.0-276.0","5e80a85916cd8c000ad9cd65","665500ab8938657b03fbdba8","665792db167444180ef3f8ce","130","stimuli/10010001.jpg"," ","","feedback_trial","1","","","","","","","","","","","","","","","","","","","","",""
"","","","","","image-keyboard-response","302","363197","0.0-277.0","5e80a85916cd8c000ad9cd65","665500ab8938657b03fbdba8","665792db167444180ef3f8ce","1878","stimuli/1110000.jpg","1","","prediction_trial","0","","false","","1","true","true","false","false","false","false","[0,1]","110","000","0","","","","","","",""
"","","","","","image-keyboard-response","303","363347","0.0-278.0","5e80a85916cd8c000ad9cd65","665500ab8938657b03fbdba8","665792db167444180ef3f8ce","149","stimuli/11100000.jpg"," ","","feedback_trial","0","","","","","","","","","","","","","","","","","","","","",""
"","","","","","image-keyboard-response","304","364812","0.0-279.0","5e80a85916cd8c000ad9cd65","665500ab8938657b03fbdba8","665792db167444180ef3f8ce","1463","stimuli/1010001.jpg","1","","prediction_trial","1","","true","","1","true","true","false","true","false","true","[1]","010","001","1","","","","","","",""
"","","","","","image-keyboard-response","305","364941","0.0-280.0","5e80a85916cd8c000ad9cd65","665500ab8938657b03fbdba8","665792db167444180ef3f8ce","129","stimuli/10100011.jpg"," ","","feedback_trial","1","","","","","","","","","","","","","","","","","","","","",""
"","","","","","image-keyboard-response","306","367037","0.0-281.0","5e80a85916cd8c000ad9cd65","665500ab8938657b03fbdba8","665792db167444180ef3f8ce","2095","stimuli/1100001.jpg","1","","prediction_trial","1","","true","","1","true","true","true","true","true","true","[1]","100","001","1","","","","","","",""
"","","","","","image-keyboard-response","307","367162","0.0-282.0","5e80a85916cd8c000ad9cd65","665500ab8938657b03fbdba8","665792db167444180ef3f8ce","125","stimuli/11000011.jpg"," ","","feedback_trial","1","","","","","","","","","","","","","","","","","","","","",""
"","","","","","image-keyboard-response","308","368210","0.0-283.0","5e80a85916cd8c000ad9cd65","665500ab8938657b03fbdba8","665792db167444180ef3f8ce","1047","stimuli/2101100.jpg","2","","prediction_trial","0","","false","","2","true","true","false","false","false","false","[0,2]","101","100","0","","","","","","",""
"","","","","","image-keyboard-response","309","368396","0.0-284.0","5e80a85916cd8c000ad9cd65","665500ab8938657b03fbdba8","665792db167444180ef3f8ce","185","stimuli/21011000.jpg"," ","","feedback_trial","0","","","","","","","","","","","","","","","","","","","","",""
"","","","","","image-keyboard-response","310","369844","0.0-285.0","5e80a85916cd8c000ad9cd65","665500ab8938657b03fbdba8","665792db167444180ef3f8ce","1442","stimuli/2111110.jpg","2","","prediction_trial","1","","false","","2","true","true","false","false","false","false","[2,1,0]","111","110","0","","","","","","",""
"","","","","","image-keyboard-response","311","370090","0.0-286.0","5e80a85916cd8c000ad9cd65","665500ab8938657b03fbdba8","665792db167444180ef3f8ce","245","stimuli/21111101.jpg"," ","","feedback_trial","2","","","","","","","","","","","","","","","","","","","","",""
"","","","","","image-keyboard-response","312","373603","0.0-287.0","5e80a85916cd8c000ad9cd65","665500ab8938657b03fbdba8","665792db167444180ef3f8ce","3513","stimuli/2100001.jpg","2","","prediction_trial","2","","true","","2","false","true","true","true","false","true","[2]","100","001","1","","","","","","",""
"","","","","","image-keyboard-response","313","373884","0.0-288.0","5e80a85916cd8c000ad9cd65","665500ab8938657b03fbdba8","665792db167444180ef3f8ce","280","stimuli/21000012.jpg"," ","","feedback_trial","2","","","","","","","","","","","","","","","","","","","","",""
"","","","","","image-keyboard-response","314","376099","0.0-289.0","5e80a85916cd8c000ad9cd65","665500ab8938657b03fbdba8","665792db167444180ef3f8ce","2214","stimuli/1101110.jpg","0","","prediction_trial","1","","false","","1","false","false","true","true","false","false","[1]","101","110","0","","","","","","",""
"","","","","","image-keyboard-response","315","376675","0.0-290.0","5e80a85916cd8c000ad9cd65","665500ab8938657b03fbdba8","665792db167444180ef3f8ce","575","stimuli/11011101.jpg"," ","","feedback_trial","1","","","","","","","","","","","","","","","","","","","","",""
"","","","","","image-keyboard-response","316","378124","0.0-291.0","5e80a85916cd8c000ad9cd65","665500ab8938657b03fbdba8","665792db167444180ef3f8ce","1442","stimuli/1100110.jpg","0","","prediction_trial","1","","false","","1","false","false","true","true","false","false","[1]","100","110","0","","","","","","",""
"","","","","","image-keyboard-response","317","378500","0.0-292.0","5e80a85916cd8c000ad9cd65","665500ab8938657b03fbdba8","665792db167444180ef3f8ce","375","stimuli/11001101.jpg"," ","","feedback_trial","1","","","","","","","","","","","","","","","","","","","","",""
"","","","","","survey-html-form","318","433639","0.0-293.0","5e80a85916cd8c000ad9cd65","665500ab8938657b03fbdba8","665792db167444180ef3f8ce","55137","","{""feedback"":""I used my intuition to guess which basket Sam would choose. Everything was clear and understood, thank you.  "",""age"":""38"",""gender"":""Male"",""other_gender"":"""",""race"":""White"",""other_race"":"""",""ethnicity"":""Non-Hispanic""}","","exit_survey","","","","","","","","","","","","","","","","I used my intuition to guess which basket Sam would choose. Everything was clear and understood, thank you.  ","38","Non-Hispanic","Male","White","0.6319444444444444","0.6319444444444444"
