"success","timeout","failed_images","failed_audio","failed_video","trial_type","trial_index","time_elapsed","internal_node_id","prolific_id","prolific_study_id","prolific_session_id","rt","stimulus","response","view_history","trial","character_choice","stimulus_dict","accuracy","correct_response","ball_pos","ego_ball_visible","ego_can_infer","alter_ball_visible","alter_can_infer","collective_ball_visible","collective_can_infer","search_locations","alter_occluders","ego_occluders","accuracy_bool","feedback","age","ethnicity","gender","race","overall_accuracy","bonus"
"true","false","[]","[]","[]","preload","0","5245","0.0-0.0","63fba9e68d9ff349947fece5","665500ab8938657b03fbdba8","665792b2a9bb33a3101cf4f4","","","","","","","","","","","","","","","","","","","","","","","","","","",""
"true","","","","","fullscreen","1","52536","0.0-1.0","63fba9e68d9ff349947fece5","665500ab8938657b03fbdba8","665792b2a9bb33a3101cf4f4","","","","","","","","","","","","","","","","","","","","","","","","","","",""
"","","","","","html-button-response","2","105342","0.0-2.0","63fba9e68d9ff349947fece5","665500ab8938657b03fbdba8","665792b2a9bb33a3101cf4f4","52804","<p><b>Consent Form</b></p> <div style=""text-align:left;background-color:lightgrey; padding:20px; max-width:900px;""><p>Please consider this information carefully before deciding whether to participate in this research.</p> <p>The purpose of this research is to examine which factors influence social judgment and decision-making. You will be asked to make judgements about individuals and actions in social scenarios. We are simply interested in your judgement. The study will take less than 1 hour to complete, and you will receive less than $20 on Prolific. Your compensation and time commitment are specified in the study description. There are no anticipated risks associated with participating in this study. The effects of participating should be comparable to those you would ordinarily experience from viewing a computer monitor and using a mouse or keyboard for a similar amount of time. At the end of the study, we will provide an explanation of the questions that motivate this line of research and will describe the potential implications. </p><p> Your participation in this study is completely voluntary and you may refuse to participate or you may choose to withdraw at any time without penalty or loss of benefits to you which are otherwise entitled. Your participation in this study will remain confidential. No personally identifiable information will be associated with your data. Also, all analyses of the data will be averaged across all the participants, so your individual responses will never be specifically analyzed. </p><p> If you have questions or concerns about your participation or payment, or want to request a summary of research findings, please contact Dr. Jonathan Phillips at Jonathan.S.Phillips@dartmouth.edu. </p><p> Please save a copy of this form for your records. </p><p><b>Agreement: </b>The nature and purpose of this research have been sufficiently explained and I agree to participate in this study. I understand that I am free to withdraw at any time without incurring any penalty. Please consent by clicking the button below to continue. Otherwise, please exit the study at any time. </p>","0","","","","","","","","","","","","","","","","","","","","","","","",""
"","","","","","instructions","3","228867","0.0-3.0-0.0","63fba9e68d9ff349947fece5","665500ab8938657b03fbdba8","665792b2a9bb33a3101cf4f4","123523","","","[{""page_index"":0,""viewing_time"":3146},{""page_index"":1,""viewing_time"":3013},{""page_index"":2,""viewing_time"":4296},{""page_index"":3,""viewing_time"":6243},{""page_index"":4,""viewing_time"":5493},{""page_index"":5,""viewing_time"":14233},{""page_index"":6,""viewing_time"":8524},{""page_index"":7,""viewing_time"":3697},{""page_index"":8,""viewing_time"":5176},{""page_index"":9,""viewing_time"":4512},{""page_index"":10,""viewing_time"":40021},{""page_index"":11,""viewing_time"":11721},{""page_index"":12,""viewing_time"":10754},{""page_index"":13,""viewing_time"":2695}]","intro","","","","","","","","","","","","","","","","","","","","","",""
"","","","","","image-keyboard-response","4","232733","0.0-3.0-1.0","63fba9e68d9ff349947fece5","665500ab8938657b03fbdba8","665792b2a9bb33a3101cf4f4","3864","stimuli/1011101.jpg","1","","prediction_practice","2","{""filepath"":""stimuli/1011101.jpg"",""ball_pos"":1,""ego_ball_visible"":true,""ego_can_infer"":true,""alter_ball_visible"":false,""alter_can_infer"":false,""collective_ball_visible"":false,""collective_can_infer"":false,""search_locations"":[2,1],""alter_occluders"":""011"",""ego_occluders"":""101""}","false","","","","","","","","","","","","","","","","","","",""
"","","","","","image-keyboard-response","5","239699","0.0-3.0-2.0","63fba9e68d9ff349947fece5","665500ab8938657b03fbdba8","665792b2a9bb33a3101cf4f4","6966","stimuli/10111012.jpg"," ","","practrice_feedback","2","","","","","","","","","","","","","","","","","","","","",""
"","","","","","image-keyboard-response","6","242101","0.0-3.0-3.0","63fba9e68d9ff349947fece5","665500ab8938657b03fbdba8","665792b2a9bb33a3101cf4f4","2401","stimuli/0001000.jpg","0","","prediction_practice","0","{""filepath"":""stimuli/0001000.jpg"",""ball_pos"":0,""ego_ball_visible"":true,""ego_can_infer"":true,""alter_ball_visible"":true,""alter_can_infer"":true,""collective_ball_visible"":true,""collective_can_infer"":true,""search_locations"":[0],""alter_occluders"":""001"",""ego_occluders"":""000""}","true","","","","","","","","","","","","","","","","","","",""
"","","","","","image-keyboard-response","7","244743","0.0-3.0-4.0","63fba9e68d9ff349947fece5","665500ab8938657b03fbdba8","665792b2a9bb33a3101cf4f4","2641","stimuli/00010000.jpg"," ","","practrice_feedback","0","","","","","","","","","","","","","","","","","","","","",""
"","","","","","image-keyboard-response","8","248557","0.0-3.0-5.0","63fba9e68d9ff349947fece5","665500ab8938657b03fbdba8","665792b2a9bb33a3101cf4f4","3813","stimuli/2110100.jpg","2","","prediction_practice","2","{""filepath"":""stimuli/2110100.jpg"",""ball_pos"":2,""ego_ball_visible"":true,""ego_can_infer"":true,""alter_ball_visible"":true,""alter_can_infer"":true,""collective_ball_visible"":true,""collective_can_infer"":true,""search_locations"":[2],""alter_occluders"":""110"",""ego_occluders"":""100""}","true","","","","","","","","","","","","","","","","","","",""
"","","","","","image-keyboard-response","9","250435","0.0-3.0-6.0","63fba9e68d9ff349947fece5","665500ab8938657b03fbdba8","665792b2a9bb33a3101cf4f4","1878","stimuli/21101002.jpg"," ","","practrice_feedback","2","","","","","","","","","","","","","","","","","","","","",""
"","","","","","image-keyboard-response","10","252233","0.0-3.0-7.0","63fba9e68d9ff349947fece5","665500ab8938657b03fbdba8","665792b2a9bb33a3101cf4f4","1798","stimuli/0101000.jpg","0","","prediction_practice","0","{""filepath"":""stimuli/0101000.jpg"",""ball_pos"":0,""ego_ball_visible"":true,""ego_can_infer"":true,""alter_ball_visible"":false,""alter_can_infer"":false,""collective_ball_visible"":false,""collective_can_infer"":false,""search_locations"":[0,2],""alter_occluders"":""101"",""ego_occluders"":""000""}","true","","","","","","","","","","","","","","","","","","",""
"","","","","","image-keyboard-response","11","253977","0.0-3.0-8.0","63fba9e68d9ff349947fece5","665500ab8938657b03fbdba8","665792b2a9bb33a3101cf4f4","1743","stimuli/01010000.jpg"," ","","practrice_feedback","0","","","","","","","","","","","","","","","","","","","","",""
"","","","","","image-keyboard-response","12","257843","0.0-3.0-9.0","63fba9e68d9ff349947fece5","665500ab8938657b03fbdba8","665792b2a9bb33a3101cf4f4","3878","stimuli/2001011.jpg","1","","prediction_practice","2","{""filepath"":""stimuli/2001011.jpg"",""ball_pos"":2,""ego_ball_visible"":false,""ego_can_infer"":false,""alter_ball_visible"":false,""alter_can_infer"":true,""collective_ball_visible"":false,""collective_can_infer"":false,""search_locations"":[2],""alter_occluders"":""001"",""ego_occluders"":""011""}","false","","","","","","","","","","","","","","","","","","",""
"","","","","","image-keyboard-response","13","259754","0.0-3.0-10.0","63fba9e68d9ff349947fece5","665500ab8938657b03fbdba8","665792b2a9bb33a3101cf4f4","1910","stimuli/20010112.jpg"," ","","practrice_feedback","2","","","","","","","","","","","","","","","","","","","","",""
"","","","","","image-keyboard-response","14","261613","0.0-3.0-11.0","63fba9e68d9ff349947fece5","665500ab8938657b03fbdba8","665792b2a9bb33a3101cf4f4","1859","stimuli/2111110.jpg","2","","prediction_practice","1","{""filepath"":""stimuli/2111110.jpg"",""ball_pos"":2,""ego_ball_visible"":true,""ego_can_infer"":true,""alter_ball_visible"":false,""alter_can_infer"":false,""collective_ball_visible"":false,""collective_can_infer"":false,""search_locations"":[2,0,1],""alter_occluders"":""111"",""ego_occluders"":""110""}","false","","","","","","","","","","","","","","","","","","",""
"","","","","","image-keyboard-response","15","266363","0.0-3.0-12.0","63fba9e68d9ff349947fece5","665500ab8938657b03fbdba8","665792b2a9bb33a3101cf4f4","4749","stimuli/21111101.jpg"," ","","practrice_feedback","2","","","","","","","","","","","","","","","","","","","","",""
"","","","","","image-keyboard-response","16","269389","0.0-3.0-13.0","63fba9e68d9ff349947fece5","665500ab8938657b03fbdba8","665792b2a9bb33a3101cf4f4","3025","stimuli/2011100.jpg","1","","prediction_practice","2","{""filepath"":""stimuli/2011100.jpg"",""ball_pos"":2,""ego_ball_visible"":true,""ego_can_infer"":true,""alter_ball_visible"":false,""alter_can_infer"":false,""collective_ball_visible"":false,""collective_can_infer"":false,""search_locations"":[2,1],""alter_occluders"":""011"",""ego_occluders"":""100""}","false","","","","","","","","","","","","","","","","","","",""
"","","","","","image-keyboard-response","17","271807","0.0-3.0-14.0","63fba9e68d9ff349947fece5","665500ab8938657b03fbdba8","665792b2a9bb33a3101cf4f4","2418","stimuli/20111002.jpg"," ","","practrice_feedback","2","","","","","","","","","","","","","","","","","","","","",""
"","","","","","image-keyboard-response","18","273944","0.0-3.0-15.0","63fba9e68d9ff349947fece5","665500ab8938657b03fbdba8","665792b2a9bb33a3101cf4f4","2136","stimuli/2110011.jpg","2","","prediction_practice","2","{""filepath"":""stimuli/2110011.jpg"",""ball_pos"":2,""ego_ball_visible"":false,""ego_can_infer"":false,""alter_ball_visible"":true,""alter_can_infer"":true,""collective_ball_visible"":false,""collective_can_infer"":false,""search_locations"":[2],""alter_occluders"":""110"",""ego_occluders"":""011""}","true","","","","","","","","","","","","","","","","","","",""
"","","","","","image-keyboard-response","19","275758","0.0-3.0-16.0","63fba9e68d9ff349947fece5","665500ab8938657b03fbdba8","665792b2a9bb33a3101cf4f4","1811","stimuli/21100112.jpg"," ","","practrice_feedback","2","","","","","","","","","","","","","","","","","","","","",""
"","","","","","image-keyboard-response","20","279431","0.0-3.0-17.0","63fba9e68d9ff349947fece5","665500ab8938657b03fbdba8","665792b2a9bb33a3101cf4f4","3672","stimuli/0011111.jpg","2","","prediction_practice","0","{""filepath"":""stimuli/0011111.jpg"",""ball_pos"":0,""ego_ball_visible"":false,""ego_can_infer"":false,""alter_ball_visible"":true,""alter_can_infer"":true,""collective_ball_visible"":false,""collective_can_infer"":false,""search_locations"":[0],""alter_occluders"":""011"",""ego_occluders"":""111""}","false","","","","","","","","","","","","","","","","","","",""
"","","","","","image-keyboard-response","21","282462","0.0-3.0-18.0","63fba9e68d9ff349947fece5","665500ab8938657b03fbdba8","665792b2a9bb33a3101cf4f4","3030","stimuli/00111110.jpg"," ","","practrice_feedback","0","","","","","","","","","","","","","","","","","","","","",""
"","","","","","image-keyboard-response","22","284386","0.0-3.0-19.0","63fba9e68d9ff349947fece5","665500ab8938657b03fbdba8","665792b2a9bb33a3101cf4f4","1924","stimuli/1101100.jpg","1","","prediction_practice","1","{""filepath"":""stimuli/1101100.jpg"",""ball_pos"":1,""ego_ball_visible"":true,""ego_can_infer"":true,""alter_ball_visible"":true,""alter_can_infer"":true,""collective_ball_visible"":true,""collective_can_infer"":true,""search_locations"":[1],""alter_occluders"":""101"",""ego_occluders"":""100""}","true","","","","","","","","","","","","","","","","","","",""
"","","","","","image-keyboard-response","23","285675","0.0-3.0-20.0","63fba9e68d9ff349947fece5","665500ab8938657b03fbdba8","665792b2a9bb33a3101cf4f4","1289","stimuli/11011001.jpg"," ","","practrice_feedback","1","","","","","","","","","","","","","","","","","","","","",""
"","","","","","html-button-response","24","290233","0.0-3.0-21.0","63fba9e68d9ff349947fece5","665500ab8938657b03fbdba8","665792b2a9bb33a3101cf4f4","4557","Now that you've had some practice, you'll be tested with a couple of easy trials. If you correctly predict Sam's choice, you'll move on to complete the experiment!","0","","","","","","","","","","","","","","","","","","","","","","","",""
"","","","","","image-keyboard-response","25","292373","0.0-3.0-22.0-0.0","63fba9e68d9ff349947fece5","665500ab8938657b03fbdba8","665792b2a9bb33a3101cf4f4","2139","stimuli/0000011.jpg","arrowleft","","comprehension_quiz","","","true","arrowleft","","","","","","","","","","","","","","","","","",""
"","","","","","image-keyboard-response","26","294584","0.0-3.0-22.0-1.0","63fba9e68d9ff349947fece5","665500ab8938657b03fbdba8","665792b2a9bb33a3101cf4f4","2210","stimuli/00000110.jpg"," ","","comprehension_quiz","","","true"," ","","","","","","","","","","","","","","","","","",""
"","","","","","image-keyboard-response","27","296254","0.0-3.0-22.0-2.0","63fba9e68d9ff349947fece5","665500ab8938657b03fbdba8","665792b2a9bb33a3101cf4f4","1669","stimuli/1010010.jpg","arrowdown","","comprehension_quiz","","","true","arrowdown","","","","","","","","","","","","","","","","","",""
"","","","","","image-keyboard-response","28","296779","0.0-3.0-22.0-3.0","63fba9e68d9ff349947fece5","665500ab8938657b03fbdba8","665792b2a9bb33a3101cf4f4","521","stimuli/10100101.jpg"," ","","comprehension_quiz","","","true"," ","","","","","","","","","","","","","","","","","",""
"","","","","","html-button-response","29","305350","0.0-4.0","63fba9e68d9ff349947fece5","665500ab8938657b03fbdba8","665792b2a9bb33a3101cf4f4","8570","The experiment will now begin.","0","","","","","","","","","","","","","","","","","","","","","","","",""
"","","","","","image-keyboard-response","30","308012","0.0-5.0","63fba9e68d9ff349947fece5","665500ab8938657b03fbdba8","665792b2a9bb33a3101cf4f4","2661","stimuli/1110001.jpg","1","","prediction_trial","1","","true","","1","true","true","false","false","false","false","[1,0]","110","001","1","","","","","","",""
"","","","","","image-keyboard-response","31","310688","0.0-6.0","63fba9e68d9ff349947fece5","665500ab8938657b03fbdba8","665792b2a9bb33a3101cf4f4","2674","stimuli/11100011.jpg"," ","","feedback_trial","1","","","","","","","","","","","","","","","","","","","","",""
"","","","","","image-keyboard-response","32","313932","0.0-7.0","63fba9e68d9ff349947fece5","665500ab8938657b03fbdba8","665792b2a9bb33a3101cf4f4","3244","stimuli/2000111.jpg","2","","prediction_trial","2","","true","","2","false","false","true","true","false","false","[2]","000","111","1","","","","","","",""
"","","","","","image-keyboard-response","33","315181","0.0-8.0","63fba9e68d9ff349947fece5","665500ab8938657b03fbdba8","665792b2a9bb33a3101cf4f4","1248","stimuli/20001112.jpg"," ","","feedback_trial","2","","","","","","","","","","","","","","","","","","","","",""
"","","","","","image-keyboard-response","34","316456","0.0-9.0","63fba9e68d9ff349947fece5","665500ab8938657b03fbdba8","665792b2a9bb33a3101cf4f4","1274","stimuli/0001010.jpg","0","","prediction_trial","0","","true","","0","true","true","true","true","true","true","[0]","001","010","1","","","","","","",""
"","","","","","image-keyboard-response","35","317152","0.0-10.0","63fba9e68d9ff349947fece5","665500ab8938657b03fbdba8","665792b2a9bb33a3101cf4f4","695","stimuli/00010100.jpg"," ","","feedback_trial","0","","","","","","","","","","","","","","","","","","","","",""
"","","","","","image-keyboard-response","36","318847","0.0-11.0","63fba9e68d9ff349947fece5","665500ab8938657b03fbdba8","665792b2a9bb33a3101cf4f4","1694","stimuli/1101100.jpg","1","","prediction_trial","1","","true","","1","true","true","true","true","true","true","[1]","101","100","1","","","","","","",""
"","","","","","image-keyboard-response","37","319547","0.0-12.0","63fba9e68d9ff349947fece5","665500ab8938657b03fbdba8","665792b2a9bb33a3101cf4f4","699","stimuli/11011001.jpg"," ","","feedback_trial","1","","","","","","","","","","","","","","","","","","","","",""
"","","","","","image-keyboard-response","38","322752","0.0-13.0","63fba9e68d9ff349947fece5","665500ab8938657b03fbdba8","665792b2a9bb33a3101cf4f4","3204","stimuli/2010011.jpg","1","","prediction_trial","2","","false","","2","false","false","true","true","false","false","[2]","010","011","0","","","","","","",""
"","","","","","image-keyboard-response","39","324047","0.0-14.0","63fba9e68d9ff349947fece5","665500ab8938657b03fbdba8","665792b2a9bb33a3101cf4f4","1294","stimuli/20100112.jpg"," ","","feedback_trial","2","","","","","","","","","","","","","","","","","","","","",""
"","","","","","image-keyboard-response","40","325512","0.0-15.0","63fba9e68d9ff349947fece5","665500ab8938657b03fbdba8","665792b2a9bb33a3101cf4f4","1465","stimuli/2001000.jpg","2","","prediction_trial","2","","true","","2","true","true","false","true","false","true","[2]","001","000","1","","","","","","",""
"","","","","","image-keyboard-response","41","326353","0.0-16.0","63fba9e68d9ff349947fece5","665500ab8938657b03fbdba8","665792b2a9bb33a3101cf4f4","840","stimuli/20010002.jpg"," ","","feedback_trial","2","","","","","","","","","","","","","","","","","","","","",""
"","","","","","image-keyboard-response","42","328359","0.0-17.0","63fba9e68d9ff349947fece5","665500ab8938657b03fbdba8","665792b2a9bb33a3101cf4f4","2006","stimuli/2111101.jpg","0","","prediction_trial","1","","false","","2","false","false","false","false","false","false","[1,2,0]","111","101","0","","","","","","",""
"","","","","","image-keyboard-response","43","330832","0.0-18.0","63fba9e68d9ff349947fece5","665500ab8938657b03fbdba8","665792b2a9bb33a3101cf4f4","2471","stimuli/21111011.jpg"," ","","feedback_trial","1","","","","","","","","","","","","","","","","","","","","",""
"","","","","","image-keyboard-response","44","332226","0.0-19.0","63fba9e68d9ff349947fece5","665500ab8938657b03fbdba8","665792b2a9bb33a3101cf4f4","1393","stimuli/0010011.jpg","0","","prediction_trial","0","","true","","0","true","true","true","true","true","true","[0]","010","011","1","","","","","","",""
"","","","","","image-keyboard-response","45","333011","0.0-20.0","63fba9e68d9ff349947fece5","665500ab8938657b03fbdba8","665792b2a9bb33a3101cf4f4","785","stimuli/00100110.jpg"," ","","feedback_trial","0","","","","","","","","","","","","","","","","","","","","",""
"","","","","","image-keyboard-response","46","334916","0.0-21.0","63fba9e68d9ff349947fece5","665500ab8938657b03fbdba8","665792b2a9bb33a3101cf4f4","1903","stimuli/2011011.jpg","1","","prediction_trial","1","","true","","2","false","false","false","false","false","false","[2,1]","011","011","1","","","","","","",""
"","","","","","image-keyboard-response","47","335925","0.0-22.0","63fba9e68d9ff349947fece5","665500ab8938657b03fbdba8","665792b2a9bb33a3101cf4f4","1009","stimuli/20110111.jpg"," ","","feedback_trial","2","","","","","","","","","","","","","","","","","","","","",""
"","","","","","image-keyboard-response","48","338047","0.0-23.0","63fba9e68d9ff349947fece5","665500ab8938657b03fbdba8","665792b2a9bb33a3101cf4f4","2122","stimuli/0110101.jpg","0","","prediction_trial","0","","true","","0","false","false","false","false","false","false","[0,1]","110","101","1","","","","","","",""
"","","","","","image-keyboard-response","49","339306","0.0-24.0","63fba9e68d9ff349947fece5","665500ab8938657b03fbdba8","665792b2a9bb33a3101cf4f4","1258","stimuli/01101010.jpg"," ","","feedback_trial","0","","","","","","","","","","","","","","","","","","","","",""
"","","","","","image-keyboard-response","50","340924","0.0-25.0","63fba9e68d9ff349947fece5","665500ab8938657b03fbdba8","665792b2a9bb33a3101cf4f4","1617","stimuli/2000010.jpg","2","","prediction_trial","2","","true","","2","true","true","true","true","true","true","[2]","000","010","1","","","","","","",""
"","","","","","image-keyboard-response","51","341726","0.0-26.0","63fba9e68d9ff349947fece5","665500ab8938657b03fbdba8","665792b2a9bb33a3101cf4f4","802","stimuli/20000102.jpg"," ","","feedback_trial","2","","","","","","","","","","","","","","","","","","","","",""
"","","","","","image-keyboard-response","52","346273","0.0-27.0","63fba9e68d9ff349947fece5","665500ab8938657b03fbdba8","665792b2a9bb33a3101cf4f4","4546","stimuli/2001111.jpg","0","","prediction_trial","2","","false","","2","false","false","false","true","false","false","[2]","001","111","0","","","","","","",""
"","","","","","image-keyboard-response","53","348201","0.0-28.0","63fba9e68d9ff349947fece5","665500ab8938657b03fbdba8","665792b2a9bb33a3101cf4f4","1924","stimuli/20011112.jpg"," ","","feedback_trial","2","","","","","","","","","","","","","","","","","","","","",""
"","","","","","image-keyboard-response","54","349685","0.0-29.0","63fba9e68d9ff349947fece5","665500ab8938657b03fbdba8","665792b2a9bb33a3101cf4f4","1483","stimuli/0010110.jpg","1","","prediction_trial","0","","false","","0","false","false","true","true","false","false","[0]","010","110","0","","","","","","",""
"","","","","","image-keyboard-response","55","351089","0.0-30.0","63fba9e68d9ff349947fece5","665500ab8938657b03fbdba8","665792b2a9bb33a3101cf4f4","1404","stimuli/00101100.jpg"," ","","feedback_trial","0","","","","","","","","","","","","","","","","","","","","",""
"","","","","","image-keyboard-response","56","354827","0.0-31.0","63fba9e68d9ff349947fece5","665500ab8938657b03fbdba8","665792b2a9bb33a3101cf4f4","3737","stimuli/1100010.jpg","1","","prediction_trial","1","","true","","1","false","true","true","true","false","true","[1]","100","010","1","","","","","","",""
"","","","","","image-keyboard-response","57","355769","0.0-32.0","63fba9e68d9ff349947fece5","665500ab8938657b03fbdba8","665792b2a9bb33a3101cf4f4","941","stimuli/11000101.jpg"," ","","feedback_trial","1","","","","","","","","","","","","","","","","","","","","",""
"","","","","","image-keyboard-response","58","359293","0.0-33.0","63fba9e68d9ff349947fece5","665500ab8938657b03fbdba8","665792b2a9bb33a3101cf4f4","3524","stimuli/1100111.jpg","1","","prediction_trial","1","","true","","1","false","false","true","true","false","false","[1]","100","111","1","","","","","","",""
"","","","","","image-keyboard-response","59","360124","0.0-34.0","63fba9e68d9ff349947fece5","665500ab8938657b03fbdba8","665792b2a9bb33a3101cf4f4","830","stimuli/11001111.jpg"," ","","feedback_trial","1","","","","","","","","","","","","","","","","","","","","",""
"","","","","","image-keyboard-response","60","361887","0.0-35.0","63fba9e68d9ff349947fece5","665500ab8938657b03fbdba8","665792b2a9bb33a3101cf4f4","1762","stimuli/2100100.jpg","2","","prediction_trial","2","","true","","2","true","true","true","true","true","true","[2]","100","100","1","","","","","","",""
"","","","","","image-keyboard-response","61","362279","0.0-36.0","63fba9e68d9ff349947fece5","665500ab8938657b03fbdba8","665792b2a9bb33a3101cf4f4","391","stimuli/21001002.jpg"," ","","feedback_trial","2","","","","","","","","","","","","","","","","","","","","",""
"","","","","","image-keyboard-response","62","363887","0.0-37.0","63fba9e68d9ff349947fece5","665500ab8938657b03fbdba8","665792b2a9bb33a3101cf4f4","1607","stimuli/2100010.jpg","2","","prediction_trial","2","","true","","2","true","true","true","true","true","true","[2]","100","010","1","","","","","","",""
"","","","","","image-keyboard-response","63","364201","0.0-38.0","63fba9e68d9ff349947fece5","665500ab8938657b03fbdba8","665792b2a9bb33a3101cf4f4","312","stimuli/21000102.jpg"," ","","feedback_trial","2","","","","","","","","","","","","","","","","","","","","",""
"","","","","","image-keyboard-response","64","365316","0.0-39.0","63fba9e68d9ff349947fece5","665500ab8938657b03fbdba8","665792b2a9bb33a3101cf4f4","1114","stimuli/1000001.jpg","1","","prediction_trial","1","","true","","1","true","true","true","true","true","true","[1]","000","001","1","","","","","","",""
"","","","","","image-keyboard-response","65","365696","0.0-40.0","63fba9e68d9ff349947fece5","665500ab8938657b03fbdba8","665792b2a9bb33a3101cf4f4","380","stimuli/10000011.jpg"," ","","feedback_trial","1","","","","","","","","","","","","","","","","","","","","",""
"","","","","","image-keyboard-response","66","366486","0.0-41.0","63fba9e68d9ff349947fece5","665500ab8938657b03fbdba8","665792b2a9bb33a3101cf4f4","790","stimuli/1101001.jpg","1","","prediction_trial","1","","true","","1","true","true","true","true","true","true","[1]","101","001","1","","","","","","",""
"","","","","","image-keyboard-response","67","366779","0.0-42.0","63fba9e68d9ff349947fece5","665500ab8938657b03fbdba8","665792b2a9bb33a3101cf4f4","292","stimuli/11010011.jpg"," ","","feedback_trial","1","","","","","","","","","","","","","","","","","","","","",""
"","","","","","image-keyboard-response","68","368439","0.0-43.0","63fba9e68d9ff349947fece5","665500ab8938657b03fbdba8","665792b2a9bb33a3101cf4f4","1659","stimuli/0011010.jpg","0","","prediction_trial","0","","true","","0","true","true","true","true","true","true","[0]","011","010","1","","","","","","",""
"","","","","","image-keyboard-response","69","368770","0.0-44.0","63fba9e68d9ff349947fece5","665500ab8938657b03fbdba8","665792b2a9bb33a3101cf4f4","327","stimuli/00110100.jpg"," ","","feedback_trial","0","","","","","","","","","","","","","","","","","","","","",""
"","","","","","image-keyboard-response","70","369555","0.0-45.0","63fba9e68d9ff349947fece5","665500ab8938657b03fbdba8","665792b2a9bb33a3101cf4f4","784","stimuli/0100000.jpg","0","","prediction_trial","0","","true","","0","true","true","false","true","false","true","[0]","100","000","1","","","","","","",""
"","","","","","image-keyboard-response","71","369867","0.0-46.0","63fba9e68d9ff349947fece5","665500ab8938657b03fbdba8","665792b2a9bb33a3101cf4f4","312","stimuli/01000000.jpg"," ","","feedback_trial","0","","","","","","","","","","","","","","","","","","","","",""
"","","","","","image-keyboard-response","72","373781","0.0-47.0","63fba9e68d9ff349947fece5","665500ab8938657b03fbdba8","665792b2a9bb33a3101cf4f4","3914","stimuli/2101111.jpg","1","","prediction_trial","0","","false","","2","false","false","false","false","false","false","[2,0]","101","111","0","","","","","","",""
"","","","","","image-keyboard-response","73","375375","0.0-48.0","63fba9e68d9ff349947fece5","665500ab8938657b03fbdba8","665792b2a9bb33a3101cf4f4","1593","stimuli/21011110.jpg"," ","","feedback_trial","2","","","","","","","","","","","","","","","","","","","","",""
"","","","","","image-keyboard-response","74","377706","0.0-49.0","63fba9e68d9ff349947fece5","665500ab8938657b03fbdba8","665792b2a9bb33a3101cf4f4","2331","stimuli/2001001.jpg","2","","prediction_trial","2","","true","","2","false","true","false","true","false","true","[2]","001","001","1","","","","","","",""
"","","","","","image-keyboard-response","75","378522","0.0-50.0","63fba9e68d9ff349947fece5","665500ab8938657b03fbdba8","665792b2a9bb33a3101cf4f4","815","stimuli/20010012.jpg"," ","","feedback_trial","2","","","","","","","","","","","","","","","","","","","","",""
"","","","","","image-keyboard-response","76","379946","0.0-51.0","63fba9e68d9ff349947fece5","665500ab8938657b03fbdba8","665792b2a9bb33a3101cf4f4","1419","stimuli/0001100.jpg","0","","prediction_trial","0","","true","","0","false","true","true","true","false","true","[0]","001","100","1","","","","","","",""
"","","","","","image-keyboard-response","77","381181","0.0-52.0","63fba9e68d9ff349947fece5","665500ab8938657b03fbdba8","665792b2a9bb33a3101cf4f4","1231","stimuli/00011000.jpg"," ","","feedback_trial","0","","","","","","","","","","","","","","","","","","","","",""
"","","","","","image-keyboard-response","78","384236","0.0-53.0","63fba9e68d9ff349947fece5","665500ab8938657b03fbdba8","665792b2a9bb33a3101cf4f4","3054","stimuli/1100011.jpg","1","","prediction_trial","1","","true","","1","false","false","true","true","false","false","[1]","100","011","1","","","","","","",""
"","","","","","image-keyboard-response","79","385336","0.0-54.0","63fba9e68d9ff349947fece5","665500ab8938657b03fbdba8","665792b2a9bb33a3101cf4f4","1100","stimuli/11000111.jpg"," ","","feedback_trial","1","","","","","","","","","","","","","","","","","","","","",""
"","","","","","image-keyboard-response","80","386507","0.0-55.0","63fba9e68d9ff349947fece5","665500ab8938657b03fbdba8","665792b2a9bb33a3101cf4f4","1170","stimuli/2001010.jpg","2","","prediction_trial","2","","true","","2","true","true","false","true","false","true","[2]","001","010","1","","","","","","",""
"","","","","","image-keyboard-response","81","387197","0.0-56.0","63fba9e68d9ff349947fece5","665500ab8938657b03fbdba8","665792b2a9bb33a3101cf4f4","689","stimuli/20010102.jpg"," ","","feedback_trial","2","","","","","","","","","","","","","","","","","","","","",""
"","","","","","image-keyboard-response","82","389314","0.0-57.0","63fba9e68d9ff349947fece5","665500ab8938657b03fbdba8","665792b2a9bb33a3101cf4f4","2117","stimuli/0100111.jpg","1","","prediction_trial","0","","false","","0","false","false","false","true","false","false","[0]","100","111","0","","","","","","",""
"","","","","","image-keyboard-response","83","390175","0.0-58.0","63fba9e68d9ff349947fece5","665500ab8938657b03fbdba8","665792b2a9bb33a3101cf4f4","860","stimuli/01001110.jpg"," ","","feedback_trial","0","","","","","","","","","","","","","","","","","","","","",""
"","","","","","image-keyboard-response","84","391810","0.0-59.0","63fba9e68d9ff349947fece5","665500ab8938657b03fbdba8","665792b2a9bb33a3101cf4f4","1634","stimuli/2001100.jpg","2","","prediction_trial","2","","true","","2","true","true","false","true","false","true","[2]","001","100","1","","","","","","",""
"","","","","","image-keyboard-response","85","392414","0.0-60.0","63fba9e68d9ff349947fece5","665500ab8938657b03fbdba8","665792b2a9bb33a3101cf4f4","600","stimuli/20011002.jpg"," ","","feedback_trial","2","","","","","","","","","","","","","","","","","","","","",""
"","","","","","image-keyboard-response","86","393724","0.0-61.0","63fba9e68d9ff349947fece5","665500ab8938657b03fbdba8","665792b2a9bb33a3101cf4f4","1309","stimuli/1010000.jpg","1","","prediction_trial","1","","true","","1","true","true","false","true","false","true","[1]","010","000","1","","","","","","",""
"","","","","","image-keyboard-response","87","394356","0.0-62.0","63fba9e68d9ff349947fece5","665500ab8938657b03fbdba8","665792b2a9bb33a3101cf4f4","631","stimuli/10100001.jpg"," ","","feedback_trial","1","","","","","","","","","","","","","","","","","","","","",""
"","","","","","image-keyboard-response","88","395924","0.0-63.0","63fba9e68d9ff349947fece5","665500ab8938657b03fbdba8","665792b2a9bb33a3101cf4f4","1568","stimuli/1000100.jpg","1","","prediction_trial","1","","true","","1","true","true","true","true","true","true","[1]","000","100","1","","","","","","",""
"","","","","","image-keyboard-response","89","396506","0.0-64.0","63fba9e68d9ff349947fece5","665500ab8938657b03fbdba8","665792b2a9bb33a3101cf4f4","581","stimuli/10001001.jpg"," ","","feedback_trial","1","","","","","","","","","","","","","","","","","","","","",""
"","","","","","image-keyboard-response","90","398558","0.0-65.0","63fba9e68d9ff349947fece5","665500ab8938657b03fbdba8","665792b2a9bb33a3101cf4f4","2051","stimuli/1010100.jpg","1","","prediction_trial","1","","true","","1","true","true","false","true","false","true","[1]","010","100","1","","","","","","",""
"","","","","","image-keyboard-response","91","399025","0.0-66.0","63fba9e68d9ff349947fece5","665500ab8938657b03fbdba8","665792b2a9bb33a3101cf4f4","466","stimuli/10101001.jpg"," ","","feedback_trial","1","","","","","","","","","","","","","","","","","","","","",""
"","","","","","image-keyboard-response","92","402815","0.0-67.0","63fba9e68d9ff349947fece5","665500ab8938657b03fbdba8","665792b2a9bb33a3101cf4f4","3789","stimuli/2100111.jpg","2","","prediction_trial","2","","true","","2","false","false","true","true","false","false","[2]","100","111","1","","","","","","",""
"","","","","","image-keyboard-response","93","403280","0.0-68.0","63fba9e68d9ff349947fece5","665500ab8938657b03fbdba8","665792b2a9bb33a3101cf4f4","461","stimuli/21001112.jpg"," ","","feedback_trial","2","","","","","","","","","","","","","","","","","","","","",""
"","","","","","image-keyboard-response","94","404840","0.0-69.0","63fba9e68d9ff349947fece5","665500ab8938657b03fbdba8","665792b2a9bb33a3101cf4f4","1559","stimuli/0000011.jpg","0","","prediction_trial","0","","true","","0","true","true","true","true","true","true","[0]","000","011","1","","","","","","",""
"","","","","","image-keyboard-response","95","405315","0.0-70.0","63fba9e68d9ff349947fece5","665500ab8938657b03fbdba8","665792b2a9bb33a3101cf4f4","475","stimuli/00000110.jpg"," ","","feedback_trial","0","","","","","","","","","","","","","","","","","","","","",""
"","","","","","image-keyboard-response","96","407138","0.0-71.0","63fba9e68d9ff349947fece5","665500ab8938657b03fbdba8","665792b2a9bb33a3101cf4f4","1822","stimuli/1110111.jpg","1","","prediction_trial","1","","true","","1","false","false","false","false","false","false","[1,0]","110","111","1","","","","","","",""
"","","","","","image-keyboard-response","97","408253","0.0-72.0","63fba9e68d9ff349947fece5","665500ab8938657b03fbdba8","665792b2a9bb33a3101cf4f4","1115","stimuli/11101111.jpg"," ","","feedback_trial","1","","","","","","","","","","","","","","","","","","","","",""
"","","","","","image-keyboard-response","98","409958","0.0-73.0","63fba9e68d9ff349947fece5","665500ab8938657b03fbdba8","665792b2a9bb33a3101cf4f4","1704","stimuli/0000000.jpg","0","","prediction_trial","0","","true","","0","true","true","true","true","true","true","[0]","000","000","1","","","","","","",""
"","","","","","image-keyboard-response","99","410359","0.0-74.0","63fba9e68d9ff349947fece5","665500ab8938657b03fbdba8","665792b2a9bb33a3101cf4f4","400","stimuli/00000000.jpg"," ","","feedback_trial","0","","","","","","","","","","","","","","","","","","","","",""
"","","","","","image-keyboard-response","100","411897","0.0-75.0","63fba9e68d9ff349947fece5","665500ab8938657b03fbdba8","665792b2a9bb33a3101cf4f4","1538","stimuli/2110000.jpg","2","","prediction_trial","2","","true","","2","true","true","true","true","true","true","[2]","110","000","1","","","","","","",""
"","","","","","image-keyboard-response","101","412369","0.0-76.0","63fba9e68d9ff349947fece5","665500ab8938657b03fbdba8","665792b2a9bb33a3101cf4f4","468","stimuli/21100002.jpg"," ","","feedback_trial","2","","","","","","","","","","","","","","","","","","","","",""
"","","","","","image-keyboard-response","102","413719","0.0-77.0","63fba9e68d9ff349947fece5","665500ab8938657b03fbdba8","665792b2a9bb33a3101cf4f4","1349","stimuli/0001001.jpg","0","","prediction_trial","0","","true","","0","true","true","true","true","true","true","[0]","001","001","1","","","","","","",""
"","","","","","image-keyboard-response","103","414080","0.0-78.0","63fba9e68d9ff349947fece5","665500ab8938657b03fbdba8","665792b2a9bb33a3101cf4f4","360","stimuli/00010010.jpg"," ","","feedback_trial","0","","","","","","","","","","","","","","","","","","","","",""
"","","","","","image-keyboard-response","104","415275","0.0-79.0","63fba9e68d9ff349947fece5","665500ab8938657b03fbdba8","665792b2a9bb33a3101cf4f4","1194","stimuli/1111001.jpg","1","","prediction_trial","1","","true","","1","true","true","false","false","false","false","[1,0,2]","111","001","1","","","","","","",""
"","","","","","image-keyboard-response","105","415711","0.0-80.0","63fba9e68d9ff349947fece5","665500ab8938657b03fbdba8","665792b2a9bb33a3101cf4f4","436","stimuli/11110011.jpg"," ","","feedback_trial","1","","","","","","","","","","","","","","","","","","","","",""
"","","","","","image-keyboard-response","106","418048","0.0-81.0","63fba9e68d9ff349947fece5","665500ab8938657b03fbdba8","665792b2a9bb33a3101cf4f4","2336","stimuli/0011110.jpg","0","","prediction_trial","0","","true","","0","false","false","true","true","false","false","[0]","011","110","1","","","","","","",""
"","","","","","image-keyboard-response","107","418704","0.0-82.0","63fba9e68d9ff349947fece5","665500ab8938657b03fbdba8","665792b2a9bb33a3101cf4f4","655","stimuli/00111100.jpg"," ","","feedback_trial","0","","","","","","","","","","","","","","","","","","","","",""
"","","","","","image-keyboard-response","108","421098","0.0-83.0","63fba9e68d9ff349947fece5","665500ab8938657b03fbdba8","665792b2a9bb33a3101cf4f4","2392","stimuli/2010111.jpg","2","","prediction_trial","2","","true","","2","false","false","true","true","false","false","[2]","010","111","1","","","","","","",""
"","","","","","image-keyboard-response","109","421807","0.0-84.0","63fba9e68d9ff349947fece5","665500ab8938657b03fbdba8","665792b2a9bb33a3101cf4f4","705","stimuli/20101112.jpg"," ","","feedback_trial","2","","","","","","","","","","","","","","","","","","","","",""
"","","","","","image-keyboard-response","110","424595","0.0-85.0","63fba9e68d9ff349947fece5","665500ab8938657b03fbdba8","665792b2a9bb33a3101cf4f4","2787","stimuli/1100110.jpg","0","","prediction_trial","1","","false","","1","false","false","true","true","false","false","[1]","100","110","0","","","","","","",""
"","","","","","image-keyboard-response","111","425289","0.0-86.0","63fba9e68d9ff349947fece5","665500ab8938657b03fbdba8","665792b2a9bb33a3101cf4f4","694","stimuli/11001101.jpg"," ","","feedback_trial","1","","","","","","","","","","","","","","","","","","","","",""
"","","","","","image-keyboard-response","112","428655","0.0-87.0","63fba9e68d9ff349947fece5","665500ab8938657b03fbdba8","665792b2a9bb33a3101cf4f4","3365","stimuli/0111101.jpg","2","","prediction_trial","1","","false","","0","false","false","false","false","false","false","[1,0,2]","111","101","0","","","","","","",""
"","","","","","image-keyboard-response","113","429600","0.0-88.0","63fba9e68d9ff349947fece5","665500ab8938657b03fbdba8","665792b2a9bb33a3101cf4f4","944","stimuli/01111011.jpg"," ","","feedback_trial","1","","","","","","","","","","","","","","","","","","","","",""
"","","","","","image-keyboard-response","114","431507","0.0-89.0","63fba9e68d9ff349947fece5","665500ab8938657b03fbdba8","665792b2a9bb33a3101cf4f4","1907","stimuli/2100000.jpg","2","","prediction_trial","2","","true","","2","true","true","true","true","true","true","[2]","100","000","1","","","","","","",""
"","","","","","image-keyboard-response","115","431945","0.0-90.0","63fba9e68d9ff349947fece5","665500ab8938657b03fbdba8","665792b2a9bb33a3101cf4f4","436","stimuli/21000002.jpg"," ","","feedback_trial","2","","","","","","","","","","","","","","","","","","","","",""
"","","","","","image-keyboard-response","116","433363","0.0-91.0","63fba9e68d9ff349947fece5","665500ab8938657b03fbdba8","665792b2a9bb33a3101cf4f4","1418","stimuli/0110000.jpg","0","","prediction_trial","0","","true","","0","true","true","false","false","false","false","[0,1]","110","000","1","","","","","","",""
"","","","","","image-keyboard-response","117","433855","0.0-92.0","63fba9e68d9ff349947fece5","665500ab8938657b03fbdba8","665792b2a9bb33a3101cf4f4","491","stimuli/01100000.jpg"," ","","feedback_trial","0","","","","","","","","","","","","","","","","","","","","",""
"","","","","","image-keyboard-response","118","435270","0.0-93.0","63fba9e68d9ff349947fece5","665500ab8938657b03fbdba8","665792b2a9bb33a3101cf4f4","1414","stimuli/1100001.jpg","1","","prediction_trial","1","","true","","1","true","true","true","true","true","true","[1]","100","001","1","","","","","","",""
"","","","","","image-keyboard-response","119","435970","0.0-94.0","63fba9e68d9ff349947fece5","665500ab8938657b03fbdba8","665792b2a9bb33a3101cf4f4","700","stimuli/11000011.jpg"," ","","feedback_trial","1","","","","","","","","","","","","","","","","","","","","",""
"","","","","","image-keyboard-response","120","437354","0.0-95.0","63fba9e68d9ff349947fece5","665500ab8938657b03fbdba8","665792b2a9bb33a3101cf4f4","1383","stimuli/2010110.jpg","2","","prediction_trial","2","","true","","2","true","true","true","true","true","true","[2]","010","110","1","","","","","","",""
"","","","","","image-keyboard-response","121","438294","0.0-96.0","63fba9e68d9ff349947fece5","665500ab8938657b03fbdba8","665792b2a9bb33a3101cf4f4","940","stimuli/20101102.jpg"," ","","feedback_trial","2","","","","","","","","","","","","","","","","","","","","",""
"","","","","","image-keyboard-response","122","439349","0.0-97.0","63fba9e68d9ff349947fece5","665500ab8938657b03fbdba8","665792b2a9bb33a3101cf4f4","1054","stimuli/2010100.jpg","2","","prediction_trial","2","","true","","2","true","true","true","true","true","true","[2]","010","100","1","","","","","","",""
"","","","","","image-keyboard-response","123","439887","0.0-98.0","63fba9e68d9ff349947fece5","665500ab8938657b03fbdba8","665792b2a9bb33a3101cf4f4","537","stimuli/20101002.jpg"," ","","feedback_trial","2","","","","","","","","","","","","","","","","","","","","",""
"","","","","","image-keyboard-response","124","442136","0.0-99.0","63fba9e68d9ff349947fece5","665500ab8938657b03fbdba8","665792b2a9bb33a3101cf4f4","2255","stimuli/0000111.jpg","1","","prediction_trial","0","","false","","0","false","false","true","true","false","false","[0]","000","111","0","","","","","","",""
"","","","","","image-keyboard-response","125","442998","0.0-100.0","63fba9e68d9ff349947fece5","665500ab8938657b03fbdba8","665792b2a9bb33a3101cf4f4","861","stimuli/00001110.jpg"," ","","feedback_trial","0","","","","","","","","","","","","","","","","","","","","",""
"","","","","","image-keyboard-response","126","445973","0.0-101.0","63fba9e68d9ff349947fece5","665500ab8938657b03fbdba8","665792b2a9bb33a3101cf4f4","2975","stimuli/2100001.jpg","2","","prediction_trial","2","","true","","2","false","true","true","true","false","true","[2]","100","001","1","","","","","","",""
"","","","","","image-keyboard-response","127","446558","0.0-102.0","63fba9e68d9ff349947fece5","665500ab8938657b03fbdba8","665792b2a9bb33a3101cf4f4","584","stimuli/21000012.jpg"," ","","feedback_trial","2","","","","","","","","","","","","","","","","","","","","",""
"","","","","","image-keyboard-response","128","448017","0.0-103.0","63fba9e68d9ff349947fece5","665500ab8938657b03fbdba8","665792b2a9bb33a3101cf4f4","1458","stimuli/1110100.jpg","1","","prediction_trial","0","","false","","1","true","true","false","false","false","false","[1,0]","110","100","0","","","","","","",""
"","","","","","image-keyboard-response","129","451327","0.0-104.0","63fba9e68d9ff349947fece5","665500ab8938657b03fbdba8","665792b2a9bb33a3101cf4f4","3310","stimuli/11101000.jpg"," ","","feedback_trial","1","","","","","","","","","","","","","","","","","","","","",""
"","","","","","image-keyboard-response","130","453340","0.0-105.0","63fba9e68d9ff349947fece5","665500ab8938657b03fbdba8","665792b2a9bb33a3101cf4f4","2012","stimuli/1010111.jpg","2","","prediction_trial","1","","false","","1","false","false","false","true","false","false","[1]","010","111","0","","","","","","",""
"","","","","","image-keyboard-response","131","454032","0.0-106.0","63fba9e68d9ff349947fece5","665500ab8938657b03fbdba8","665792b2a9bb33a3101cf4f4","692","stimuli/10101111.jpg"," ","","feedback_trial","1","","","","","","","","","","","","","","","","","","","","",""
"","","","","","image-keyboard-response","132","455840","0.0-107.0","63fba9e68d9ff349947fece5","665500ab8938657b03fbdba8","665792b2a9bb33a3101cf4f4","1807","stimuli/0100110.jpg","0","","prediction_trial","0","","true","","0","false","false","false","true","false","false","[0]","100","110","1","","","","","","",""
"","","","","","image-keyboard-response","133","456441","0.0-108.0","63fba9e68d9ff349947fece5","665500ab8938657b03fbdba8","665792b2a9bb33a3101cf4f4","599","stimuli/01001100.jpg"," ","","feedback_trial","0","","","","","","","","","","","","","","","","","","","","",""
"","","","","","image-keyboard-response","134","459382","0.0-109.0","63fba9e68d9ff349947fece5","665500ab8938657b03fbdba8","665792b2a9bb33a3101cf4f4","2941","stimuli/1101011.jpg","1","","prediction_trial","1","","true","","1","false","false","true","true","false","false","[1]","101","011","1","","","","","","",""
"","","","","","image-keyboard-response","135","459813","0.0-110.0","63fba9e68d9ff349947fece5","665500ab8938657b03fbdba8","665792b2a9bb33a3101cf4f4","430","stimuli/11010111.jpg"," ","","feedback_trial","1","","","","","","","","","","","","","","","","","","","","",""
"","","","","","image-keyboard-response","136","462279","0.0-111.0","63fba9e68d9ff349947fece5","665500ab8938657b03fbdba8","665792b2a9bb33a3101cf4f4","2466","stimuli/2001101.jpg","0","","prediction_trial","2","","false","","2","false","false","false","true","false","false","[2]","001","101","0","","","","","","",""
"","","","","","image-keyboard-response","137","463989","0.0-112.0","63fba9e68d9ff349947fece5","665500ab8938657b03fbdba8","665792b2a9bb33a3101cf4f4","1709","stimuli/20011012.jpg"," ","","feedback_trial","2","","","","","","","","","","","","","","","","","","","","",""
"","","","","","image-keyboard-response","138","467104","0.0-113.0","63fba9e68d9ff349947fece5","665500ab8938657b03fbdba8","665792b2a9bb33a3101cf4f4","3114","stimuli/2110001.jpg","2","","prediction_trial","2","","true","","2","false","true","true","true","false","true","[2]","110","001","1","","","","","","",""
"","","","","","image-keyboard-response","139","468463","0.0-114.0","63fba9e68d9ff349947fece5","665500ab8938657b03fbdba8","665792b2a9bb33a3101cf4f4","1359","stimuli/21100012.jpg"," ","","feedback_trial","2","","","","","","","","","","","","","","","","","","","","",""
"","","","","","image-keyboard-response","140","470092","0.0-115.0","63fba9e68d9ff349947fece5","665500ab8938657b03fbdba8","665792b2a9bb33a3101cf4f4","1628","stimuli/2101010.jpg","2","","prediction_trial","0","","false","","2","true","true","false","false","false","false","[0,2]","101","010","0","","","","","","",""
"","","","","","image-keyboard-response","141","473811","0.0-116.0","63fba9e68d9ff349947fece5","665500ab8938657b03fbdba8","665792b2a9bb33a3101cf4f4","3718","stimuli/21010100.jpg"," ","","feedback_trial","0","","","","","","","","","","","","","","","","","","","","",""
"","","","","","image-keyboard-response","142","476188","0.0-117.0","63fba9e68d9ff349947fece5","665500ab8938657b03fbdba8","665792b2a9bb33a3101cf4f4","2376","stimuli/0111100.jpg","0","","prediction_trial","1","","false","","0","false","true","false","false","false","false","[0,1,2]","111","100","0","","","","","","",""
"","","","","","image-keyboard-response","143","478216","0.0-118.0","63fba9e68d9ff349947fece5","665500ab8938657b03fbdba8","665792b2a9bb33a3101cf4f4","2028","stimuli/01111001.jpg"," ","","feedback_trial","0","","","","","","","","","","","","","","","","","","","","",""
"","","","","","image-keyboard-response","144","480145","0.0-119.0","63fba9e68d9ff349947fece5","665500ab8938657b03fbdba8","665792b2a9bb33a3101cf4f4","1929","stimuli/0000001.jpg","0","","prediction_trial","0","","true","","0","true","true","true","true","true","true","[0]","000","001","1","","","","","","",""
"","","","","","image-keyboard-response","145","481293","0.0-120.0","63fba9e68d9ff349947fece5","665500ab8938657b03fbdba8","665792b2a9bb33a3101cf4f4","1148","stimuli/00000010.jpg"," ","","feedback_trial","0","","","","","","","","","","","","","","","","","","","","",""
"","","","","","image-keyboard-response","146","483717","0.0-121.0","63fba9e68d9ff349947fece5","665500ab8938657b03fbdba8","665792b2a9bb33a3101cf4f4","2422","stimuli/2100101.jpg","2","","prediction_trial","2","","true","","2","false","false","true","true","false","false","[2]","100","101","1","","","","","","",""
"","","","","","image-keyboard-response","147","484526","0.0-122.0","63fba9e68d9ff349947fece5","665500ab8938657b03fbdba8","665792b2a9bb33a3101cf4f4","809","stimuli/21001012.jpg"," ","","feedback_trial","2","","","","","","","","","","","","","","","","","","","","",""
"","","","","","image-keyboard-response","148","488729","0.0-123.0","63fba9e68d9ff349947fece5","665500ab8938657b03fbdba8","665792b2a9bb33a3101cf4f4","4202","stimuli/1000110.jpg","1","","prediction_trial","1","","true","","1","false","false","true","true","false","false","[1]","000","110","1","","","","","","",""
"","","","","","image-keyboard-response","149","489874","0.0-124.0","63fba9e68d9ff349947fece5","665500ab8938657b03fbdba8","665792b2a9bb33a3101cf4f4","1141","stimuli/10001101.jpg"," ","","feedback_trial","1","","","","","","","","","","","","","","","","","","","","",""
"","","","","","image-keyboard-response","150","491359","0.0-125.0","63fba9e68d9ff349947fece5","665500ab8938657b03fbdba8","665792b2a9bb33a3101cf4f4","1485","stimuli/0111011.jpg","0","","prediction_trial","0","","true","","0","true","true","false","false","false","false","[2,0,1]","111","011","1","","","","","","",""
"","","","","","image-keyboard-response","151","492218","0.0-126.0","63fba9e68d9ff349947fece5","665500ab8938657b03fbdba8","665792b2a9bb33a3101cf4f4","859","stimuli/01110110.jpg"," ","","feedback_trial","2","","","","","","","","","","","","","","","","","","","","",""
"","","","","","image-keyboard-response","152","495229","0.0-127.0","63fba9e68d9ff349947fece5","665500ab8938657b03fbdba8","665792b2a9bb33a3101cf4f4","3010","stimuli/1110011.jpg","1","","prediction_trial","1","","true","","1","false","false","false","false","false","false","[1,0]","110","011","1","","","","","","",""
"","","","","","image-keyboard-response","153","496035","0.0-128.0","63fba9e68d9ff349947fece5","665500ab8938657b03fbdba8","665792b2a9bb33a3101cf4f4","805","stimuli/11100111.jpg"," ","","feedback_trial","1","","","","","","","","","","","","","","","","","","","","",""
"","","","","","image-keyboard-response","154","497447","0.0-129.0","63fba9e68d9ff349947fece5","665500ab8938657b03fbdba8","665792b2a9bb33a3101cf4f4","1412","stimuli/0011000.jpg","0","","prediction_trial","0","","true","","0","true","true","true","true","true","true","[0]","011","000","1","","","","","","",""
"","","","","","image-keyboard-response","155","498778","0.0-130.0","63fba9e68d9ff349947fece5","665500ab8938657b03fbdba8","665792b2a9bb33a3101cf4f4","1331","stimuli/00110000.jpg"," ","","feedback_trial","0","","","","","","","","","","","","","","","","","","","","",""
"","","","","","image-keyboard-response","156","500662","0.0-131.0","63fba9e68d9ff349947fece5","665500ab8938657b03fbdba8","665792b2a9bb33a3101cf4f4","1882","stimuli/1001001.jpg","1","","prediction_trial","1","","true","","1","true","true","true","true","true","true","[1]","001","001","1","","","","","","",""
"","","","","","image-keyboard-response","157","501058","0.0-132.0","63fba9e68d9ff349947fece5","665500ab8938657b03fbdba8","665792b2a9bb33a3101cf4f4","393","stimuli/10010011.jpg"," ","","feedback_trial","1","","","","","","","","","","","","","","","","","","","","",""
"","","","","","image-keyboard-response","158","502221","0.0-133.0","63fba9e68d9ff349947fece5","665500ab8938657b03fbdba8","665792b2a9bb33a3101cf4f4","1161","stimuli/0111010.jpg","0","","prediction_trial","2","","false","","0","true","true","false","false","false","false","[2,0,1]","111","010","0","","","","","","",""
"","","","","","image-keyboard-response","159","502532","0.0-134.0","63fba9e68d9ff349947fece5","665500ab8938657b03fbdba8","665792b2a9bb33a3101cf4f4","310","stimuli/01110102.jpg"," ","","feedback_trial","2","","","","","","","","","","","","","","","","","","","","",""
"","","","","","image-keyboard-response","160","504180","0.0-135.0","63fba9e68d9ff349947fece5","665500ab8938657b03fbdba8","665792b2a9bb33a3101cf4f4","1648","stimuli/1001101.jpg","1","","prediction_trial","1","","true","","1","true","true","true","true","true","true","[1]","001","101","1","","","","","","",""
"","","","","","image-keyboard-response","161","504773","0.0-136.0","63fba9e68d9ff349947fece5","665500ab8938657b03fbdba8","665792b2a9bb33a3101cf4f4","592","stimuli/10011011.jpg"," ","","feedback_trial","1","","","","","","","","","","","","","","","","","","","","",""
"","","","","","image-keyboard-response","162","505878","0.0-137.0","63fba9e68d9ff349947fece5","665500ab8938657b03fbdba8","665792b2a9bb33a3101cf4f4","1105","stimuli/0101010.jpg","0","","prediction_trial","0","","true","","0","true","true","false","false","false","false","[2,0]","101","010","1","","","","","","",""
"","","","","","image-keyboard-response","163","506298","0.0-138.0","63fba9e68d9ff349947fece5","665500ab8938657b03fbdba8","665792b2a9bb33a3101cf4f4","420","stimuli/01010100.jpg"," ","","feedback_trial","2","","","","","","","","","","","","","","","","","","","","",""
"","","","","","image-keyboard-response","164","508105","0.0-139.0","63fba9e68d9ff349947fece5","665500ab8938657b03fbdba8","665792b2a9bb33a3101cf4f4","1806","stimuli/1101010.jpg","1","","prediction_trial","1","","true","","1","false","true","true","true","false","true","[1]","101","010","1","","","","","","",""
"","","","","","image-keyboard-response","165","508747","0.0-140.0","63fba9e68d9ff349947fece5","665500ab8938657b03fbdba8","665792b2a9bb33a3101cf4f4","639","stimuli/11010101.jpg"," ","","feedback_trial","1","","","","","","","","","","","","","","","","","","","","",""
"","","","","","image-keyboard-response","166","510700","0.0-141.0","63fba9e68d9ff349947fece5","665500ab8938657b03fbdba8","665792b2a9bb33a3101cf4f4","1952","stimuli/2110101.jpg","2","","prediction_trial","2","","true","","2","false","false","true","true","false","false","[2]","110","101","1","","","","","","",""
"","","","","","image-keyboard-response","167","511461","0.0-142.0","63fba9e68d9ff349947fece5","665500ab8938657b03fbdba8","665792b2a9bb33a3101cf4f4","760","stimuli/21101012.jpg"," ","","feedback_trial","2","","","","","","","","","","","","","","","","","","","","",""
"","","","","","image-keyboard-response","168","513050","0.0-143.0","63fba9e68d9ff349947fece5","665500ab8938657b03fbdba8","665792b2a9bb33a3101cf4f4","1588","stimuli/0101101.jpg","1","","prediction_trial","0","","false","","0","false","false","false","false","false","false","[2,0]","101","101","0","","","","","","",""
"","","","","","image-keyboard-response","169","517084","0.0-144.0","63fba9e68d9ff349947fece5","665500ab8938657b03fbdba8","665792b2a9bb33a3101cf4f4","4034","stimuli/01011010.jpg"," ","","feedback_trial","2","","","","","","","","","","","","","","","","","","","","",""
"","","","","","image-keyboard-response","170","520200","0.0-145.0","63fba9e68d9ff349947fece5","665500ab8938657b03fbdba8","665792b2a9bb33a3101cf4f4","3115","stimuli/2000101.jpg","2","","prediction_trial","2","","true","","2","false","false","true","true","false","false","[2]","000","101","1","","","","","","",""
"","","","","","image-keyboard-response","171","520975","0.0-146.0","63fba9e68d9ff349947fece5","665500ab8938657b03fbdba8","665792b2a9bb33a3101cf4f4","775","stimuli/20001012.jpg"," ","","feedback_trial","2","","","","","","","","","","","","","","","","","","","","",""
"","","","","","image-keyboard-response","172","522445","0.0-147.0","63fba9e68d9ff349947fece5","665500ab8938657b03fbdba8","665792b2a9bb33a3101cf4f4","1469","stimuli/2110010.jpg","2","","prediction_trial","2","","true","","2","true","true","true","true","true","true","[2]","110","010","1","","","","","","",""
"","","","","","image-keyboard-response","173","523094","0.0-148.0","63fba9e68d9ff349947fece5","665500ab8938657b03fbdba8","665792b2a9bb33a3101cf4f4","649","stimuli/21100102.jpg"," ","","feedback_trial","2","","","","","","","","","","","","","","","","","","","","",""
"","","","","","image-keyboard-response","174","524339","0.0-149.0","63fba9e68d9ff349947fece5","665500ab8938657b03fbdba8","665792b2a9bb33a3101cf4f4","1244","stimuli/1111101.jpg","1","","prediction_trial","1","","true","","1","true","true","false","false","false","false","[1,0,2]","111","101","1","","","","","","",""
"","","","","","image-keyboard-response","175","524875","0.0-150.0","63fba9e68d9ff349947fece5","665500ab8938657b03fbdba8","665792b2a9bb33a3101cf4f4","536","stimuli/11111011.jpg"," ","","feedback_trial","1","","","","","","","","","","","","","","","","","","","","",""
"","","","","","image-keyboard-response","176","526430","0.0-151.0","63fba9e68d9ff349947fece5","665500ab8938657b03fbdba8","665792b2a9bb33a3101cf4f4","1555","stimuli/0101011.jpg","0","","prediction_trial","0","","true","","0","true","true","false","false","false","false","[2,0]","101","011","1","","","","","","",""
"","","","","","image-keyboard-response","177","527391","0.0-152.0","63fba9e68d9ff349947fece5","665500ab8938657b03fbdba8","665792b2a9bb33a3101cf4f4","960","stimuli/01010110.jpg"," ","","feedback_trial","2","","","","","","","","","","","","","","","","","","","","",""
"","","","","","image-keyboard-response","178","530431","0.0-153.0","63fba9e68d9ff349947fece5","665500ab8938657b03fbdba8","665792b2a9bb33a3101cf4f4","3040","stimuli/0110111.jpg","2","","prediction_trial","1","","false","","0","false","false","false","false","false","false","[1,0]","110","111","0","","","","","","",""
"","","","","","image-keyboard-response","179","533246","0.0-154.0","63fba9e68d9ff349947fece5","665500ab8938657b03fbdba8","665792b2a9bb33a3101cf4f4","2814","stimuli/01101111.jpg"," ","","feedback_trial","1","","","","","","","","","","","","","","","","","","","","",""
"","","","","","image-keyboard-response","180","534525","0.0-155.0","63fba9e68d9ff349947fece5","665500ab8938657b03fbdba8","665792b2a9bb33a3101cf4f4","1279","stimuli/2111100.jpg","2","","prediction_trial","0","","false","","2","true","true","false","false","false","false","[1,2,0]","111","100","0","","","","","","",""
"","","","","","image-keyboard-response","181","536739","0.0-156.0","63fba9e68d9ff349947fece5","665500ab8938657b03fbdba8","665792b2a9bb33a3101cf4f4","2210","stimuli/21111000.jpg"," ","","feedback_trial","1","","","","","","","","","","","","","","","","","","","","",""
"","","","","","image-keyboard-response","182","538477","0.0-157.0","63fba9e68d9ff349947fece5","665500ab8938657b03fbdba8","665792b2a9bb33a3101cf4f4","1738","stimuli/1111010.jpg","1","","prediction_trial","0","","false","","1","false","true","false","false","false","false","[1,2,0]","111","010","0","","","","","","",""
"","","","","","image-keyboard-response","183","540326","0.0-158.0","63fba9e68d9ff349947fece5","665500ab8938657b03fbdba8","665792b2a9bb33a3101cf4f4","1848","stimuli/11110100.jpg"," ","","feedback_trial","1","","","","","","","","","","","","","","","","","","","","",""
"","","","","","image-keyboard-response","184","541713","0.0-159.0","63fba9e68d9ff349947fece5","665500ab8938657b03fbdba8","665792b2a9bb33a3101cf4f4","1387","stimuli/2011000.jpg","2","","prediction_trial","1","","false","","2","true","true","false","false","false","false","[2,1]","011","000","0","","","","","","",""
"","","","","","image-keyboard-response","185","544559","0.0-160.0","63fba9e68d9ff349947fece5","665500ab8938657b03fbdba8","665792b2a9bb33a3101cf4f4","2845","stimuli/20110001.jpg"," ","","feedback_trial","2","","","","","","","","","","","","","","","","","","","","",""
"","","","","","image-keyboard-response","186","547446","0.0-161.0","63fba9e68d9ff349947fece5","665500ab8938657b03fbdba8","665792b2a9bb33a3101cf4f4","2886","stimuli/0010100.jpg","0","","prediction_trial","0","","true","","0","false","true","true","true","false","true","[0]","010","100","1","","","","","","",""
"","","","","","image-keyboard-response","187","548201","0.0-162.0","63fba9e68d9ff349947fece5","665500ab8938657b03fbdba8","665792b2a9bb33a3101cf4f4","754","stimuli/00101000.jpg"," ","","feedback_trial","0","","","","","","","","","","","","","","","","","","","","",""
"","","","","","image-keyboard-response","188","550180","0.0-163.0","63fba9e68d9ff349947fece5","665500ab8938657b03fbdba8","665792b2a9bb33a3101cf4f4","1979","stimuli/2000100.jpg","2","","prediction_trial","2","","true","","2","true","true","true","true","true","true","[2]","000","100","1","","","","","","",""
"","","","","","image-keyboard-response","189","550974","0.0-164.0","63fba9e68d9ff349947fece5","665500ab8938657b03fbdba8","665792b2a9bb33a3101cf4f4","793","stimuli/20001002.jpg"," ","","feedback_trial","2","","","","","","","","","","","","","","","","","","","","",""
"","","","","","image-keyboard-response","190","555167","0.0-165.0","63fba9e68d9ff349947fece5","665500ab8938657b03fbdba8","665792b2a9bb33a3101cf4f4","4192","stimuli/0000101.jpg","0","","prediction_trial","0","","true","","0","false","false","true","true","false","false","[0]","000","101","1","","","","","","",""
"","","","","","image-keyboard-response","191","556153","0.0-166.0","63fba9e68d9ff349947fece5","665500ab8938657b03fbdba8","665792b2a9bb33a3101cf4f4","985","stimuli/00001010.jpg"," ","","feedback_trial","0","","","","","","","","","","","","","","","","","","","","",""
"","","","","","image-keyboard-response","192","559162","0.0-167.0","63fba9e68d9ff349947fece5","665500ab8938657b03fbdba8","665792b2a9bb33a3101cf4f4","3009","stimuli/0010111.jpg","2","","prediction_trial","0","","false","","0","false","false","true","true","false","false","[0]","010","111","0","","","","","","",""
"","","","","","image-keyboard-response","193","560726","0.0-168.0","63fba9e68d9ff349947fece5","665500ab8938657b03fbdba8","665792b2a9bb33a3101cf4f4","1563","stimuli/00101110.jpg"," ","","feedback_trial","0","","","","","","","","","","","","","","","","","","","","",""
"","","","","","image-keyboard-response","194","562056","0.0-169.0","63fba9e68d9ff349947fece5","665500ab8938657b03fbdba8","665792b2a9bb33a3101cf4f4","1328","stimuli/2101000.jpg","2","","prediction_trial","2","","true","","2","true","true","false","false","false","false","[0,2]","101","000","1","","","","","","",""
"","","","","","image-keyboard-response","195","562483","0.0-170.0","63fba9e68d9ff349947fece5","665500ab8938657b03fbdba8","665792b2a9bb33a3101cf4f4","423","stimuli/21010002.jpg"," ","","feedback_trial","0","","","","","","","","","","","","","","","","","","","","",""
"","","","","","image-keyboard-response","196","564370","0.0-171.0","63fba9e68d9ff349947fece5","665500ab8938657b03fbdba8","665792b2a9bb33a3101cf4f4","1886","stimuli/1000111.jpg","1","","prediction_trial","1","","true","","1","false","false","true","true","false","false","[1]","000","111","1","","","","","","",""
"","","","","","image-keyboard-response","197","565250","0.0-172.0","63fba9e68d9ff349947fece5","665500ab8938657b03fbdba8","665792b2a9bb33a3101cf4f4","879","stimuli/10001111.jpg"," ","","feedback_trial","1","","","","","","","","","","","","","","","","","","","","",""
"","","","","","image-keyboard-response","198","567209","0.0-173.0","63fba9e68d9ff349947fece5","665500ab8938657b03fbdba8","665792b2a9bb33a3101cf4f4","1958","stimuli/1011111.jpg","0","","prediction_trial","2","","false","","1","false","false","false","false","false","false","[2,1]","011","111","0","","","","","","",""
"","","","","","image-keyboard-response","199","571061","0.0-174.0","63fba9e68d9ff349947fece5","665500ab8938657b03fbdba8","665792b2a9bb33a3101cf4f4","3852","stimuli/10111112.jpg"," ","","feedback_trial","2","","","","","","","","","","","","","","","","","","","","",""
"","","","","","image-keyboard-response","200","572311","0.0-175.0","63fba9e68d9ff349947fece5","665500ab8938657b03fbdba8","665792b2a9bb33a3101cf4f4","1249","stimuli/0000010.jpg","0","","prediction_trial","0","","true","","0","true","true","true","true","true","true","[0]","000","010","1","","","","","","",""
"","","","","","image-keyboard-response","201","572763","0.0-176.0","63fba9e68d9ff349947fece5","665500ab8938657b03fbdba8","665792b2a9bb33a3101cf4f4","452","stimuli/00000100.jpg"," ","","feedback_trial","0","","","","","","","","","","","","","","","","","","","","",""
"","","","","","image-keyboard-response","202","577076","0.0-177.0","63fba9e68d9ff349947fece5","665500ab8938657b03fbdba8","665792b2a9bb33a3101cf4f4","4312","stimuli/0000100.jpg","0","","prediction_trial","0","","true","","0","false","true","true","true","false","true","[0]","000","100","1","","","","","","",""
"","","","","","image-keyboard-response","203","577651","0.0-178.0","63fba9e68d9ff349947fece5","665500ab8938657b03fbdba8","665792b2a9bb33a3101cf4f4","574","stimuli/00001000.jpg"," ","","feedback_trial","0","","","","","","","","","","","","","","","","","","","","",""
"","","","","","image-keyboard-response","204","579599","0.0-179.0","63fba9e68d9ff349947fece5","665500ab8938657b03fbdba8","665792b2a9bb33a3101cf4f4","1947","stimuli/2010101.jpg","2","","prediction_trial","2","","true","","2","false","false","true","true","false","false","[2]","010","101","1","","","","","","",""
"","","","","","image-keyboard-response","205","580330","0.0-180.0","63fba9e68d9ff349947fece5","665500ab8938657b03fbdba8","665792b2a9bb33a3101cf4f4","730","stimuli/20101012.jpg"," ","","feedback_trial","2","","","","","","","","","","","","","","","","","","","","",""
"","","","","","image-keyboard-response","206","582257","0.0-181.0","63fba9e68d9ff349947fece5","665500ab8938657b03fbdba8","665792b2a9bb33a3101cf4f4","1927","stimuli/1010010.jpg","1","","prediction_trial","1","","true","","1","false","true","false","true","false","true","[1]","010","010","1","","","","","","",""
"","","","","","image-keyboard-response","207","582894","0.0-182.0","63fba9e68d9ff349947fece5","665500ab8938657b03fbdba8","665792b2a9bb33a3101cf4f4","636","stimuli/10100101.jpg"," ","","feedback_trial","1","","","","","","","","","","","","","","","","","","","","",""
"","","","","","image-keyboard-response","208","584163","0.0-183.0","63fba9e68d9ff349947fece5","665500ab8938657b03fbdba8","665792b2a9bb33a3101cf4f4","1268","stimuli/0010000.jpg","0","","prediction_trial","0","","true","","0","true","true","true","true","true","true","[0]","010","000","1","","","","","","",""
"","","","","","image-keyboard-response","209","584630","0.0-184.0","63fba9e68d9ff349947fece5","665500ab8938657b03fbdba8","665792b2a9bb33a3101cf4f4","466","stimuli/00100000.jpg"," ","","feedback_trial","0","","","","","","","","","","","","","","","","","","","","",""
"","","","","","image-keyboard-response","210","585794","0.0-185.0","63fba9e68d9ff349947fece5","665500ab8938657b03fbdba8","665792b2a9bb33a3101cf4f4","1164","stimuli/2111001.jpg","2","","prediction_trial","2","","true","","2","false","true","false","false","false","false","[0,2,1]","111","001","1","","","","","","",""
"","","","","","image-keyboard-response","211","586426","0.0-186.0","63fba9e68d9ff349947fece5","665500ab8938657b03fbdba8","665792b2a9bb33a3101cf4f4","631","stimuli/21110012.jpg"," ","","feedback_trial","0","","","","","","","","","","","","","","","","","","","","",""
"","","","","","image-keyboard-response","212","588114","0.0-187.0","63fba9e68d9ff349947fece5","665500ab8938657b03fbdba8","665792b2a9bb33a3101cf4f4","1687","stimuli/2101110.jpg","2","","prediction_trial","2","","true","","2","true","true","false","false","false","false","[2,0]","101","110","1","","","","","","",""
"","","","","","image-keyboard-response","213","588640","0.0-188.0","63fba9e68d9ff349947fece5","665500ab8938657b03fbdba8","665792b2a9bb33a3101cf4f4","525","stimuli/21011102.jpg"," ","","feedback_trial","2","","","","","","","","","","","","","","","","","","","","",""
"","","","","","image-keyboard-response","214","589770","0.0-189.0","63fba9e68d9ff349947fece5","665500ab8938657b03fbdba8","665792b2a9bb33a3101cf4f4","1129","stimuli/1111100.jpg","1","","prediction_trial","2","","false","","1","true","true","false","false","false","false","[0,2,1]","111","100","0","","","","","","",""
"","","","","","image-keyboard-response","215","595230","0.0-190.0","63fba9e68d9ff349947fece5","665500ab8938657b03fbdba8","665792b2a9bb33a3101cf4f4","5459","stimuli/11111002.jpg"," ","","feedback_trial","0","","","","","","","","","","","","","","","","","","","","",""
"","","","","","image-keyboard-response","216","597219","0.0-191.0","63fba9e68d9ff349947fece5","665500ab8938657b03fbdba8","665792b2a9bb33a3101cf4f4","1988","stimuli/2101101.jpg","2","","prediction_trial","0","","false","","2","false","false","false","false","false","false","[2,0]","101","101","0","","","","","","",""
"","","","","","image-keyboard-response","217","597968","0.0-192.0","63fba9e68d9ff349947fece5","665500ab8938657b03fbdba8","665792b2a9bb33a3101cf4f4","749","stimuli/21011010.jpg"," ","","feedback_trial","2","","","","","","","","","","","","","","","","","","","","",""
"","","","","","image-keyboard-response","218","599672","0.0-193.0","63fba9e68d9ff349947fece5","665500ab8938657b03fbdba8","665792b2a9bb33a3101cf4f4","1703","stimuli/0101100.jpg","0","","prediction_trial","2","","false","","0","false","true","false","false","false","false","[0,2]","101","100","0","","","","","","",""
"","","","","","image-keyboard-response","219","601152","0.0-194.0","63fba9e68d9ff349947fece5","665500ab8938657b03fbdba8","665792b2a9bb33a3101cf4f4","1479","stimuli/01011002.jpg"," ","","feedback_trial","0","","","","","","","","","","","","","","","","","","","","",""
"","","","","","image-keyboard-response","220","602588","0.0-195.0","63fba9e68d9ff349947fece5","665500ab8938657b03fbdba8","665792b2a9bb33a3101cf4f4","1436","stimuli/0011011.jpg","0","","prediction_trial","0","","true","","0","true","true","true","true","true","true","[0]","011","011","1","","","","","","",""
"","","","","","image-keyboard-response","221","603088","0.0-196.0","63fba9e68d9ff349947fece5","665500ab8938657b03fbdba8","665792b2a9bb33a3101cf4f4","498","stimuli/00110110.jpg"," ","","feedback_trial","0","","","","","","","","","","","","","","","","","","","","",""
"","","","","","image-keyboard-response","222","604231","0.0-197.0","63fba9e68d9ff349947fece5","665500ab8938657b03fbdba8","665792b2a9bb33a3101cf4f4","1143","stimuli/0100011.jpg","0","","prediction_trial","0","","true","","0","true","true","false","true","false","true","[0]","100","011","1","","","","","","",""
"","","","","","image-keyboard-response","223","604827","0.0-198.0","63fba9e68d9ff349947fece5","665500ab8938657b03fbdba8","665792b2a9bb33a3101cf4f4","596","stimuli/01000110.jpg"," ","","feedback_trial","0","","","","","","","","","","","","","","","","","","","","",""
"","","","","","image-keyboard-response","224","606427","0.0-199.0","63fba9e68d9ff349947fece5","665500ab8938657b03fbdba8","665792b2a9bb33a3101cf4f4","1599","stimuli/2010001.jpg","2","","prediction_trial","2","","true","","2","false","true","true","true","false","true","[2]","010","001","1","","","","","","",""
"","","","","","image-keyboard-response","225","607247","0.0-200.0","63fba9e68d9ff349947fece5","665500ab8938657b03fbdba8","665792b2a9bb33a3101cf4f4","819","stimuli/20100012.jpg"," ","","feedback_trial","2","","","","","","","","","","","","","","","","","","","","",""
"","","","","","image-keyboard-response","226","608855","0.0-201.0","63fba9e68d9ff349947fece5","665500ab8938657b03fbdba8","665792b2a9bb33a3101cf4f4","1608","stimuli/0110010.jpg","0","","prediction_trial","1","","false","","0","true","true","false","false","false","false","[1,0]","110","010","0","","","","","","",""
"","","","","","image-keyboard-response","227","610948","0.0-202.0","63fba9e68d9ff349947fece5","665500ab8938657b03fbdba8","665792b2a9bb33a3101cf4f4","2092","stimuli/01100101.jpg"," ","","feedback_trial","1","","","","","","","","","","","","","","","","","","","","",""
"","","","","","image-keyboard-response","228","612965","0.0-203.0","63fba9e68d9ff349947fece5","665500ab8938657b03fbdba8","665792b2a9bb33a3101cf4f4","2017","stimuli/1000010.jpg","1","","prediction_trial","1","","true","","1","false","true","true","true","false","true","[1]","000","010","1","","","","","","",""
"","","","","","image-keyboard-response","229","613427","0.0-204.0","63fba9e68d9ff349947fece5","665500ab8938657b03fbdba8","665792b2a9bb33a3101cf4f4","458","stimuli/10000101.jpg"," ","","feedback_trial","1","","","","","","","","","","","","","","","","","","","","",""
"","","","","","image-keyboard-response","230","615045","0.0-205.0","63fba9e68d9ff349947fece5","665500ab8938657b03fbdba8","665792b2a9bb33a3101cf4f4","1617","stimuli/1000000.jpg","1","","prediction_trial","1","","true","","1","true","true","true","true","true","true","[1]","000","000","1","","","","","","",""
"","","","","","image-keyboard-response","231","615871","0.0-206.0","63fba9e68d9ff349947fece5","665500ab8938657b03fbdba8","665792b2a9bb33a3101cf4f4","825","stimuli/10000001.jpg"," ","","feedback_trial","1","","","","","","","","","","","","","","","","","","","","",""
"","","","","","image-keyboard-response","232","617190","0.0-207.0","63fba9e68d9ff349947fece5","665500ab8938657b03fbdba8","665792b2a9bb33a3101cf4f4","1319","stimuli/2011100.jpg","2","","prediction_trial","2","","true","","2","true","true","false","false","false","false","[2,1]","011","100","1","","","","","","",""
"","","","","","image-keyboard-response","233","618550","0.0-208.0","63fba9e68d9ff349947fece5","665500ab8938657b03fbdba8","665792b2a9bb33a3101cf4f4","1359","stimuli/20111002.jpg"," ","","feedback_trial","2","","","","","","","","","","","","","","","","","","","","",""
"","","","","","image-keyboard-response","234","620258","0.0-209.0","63fba9e68d9ff349947fece5","665500ab8938657b03fbdba8","665792b2a9bb33a3101cf4f4","1708","stimuli/2101001.jpg","2","","prediction_trial","0","","false","","2","false","true","false","false","false","false","[2,0]","101","001","0","","","","","","",""
"","","","","","image-keyboard-response","235","622602","0.0-210.0","63fba9e68d9ff349947fece5","665500ab8938657b03fbdba8","665792b2a9bb33a3101cf4f4","2336","stimuli/21010010.jpg"," ","","feedback_trial","2","","","","","","","","","","","","","","","","","","","","",""
"","","","","","image-keyboard-response","236","625107","0.0-211.0","63fba9e68d9ff349947fece5","665500ab8938657b03fbdba8","665792b2a9bb33a3101cf4f4","2504","stimuli/1011110.jpg","0","","prediction_trial","2","","false","","1","false","false","false","false","false","false","[2,1]","011","110","0","","","","","","",""
"","","","","","image-keyboard-response","237","626375","0.0-212.0","63fba9e68d9ff349947fece5","665500ab8938657b03fbdba8","665792b2a9bb33a3101cf4f4","1263","stimuli/10111102.jpg"," ","","feedback_trial","2","","","","","","","","","","","","","","","","","","","","",""
"","","","","","image-keyboard-response","238","628287","0.0-213.0","63fba9e68d9ff349947fece5","665500ab8938657b03fbdba8","665792b2a9bb33a3101cf4f4","1912","stimuli/0100100.jpg","0","","prediction_trial","0","","true","","0","false","true","false","true","false","true","[0]","100","100","1","","","","","","",""
"","","","","","image-keyboard-response","239","629317","0.0-214.0","63fba9e68d9ff349947fece5","665500ab8938657b03fbdba8","665792b2a9bb33a3101cf4f4","1030","stimuli/01001000.jpg"," ","","feedback_trial","0","","","","","","","","","","","","","","","","","","","","",""
"","","","","","image-keyboard-response","240","632971","0.0-215.0","63fba9e68d9ff349947fece5","665500ab8938657b03fbdba8","665792b2a9bb33a3101cf4f4","3654","stimuli/1001110.jpg","1","","prediction_trial","1","","true","","1","false","false","true","true","false","false","[1]","001","110","1","","","","","","",""
"","","","","","image-keyboard-response","241","633668","0.0-216.0","63fba9e68d9ff349947fece5","665500ab8938657b03fbdba8","665792b2a9bb33a3101cf4f4","696","stimuli/10011101.jpg"," ","","feedback_trial","1","","","","","","","","","","","","","","","","","","","","",""
"","","","","","image-keyboard-response","242","637142","0.0-217.0","63fba9e68d9ff349947fece5","665500ab8938657b03fbdba8","665792b2a9bb33a3101cf4f4","3473","stimuli/1111110.jpg","0","","prediction_trial","0","","true","","1","false","false","false","false","false","false","[2,0,1]","111","110","1","","","","","","",""
"","","","","","image-keyboard-response","243","637843","0.0-218.0","63fba9e68d9ff349947fece5","665500ab8938657b03fbdba8","665792b2a9bb33a3101cf4f4","701","stimuli/11111100.jpg"," ","","feedback_trial","2","","","","","","","","","","","","","","","","","","","","",""
"","","","","","image-keyboard-response","244","639298","0.0-219.0","63fba9e68d9ff349947fece5","665500ab8938657b03fbdba8","665792b2a9bb33a3101cf4f4","1454","stimuli/2010000.jpg","2","","prediction_trial","2","","true","","2","true","true","true","true","true","true","[2]","010","000","1","","","","","","",""
"","","","","","image-keyboard-response","245","640033","0.0-220.0","63fba9e68d9ff349947fece5","665500ab8938657b03fbdba8","665792b2a9bb33a3101cf4f4","731","stimuli/20100002.jpg"," ","","feedback_trial","2","","","","","","","","","","","","","","","","","","","","",""
"","","","","","image-keyboard-response","246","641876","0.0-221.0","63fba9e68d9ff349947fece5","665500ab8938657b03fbdba8","665792b2a9bb33a3101cf4f4","1842","stimuli/1001011.jpg","2","","prediction_trial","1","","false","","1","false","false","true","true","false","false","[1]","001","011","0","","","","","","",""
"","","","","","image-keyboard-response","247","643036","0.0-222.0","63fba9e68d9ff349947fece5","665500ab8938657b03fbdba8","665792b2a9bb33a3101cf4f4","1159","stimuli/10010111.jpg"," ","","feedback_trial","1","","","","","","","","","","","","","","","","","","","","",""
"","","","","","image-keyboard-response","248","645697","0.0-223.0","63fba9e68d9ff349947fece5","665500ab8938657b03fbdba8","665792b2a9bb33a3101cf4f4","2660","stimuli/0011111.jpg","2","","prediction_trial","0","","false","","0","false","false","true","true","false","false","[0]","011","111","0","","","","","","",""
"","","","","","image-keyboard-response","249","647306","0.0-224.0","63fba9e68d9ff349947fece5","665500ab8938657b03fbdba8","665792b2a9bb33a3101cf4f4","1608","stimuli/00111110.jpg"," ","","feedback_trial","0","","","","","","","","","","","","","","","","","","","","",""
"","","","","","image-keyboard-response","250","649034","0.0-225.0","63fba9e68d9ff349947fece5","665500ab8938657b03fbdba8","665792b2a9bb33a3101cf4f4","1727","stimuli/0110110.jpg","1","","prediction_trial","1","","true","","0","false","false","false","false","false","false","[1,0]","110","110","1","","","","","","",""
"","","","","","image-keyboard-response","251","649864","0.0-226.0","63fba9e68d9ff349947fece5","665500ab8938657b03fbdba8","665792b2a9bb33a3101cf4f4","830","stimuli/01101101.jpg"," ","","feedback_trial","1","","","","","","","","","","","","","","","","","","","","",""
"","","","","","image-keyboard-response","252","651782","0.0-227.0","63fba9e68d9ff349947fece5","665500ab8938657b03fbdba8","665792b2a9bb33a3101cf4f4","1917","stimuli/2000011.jpg","1","","prediction_trial","2","","false","","2","false","false","true","true","false","false","[2]","000","011","0","","","","","","",""
"","","","","","image-keyboard-response","253","652987","0.0-228.0","63fba9e68d9ff349947fece5","665500ab8938657b03fbdba8","665792b2a9bb33a3101cf4f4","1201","stimuli/20000112.jpg"," ","","feedback_trial","2","","","","","","","","","","","","","","","","","","","","",""
"","","","","","image-keyboard-response","254","654413","0.0-229.0","63fba9e68d9ff349947fece5","665500ab8938657b03fbdba8","665792b2a9bb33a3101cf4f4","1424","stimuli/2001011.jpg","1","","prediction_trial","2","","false","","2","false","false","false","true","false","false","[2]","001","011","0","","","","","","",""
"","","","","","image-keyboard-response","255","655282","0.0-230.0","63fba9e68d9ff349947fece5","665500ab8938657b03fbdba8","665792b2a9bb33a3101cf4f4","869","stimuli/20010112.jpg"," ","","feedback_trial","2","","","","","","","","","","","","","","","","","","","","",""
"","","","","","image-keyboard-response","256","659371","0.0-231.0","63fba9e68d9ff349947fece5","665500ab8938657b03fbdba8","665792b2a9bb33a3101cf4f4","4088","stimuli/1010011.jpg","2","","prediction_trial","1","","false","","1","false","false","false","true","false","false","[1]","010","011","0","","","","","","",""
"","","","","","image-keyboard-response","257","660525","0.0-232.0","63fba9e68d9ff349947fece5","665500ab8938657b03fbdba8","665792b2a9bb33a3101cf4f4","1154","stimuli/10100111.jpg"," ","","feedback_trial","1","","","","","","","","","","","","","","","","","","","","",""
"","","","","","image-keyboard-response","258","661765","0.0-233.0","63fba9e68d9ff349947fece5","665500ab8938657b03fbdba8","665792b2a9bb33a3101cf4f4","1240","stimuli/2110100.jpg","2","","prediction_trial","2","","true","","2","true","true","true","true","true","true","[2]","110","100","1","","","","","","",""
"","","","","","image-keyboard-response","259","662376","0.0-234.0","63fba9e68d9ff349947fece5","665500ab8938657b03fbdba8","665792b2a9bb33a3101cf4f4","610","stimuli/21101002.jpg"," ","","feedback_trial","2","","","","","","","","","","","","","","","","","","","","",""
"","","","","","image-keyboard-response","260","666224","0.0-235.0","63fba9e68d9ff349947fece5","665500ab8938657b03fbdba8","665792b2a9bb33a3101cf4f4","3848","stimuli/0010101.jpg","2","","prediction_trial","0","","false","","0","false","false","true","true","false","false","[0]","010","101","0","","","","","","",""
"","","","","","image-keyboard-response","261","667644","0.0-236.0","63fba9e68d9ff349947fece5","665500ab8938657b03fbdba8","665792b2a9bb33a3101cf4f4","1416","stimuli/00101010.jpg"," ","","feedback_trial","0","","","","","","","","","","","","","","","","","","","","",""
"","","","","","image-keyboard-response","262","669162","0.0-237.0","63fba9e68d9ff349947fece5","665500ab8938657b03fbdba8","665792b2a9bb33a3101cf4f4","1518","stimuli/2011110.jpg","2","","prediction_trial","2","","true","","2","true","true","false","false","false","false","[2,1]","011","110","1","","","","","","",""
"","","","","","image-keyboard-response","263","669653","0.0-238.0","63fba9e68d9ff349947fece5","665500ab8938657b03fbdba8","665792b2a9bb33a3101cf4f4","491","stimuli/20111102.jpg"," ","","feedback_trial","2","","","","","","","","","","","","","","","","","","","","",""
"","","","","","image-keyboard-response","264","671242","0.0-239.0","63fba9e68d9ff349947fece5","665500ab8938657b03fbdba8","665792b2a9bb33a3101cf4f4","1588","stimuli/2110110.jpg","2","","prediction_trial","2","","true","","2","true","true","true","true","true","true","[2]","110","110","1","","","","","","",""
"","","","","","image-keyboard-response","265","672049","0.0-240.0","63fba9e68d9ff349947fece5","665500ab8938657b03fbdba8","665792b2a9bb33a3101cf4f4","806","stimuli/21101102.jpg"," ","","feedback_trial","2","","","","","","","","","","","","","","","","","","","","",""
"","","","","","image-keyboard-response","266","673442","0.0-241.0","63fba9e68d9ff349947fece5","665500ab8938657b03fbdba8","665792b2a9bb33a3101cf4f4","1392","stimuli/1110000.jpg","1","","prediction_trial","0","","false","","1","true","true","false","false","false","false","[0,1]","110","000","0","","","","","","",""
"","","","","","image-keyboard-response","267","675041","0.0-242.0","63fba9e68d9ff349947fece5","665500ab8938657b03fbdba8","665792b2a9bb33a3101cf4f4","1599","stimuli/11100000.jpg"," ","","feedback_trial","0","","","","","","","","","","","","","","","","","","","","",""
"","","","","","image-keyboard-response","268","677462","0.0-243.0","63fba9e68d9ff349947fece5","665500ab8938657b03fbdba8","665792b2a9bb33a3101cf4f4","2420","stimuli/0110011.jpg","2","","prediction_trial","1","","false","","0","true","true","false","false","false","false","[1,0]","110","011","0","","","","","","",""
"","","","","","image-keyboard-response","269","678413","0.0-244.0","63fba9e68d9ff349947fece5","665500ab8938657b03fbdba8","665792b2a9bb33a3101cf4f4","950","stimuli/01100111.jpg"," ","","feedback_trial","1","","","","","","","","","","","","","","","","","","","","",""
"","","","","","image-keyboard-response","270","681343","0.0-245.0","63fba9e68d9ff349947fece5","665500ab8938657b03fbdba8","665792b2a9bb33a3101cf4f4","2929","stimuli/0001101.jpg","0","","prediction_trial","0","","true","","0","false","false","true","true","false","false","[0]","001","101","1","","","","","","",""
"","","","","","image-keyboard-response","271","682070","0.0-246.0","63fba9e68d9ff349947fece5","665500ab8938657b03fbdba8","665792b2a9bb33a3101cf4f4","726","stimuli/00011010.jpg"," ","","feedback_trial","0","","","","","","","","","","","","","","","","","","","","",""
"","","","","","image-keyboard-response","272","683634","0.0-247.0","63fba9e68d9ff349947fece5","665500ab8938657b03fbdba8","665792b2a9bb33a3101cf4f4","1562","stimuli/2100110.jpg","2","","prediction_trial","2","","true","","2","true","true","true","true","true","true","[2]","100","110","1","","","","","","",""
"","","","","","image-keyboard-response","273","684275","0.0-248.0","63fba9e68d9ff349947fece5","665500ab8938657b03fbdba8","665792b2a9bb33a3101cf4f4","641","stimuli/21001102.jpg"," ","","feedback_trial","2","","","","","","","","","","","","","","","","","","","","",""
"","","","","","image-keyboard-response","274","686053","0.0-249.0","63fba9e68d9ff349947fece5","665500ab8938657b03fbdba8","665792b2a9bb33a3101cf4f4","1777","stimuli/2000110.jpg","2","","prediction_trial","2","","true","","2","true","true","true","true","true","true","[2]","000","110","1","","","","","","",""
"","","","","","image-keyboard-response","275","686850","0.0-250.0","63fba9e68d9ff349947fece5","665500ab8938657b03fbdba8","665792b2a9bb33a3101cf4f4","796","stimuli/20001102.jpg"," ","","feedback_trial","2","","","","","","","","","","","","","","","","","","","","",""
"","","","","","image-keyboard-response","276","688787","0.0-251.0","63fba9e68d9ff349947fece5","665500ab8938657b03fbdba8","665792b2a9bb33a3101cf4f4","1936","stimuli/2011111.jpg","1","","prediction_trial","2","","false","","2","false","false","false","false","false","false","[2,1]","011","111","0","","","","","","",""
"","","","","","image-keyboard-response","277","690585","0.0-252.0","63fba9e68d9ff349947fece5","665500ab8938657b03fbdba8","665792b2a9bb33a3101cf4f4","1795","stimuli/20111112.jpg"," ","","feedback_trial","2","","","","","","","","","","","","","","","","","","","","",""
"","","","","","image-keyboard-response","278","692223","0.0-253.0","63fba9e68d9ff349947fece5","665500ab8938657b03fbdba8","665792b2a9bb33a3101cf4f4","1637","stimuli/0011101.jpg","2","","prediction_trial","0","","false","","0","false","false","true","true","false","false","[0]","011","101","0","","","","","","",""
"","","","","","image-keyboard-response","279","693663","0.0-254.0","63fba9e68d9ff349947fece5","665500ab8938657b03fbdba8","665792b2a9bb33a3101cf4f4","1439","stimuli/00111010.jpg"," ","","feedback_trial","0","","","","","","","","","","","","","","","","","","","","",""
"","","","","","image-keyboard-response","280","695462","0.0-255.0","63fba9e68d9ff349947fece5","665500ab8938657b03fbdba8","665792b2a9bb33a3101cf4f4","1798","stimuli/0011100.jpg","0","","prediction_trial","0","","true","","0","false","true","true","true","false","true","[0]","011","100","1","","","","","","",""
"","","","","","image-keyboard-response","281","696416","0.0-256.0","63fba9e68d9ff349947fece5","665500ab8938657b03fbdba8","665792b2a9bb33a3101cf4f4","954","stimuli/00111000.jpg"," ","","feedback_trial","0","","","","","","","","","","","","","","","","","","","","",""
"","","","","","image-keyboard-response","282","699931","0.0-257.0","63fba9e68d9ff349947fece5","665500ab8938657b03fbdba8","665792b2a9bb33a3101cf4f4","3515","stimuli/2011101.jpg","2","","prediction_trial","2","","true","","2","false","false","false","false","false","false","[2,1]","011","101","1","","","","","","",""
"","","","","","image-keyboard-response","283","700411","0.0-258.0","63fba9e68d9ff349947fece5","665500ab8938657b03fbdba8","665792b2a9bb33a3101cf4f4","479","stimuli/20111012.jpg"," ","","feedback_trial","2","","","","","","","","","","","","","","","","","","","","",""
"","","","","","image-keyboard-response","284","702269","0.0-259.0","63fba9e68d9ff349947fece5","665500ab8938657b03fbdba8","665792b2a9bb33a3101cf4f4","1857","stimuli/2110111.jpg","2","","prediction_trial","2","","true","","2","false","false","true","true","false","false","[2]","110","111","1","","","","","","",""
"","","","","","image-keyboard-response","285","702867","0.0-260.0","63fba9e68d9ff349947fece5","665500ab8938657b03fbdba8","665792b2a9bb33a3101cf4f4","597","stimuli/21101112.jpg"," ","","feedback_trial","2","","","","","","","","","","","","","","","","","","","","",""
"","","","","","image-keyboard-response","286","704515","0.0-261.0","63fba9e68d9ff349947fece5","665500ab8938657b03fbdba8","665792b2a9bb33a3101cf4f4","1648","stimuli/2101011.jpg","1","","prediction_trial","2","","false","","2","false","false","false","false","false","false","[2,0]","101","011","0","","","","","","",""
"","","","","","image-keyboard-response","287","706238","0.0-262.0","63fba9e68d9ff349947fece5","665500ab8938657b03fbdba8","665792b2a9bb33a3101cf4f4","1722","stimuli/21010112.jpg"," ","","feedback_trial","2","","","","","","","","","","","","","","","","","","","","",""
"","","","","","image-keyboard-response","288","707598","0.0-263.0","63fba9e68d9ff349947fece5","665500ab8938657b03fbdba8","665792b2a9bb33a3101cf4f4","1360","stimuli/0111001.jpg","0","","prediction_trial","0","","true","","0","true","true","false","false","false","false","[1,0,2]","111","001","1","","","","","","",""
"","","","","","image-keyboard-response","289","708044","0.0-264.0","63fba9e68d9ff349947fece5","665500ab8938657b03fbdba8","665792b2a9bb33a3101cf4f4","445","stimuli/01110010.jpg"," ","","feedback_trial","1","","","","","","","","","","","","","","","","","","","","",""
"","","","","","image-keyboard-response","290","710171","0.0-265.0","63fba9e68d9ff349947fece5","665500ab8938657b03fbdba8","665792b2a9bb33a3101cf4f4","2126","stimuli/1011011.jpg","2","","prediction_trial","2","","true","","1","false","false","false","false","false","false","[2,1]","011","011","1","","","","","","",""
"","","","","","image-keyboard-response","291","710712","0.0-266.0","63fba9e68d9ff349947fece5","665500ab8938657b03fbdba8","665792b2a9bb33a3101cf4f4","541","stimuli/10110112.jpg"," ","","feedback_trial","2","","","","","","","","","","","","","","","","","","","","",""
"","","","","","image-keyboard-response","292","712156","0.0-267.0","63fba9e68d9ff349947fece5","665500ab8938657b03fbdba8","665792b2a9bb33a3101cf4f4","1443","stimuli/1100000.jpg","1","","prediction_trial","1","","true","","1","true","true","true","true","true","true","[1]","100","000","1","","","","","","",""
"","","","","","image-keyboard-response","293","712617","0.0-268.0","63fba9e68d9ff349947fece5","665500ab8938657b03fbdba8","665792b2a9bb33a3101cf4f4","458","stimuli/11000001.jpg"," ","","feedback_trial","1","","","","","","","","","","","","","","","","","","","","",""
"","","","","","image-keyboard-response","294","714665","0.0-269.0","63fba9e68d9ff349947fece5","665500ab8938657b03fbdba8","665792b2a9bb33a3101cf4f4","2047","stimuli/0101000.jpg","0","","prediction_trial","0","","true","","0","true","true","false","false","false","false","[0,2]","101","000","1","","","","","","",""
"","","","","","image-keyboard-response","295","715151","0.0-270.0","63fba9e68d9ff349947fece5","665500ab8938657b03fbdba8","665792b2a9bb33a3101cf4f4","486","stimuli/01010000.jpg"," ","","feedback_trial","0","","","","","","","","","","","","","","","","","","","","",""
"","","","","","image-keyboard-response","296","716765","0.0-271.0","63fba9e68d9ff349947fece5","665500ab8938657b03fbdba8","665792b2a9bb33a3101cf4f4","1613","stimuli/1111111.jpg","2","","prediction_trial","1","","false","","1","false","false","false","false","false","false","[2,0,1]","111","111","0","","","","","","",""
"","","","","","image-keyboard-response","297","717406","0.0-272.0","63fba9e68d9ff349947fece5","665500ab8938657b03fbdba8","665792b2a9bb33a3101cf4f4","641","stimuli/11111111.jpg"," ","","feedback_trial","2","","","","","","","","","","","","","","","","","","","","",""
"","","","","","image-keyboard-response","298","718720","0.0-273.0","63fba9e68d9ff349947fece5","665500ab8938657b03fbdba8","665792b2a9bb33a3101cf4f4","1313","stimuli/2111110.jpg","2","","prediction_trial","2","","true","","2","true","true","false","false","false","false","[2,0,1]","111","110","1","","","","","","",""
"","","","","","image-keyboard-response","299","719187","0.0-274.0","63fba9e68d9ff349947fece5","665500ab8938657b03fbdba8","665792b2a9bb33a3101cf4f4","466","stimuli/21111102.jpg"," ","","feedback_trial","2","","","","","","","","","","","","","","","","","","","","",""
"","","","","","image-keyboard-response","300","720546","0.0-275.0","63fba9e68d9ff349947fece5","665500ab8938657b03fbdba8","665792b2a9bb33a3101cf4f4","1358","stimuli/1001010.jpg","1","","prediction_trial","1","","true","","1","false","true","true","true","false","true","[1]","001","010","1","","","","","","",""
"","","","","","image-keyboard-response","301","721024","0.0-276.0","63fba9e68d9ff349947fece5","665500ab8938657b03fbdba8","665792b2a9bb33a3101cf4f4","474","stimuli/10010101.jpg"," ","","feedback_trial","1","","","","","","","","","","","","","","","","","","","","",""
"","","","","","image-keyboard-response","302","723097","0.0-277.0","63fba9e68d9ff349947fece5","665500ab8938657b03fbdba8","665792b2a9bb33a3101cf4f4","2072","stimuli/1101101.jpg","1","","prediction_trial","1","","true","","1","true","true","true","true","true","true","[1]","101","101","1","","","","","","",""
"","","","","","image-keyboard-response","303","724071","0.0-278.0","63fba9e68d9ff349947fece5","665500ab8938657b03fbdba8","665792b2a9bb33a3101cf4f4","974","stimuli/11011011.jpg"," ","","feedback_trial","1","","","","","","","","","","","","","","","","","","","","",""
"","","","","","image-keyboard-response","304","726577","0.0-279.0","63fba9e68d9ff349947fece5","665500ab8938657b03fbdba8","665792b2a9bb33a3101cf4f4","2505","stimuli/0100101.jpg","2","","prediction_trial","0","","false","","0","false","false","false","true","false","false","[0]","100","101","0","","","","","","",""
"","","","","","image-keyboard-response","305","727757","0.0-280.0","63fba9e68d9ff349947fece5","665500ab8938657b03fbdba8","665792b2a9bb33a3101cf4f4","1179","stimuli/01001010.jpg"," ","","feedback_trial","0","","","","","","","","","","","","","","","","","","","","",""
"","","","","","image-keyboard-response","306","729041","0.0-281.0","63fba9e68d9ff349947fece5","665500ab8938657b03fbdba8","665792b2a9bb33a3101cf4f4","1284","stimuli/1011101.jpg","1","","prediction_trial","2","","false","","1","true","true","false","false","false","false","[2,1]","011","101","0","","","","","","",""
"","","","","","image-keyboard-response","307","729503","0.0-282.0","63fba9e68d9ff349947fece5","665500ab8938657b03fbdba8","665792b2a9bb33a3101cf4f4","462","stimuli/10111012.jpg"," ","","feedback_trial","2","","","","","","","","","","","","","","","","","","","","",""
"","","","","","image-keyboard-response","308","730882","0.0-283.0","63fba9e68d9ff349947fece5","665500ab8938657b03fbdba8","665792b2a9bb33a3101cf4f4","1378","stimuli/0100010.jpg","0","","prediction_trial","0","","true","","0","true","true","false","true","false","true","[0]","100","010","1","","","","","","",""
"","","","","","image-keyboard-response","309","731433","0.0-284.0","63fba9e68d9ff349947fece5","665500ab8938657b03fbdba8","665792b2a9bb33a3101cf4f4","547","stimuli/01000100.jpg"," ","","feedback_trial","0","","","","","","","","","","","","","","","","","","","","",""
"","","","","","image-keyboard-response","310","732802","0.0-285.0","63fba9e68d9ff349947fece5","665500ab8938657b03fbdba8","665792b2a9bb33a3101cf4f4","1368","stimuli/0100001.jpg","0","","prediction_trial","0","","true","","0","true","true","false","true","false","true","[0]","100","001","1","","","","","","",""
"","","","","","image-keyboard-response","311","733199","0.0-286.0","63fba9e68d9ff349947fece5","665500ab8938657b03fbdba8","665792b2a9bb33a3101cf4f4","396","stimuli/01000010.jpg"," ","","feedback_trial","0","","","","","","","","","","","","","","","","","","","","",""
"","","","","","image-keyboard-response","312","735517","0.0-287.0","63fba9e68d9ff349947fece5","665500ab8938657b03fbdba8","665792b2a9bb33a3101cf4f4","2318","stimuli/2111011.jpg","1","","prediction_trial","0","","false","","2","false","false","false","false","false","false","[1,0,2]","111","011","0","","","","","","",""
"","","","","","image-keyboard-response","313","737469","0.0-288.0","63fba9e68d9ff349947fece5","665500ab8938657b03fbdba8","665792b2a9bb33a3101cf4f4","1951","stimuli/21110110.jpg"," ","","feedback_trial","1","","","","","","","","","","","","","","","","","","","","",""
"","","","","","image-keyboard-response","314","740314","0.0-289.0","63fba9e68d9ff349947fece5","665500ab8938657b03fbdba8","665792b2a9bb33a3101cf4f4","2845","stimuli/0000110.jpg","0","","prediction_trial","0","","true","","0","false","false","true","true","false","false","[0]","000","110","1","","","","","","",""
"","","","","","image-keyboard-response","315","740876","0.0-290.0","63fba9e68d9ff349947fece5","665500ab8938657b03fbdba8","665792b2a9bb33a3101cf4f4","561","stimuli/00001100.jpg"," ","","feedback_trial","0","","","","","","","","","","","","","","","","","","","","",""
"","","","","","image-keyboard-response","316","742659","0.0-291.0","63fba9e68d9ff349947fece5","665500ab8938657b03fbdba8","665792b2a9bb33a3101cf4f4","1783","stimuli/1110101.jpg","1","","prediction_trial","1","","true","","1","true","true","false","false","false","false","[1,0]","110","101","1","","","","","","",""
"","","","","","image-keyboard-response","317","743965","0.0-292.0","63fba9e68d9ff349947fece5","665500ab8938657b03fbdba8","665792b2a9bb33a3101cf4f4","1306","stimuli/11101011.jpg"," ","","feedback_trial","1","","","","","","","","","","","","","","","","","","","","",""
"","","","","","survey-html-form","318","820319","0.0-293.0","63fba9e68d9ff349947fece5","665500ab8938657b03fbdba8","665792b2a9bb33a3101cf4f4","76349","","{""feedback"":""Sometimes the square selected did not respond to the arrow keys, it would choose an adjacent square."",""age"":""71"",""gender"":""Male"",""other_gender"":"""",""race"":""White"",""other_race"":"""",""ethnicity"":""Non-Hispanic""}","","exit_survey","","","","","","","","","","","","","","","","Sometimes the square selected did not respond to the arrow keys, it would choose an adjacent square.","71","Non-Hispanic","Male","White","0.7013888888888888","0.7013888888888888"
