"success","timeout","failed_images","failed_audio","failed_video","trial_type","trial_index","time_elapsed","internal_node_id","prolific_id","prolific_study_id","prolific_session_id","rt","stimulus","response","view_history","trial","character_choice","stimulus_dict","accuracy","correct_response","ball_pos","ego_ball_visible","ego_can_infer","alter_ball_visible","alter_can_infer","collective_ball_visible","collective_can_infer","search_locations","alter_occluders","ego_occluders","accuracy_bool","feedback","age","ethnicity","gender","race","overall_accuracy","bonus"
"true","false","[]","[]","[]","preload","0","1913","0.0-0.0","5d16badb7b0154001a282fdb","665500ab8938657b03fbdba8","6657925495cc9ccd2b0b7bab","","","","","","","","","","","","","","","","","","","","","","","","","","",""
"true","","","","","fullscreen","1","8292","0.0-1.0","5d16badb7b0154001a282fdb","665500ab8938657b03fbdba8","6657925495cc9ccd2b0b7bab","","","","","","","","","","","","","","","","","","","","","","","","","","",""
"","","","","","html-button-response","2","83262","0.0-2.0","5d16badb7b0154001a282fdb","665500ab8938657b03fbdba8","6657925495cc9ccd2b0b7bab","74966","<p><b>Consent Form</b></p> <div style=""text-align:left;background-color:lightgrey; padding:20px; max-width:900px;""><p>Please consider this information carefully before deciding whether to participate in this research.</p> <p>The purpose of this research is to examine which factors influence social judgment and decision-making. You will be asked to make judgements about individuals and actions in social scenarios. We are simply interested in your judgement. The study will take less than 1 hour to complete, and you will receive less than $20 on Prolific. Your compensation and time commitment are specified in the study description. There are no anticipated risks associated with participating in this study. The effects of participating should be comparable to those you would ordinarily experience from viewing a computer monitor and using a mouse or keyboard for a similar amount of time. At the end of the study, we will provide an explanation of the questions that motivate this line of research and will describe the potential implications. </p><p> Your participation in this study is completely voluntary and you may refuse to participate or you may choose to withdraw at any time without penalty or loss of benefits to you which are otherwise entitled. Your participation in this study will remain confidential. No personally identifiable information will be associated with your data. Also, all analyses of the data will be averaged across all the participants, so your individual responses will never be specifically analyzed. </p><p> If you have questions or concerns about your participation or payment, or want to request a summary of research findings, please contact Dr. Jonathan Phillips at Jonathan.S.Phillips@dartmouth.edu. </p><p> Please save a copy of this form for your records. </p><p><b>Agreement: </b>The nature and purpose of this research have been sufficiently explained and I agree to participate in this study. I understand that I am free to withdraw at any time without incurring any penalty. Please consent by clicking the button below to continue. Otherwise, please exit the study at any time. </p>","0","","","","","","","","","","","","","","","","","","","","","","","",""
"","","","","","instructions","3","218307","0.0-3.0-0.0","5d16badb7b0154001a282fdb","665500ab8938657b03fbdba8","6657925495cc9ccd2b0b7bab","135042","","","[{""page_index"":0,""viewing_time"":2774},{""page_index"":1,""viewing_time"":2609},{""page_index"":2,""viewing_time"":3578},{""page_index"":3,""viewing_time"":9808},{""page_index"":4,""viewing_time"":20269},{""page_index"":5,""viewing_time"":7419},{""page_index"":6,""viewing_time"":10019},{""page_index"":7,""viewing_time"":8698},{""page_index"":8,""viewing_time"":9838},{""page_index"":9,""viewing_time"":4346},{""page_index"":10,""viewing_time"":18150},{""page_index"":11,""viewing_time"":20704},{""page_index"":12,""viewing_time"":6855},{""page_index"":13,""viewing_time"":9973}]","intro","","","","","","","","","","","","","","","","","","","","","",""
"","","","","","image-keyboard-response","4","222288","0.0-3.0-1.0","5d16badb7b0154001a282fdb","665500ab8938657b03fbdba8","6657925495cc9ccd2b0b7bab","3954","stimuli/1000000.jpg","0","","prediction_practice","1","{""filepath"":""stimuli/1000000.jpg"",""ball_pos"":1,""ego_ball_visible"":true,""ego_can_infer"":true,""alter_ball_visible"":true,""alter_can_infer"":true,""collective_ball_visible"":true,""collective_can_infer"":true,""search_locations"":[1],""alter_occluders"":""000"",""ego_occluders"":""000""}","false","","","","","","","","","","","","","","","","","","",""
"","","","","","image-keyboard-response","5","224277","0.0-3.0-2.0","5d16badb7b0154001a282fdb","665500ab8938657b03fbdba8","6657925495cc9ccd2b0b7bab","1985","stimuli/10000001.jpg"," ","","practrice_feedback","1","","","","","","","","","","","","","","","","","","","","",""
"","","","","","image-keyboard-response","6","226341","0.0-3.0-3.0","5d16badb7b0154001a282fdb","665500ab8938657b03fbdba8","6657925495cc9ccd2b0b7bab","2061","stimuli/2100001.jpg","1","","prediction_practice","2","{""filepath"":""stimuli/2100001.jpg"",""ball_pos"":2,""ego_ball_visible"":false,""ego_can_infer"":true,""alter_ball_visible"":true,""alter_can_infer"":true,""collective_ball_visible"":false,""collective_can_infer"":true,""search_locations"":[2],""alter_occluders"":""100"",""ego_occluders"":""001""}","false","","","","","","","","","","","","","","","","","","",""
"","","","","","image-keyboard-response","7","228077","0.0-3.0-4.0","5d16badb7b0154001a282fdb","665500ab8938657b03fbdba8","6657925495cc9ccd2b0b7bab","1732","stimuli/21000012.jpg"," ","","practrice_feedback","2","","","","","","","","","","","","","","","","","","","","",""
"","","","","","image-keyboard-response","8","229405","0.0-3.0-5.0","5d16badb7b0154001a282fdb","665500ab8938657b03fbdba8","6657925495cc9ccd2b0b7bab","1325","stimuli/2010100.jpg","2","","prediction_practice","2","{""filepath"":""stimuli/2010100.jpg"",""ball_pos"":2,""ego_ball_visible"":true,""ego_can_infer"":true,""alter_ball_visible"":true,""alter_can_infer"":true,""collective_ball_visible"":true,""collective_can_infer"":true,""search_locations"":[2],""alter_occluders"":""010"",""ego_occluders"":""100""}","true","","","","","","","","","","","","","","","","","","",""
"","","","","","image-keyboard-response","9","231005","0.0-3.0-6.0","5d16badb7b0154001a282fdb","665500ab8938657b03fbdba8","6657925495cc9ccd2b0b7bab","1597","stimuli/20101002.jpg"," ","","practrice_feedback","2","","","","","","","","","","","","","","","","","","","","",""
"","","","","","image-keyboard-response","10","232148","0.0-3.0-7.0","5d16badb7b0154001a282fdb","665500ab8938657b03fbdba8","6657925495cc9ccd2b0b7bab","1140","stimuli/2101100.jpg","2","","prediction_practice","2","{""filepath"":""stimuli/2101100.jpg"",""ball_pos"":2,""ego_ball_visible"":true,""ego_can_infer"":true,""alter_ball_visible"":false,""alter_can_infer"":false,""collective_ball_visible"":false,""collective_can_infer"":false,""search_locations"":[2,0],""alter_occluders"":""101"",""ego_occluders"":""100""}","true","","","","","","","","","","","","","","","","","","",""
"","","","","","image-keyboard-response","11","233180","0.0-3.0-8.0","5d16badb7b0154001a282fdb","665500ab8938657b03fbdba8","6657925495cc9ccd2b0b7bab","1029","stimuli/21011002.jpg"," ","","practrice_feedback","2","","","","","","","","","","","","","","","","","","","","",""
"","","","","","image-keyboard-response","12","234412","0.0-3.0-9.0","5d16badb7b0154001a282fdb","665500ab8938657b03fbdba8","6657925495cc9ccd2b0b7bab","1229","stimuli/2001000.jpg","2","","prediction_practice","2","{""filepath"":""stimuli/2001000.jpg"",""ball_pos"":2,""ego_ball_visible"":true,""ego_can_infer"":true,""alter_ball_visible"":false,""alter_can_infer"":true,""collective_ball_visible"":false,""collective_can_infer"":true,""search_locations"":[2],""alter_occluders"":""001"",""ego_occluders"":""000""}","true","","","","","","","","","","","","","","","","","","",""
"","","","","","image-keyboard-response","13","235381","0.0-3.0-10.0","5d16badb7b0154001a282fdb","665500ab8938657b03fbdba8","6657925495cc9ccd2b0b7bab","965","stimuli/20010002.jpg"," ","","practrice_feedback","2","","","","","","","","","","","","","","","","","","","","",""
"","","","","","image-keyboard-response","14","237021","0.0-3.0-11.0","5d16badb7b0154001a282fdb","665500ab8938657b03fbdba8","6657925495cc9ccd2b0b7bab","1638","stimuli/1110011.jpg","1","","prediction_practice","1","{""filepath"":""stimuli/1110011.jpg"",""ball_pos"":1,""ego_ball_visible"":false,""ego_can_infer"":false,""alter_ball_visible"":false,""alter_can_infer"":false,""collective_ball_visible"":false,""collective_can_infer"":false,""search_locations"":[0,1],""alter_occluders"":""110"",""ego_occluders"":""011""}","true","","","","","","","","","","","","","","","","","","",""
"","","","","","image-keyboard-response","15","238068","0.0-3.0-12.0","5d16badb7b0154001a282fdb","665500ab8938657b03fbdba8","6657925495cc9ccd2b0b7bab","1044","stimuli/11100111.jpg"," ","","practrice_feedback","0","","","","","","","","","","","","","","","","","","","","",""
"","","","","","image-keyboard-response","16","239956","0.0-3.0-13.0","5d16badb7b0154001a282fdb","665500ab8938657b03fbdba8","6657925495cc9ccd2b0b7bab","1885","stimuli/2101101.jpg","2","","prediction_practice","0","{""filepath"":""stimuli/2101101.jpg"",""ball_pos"":2,""ego_ball_visible"":false,""ego_can_infer"":false,""alter_ball_visible"":false,""alter_can_infer"":false,""collective_ball_visible"":false,""collective_can_infer"":false,""search_locations"":[2,0],""alter_occluders"":""101"",""ego_occluders"":""101""}","false","","","","","","","","","","","","","","","","","","",""
"","","","","","image-keyboard-response","17","240732","0.0-3.0-14.0","5d16badb7b0154001a282fdb","665500ab8938657b03fbdba8","6657925495cc9ccd2b0b7bab","773","stimuli/21011010.jpg"," ","","practrice_feedback","2","","","","","","","","","","","","","","","","","","","","",""
"","","","","","image-keyboard-response","18","241709","0.0-3.0-15.0","5d16badb7b0154001a282fdb","665500ab8938657b03fbdba8","6657925495cc9ccd2b0b7bab","967","stimuli/0111010.jpg","0","","prediction_practice","1","{""filepath"":""stimuli/0111010.jpg"",""ball_pos"":0,""ego_ball_visible"":true,""ego_can_infer"":true,""alter_ball_visible"":false,""alter_can_infer"":false,""collective_ball_visible"":false,""collective_can_infer"":false,""search_locations"":[1,2,0],""alter_occluders"":""111"",""ego_occluders"":""010""}","false","","","","","","","","","","","","","","","","","","",""
"","","","","","image-keyboard-response","19","243997","0.0-3.0-16.0","5d16badb7b0154001a282fdb","665500ab8938657b03fbdba8","6657925495cc9ccd2b0b7bab","2285","stimuli/01110101.jpg"," ","","practrice_feedback","1","","","","","","","","","","","","","","","","","","","","",""
"","","","","","image-keyboard-response","20","245213","0.0-3.0-17.0","5d16badb7b0154001a282fdb","665500ab8938657b03fbdba8","6657925495cc9ccd2b0b7bab","1213","stimuli/1111000.jpg","1","","prediction_practice","0","{""filepath"":""stimuli/1111000.jpg"",""ball_pos"":1,""ego_ball_visible"":true,""ego_can_infer"":true,""alter_ball_visible"":false,""alter_can_infer"":false,""collective_ball_visible"":false,""collective_can_infer"":false,""search_locations"":[1,0,2],""alter_occluders"":""111"",""ego_occluders"":""000""}","false","","","","","","","","","","","","","","","","","","",""
"","","","","","image-keyboard-response","21","247141","0.0-3.0-18.0","5d16badb7b0154001a282fdb","665500ab8938657b03fbdba8","6657925495cc9ccd2b0b7bab","1925","stimuli/11110000.jpg"," ","","practrice_feedback","1","","","","","","","","","","","","","","","","","","","","",""
"","","","","","image-keyboard-response","22","248333","0.0-3.0-19.0","5d16badb7b0154001a282fdb","665500ab8938657b03fbdba8","6657925495cc9ccd2b0b7bab","1189","stimuli/0001000.jpg","0","","prediction_practice","0","{""filepath"":""stimuli/0001000.jpg"",""ball_pos"":0,""ego_ball_visible"":true,""ego_can_infer"":true,""alter_ball_visible"":true,""alter_can_infer"":true,""collective_ball_visible"":true,""collective_can_infer"":true,""search_locations"":[0],""alter_occluders"":""001"",""ego_occluders"":""000""}","true","","","","","","","","","","","","","","","","","","",""
"","","","","","image-keyboard-response","23","249124","0.0-3.0-20.0","5d16badb7b0154001a282fdb","665500ab8938657b03fbdba8","6657925495cc9ccd2b0b7bab","789","stimuli/00010000.jpg"," ","","practrice_feedback","0","","","","","","","","","","","","","","","","","","","","",""
"","","","","","html-button-response","24","258304","0.0-3.0-21.0","5d16badb7b0154001a282fdb","665500ab8938657b03fbdba8","6657925495cc9ccd2b0b7bab","9176","Now that you've had some practice, you'll be tested with a couple of easy trials. If you correctly predict Sam's choice, you'll move on to complete the experiment!","0","","","","","","","","","","","","","","","","","","","","","","","",""
"","","","","","image-keyboard-response","25","260349","0.0-3.0-22.0-0.0","5d16badb7b0154001a282fdb","665500ab8938657b03fbdba8","6657925495cc9ccd2b0b7bab","2042","stimuli/0000011.jpg","arrowleft","","comprehension_quiz","","","true","arrowleft","","","","","","","","","","","","","","","","","",""
"","","","","","image-keyboard-response","26","261540","0.0-3.0-22.0-1.0","5d16badb7b0154001a282fdb","665500ab8938657b03fbdba8","6657925495cc9ccd2b0b7bab","1186","stimuli/00000110.jpg"," ","","comprehension_quiz","","","true"," ","","","","","","","","","","","","","","","","","",""
"","","","","","image-keyboard-response","27","263285","0.0-3.0-22.0-2.0","5d16badb7b0154001a282fdb","665500ab8938657b03fbdba8","6657925495cc9ccd2b0b7bab","1742","stimuli/1010010.jpg","arrowdown","","comprehension_quiz","","","true","arrowdown","","","","","","","","","","","","","","","","","",""
"","","","","","image-keyboard-response","28","264156","0.0-3.0-22.0-3.0","5d16badb7b0154001a282fdb","665500ab8938657b03fbdba8","6657925495cc9ccd2b0b7bab","868","stimuli/10100101.jpg"," ","","comprehension_quiz","","","true"," ","","","","","","","","","","","","","","","","","",""
"","","","","","html-button-response","29","266347","0.0-4.0","5d16badb7b0154001a282fdb","665500ab8938657b03fbdba8","6657925495cc9ccd2b0b7bab","2186","The experiment will now begin.","0","","","","","","","","","","","","","","","","","","","","","","","",""
"","","","","","image-keyboard-response","30","268109","0.0-5.0","5d16badb7b0154001a282fdb","665500ab8938657b03fbdba8","6657925495cc9ccd2b0b7bab","1758","stimuli/1011000.jpg","1","","prediction_trial","2","","false","","1","true","true","false","false","false","false","[2,1]","011","000","0","","","","","","",""
"","","","","","image-keyboard-response","31","270125","0.0-6.0","5d16badb7b0154001a282fdb","665500ab8938657b03fbdba8","6657925495cc9ccd2b0b7bab","2013","stimuli/10110002.jpg"," ","","feedback_trial","2","","","","","","","","","","","","","","","","","","","","",""
"","","","","","image-keyboard-response","32","271085","0.0-7.0","5d16badb7b0154001a282fdb","665500ab8938657b03fbdba8","6657925495cc9ccd2b0b7bab","956","stimuli/0101011.jpg","0","","prediction_trial","0","","true","","0","true","true","false","false","false","false","[2,0]","101","011","1","","","","","","",""
"","","","","","image-keyboard-response","33","271852","0.0-8.0","5d16badb7b0154001a282fdb","665500ab8938657b03fbdba8","6657925495cc9ccd2b0b7bab","763","stimuli/01010110.jpg"," ","","feedback_trial","2","","","","","","","","","","","","","","","","","","","","",""
"","","","","","image-keyboard-response","34","272829","0.0-9.0","5d16badb7b0154001a282fdb","665500ab8938657b03fbdba8","6657925495cc9ccd2b0b7bab","966","stimuli/2001111.jpg","1","","prediction_trial","2","","false","","2","false","false","false","true","false","false","[2]","001","111","0","","","","","","",""
"","","","","","image-keyboard-response","35","273941","0.0-10.0","5d16badb7b0154001a282fdb","665500ab8938657b03fbdba8","6657925495cc9ccd2b0b7bab","1109","stimuli/20011112.jpg"," ","","feedback_trial","2","","","","","","","","","","","","","","","","","","","","",""
"","","","","","image-keyboard-response","36","275109","0.0-11.0","5d16badb7b0154001a282fdb","665500ab8938657b03fbdba8","6657925495cc9ccd2b0b7bab","1165","stimuli/2010011.jpg","1","","prediction_trial","2","","false","","2","false","false","true","true","false","false","[2]","010","011","0","","","","","","",""
"","","","","","image-keyboard-response","37","275965","0.0-12.0","5d16badb7b0154001a282fdb","665500ab8938657b03fbdba8","6657925495cc9ccd2b0b7bab","853","stimuli/20100112.jpg"," ","","feedback_trial","2","","","","","","","","","","","","","","","","","","","","",""
"","","","","","image-keyboard-response","38","277197","0.0-13.0","5d16badb7b0154001a282fdb","665500ab8938657b03fbdba8","6657925495cc9ccd2b0b7bab","1229","stimuli/1010110.jpg","1","","prediction_trial","1","","true","","1","false","false","false","true","false","false","[1]","010","110","1","","","","","","",""
"","","","","","image-keyboard-response","39","277805","0.0-14.0","5d16badb7b0154001a282fdb","665500ab8938657b03fbdba8","6657925495cc9ccd2b0b7bab","605","stimuli/10101101.jpg"," ","","feedback_trial","1","","","","","","","","","","","","","","","","","","","","",""
"","","","","","image-keyboard-response","40","279341","0.0-15.0","5d16badb7b0154001a282fdb","665500ab8938657b03fbdba8","6657925495cc9ccd2b0b7bab","1533","stimuli/1011111.jpg","2","","prediction_trial","1","","false","","1","false","false","false","false","false","false","[1,2]","011","111","0","","","","","","",""
"","","","","","image-keyboard-response","41","279963","0.0-16.0","5d16badb7b0154001a282fdb","665500ab8938657b03fbdba8","6657925495cc9ccd2b0b7bab","619","stimuli/10111111.jpg"," ","","feedback_trial","1","","","","","","","","","","","","","","","","","","","","",""
"","","","","","image-keyboard-response","42","280821","0.0-17.0","5d16badb7b0154001a282fdb","665500ab8938657b03fbdba8","6657925495cc9ccd2b0b7bab","857","stimuli/1110000.jpg","1","","prediction_trial","0","","false","","1","true","true","false","false","false","false","[0,1]","110","000","0","","","","","","",""
"","","","","","image-keyboard-response","43","281725","0.0-18.0","5d16badb7b0154001a282fdb","665500ab8938657b03fbdba8","6657925495cc9ccd2b0b7bab","901","stimuli/11100000.jpg"," ","","feedback_trial","0","","","","","","","","","","","","","","","","","","","","",""
"","","","","","image-keyboard-response","44","283468","0.0-19.0","5d16badb7b0154001a282fdb","665500ab8938657b03fbdba8","6657925495cc9ccd2b0b7bab","1741","stimuli/0100111.jpg","1","","prediction_trial","0","","false","","0","false","false","false","true","false","false","[0]","100","111","0","","","","","","",""
"","","","","","image-keyboard-response","45","284052","0.0-20.0","5d16badb7b0154001a282fdb","665500ab8938657b03fbdba8","6657925495cc9ccd2b0b7bab","582","stimuli/01001110.jpg"," ","","feedback_trial","0","","","","","","","","","","","","","","","","","","","","",""
"","","","","","image-keyboard-response","46","285316","0.0-21.0","5d16badb7b0154001a282fdb","665500ab8938657b03fbdba8","6657925495cc9ccd2b0b7bab","1261","stimuli/0001010.jpg","0","","prediction_trial","0","","true","","0","true","true","true","true","true","true","[0]","001","010","1","","","","","","",""
"","","","","","image-keyboard-response","47","285805","0.0-22.0","5d16badb7b0154001a282fdb","665500ab8938657b03fbdba8","6657925495cc9ccd2b0b7bab","486","stimuli/00010100.jpg"," ","","feedback_trial","0","","","","","","","","","","","","","","","","","","","","",""
"","","","","","image-keyboard-response","48","287284","0.0-23.0","5d16badb7b0154001a282fdb","665500ab8938657b03fbdba8","6657925495cc9ccd2b0b7bab","1465","stimuli/0001101.jpg","0","","prediction_trial","0","","true","","0","false","false","true","true","false","false","[0]","001","101","1","","","","","","",""
"","","","","","image-keyboard-response","49","288020","0.0-24.0","5d16badb7b0154001a282fdb","665500ab8938657b03fbdba8","6657925495cc9ccd2b0b7bab","733","stimuli/00011010.jpg"," ","","feedback_trial","0","","","","","","","","","","","","","","","","","","","","",""
"","","","","","image-keyboard-response","50","289396","0.0-25.0","5d16badb7b0154001a282fdb","665500ab8938657b03fbdba8","6657925495cc9ccd2b0b7bab","1373","stimuli/0100011.jpg","0","","prediction_trial","0","","true","","0","true","true","false","true","false","true","[0]","100","011","1","","","","","","",""
"","","","","","image-keyboard-response","51","289957","0.0-26.0","5d16badb7b0154001a282fdb","665500ab8938657b03fbdba8","6657925495cc9ccd2b0b7bab","559","stimuli/01000110.jpg"," ","","feedback_trial","0","","","","","","","","","","","","","","","","","","","","",""
"","","","","","image-keyboard-response","52","291077","0.0-27.0","5d16badb7b0154001a282fdb","665500ab8938657b03fbdba8","6657925495cc9ccd2b0b7bab","1117","stimuli/2000110.jpg","2","","prediction_trial","2","","true","","2","true","true","true","true","true","true","[2]","000","110","1","","","","","","",""
"","","","","","image-keyboard-response","53","291724","0.0-28.0","5d16badb7b0154001a282fdb","665500ab8938657b03fbdba8","6657925495cc9ccd2b0b7bab","645","stimuli/20001102.jpg"," ","","feedback_trial","2","","","","","","","","","","","","","","","","","","","","",""
"","","","","","image-keyboard-response","54","292701","0.0-29.0","5d16badb7b0154001a282fdb","665500ab8938657b03fbdba8","6657925495cc9ccd2b0b7bab","974","stimuli/0100001.jpg","0","","prediction_trial","0","","true","","0","true","true","false","true","false","true","[0]","100","001","1","","","","","","",""
"","","","","","image-keyboard-response","55","293269","0.0-30.0","5d16badb7b0154001a282fdb","665500ab8938657b03fbdba8","6657925495cc9ccd2b0b7bab","564","stimuli/01000010.jpg"," ","","feedback_trial","0","","","","","","","","","","","","","","","","","","","","",""
"","","","","","image-keyboard-response","56","294837","0.0-31.0","5d16badb7b0154001a282fdb","665500ab8938657b03fbdba8","6657925495cc9ccd2b0b7bab","1565","stimuli/0010100.jpg","0","","prediction_trial","0","","true","","0","false","true","true","true","false","true","[0]","010","100","1","","","","","","",""
"","","","","","image-keyboard-response","57","295500","0.0-32.0","5d16badb7b0154001a282fdb","665500ab8938657b03fbdba8","6657925495cc9ccd2b0b7bab","661","stimuli/00101000.jpg"," ","","feedback_trial","0","","","","","","","","","","","","","","","","","","","","",""
"","","","","","image-keyboard-response","58","296516","0.0-33.0","5d16badb7b0154001a282fdb","665500ab8938657b03fbdba8","6657925495cc9ccd2b0b7bab","1013","stimuli/0110111.jpg","1","","prediction_trial","1","","true","","0","false","false","false","false","false","false","[1,0]","110","111","1","","","","","","",""
"","","","","","image-keyboard-response","59","297149","0.0-34.0","5d16badb7b0154001a282fdb","665500ab8938657b03fbdba8","6657925495cc9ccd2b0b7bab","630","stimuli/01101111.jpg"," ","","feedback_trial","1","","","","","","","","","","","","","","","","","","","","",""
"","","","","","image-keyboard-response","60","298476","0.0-35.0","5d16badb7b0154001a282fdb","665500ab8938657b03fbdba8","6657925495cc9ccd2b0b7bab","1325","stimuli/2101011.jpg","1","","prediction_trial","2","","false","","2","false","false","false","false","false","false","[0,2]","101","011","0","","","","","","",""
"","","","","","image-keyboard-response","61","299053","0.0-36.0","5d16badb7b0154001a282fdb","665500ab8938657b03fbdba8","6657925495cc9ccd2b0b7bab","574","stimuli/21010112.jpg"," ","","feedback_trial","0","","","","","","","","","","","","","","","","","","","","",""
"","","","","","image-keyboard-response","62","300205","0.0-37.0","5d16badb7b0154001a282fdb","665500ab8938657b03fbdba8","6657925495cc9ccd2b0b7bab","1148","stimuli/0101111.jpg","2","","prediction_trial","0","","false","","0","false","false","false","false","false","false","[2,0]","101","111","0","","","","","","",""
"","","","","","image-keyboard-response","63","300805","0.0-38.0","5d16badb7b0154001a282fdb","665500ab8938657b03fbdba8","6657925495cc9ccd2b0b7bab","597","stimuli/01011110.jpg"," ","","feedback_trial","2","","","","","","","","","","","","","","","","","","","","",""
"","","","","","image-keyboard-response","64","301949","0.0-39.0","5d16badb7b0154001a282fdb","665500ab8938657b03fbdba8","6657925495cc9ccd2b0b7bab","1142","stimuli/0010110.jpg","1","","prediction_trial","0","","false","","0","false","false","true","true","false","false","[0]","010","110","0","","","","","","",""
"","","","","","image-keyboard-response","65","302541","0.0-40.0","5d16badb7b0154001a282fdb","665500ab8938657b03fbdba8","6657925495cc9ccd2b0b7bab","588","stimuli/00101100.jpg"," ","","feedback_trial","0","","","","","","","","","","","","","","","","","","","","",""
"","","","","","image-keyboard-response","66","303261","0.0-41.0","5d16badb7b0154001a282fdb","665500ab8938657b03fbdba8","6657925495cc9ccd2b0b7bab","717","stimuli/0101001.jpg","0","","prediction_trial","0","","true","","0","true","true","false","false","false","false","[2,0]","101","001","1","","","","","","",""
"","","","","","image-keyboard-response","67","303741","0.0-42.0","5d16badb7b0154001a282fdb","665500ab8938657b03fbdba8","6657925495cc9ccd2b0b7bab","477","stimuli/01010010.jpg"," ","","feedback_trial","2","","","","","","","","","","","","","","","","","","","","",""
"","","","","","image-keyboard-response","68","305261","0.0-43.0","5d16badb7b0154001a282fdb","665500ab8938657b03fbdba8","6657925495cc9ccd2b0b7bab","1517","stimuli/1010010.jpg","1","","prediction_trial","1","","true","","1","false","true","false","true","false","true","[1]","010","010","1","","","","","","",""
"","","","","","image-keyboard-response","69","305789","0.0-44.0","5d16badb7b0154001a282fdb","665500ab8938657b03fbdba8","6657925495cc9ccd2b0b7bab","525","stimuli/10100101.jpg"," ","","feedback_trial","1","","","","","","","","","","","","","","","","","","","","",""
"","","","","","image-keyboard-response","70","306821","0.0-45.0","5d16badb7b0154001a282fdb","665500ab8938657b03fbdba8","6657925495cc9ccd2b0b7bab","1029","stimuli/2010000.jpg","2","","prediction_trial","2","","true","","2","true","true","true","true","true","true","[2]","010","000","1","","","","","","",""
"","","","","","image-keyboard-response","71","307261","0.0-46.0","5d16badb7b0154001a282fdb","665500ab8938657b03fbdba8","6657925495cc9ccd2b0b7bab","437","stimuli/20100002.jpg"," ","","feedback_trial","2","","","","","","","","","","","","","","","","","","","","",""
"","","","","","image-keyboard-response","72","308212","0.0-47.0","5d16badb7b0154001a282fdb","665500ab8938657b03fbdba8","6657925495cc9ccd2b0b7bab","949","stimuli/1110100.jpg","1","","prediction_trial","1","","true","","1","true","true","false","false","false","false","[0,1]","110","100","1","","","","","","",""
"","","","","","image-keyboard-response","73","308709","0.0-48.0","5d16badb7b0154001a282fdb","665500ab8938657b03fbdba8","6657925495cc9ccd2b0b7bab","493","stimuli/11101001.jpg"," ","","feedback_trial","0","","","","","","","","","","","","","","","","","","","","",""
"","","","","","image-keyboard-response","74","310005","0.0-49.0","5d16badb7b0154001a282fdb","665500ab8938657b03fbdba8","6657925495cc9ccd2b0b7bab","1293","stimuli/1110110.jpg","0","","prediction_trial","0","","true","","1","false","false","false","false","false","false","[1,0]","110","110","1","","","","","","",""
"","","","","","image-keyboard-response","75","310500","0.0-50.0","5d16badb7b0154001a282fdb","665500ab8938657b03fbdba8","6657925495cc9ccd2b0b7bab","493","stimuli/11101100.jpg"," ","","feedback_trial","1","","","","","","","","","","","","","","","","","","","","",""
"","","","","","image-keyboard-response","76","311579","0.0-51.0","5d16badb7b0154001a282fdb","665500ab8938657b03fbdba8","6657925495cc9ccd2b0b7bab","1076","stimuli/2110100.jpg","2","","prediction_trial","2","","true","","2","true","true","true","true","true","true","[2]","110","100","1","","","","","","",""
"","","","","","image-keyboard-response","77","312021","0.0-52.0","5d16badb7b0154001a282fdb","665500ab8938657b03fbdba8","6657925495cc9ccd2b0b7bab","440","stimuli/21101002.jpg"," ","","feedback_trial","2","","","","","","","","","","","","","","","","","","","","",""
"","","","","","image-keyboard-response","78","313045","0.0-53.0","5d16badb7b0154001a282fdb","665500ab8938657b03fbdba8","6657925495cc9ccd2b0b7bab","1021","stimuli/2000100.jpg","2","","prediction_trial","2","","true","","2","true","true","true","true","true","true","[2]","000","100","1","","","","","","",""
"","","","","","image-keyboard-response","79","313493","0.0-54.0","5d16badb7b0154001a282fdb","665500ab8938657b03fbdba8","6657925495cc9ccd2b0b7bab","445","stimuli/20001002.jpg"," ","","feedback_trial","2","","","","","","","","","","","","","","","","","","","","",""
"","","","","","image-keyboard-response","80","314925","0.0-55.0","5d16badb7b0154001a282fdb","665500ab8938657b03fbdba8","6657925495cc9ccd2b0b7bab","1429","stimuli/2010001.jpg","2","","prediction_trial","2","","true","","2","false","true","true","true","false","true","[2]","010","001","1","","","","","","",""
"","","","","","image-keyboard-response","81","315341","0.0-56.0","5d16badb7b0154001a282fdb","665500ab8938657b03fbdba8","6657925495cc9ccd2b0b7bab","413","stimuli/20100012.jpg"," ","","feedback_trial","2","","","","","","","","","","","","","","","","","","","","",""
"","","","","","image-keyboard-response","82","316052","0.0-57.0","5d16badb7b0154001a282fdb","665500ab8938657b03fbdba8","6657925495cc9ccd2b0b7bab","708","stimuli/2101000.jpg","2","","prediction_trial","2","","true","","2","true","true","false","false","false","false","[0,2]","101","000","1","","","","","","",""
"","","","","","image-keyboard-response","83","316509","0.0-58.0","5d16badb7b0154001a282fdb","665500ab8938657b03fbdba8","6657925495cc9ccd2b0b7bab","454","stimuli/21010002.jpg"," ","","feedback_trial","0","","","","","","","","","","","","","","","","","","","","",""
"","","","","","image-keyboard-response","84","317205","0.0-59.0","5d16badb7b0154001a282fdb","665500ab8938657b03fbdba8","6657925495cc9ccd2b0b7bab","693","stimuli/1001000.jpg","1","","prediction_trial","1","","true","","1","true","true","true","true","true","true","[1]","001","000","1","","","","","","",""
"","","","","","image-keyboard-response","85","317677","0.0-60.0","5d16badb7b0154001a282fdb","665500ab8938657b03fbdba8","6657925495cc9ccd2b0b7bab","468","stimuli/10010001.jpg"," ","","feedback_trial","1","","","","","","","","","","","","","","","","","","","","",""
"","","","","","image-keyboard-response","86","318683","0.0-61.0","5d16badb7b0154001a282fdb","665500ab8938657b03fbdba8","6657925495cc9ccd2b0b7bab","1004","stimuli/0001011.jpg","0","","prediction_trial","0","","true","","0","true","true","true","true","true","true","[0]","001","011","1","","","","","","",""
"","","","","","image-keyboard-response","87","319149","0.0-62.0","5d16badb7b0154001a282fdb","665500ab8938657b03fbdba8","6657925495cc9ccd2b0b7bab","465","stimuli/00010110.jpg"," ","","feedback_trial","0","","","","","","","","","","","","","","","","","","","","",""
"","","","","","image-keyboard-response","88","320252","0.0-63.0","5d16badb7b0154001a282fdb","665500ab8938657b03fbdba8","6657925495cc9ccd2b0b7bab","1100","stimuli/0000101.jpg","0","","prediction_trial","0","","true","","0","false","false","true","true","false","false","[0]","000","101","1","","","","","","",""
"","","","","","image-keyboard-response","89","320702","0.0-64.0","5d16badb7b0154001a282fdb","665500ab8938657b03fbdba8","6657925495cc9ccd2b0b7bab","447","stimuli/00001010.jpg"," ","","feedback_trial","0","","","","","","","","","","","","","","","","","","","","",""
"","","","","","image-keyboard-response","90","321733","0.0-65.0","5d16badb7b0154001a282fdb","665500ab8938657b03fbdba8","6657925495cc9ccd2b0b7bab","1018","stimuli/1001111.jpg","1","","prediction_trial","1","","true","","1","false","false","true","true","false","false","[1]","001","111","1","","","","","","",""
"","","","","","image-keyboard-response","91","322213","0.0-66.0","5d16badb7b0154001a282fdb","665500ab8938657b03fbdba8","6657925495cc9ccd2b0b7bab","478","stimuli/10011111.jpg"," ","","feedback_trial","1","","","","","","","","","","","","","","","","","","","","",""
"","","","","","image-keyboard-response","92","323060","0.0-67.0","5d16badb7b0154001a282fdb","665500ab8938657b03fbdba8","6657925495cc9ccd2b0b7bab","844","stimuli/0111000.jpg","0","","prediction_trial","1","","false","","0","true","true","false","false","false","false","[2,1,0]","111","000","0","","","","","","",""
"","","","","","image-keyboard-response","93","323589","0.0-68.0","5d16badb7b0154001a282fdb","665500ab8938657b03fbdba8","6657925495cc9ccd2b0b7bab","526","stimuli/01110001.jpg"," ","","feedback_trial","2","","","","","","","","","","","","","","","","","","","","",""
"","","","","","image-keyboard-response","94","324397","0.0-69.0","5d16badb7b0154001a282fdb","665500ab8938657b03fbdba8","6657925495cc9ccd2b0b7bab","805","stimuli/1101100.jpg","1","","prediction_trial","1","","true","","1","true","true","true","true","true","true","[1]","101","100","1","","","","","","",""
"","","","","","image-keyboard-response","95","324861","0.0-70.0","5d16badb7b0154001a282fdb","665500ab8938657b03fbdba8","6657925495cc9ccd2b0b7bab","461","stimuli/11011001.jpg"," ","","feedback_trial","1","","","","","","","","","","","","","","","","","","","","",""
"","","","","","image-keyboard-response","96","325700","0.0-71.0","5d16badb7b0154001a282fdb","665500ab8938657b03fbdba8","6657925495cc9ccd2b0b7bab","837","stimuli/1100100.jpg","1","","prediction_trial","1","","true","","1","true","true","true","true","true","true","[1]","100","100","1","","","","","","",""
"","","","","","image-keyboard-response","97","326125","0.0-72.0","5d16badb7b0154001a282fdb","665500ab8938657b03fbdba8","6657925495cc9ccd2b0b7bab","424","stimuli/11001001.jpg"," ","","feedback_trial","1","","","","","","","","","","","","","","","","","","","","",""
"","","","","","image-keyboard-response","98","327228","0.0-73.0","5d16badb7b0154001a282fdb","665500ab8938657b03fbdba8","6657925495cc9ccd2b0b7bab","1101","stimuli/0010111.jpg","1","","prediction_trial","0","","false","","0","false","false","true","true","false","false","[0]","010","111","0","","","","","","",""
"","","","","","image-keyboard-response","99","327709","0.0-74.0","5d16badb7b0154001a282fdb","665500ab8938657b03fbdba8","6657925495cc9ccd2b0b7bab","478","stimuli/00101110.jpg"," ","","feedback_trial","0","","","","","","","","","","","","","","","","","","","","",""
"","","","","","image-keyboard-response","100","328540","0.0-75.0","5d16badb7b0154001a282fdb","665500ab8938657b03fbdba8","6657925495cc9ccd2b0b7bab","828","stimuli/2110000.jpg","2","","prediction_trial","2","","true","","2","true","true","true","true","true","true","[2]","110","000","1","","","","","","",""
"","","","","","image-keyboard-response","101","328973","0.0-76.0","5d16badb7b0154001a282fdb","665500ab8938657b03fbdba8","6657925495cc9ccd2b0b7bab","429","stimuli/21100002.jpg"," ","","feedback_trial","2","","","","","","","","","","","","","","","","","","","","",""
"","","","","","image-keyboard-response","102","329773","0.0-77.0","5d16badb7b0154001a282fdb","665500ab8938657b03fbdba8","6657925495cc9ccd2b0b7bab","797","stimuli/1001001.jpg","1","","prediction_trial","1","","true","","1","true","true","true","true","true","true","[1]","001","001","1","","","","","","",""
"","","","","","image-keyboard-response","103","330179","0.0-78.0","5d16badb7b0154001a282fdb","665500ab8938657b03fbdba8","6657925495cc9ccd2b0b7bab","404","stimuli/10010011.jpg"," ","","feedback_trial","1","","","","","","","","","","","","","","","","","","","","",""
"","","","","","image-keyboard-response","104","331061","0.0-79.0","5d16badb7b0154001a282fdb","665500ab8938657b03fbdba8","6657925495cc9ccd2b0b7bab","874","stimuli/0101100.jpg","0","","prediction_trial","0","","true","","0","false","true","false","false","false","false","[0,2]","101","100","1","","","","","","",""
"","","","","","image-keyboard-response","105","331524","0.0-80.0","5d16badb7b0154001a282fdb","665500ab8938657b03fbdba8","6657925495cc9ccd2b0b7bab","461","stimuli/01011000.jpg"," ","","feedback_trial","0","","","","","","","","","","","","","","","","","","","","",""
"","","","","","image-keyboard-response","106","332406","0.0-81.0","5d16badb7b0154001a282fdb","665500ab8938657b03fbdba8","6657925495cc9ccd2b0b7bab","879","stimuli/1100111.jpg","1","","prediction_trial","1","","true","","1","false","false","true","true","false","false","[1]","100","111","1","","","","","","",""
"","","","","","image-keyboard-response","107","332860","0.0-82.0","5d16badb7b0154001a282fdb","665500ab8938657b03fbdba8","6657925495cc9ccd2b0b7bab","451","stimuli/11001111.jpg"," ","","feedback_trial","1","","","","","","","","","","","","","","","","","","","","",""
"","","","","","image-keyboard-response","108","334188","0.0-83.0","5d16badb7b0154001a282fdb","665500ab8938657b03fbdba8","6657925495cc9ccd2b0b7bab","1325","stimuli/2001011.jpg","2","","prediction_trial","2","","true","","2","false","false","false","true","false","false","[2]","001","011","1","","","","","","",""
"","","","","","image-keyboard-response","109","334661","0.0-84.0","5d16badb7b0154001a282fdb","665500ab8938657b03fbdba8","6657925495cc9ccd2b0b7bab","471","stimuli/20010112.jpg"," ","","feedback_trial","2","","","","","","","","","","","","","","","","","","","","",""
"","","","","","image-keyboard-response","110","335492","0.0-85.0","5d16badb7b0154001a282fdb","665500ab8938657b03fbdba8","6657925495cc9ccd2b0b7bab","829","stimuli/0111001.jpg","0","","prediction_trial","2","","false","","0","true","true","false","false","false","false","[1,2,0]","111","001","0","","","","","","",""
"","","","","","image-keyboard-response","111","336276","0.0-86.0","5d16badb7b0154001a282fdb","665500ab8938657b03fbdba8","6657925495cc9ccd2b0b7bab","782","stimuli/01110012.jpg"," ","","feedback_trial","1","","","","","","","","","","","","","","","","","","","","",""
"","","","","","image-keyboard-response","112","337213","0.0-87.0","5d16badb7b0154001a282fdb","665500ab8938657b03fbdba8","6657925495cc9ccd2b0b7bab","934","stimuli/0001100.jpg","0","","prediction_trial","0","","true","","0","false","true","true","true","false","true","[0]","001","100","1","","","","","","",""
"","","","","","image-keyboard-response","113","337669","0.0-88.0","5d16badb7b0154001a282fdb","665500ab8938657b03fbdba8","6657925495cc9ccd2b0b7bab","453","stimuli/00011000.jpg"," ","","feedback_trial","0","","","","","","","","","","","","","","","","","","","","",""
"","","","","","image-keyboard-response","114","338380","0.0-89.0","5d16badb7b0154001a282fdb","665500ab8938657b03fbdba8","6657925495cc9ccd2b0b7bab","708","stimuli/1010001.jpg","1","","prediction_trial","1","","true","","1","true","true","false","true","false","true","[1]","010","001","1","","","","","","",""
"","","","","","image-keyboard-response","115","338853","0.0-90.0","5d16badb7b0154001a282fdb","665500ab8938657b03fbdba8","6657925495cc9ccd2b0b7bab","471","stimuli/10100011.jpg"," ","","feedback_trial","1","","","","","","","","","","","","","","","","","","","","",""
"","","","","","image-keyboard-response","116","339924","0.0-91.0","5d16badb7b0154001a282fdb","665500ab8938657b03fbdba8","6657925495cc9ccd2b0b7bab","1069","stimuli/2000011.jpg","1","","prediction_trial","2","","false","","2","false","false","true","true","false","false","[2]","000","011","0","","","","","","",""
"","","","","","image-keyboard-response","117","341086","0.0-92.0","5d16badb7b0154001a282fdb","665500ab8938657b03fbdba8","6657925495cc9ccd2b0b7bab","1158","stimuli/20000112.jpg"," ","","feedback_trial","2","","","","","","","","","","","","","","","","","","","","",""
"","","","","","image-keyboard-response","118","341829","0.0-93.0","5d16badb7b0154001a282fdb","665500ab8938657b03fbdba8","6657925495cc9ccd2b0b7bab","728","stimuli/1101011.jpg","1","","prediction_trial","1","","true","","1","false","false","true","true","false","false","[1]","101","011","1","","","","","","",""
"","","","","","image-keyboard-response","119","342269","0.0-94.0","5d16badb7b0154001a282fdb","665500ab8938657b03fbdba8","6657925495cc9ccd2b0b7bab","437","stimuli/11010111.jpg"," ","","feedback_trial","1","","","","","","","","","","","","","","","","","","","","",""
"","","","","","image-keyboard-response","120","343509","0.0-95.0","5d16badb7b0154001a282fdb","665500ab8938657b03fbdba8","6657925495cc9ccd2b0b7bab","1237","stimuli/1010111.jpg","2","","prediction_trial","1","","false","","1","false","false","false","true","false","false","[1]","010","111","0","","","","","","",""
"","","","","","image-keyboard-response","121","344005","0.0-96.0","5d16badb7b0154001a282fdb","665500ab8938657b03fbdba8","6657925495cc9ccd2b0b7bab","493","stimuli/10101111.jpg"," ","","feedback_trial","1","","","","","","","","","","","","","","","","","","","","",""
"","","","","","image-keyboard-response","122","344988","0.0-97.0","5d16badb7b0154001a282fdb","665500ab8938657b03fbdba8","6657925495cc9ccd2b0b7bab","981","stimuli/1111011.jpg","1","","prediction_trial","0","","false","","1","false","false","false","false","false","false","[0,2,1]","111","011","0","","","","","","",""
"","","","","","image-keyboard-response","123","345493","0.0-98.0","5d16badb7b0154001a282fdb","665500ab8938657b03fbdba8","6657925495cc9ccd2b0b7bab","502","stimuli/11110110.jpg"," ","","feedback_trial","0","","","","","","","","","","","","","","","","","","","","",""
"","","","","","image-keyboard-response","124","346300","0.0-99.0","5d16badb7b0154001a282fdb","665500ab8938657b03fbdba8","6657925495cc9ccd2b0b7bab","805","stimuli/2100100.jpg","2","","prediction_trial","2","","true","","2","true","true","true","true","true","true","[2]","100","100","1","","","","","","",""
"","","","","","image-keyboard-response","125","346740","0.0-100.0","5d16badb7b0154001a282fdb","665500ab8938657b03fbdba8","6657925495cc9ccd2b0b7bab","439","stimuli/21001002.jpg"," ","","feedback_trial","2","","","","","","","","","","","","","","","","","","","","",""
"","","","","","image-keyboard-response","126","347709","0.0-101.0","5d16badb7b0154001a282fdb","665500ab8938657b03fbdba8","6657925495cc9ccd2b0b7bab","965","stimuli/0111110.jpg","0","","prediction_trial","1","","false","","0","false","false","false","false","false","false","[1,0,2]","111","110","0","","","","","","",""
"","","","","","image-keyboard-response","127","348205","0.0-102.0","5d16badb7b0154001a282fdb","665500ab8938657b03fbdba8","6657925495cc9ccd2b0b7bab","494","stimuli/01111101.jpg"," ","","feedback_trial","1","","","","","","","","","","","","","","","","","","","","",""
"","","","","","image-keyboard-response","128","349189","0.0-103.0","5d16badb7b0154001a282fdb","665500ab8938657b03fbdba8","6657925495cc9ccd2b0b7bab","981","stimuli/0010001.jpg","0","","prediction_trial","0","","true","","0","true","true","true","true","true","true","[0]","010","001","1","","","","","","",""
"","","","","","image-keyboard-response","129","349580","0.0-104.0","5d16badb7b0154001a282fdb","665500ab8938657b03fbdba8","6657925495cc9ccd2b0b7bab","388","stimuli/00100010.jpg"," ","","feedback_trial","0","","","","","","","","","","","","","","","","","","","","",""
"","","","","","image-keyboard-response","130","350452","0.0-105.0","5d16badb7b0154001a282fdb","665500ab8938657b03fbdba8","6657925495cc9ccd2b0b7bab","870","stimuli/0100010.jpg","0","","prediction_trial","0","","true","","0","true","true","false","true","false","true","[0]","100","010","1","","","","","","",""
"","","","","","image-keyboard-response","131","350885","0.0-106.0","5d16badb7b0154001a282fdb","665500ab8938657b03fbdba8","6657925495cc9ccd2b0b7bab","430","stimuli/01000100.jpg"," ","","feedback_trial","0","","","","","","","","","","","","","","","","","","","","",""
"","","","","","image-keyboard-response","132","351677","0.0-107.0","5d16badb7b0154001a282fdb","665500ab8938657b03fbdba8","6657925495cc9ccd2b0b7bab","788","stimuli/1100010.jpg","1","","prediction_trial","1","","true","","1","false","true","true","true","false","true","[1]","100","010","1","","","","","","",""
"","","","","","image-keyboard-response","133","352133","0.0-108.0","5d16badb7b0154001a282fdb","665500ab8938657b03fbdba8","6657925495cc9ccd2b0b7bab","453","stimuli/11000101.jpg"," ","","feedback_trial","1","","","","","","","","","","","","","","","","","","","","",""
"","","","","","image-keyboard-response","134","353726","0.0-109.0","5d16badb7b0154001a282fdb","665500ab8938657b03fbdba8","6657925495cc9ccd2b0b7bab","1590","stimuli/1101110.jpg","0","","prediction_trial","1","","false","","1","false","false","true","true","false","false","[1]","101","110","0","","","","","","",""
"","","","","","image-keyboard-response","135","354181","0.0-110.0","5d16badb7b0154001a282fdb","665500ab8938657b03fbdba8","6657925495cc9ccd2b0b7bab","452","stimuli/11011101.jpg"," ","","feedback_trial","1","","","","","","","","","","","","","","","","","","","","",""
"","","","","","image-keyboard-response","136","354949","0.0-111.0","5d16badb7b0154001a282fdb","665500ab8938657b03fbdba8","6657925495cc9ccd2b0b7bab","765","stimuli/2111111.jpg","1","","prediction_trial","1","","true","","2","false","false","false","false","false","false","[1,2,0]","111","111","1","","","","","","",""
"","","","","","image-keyboard-response","137","355389","0.0-112.0","5d16badb7b0154001a282fdb","665500ab8938657b03fbdba8","6657925495cc9ccd2b0b7bab","437","stimuli/21111111.jpg"," ","","feedback_trial","1","","","","","","","","","","","","","","","","","","","","",""
"","","","","","image-keyboard-response","138","356109","0.0-113.0","5d16badb7b0154001a282fdb","665500ab8938657b03fbdba8","6657925495cc9ccd2b0b7bab","717","stimuli/0000100.jpg","0","","prediction_trial","0","","true","","0","false","true","true","true","false","true","[0]","000","100","1","","","","","","",""
"","","","","","image-keyboard-response","139","356533","0.0-114.0","5d16badb7b0154001a282fdb","665500ab8938657b03fbdba8","6657925495cc9ccd2b0b7bab","420","stimuli/00001000.jpg"," ","","feedback_trial","0","","","","","","","","","","","","","","","","","","","","",""
"","","","","","image-keyboard-response","140","357309","0.0-115.0","5d16badb7b0154001a282fdb","665500ab8938657b03fbdba8","6657925495cc9ccd2b0b7bab","773","stimuli/0111010.jpg","0","","prediction_trial","1","","false","","0","true","true","false","false","false","false","[1,2,0]","111","010","0","","","","","","",""
"","","","","","image-keyboard-response","141","358237","0.0-116.0","5d16badb7b0154001a282fdb","665500ab8938657b03fbdba8","6657925495cc9ccd2b0b7bab","925","stimuli/01110101.jpg"," ","","feedback_trial","1","","","","","","","","","","","","","","","","","","","","",""
"","","","","","image-keyboard-response","142","359203","0.0-117.0","5d16badb7b0154001a282fdb","665500ab8938657b03fbdba8","6657925495cc9ccd2b0b7bab","964","stimuli/0000011.jpg","1","","prediction_trial","0","","false","","0","true","true","true","true","true","true","[0]","000","011","0","","","","","","",""
"","","","","","image-keyboard-response","143","359733","0.0-118.0","5d16badb7b0154001a282fdb","665500ab8938657b03fbdba8","6657925495cc9ccd2b0b7bab","528","stimuli/00000110.jpg"," ","","feedback_trial","0","","","","","","","","","","","","","","","","","","","","",""
"","","","","","image-keyboard-response","144","360365","0.0-119.0","5d16badb7b0154001a282fdb","665500ab8938657b03fbdba8","6657925495cc9ccd2b0b7bab","630","stimuli/1100001.jpg","1","","prediction_trial","1","","true","","1","true","true","true","true","true","true","[1]","100","001","1","","","","","","",""
"","","","","","image-keyboard-response","145","360755","0.0-120.0","5d16badb7b0154001a282fdb","665500ab8938657b03fbdba8","6657925495cc9ccd2b0b7bab","387","stimuli/11000011.jpg"," ","","feedback_trial","1","","","","","","","","","","","","","","","","","","","","",""
"","","","","","image-keyboard-response","146","361389","0.0-121.0","5d16badb7b0154001a282fdb","665500ab8938657b03fbdba8","6657925495cc9ccd2b0b7bab","628","stimuli/1011101.jpg","1","","prediction_trial","2","","false","","1","true","true","false","false","false","false","[2,1]","011","101","0","","","","","","",""
"","","","","","image-keyboard-response","147","361741","0.0-122.0","5d16badb7b0154001a282fdb","665500ab8938657b03fbdba8","6657925495cc9ccd2b0b7bab","350","stimuli/10111012.jpg"," ","","feedback_trial","2","","","","","","","","","","","","","","","","","","","","",""
"","","","","","image-keyboard-response","148","362533","0.0-123.0","5d16badb7b0154001a282fdb","665500ab8938657b03fbdba8","6657925495cc9ccd2b0b7bab","788","stimuli/2001101.jpg","0","","prediction_trial","2","","false","","2","false","false","false","true","false","false","[2]","001","101","0","","","","","","",""
"","","","","","image-keyboard-response","149","363124","0.0-124.0","5d16badb7b0154001a282fdb","665500ab8938657b03fbdba8","6657925495cc9ccd2b0b7bab","589","stimuli/20011012.jpg"," ","","feedback_trial","2","","","","","","","","","","","","","","","","","","","","",""
"","","","","","image-keyboard-response","150","363957","0.0-125.0","5d16badb7b0154001a282fdb","665500ab8938657b03fbdba8","6657925495cc9ccd2b0b7bab","830","stimuli/2100011.jpg","1","","prediction_trial","2","","false","","2","false","false","true","true","false","false","[2]","100","011","0","","","","","","",""
"","","","","","image-keyboard-response","151","364445","0.0-126.0","5d16badb7b0154001a282fdb","665500ab8938657b03fbdba8","6657925495cc9ccd2b0b7bab","485","stimuli/21000112.jpg"," ","","feedback_trial","2","","","","","","","","","","","","","","","","","","","","",""
"","","","","","image-keyboard-response","152","365220","0.0-127.0","5d16badb7b0154001a282fdb","665500ab8938657b03fbdba8","6657925495cc9ccd2b0b7bab","773","stimuli/1111101.jpg","1","","prediction_trial","0","","false","","1","true","true","false","false","false","false","[2,1,0]","111","101","0","","","","","","",""
"","","","","","image-keyboard-response","153","366293","0.0-128.0","5d16badb7b0154001a282fdb","665500ab8938657b03fbdba8","6657925495cc9ccd2b0b7bab","1069","stimuli/11111010.jpg"," ","","feedback_trial","2","","","","","","","","","","","","","","","","","","","","",""
"","","","","","image-keyboard-response","154","367277","0.0-129.0","5d16badb7b0154001a282fdb","665500ab8938657b03fbdba8","6657925495cc9ccd2b0b7bab","981","stimuli/1001100.jpg","1","","prediction_trial","1","","true","","1","true","true","true","true","true","true","[1]","001","100","1","","","","","","",""
"","","","","","image-keyboard-response","155","367733","0.0-130.0","5d16badb7b0154001a282fdb","665500ab8938657b03fbdba8","6657925495cc9ccd2b0b7bab","453","stimuli/10011001.jpg"," ","","feedback_trial","1","","","","","","","","","","","","","","","","","","","","",""
"","","","","","image-keyboard-response","156","368781","0.0-131.0","5d16badb7b0154001a282fdb","665500ab8938657b03fbdba8","6657925495cc9ccd2b0b7bab","1045","stimuli/0001110.jpg","0","","prediction_trial","0","","true","","0","false","false","true","true","false","false","[0]","001","110","1","","","","","","",""
"","","","","","image-keyboard-response","157","369261","0.0-132.0","5d16badb7b0154001a282fdb","665500ab8938657b03fbdba8","6657925495cc9ccd2b0b7bab","477","stimuli/00011100.jpg"," ","","feedback_trial","0","","","","","","","","","","","","","","","","","","","","",""
"","","","","","image-keyboard-response","158","370381","0.0-133.0","5d16badb7b0154001a282fdb","665500ab8938657b03fbdba8","6657925495cc9ccd2b0b7bab","1117","stimuli/2110010.jpg","2","","prediction_trial","2","","true","","2","true","true","true","true","true","true","[2]","110","010","1","","","","","","",""
"","","","","","image-keyboard-response","159","370860","0.0-134.0","5d16badb7b0154001a282fdb","665500ab8938657b03fbdba8","6657925495cc9ccd2b0b7bab","477","stimuli/21100102.jpg"," ","","feedback_trial","2","","","","","","","","","","","","","","","","","","","","",""
"","","","","","image-keyboard-response","160","372293","0.0-135.0","5d16badb7b0154001a282fdb","665500ab8938657b03fbdba8","6657925495cc9ccd2b0b7bab","1429","stimuli/1101111.jpg","0","","prediction_trial","1","","false","","1","false","false","true","true","false","false","[1]","101","111","0","","","","","","",""
"","","","","","image-keyboard-response","161","372837","0.0-136.0","5d16badb7b0154001a282fdb","665500ab8938657b03fbdba8","6657925495cc9ccd2b0b7bab","541","stimuli/11011111.jpg"," ","","feedback_trial","1","","","","","","","","","","","","","","","","","","","","",""
"","","","","","image-keyboard-response","162","373869","0.0-137.0","5d16badb7b0154001a282fdb","665500ab8938657b03fbdba8","6657925495cc9ccd2b0b7bab","1028","stimuli/0010010.jpg","0","","prediction_trial","0","","true","","0","true","true","true","true","true","true","[0]","010","010","1","","","","","","",""
"","","","","","image-keyboard-response","163","374245","0.0-138.0","5d16badb7b0154001a282fdb","665500ab8938657b03fbdba8","6657925495cc9ccd2b0b7bab","374","stimuli/00100100.jpg"," ","","feedback_trial","0","","","","","","","","","","","","","","","","","","","","",""
"","","","","","image-keyboard-response","164","375045","0.0-139.0","5d16badb7b0154001a282fdb","665500ab8938657b03fbdba8","6657925495cc9ccd2b0b7bab","797","stimuli/1011010.jpg","1","","prediction_trial","2","","false","","1","false","true","false","false","false","false","[1,2]","011","010","0","","","","","","",""
"","","","","","image-keyboard-response","165","375669","0.0-140.0","5d16badb7b0154001a282fdb","665500ab8938657b03fbdba8","6657925495cc9ccd2b0b7bab","621","stimuli/10110102.jpg"," ","","feedback_trial","1","","","","","","","","","","","","","","","","","","","","",""
"","","","","","image-keyboard-response","166","376781","0.0-141.0","5d16badb7b0154001a282fdb","665500ab8938657b03fbdba8","6657925495cc9ccd2b0b7bab","1110","stimuli/2001001.jpg","2","","prediction_trial","2","","true","","2","false","true","false","true","false","true","[2]","001","001","1","","","","","","",""
"","","","","","image-keyboard-response","167","377276","0.0-142.0","5d16badb7b0154001a282fdb","665500ab8938657b03fbdba8","6657925495cc9ccd2b0b7bab","492","stimuli/20010012.jpg"," ","","feedback_trial","2","","","","","","","","","","","","","","","","","","","","",""
"","","","","","image-keyboard-response","168","378045","0.0-143.0","5d16badb7b0154001a282fdb","665500ab8938657b03fbdba8","6657925495cc9ccd2b0b7bab","766","stimuli/0100101.jpg","0","","prediction_trial","0","","true","","0","false","false","false","true","false","false","[0]","100","101","1","","","","","","",""
"","","","","","image-keyboard-response","169","378524","0.0-144.0","5d16badb7b0154001a282fdb","665500ab8938657b03fbdba8","6657925495cc9ccd2b0b7bab","477","stimuli/01001010.jpg"," ","","feedback_trial","0","","","","","","","","","","","","","","","","","","","","",""
"","","","","","image-keyboard-response","170","379301","0.0-145.0","5d16badb7b0154001a282fdb","665500ab8938657b03fbdba8","6657925495cc9ccd2b0b7bab","774","stimuli/0101000.jpg","0","","prediction_trial","0","","true","","0","true","true","false","false","false","false","[2,0]","101","000","1","","","","","","",""
"","","","","","image-keyboard-response","171","379741","0.0-146.0","5d16badb7b0154001a282fdb","665500ab8938657b03fbdba8","6657925495cc9ccd2b0b7bab","436","stimuli/01010000.jpg"," ","","feedback_trial","2","","","","","","","","","","","","","","","","","","","","",""
"","","","","","image-keyboard-response","172","380620","0.0-147.0","5d16badb7b0154001a282fdb","665500ab8938657b03fbdba8","6657925495cc9ccd2b0b7bab","877","stimuli/2110001.jpg","2","","prediction_trial","2","","true","","2","false","true","true","true","false","true","[2]","110","001","1","","","","","","",""
"","","","","","image-keyboard-response","173","381524","0.0-148.0","5d16badb7b0154001a282fdb","665500ab8938657b03fbdba8","6657925495cc9ccd2b0b7bab","901","stimuli/21100012.jpg"," ","","feedback_trial","2","","","","","","","","","","","","","","","","","","","","",""
"","","","","","image-keyboard-response","174","382237","0.0-149.0","5d16badb7b0154001a282fdb","665500ab8938657b03fbdba8","6657925495cc9ccd2b0b7bab","709","stimuli/0100100.jpg","0","","prediction_trial","0","","true","","0","false","true","false","true","false","true","[0]","100","100","1","","","","","","",""
"","","","","","image-keyboard-response","175","382701","0.0-150.0","5d16badb7b0154001a282fdb","665500ab8938657b03fbdba8","6657925495cc9ccd2b0b7bab","461","stimuli/01001000.jpg"," ","","feedback_trial","0","","","","","","","","","","","","","","","","","","","","",""
"","","","","","image-keyboard-response","176","383965","0.0-151.0","5d16badb7b0154001a282fdb","665500ab8938657b03fbdba8","6657925495cc9ccd2b0b7bab","1261","stimuli/2011101.jpg","2","","prediction_trial","1","","false","","2","false","false","false","false","false","false","[2,1]","011","101","0","","","","","","",""
"","","","","","image-keyboard-response","177","384430","0.0-152.0","5d16badb7b0154001a282fdb","665500ab8938657b03fbdba8","6657925495cc9ccd2b0b7bab","462","stimuli/20111011.jpg"," ","","feedback_trial","2","","","","","","","","","","","","","","","","","","","","",""
"","","","","","image-keyboard-response","178","385116","0.0-153.0","5d16badb7b0154001a282fdb","665500ab8938657b03fbdba8","6657925495cc9ccd2b0b7bab","684","stimuli/2110110.jpg","1","","prediction_trial","2","","false","","2","true","true","true","true","true","true","[2]","110","110","0","","","","","","",""
"","","","","","image-keyboard-response","179","385693","0.0-154.0","5d16badb7b0154001a282fdb","665500ab8938657b03fbdba8","6657925495cc9ccd2b0b7bab","574","stimuli/21101102.jpg"," ","","feedback_trial","2","","","","","","","","","","","","","","","","","","","","",""
"","","","","","image-keyboard-response","180","386413","0.0-155.0","5d16badb7b0154001a282fdb","665500ab8938657b03fbdba8","6657925495cc9ccd2b0b7bab","717","stimuli/1010101.jpg","1","","prediction_trial","1","","true","","1","true","true","false","true","false","true","[1]","010","101","1","","","","","","",""
"","","","","","image-keyboard-response","181","386805","0.0-156.0","5d16badb7b0154001a282fdb","665500ab8938657b03fbdba8","6657925495cc9ccd2b0b7bab","389","stimuli/10101011.jpg"," ","","feedback_trial","1","","","","","","","","","","","","","","","","","","","","",""
"","","","","","image-keyboard-response","182","387533","0.0-157.0","5d16badb7b0154001a282fdb","665500ab8938657b03fbdba8","6657925495cc9ccd2b0b7bab","726","stimuli/0010011.jpg","0","","prediction_trial","0","","true","","0","true","true","true","true","true","true","[0]","010","011","1","","","","","","",""
"","","","","","image-keyboard-response","183","387973","0.0-158.0","5d16badb7b0154001a282fdb","665500ab8938657b03fbdba8","6657925495cc9ccd2b0b7bab","437","stimuli/00100110.jpg"," ","","feedback_trial","0","","","","","","","","","","","","","","","","","","","","",""
"","","","","","image-keyboard-response","184","388716","0.0-159.0","5d16badb7b0154001a282fdb","665500ab8938657b03fbdba8","6657925495cc9ccd2b0b7bab","741","stimuli/1010000.jpg","1","","prediction_trial","1","","true","","1","true","true","false","true","false","true","[1]","010","000","1","","","","","","",""
"","","","","","image-keyboard-response","185","389445","0.0-160.0","5d16badb7b0154001a282fdb","665500ab8938657b03fbdba8","6657925495cc9ccd2b0b7bab","726","stimuli/10100001.jpg"," ","","feedback_trial","1","","","","","","","","","","","","","","","","","","","","",""
"","","","","","image-keyboard-response","186","390316","0.0-161.0","5d16badb7b0154001a282fdb","665500ab8938657b03fbdba8","6657925495cc9ccd2b0b7bab","868","stimuli/2000000.jpg","2","","prediction_trial","2","","true","","2","true","true","true","true","true","true","[2]","000","000","1","","","","","","",""
"","","","","","image-keyboard-response","187","390725","0.0-162.0","5d16badb7b0154001a282fdb","665500ab8938657b03fbdba8","6657925495cc9ccd2b0b7bab","406","stimuli/20000002.jpg"," ","","feedback_trial","2","","","","","","","","","","","","","","","","","","","","",""
"","","","","","image-keyboard-response","188","392069","0.0-163.0","5d16badb7b0154001a282fdb","665500ab8938657b03fbdba8","6657925495cc9ccd2b0b7bab","1341","stimuli/0000111.jpg","0","","prediction_trial","0","","true","","0","false","false","true","true","false","false","[0]","000","111","1","","","","","","",""
"","","","","","image-keyboard-response","189","392605","0.0-164.0","5d16badb7b0154001a282fdb","665500ab8938657b03fbdba8","6657925495cc9ccd2b0b7bab","533","stimuli/00001110.jpg"," ","","feedback_trial","0","","","","","","","","","","","","","","","","","","","","",""
"","","","","","image-keyboard-response","190","393357","0.0-165.0","5d16badb7b0154001a282fdb","665500ab8938657b03fbdba8","6657925495cc9ccd2b0b7bab","749","stimuli/0010000.jpg","0","","prediction_trial","0","","true","","0","true","true","true","true","true","true","[0]","010","000","1","","","","","","",""
"","","","","","image-keyboard-response","191","393781","0.0-166.0","5d16badb7b0154001a282fdb","665500ab8938657b03fbdba8","6657925495cc9ccd2b0b7bab","421","stimuli/00100000.jpg"," ","","feedback_trial","0","","","","","","","","","","","","","","","","","","","","",""
"","","","","","image-keyboard-response","192","394797","0.0-167.0","5d16badb7b0154001a282fdb","665500ab8938657b03fbdba8","6657925495cc9ccd2b0b7bab","1014","stimuli/2111100.jpg","2","","prediction_trial","2","","true","","2","true","true","false","false","false","false","[0,1,2]","111","100","1","","","","","","",""
"","","","","","image-keyboard-response","193","395245","0.0-168.0","5d16badb7b0154001a282fdb","665500ab8938657b03fbdba8","6657925495cc9ccd2b0b7bab","445","stimuli/21111002.jpg"," ","","feedback_trial","0","","","","","","","","","","","","","","","","","","","","",""
"","","","","","image-keyboard-response","194","395989","0.0-169.0","5d16badb7b0154001a282fdb","665500ab8938657b03fbdba8","6657925495cc9ccd2b0b7bab","741","stimuli/1111110.jpg","1","","prediction_trial","1","","true","","1","false","false","false","false","false","false","[1,0,2]","111","110","1","","","","","","",""
"","","","","","image-keyboard-response","195","396429","0.0-170.0","5d16badb7b0154001a282fdb","665500ab8938657b03fbdba8","6657925495cc9ccd2b0b7bab","437","stimuli/11111101.jpg"," ","","feedback_trial","1","","","","","","","","","","","","","","","","","","","","",""
"","","","","","image-keyboard-response","196","397213","0.0-171.0","5d16badb7b0154001a282fdb","665500ab8938657b03fbdba8","6657925495cc9ccd2b0b7bab","781","stimuli/0011010.jpg","0","","prediction_trial","0","","true","","0","true","true","true","true","true","true","[0]","011","010","1","","","","","","",""
"","","","","","image-keyboard-response","197","397629","0.0-172.0","5d16badb7b0154001a282fdb","665500ab8938657b03fbdba8","6657925495cc9ccd2b0b7bab","414","stimuli/00110100.jpg"," ","","feedback_trial","0","","","","","","","","","","","","","","","","","","","","",""
"","","","","","image-keyboard-response","198","398469","0.0-173.0","5d16badb7b0154001a282fdb","665500ab8938657b03fbdba8","6657925495cc9ccd2b0b7bab","837","stimuli/0011111.jpg","1","","prediction_trial","0","","false","","0","false","false","true","true","false","false","[0]","011","111","0","","","","","","",""
"","","","","","image-keyboard-response","199","398957","0.0-174.0","5d16badb7b0154001a282fdb","665500ab8938657b03fbdba8","6657925495cc9ccd2b0b7bab","485","stimuli/00111110.jpg"," ","","feedback_trial","0","","","","","","","","","","","","","","","","","","","","",""
"","","","","","image-keyboard-response","200","399604","0.0-175.0","5d16badb7b0154001a282fdb","665500ab8938657b03fbdba8","6657925495cc9ccd2b0b7bab","644","stimuli/1100101.jpg","1","","prediction_trial","1","","true","","1","true","true","true","true","true","true","[1]","100","101","1","","","","","","",""
"","","","","","image-keyboard-response","201","399989","0.0-176.0","5d16badb7b0154001a282fdb","665500ab8938657b03fbdba8","6657925495cc9ccd2b0b7bab","382","stimuli/11001011.jpg"," ","","feedback_trial","1","","","","","","","","","","","","","","","","","","","","",""
"","","","","","image-keyboard-response","202","400813","0.0-177.0","5d16badb7b0154001a282fdb","665500ab8938657b03fbdba8","6657925495cc9ccd2b0b7bab","820","stimuli/0111100.jpg","0","","prediction_trial","0","","true","","0","false","true","false","false","false","false","[2,0,1]","111","100","1","","","","","","",""
"","","","","","image-keyboard-response","203","401219","0.0-178.0","5d16badb7b0154001a282fdb","665500ab8938657b03fbdba8","6657925495cc9ccd2b0b7bab","403","stimuli/01111000.jpg"," ","","feedback_trial","2","","","","","","","","","","","","","","","","","","","","",""
"","","","","","image-keyboard-response","204","401925","0.0-179.0","5d16badb7b0154001a282fdb","665500ab8938657b03fbdba8","6657925495cc9ccd2b0b7bab","703","stimuli/2001000.jpg","2","","prediction_trial","2","","true","","2","true","true","false","true","false","true","[2]","001","000","1","","","","","","",""
"","","","","","image-keyboard-response","205","402429","0.0-180.0","5d16badb7b0154001a282fdb","665500ab8938657b03fbdba8","6657925495cc9ccd2b0b7bab","502","stimuli/20010002.jpg"," ","","feedback_trial","2","","","","","","","","","","","","","","","","","","","","",""
"","","","","","image-keyboard-response","206","403117","0.0-181.0","5d16badb7b0154001a282fdb","665500ab8938657b03fbdba8","6657925495cc9ccd2b0b7bab","686","stimuli/1111001.jpg","1","","prediction_trial","0","","false","","1","true","true","false","false","false","false","[0,1,2]","111","001","0","","","","","","",""
"","","","","","image-keyboard-response","207","403739","0.0-182.0","5d16badb7b0154001a282fdb","665500ab8938657b03fbdba8","6657925495cc9ccd2b0b7bab","619","stimuli/11110010.jpg"," ","","feedback_trial","0","","","","","","","","","","","","","","","","","","","","",""
"","","","","","image-keyboard-response","208","404573","0.0-183.0","5d16badb7b0154001a282fdb","665500ab8938657b03fbdba8","6657925495cc9ccd2b0b7bab","833","stimuli/1110011.jpg","1","","prediction_trial","0","","false","","1","false","false","false","false","false","false","[0,1]","110","011","0","","","","","","",""
"","","","","","image-keyboard-response","209","405222","0.0-184.0","5d16badb7b0154001a282fdb","665500ab8938657b03fbdba8","6657925495cc9ccd2b0b7bab","646","stimuli/11100110.jpg"," ","","feedback_trial","0","","","","","","","","","","","","","","","","","","","","",""
"","","","","","image-keyboard-response","210","406117","0.0-185.0","5d16badb7b0154001a282fdb","665500ab8938657b03fbdba8","6657925495cc9ccd2b0b7bab","892","stimuli/0111101.jpg","0","","prediction_trial","1","","false","","0","false","false","false","false","false","false","[2,0,1]","111","101","0","","","","","","",""
"","","","","","image-keyboard-response","211","406677","0.0-186.0","5d16badb7b0154001a282fdb","665500ab8938657b03fbdba8","6657925495cc9ccd2b0b7bab","557","stimuli/01111011.jpg"," ","","feedback_trial","2","","","","","","","","","","","","","","","","","","","","",""
"","","","","","image-keyboard-response","212","407493","0.0-187.0","5d16badb7b0154001a282fdb","665500ab8938657b03fbdba8","6657925495cc9ccd2b0b7bab","813","stimuli/2100000.jpg","2","","prediction_trial","2","","true","","2","true","true","true","true","true","true","[2]","100","000","1","","","","","","",""
"","","","","","image-keyboard-response","213","407924","0.0-188.0","5d16badb7b0154001a282fdb","665500ab8938657b03fbdba8","6657925495cc9ccd2b0b7bab","429","stimuli/21000002.jpg"," ","","feedback_trial","2","","","","","","","","","","","","","","","","","","","","",""
"","","","","","image-keyboard-response","214","409013","0.0-189.0","5d16badb7b0154001a282fdb","665500ab8938657b03fbdba8","6657925495cc9ccd2b0b7bab","1085","stimuli/2100001.jpg","2","","prediction_trial","2","","true","","2","false","true","true","true","false","true","[2]","100","001","1","","","","","","",""
"","","","","","image-keyboard-response","215","409365","0.0-190.0","5d16badb7b0154001a282fdb","665500ab8938657b03fbdba8","6657925495cc9ccd2b0b7bab","348","stimuli/21000012.jpg"," ","","feedback_trial","2","","","","","","","","","","","","","","","","","","","","",""
"","","","","","image-keyboard-response","216","411085","0.0-191.0","5d16badb7b0154001a282fdb","665500ab8938657b03fbdba8","6657925495cc9ccd2b0b7bab","1717","stimuli/2101001.jpg","2","","prediction_trial","0","","false","","2","false","true","false","false","false","false","[0,2]","101","001","0","","","","","","",""
"","","","","","image-keyboard-response","217","411701","0.0-192.0","5d16badb7b0154001a282fdb","665500ab8938657b03fbdba8","6657925495cc9ccd2b0b7bab","614","stimuli/21010010.jpg"," ","","feedback_trial","0","","","","","","","","","","","","","","","","","","","","",""
"","","","","","image-keyboard-response","218","412461","0.0-193.0","5d16badb7b0154001a282fdb","665500ab8938657b03fbdba8","6657925495cc9ccd2b0b7bab","757","stimuli/0000010.jpg","1","","prediction_trial","0","","false","","0","true","true","true","true","true","true","[0]","000","010","0","","","","","","",""
"","","","","","image-keyboard-response","219","413348","0.0-194.0","5d16badb7b0154001a282fdb","665500ab8938657b03fbdba8","6657925495cc9ccd2b0b7bab","884","stimuli/00000100.jpg"," ","","feedback_trial","0","","","","","","","","","","","","","","","","","","","","",""
"","","","","","image-keyboard-response","220","414235","0.0-195.0","5d16badb7b0154001a282fdb","665500ab8938657b03fbdba8","6657925495cc9ccd2b0b7bab","885","stimuli/2100101.jpg","0","","prediction_trial","2","","false","","2","false","false","true","true","false","false","[2]","100","101","0","","","","","","",""
"","","","","","image-keyboard-response","221","414910","0.0-196.0","5d16badb7b0154001a282fdb","665500ab8938657b03fbdba8","6657925495cc9ccd2b0b7bab","673","stimuli/21001012.jpg"," ","","feedback_trial","2","","","","","","","","","","","","","","","","","","","","",""
"","","","","","image-keyboard-response","222","415645","0.0-197.0","5d16badb7b0154001a282fdb","665500ab8938657b03fbdba8","6657925495cc9ccd2b0b7bab","732","stimuli/2101111.jpg","1","","prediction_trial","0","","false","","2","false","false","false","false","false","false","[2,0]","101","111","0","","","","","","",""
"","","","","","image-keyboard-response","223","416140","0.0-198.0","5d16badb7b0154001a282fdb","665500ab8938657b03fbdba8","6657925495cc9ccd2b0b7bab","492","stimuli/21011110.jpg"," ","","feedback_trial","2","","","","","","","","","","","","","","","","","","","","",""
"","","","","","image-keyboard-response","224","416957","0.0-199.0","5d16badb7b0154001a282fdb","665500ab8938657b03fbdba8","6657925495cc9ccd2b0b7bab","813","stimuli/2101010.jpg","2","","prediction_trial","2","","true","","2","true","true","false","false","false","false","[0,2]","101","010","1","","","","","","",""
"","","","","","image-keyboard-response","225","417390","0.0-200.0","5d16badb7b0154001a282fdb","665500ab8938657b03fbdba8","6657925495cc9ccd2b0b7bab","430","stimuli/21010102.jpg"," ","","feedback_trial","0","","","","","","","","","","","","","","","","","","","","",""
"","","","","","image-keyboard-response","226","418109","0.0-201.0","5d16badb7b0154001a282fdb","665500ab8938657b03fbdba8","6657925495cc9ccd2b0b7bab","716","stimuli/2010111.jpg","1","","prediction_trial","2","","false","","2","false","false","true","true","false","false","[2]","010","111","0","","","","","","",""
"","","","","","image-keyboard-response","227","418573","0.0-202.0","5d16badb7b0154001a282fdb","665500ab8938657b03fbdba8","6657925495cc9ccd2b0b7bab","461","stimuli/20101112.jpg"," ","","feedback_trial","2","","","","","","","","","","","","","","","","","","","","",""
"","","","","","image-keyboard-response","228","419308","0.0-203.0","5d16badb7b0154001a282fdb","665500ab8938657b03fbdba8","6657925495cc9ccd2b0b7bab","732","stimuli/1000101.jpg","1","","prediction_trial","1","","true","","1","true","true","true","true","true","true","[1]","000","101","1","","","","","","",""
"","","","","","image-keyboard-response","229","419725","0.0-204.0","5d16badb7b0154001a282fdb","665500ab8938657b03fbdba8","6657925495cc9ccd2b0b7bab","416","stimuli/10001011.jpg"," ","","feedback_trial","1","","","","","","","","","","","","","","","","","","","","",""
"","","","","","image-keyboard-response","230","420837","0.0-205.0","5d16badb7b0154001a282fdb","665500ab8938657b03fbdba8","6657925495cc9ccd2b0b7bab","1102","stimuli/1011100.jpg","1","","prediction_trial","1","","true","","1","true","true","false","false","false","false","[1,2]","011","100","1","","","","","","",""
"","","","","","image-keyboard-response","231","421524","0.0-206.0","5d16badb7b0154001a282fdb","665500ab8938657b03fbdba8","6657925495cc9ccd2b0b7bab","685","stimuli/10111001.jpg"," ","","feedback_trial","1","","","","","","","","","","","","","","","","","","","","",""
"","","","","","image-keyboard-response","232","422396","0.0-207.0","5d16badb7b0154001a282fdb","665500ab8938657b03fbdba8","6657925495cc9ccd2b0b7bab","869","stimuli/1000111.jpg","1","","prediction_trial","1","","true","","1","false","false","true","true","false","false","[1]","000","111","1","","","","","","",""
"","","","","","image-keyboard-response","233","423181","0.0-208.0","5d16badb7b0154001a282fdb","665500ab8938657b03fbdba8","6657925495cc9ccd2b0b7bab","782","stimuli/10001111.jpg"," ","","feedback_trial","1","","","","","","","","","","","","","","","","","","","","",""
"","","","","","image-keyboard-response","234","424108","0.0-209.0","5d16badb7b0154001a282fdb","665500ab8938657b03fbdba8","6657925495cc9ccd2b0b7bab","925","stimuli/2111001.jpg","2","","prediction_trial","0","","false","","2","false","true","false","false","false","false","[1,2,0]","111","001","0","","","","","","",""
"","","","","","image-keyboard-response","235","424773","0.0-210.0","5d16badb7b0154001a282fdb","665500ab8938657b03fbdba8","6657925495cc9ccd2b0b7bab","662","stimuli/21110010.jpg"," ","","feedback_trial","1","","","","","","","","","","","","","","","","","","","","",""
"","","","","","image-keyboard-response","236","425499","0.0-211.0","5d16badb7b0154001a282fdb","665500ab8938657b03fbdba8","6657925495cc9ccd2b0b7bab","723","stimuli/0011000.jpg","0","","prediction_trial","0","","true","","0","true","true","true","true","true","true","[0]","011","000","1","","","","","","",""
"","","","","","image-keyboard-response","237","425925","0.0-212.0","5d16badb7b0154001a282fdb","665500ab8938657b03fbdba8","6657925495cc9ccd2b0b7bab","425","stimuli/00110000.jpg"," ","","feedback_trial","0","","","","","","","","","","","","","","","","","","","","",""
"","","","","","image-keyboard-response","238","426492","0.0-213.0","5d16badb7b0154001a282fdb","665500ab8938657b03fbdba8","6657925495cc9ccd2b0b7bab","564","stimuli/1000001.jpg","1","","prediction_trial","1","","true","","1","true","true","true","true","true","true","[1]","000","001","1","","","","","","",""
"","","","","","image-keyboard-response","239","426933","0.0-214.0","5d16badb7b0154001a282fdb","665500ab8938657b03fbdba8","6657925495cc9ccd2b0b7bab","438","stimuli/10000011.jpg"," ","","feedback_trial","1","","","","","","","","","","","","","","","","","","","","",""
"","","","","","image-keyboard-response","240","427828","0.0-215.0","5d16badb7b0154001a282fdb","665500ab8938657b03fbdba8","6657925495cc9ccd2b0b7bab","893","stimuli/1101000.jpg","1","","prediction_trial","1","","true","","1","true","true","true","true","true","true","[1]","101","000","1","","","","","","",""
"","","","","","image-keyboard-response","241","428245","0.0-216.0","5d16badb7b0154001a282fdb","665500ab8938657b03fbdba8","6657925495cc9ccd2b0b7bab","413","stimuli/11010001.jpg"," ","","feedback_trial","1","","","","","","","","","","","","","","","","","","","","",""
"","","","","","image-keyboard-response","242","428925","0.0-217.0","5d16badb7b0154001a282fdb","665500ab8938657b03fbdba8","6657925495cc9ccd2b0b7bab","677","stimuli/0001000.jpg","0","","prediction_trial","0","","true","","0","true","true","true","true","true","true","[0]","001","000","1","","","","","","",""
"","","","","","image-keyboard-response","243","429333","0.0-218.0","5d16badb7b0154001a282fdb","665500ab8938657b03fbdba8","6657925495cc9ccd2b0b7bab","405","stimuli/00010000.jpg"," ","","feedback_trial","0","","","","","","","","","","","","","","","","","","","","",""
"","","","","","image-keyboard-response","244","430245","0.0-219.0","5d16badb7b0154001a282fdb","665500ab8938657b03fbdba8","6657925495cc9ccd2b0b7bab","898","stimuli/2111101.jpg","0","","prediction_trial","0","","true","","2","false","false","false","false","false","false","[0,1,2]","111","101","1","","","","","","",""
"","","","","","image-keyboard-response","245","430653","0.0-220.0","5d16badb7b0154001a282fdb","665500ab8938657b03fbdba8","6657925495cc9ccd2b0b7bab","405","stimuli/21111010.jpg"," ","","feedback_trial","0","","","","","","","","","","","","","","","","","","","","",""
"","","","","","image-keyboard-response","246","431669","0.0-221.0","5d16badb7b0154001a282fdb","665500ab8938657b03fbdba8","6657925495cc9ccd2b0b7bab","1013","stimuli/2111011.jpg","1","","prediction_trial","2","","false","","2","false","false","false","false","false","false","[2,0,1]","111","011","0","","","","","","",""
"","","","","","image-keyboard-response","247","432092","0.0-222.0","5d16badb7b0154001a282fdb","665500ab8938657b03fbdba8","6657925495cc9ccd2b0b7bab","421","stimuli/21110112.jpg"," ","","feedback_trial","2","","","","","","","","","","","","","","","","","","","","",""
"","","","","","image-keyboard-response","248","432916","0.0-223.0","5d16badb7b0154001a282fdb","665500ab8938657b03fbdba8","6657925495cc9ccd2b0b7bab","822","stimuli/2010101.jpg","0","","prediction_trial","2","","false","","2","false","false","true","true","false","false","[2]","010","101","0","","","","","","",""
"","","","","","image-keyboard-response","249","433420","0.0-224.0","5d16badb7b0154001a282fdb","665500ab8938657b03fbdba8","6657925495cc9ccd2b0b7bab","501","stimuli/20101012.jpg"," ","","feedback_trial","2","","","","","","","","","","","","","","","","","","","","",""
"","","","","","image-keyboard-response","250","434028","0.0-225.0","5d16badb7b0154001a282fdb","665500ab8938657b03fbdba8","6657925495cc9ccd2b0b7bab","606","stimuli/1101001.jpg","1","","prediction_trial","1","","true","","1","true","true","true","true","true","true","[1]","101","001","1","","","","","","",""
"","","","","","image-keyboard-response","251","434453","0.0-226.0","5d16badb7b0154001a282fdb","665500ab8938657b03fbdba8","6657925495cc9ccd2b0b7bab","421","stimuli/11010011.jpg"," ","","feedback_trial","1","","","","","","","","","","","","","","","","","","","","",""
"","","","","","image-keyboard-response","252","435251","0.0-227.0","5d16badb7b0154001a282fdb","665500ab8938657b03fbdba8","6657925495cc9ccd2b0b7bab","795","stimuli/0110100.jpg","0","","prediction_trial","1","","false","","0","false","true","false","false","false","false","[0,1]","110","100","0","","","","","","",""
"","","","","","image-keyboard-response","253","435805","0.0-228.0","5d16badb7b0154001a282fdb","665500ab8938657b03fbdba8","6657925495cc9ccd2b0b7bab","553","stimuli/01101001.jpg"," ","","feedback_trial","0","","","","","","","","","","","","","","","","","","","","",""
"","","","","","image-keyboard-response","254","436491","0.0-229.0","5d16badb7b0154001a282fdb","665500ab8938657b03fbdba8","6657925495cc9ccd2b0b7bab","684","stimuli/0011011.jpg","1","","prediction_trial","0","","false","","0","true","true","true","true","true","true","[0]","011","011","0","","","","","","",""
"","","","","","image-keyboard-response","255","437981","0.0-230.0","5d16badb7b0154001a282fdb","665500ab8938657b03fbdba8","6657925495cc9ccd2b0b7bab","1488","stimuli/00110110.jpg"," ","","feedback_trial","0","","","","","","","","","","","","","","","","","","","","",""
"","","","","","image-keyboard-response","256","438805","0.0-231.0","5d16badb7b0154001a282fdb","665500ab8938657b03fbdba8","6657925495cc9ccd2b0b7bab","821","stimuli/1000011.jpg","1","","prediction_trial","1","","true","","1","false","false","true","true","false","false","[1]","000","011","1","","","","","","",""
"","","","","","image-keyboard-response","257","439206","0.0-232.0","5d16badb7b0154001a282fdb","665500ab8938657b03fbdba8","6657925495cc9ccd2b0b7bab","398","stimuli/10000111.jpg"," ","","feedback_trial","1","","","","","","","","","","","","","","","","","","","","",""
"","","","","","image-keyboard-response","258","440949","0.0-233.0","5d16badb7b0154001a282fdb","665500ab8938657b03fbdba8","6657925495cc9ccd2b0b7bab","1738","stimuli/0000110.jpg","0","","prediction_trial","0","","true","","0","false","false","true","true","false","false","[0]","000","110","1","","","","","","",""
"","","","","","image-keyboard-response","259","441309","0.0-234.0","5d16badb7b0154001a282fdb","665500ab8938657b03fbdba8","6657925495cc9ccd2b0b7bab","356","stimuli/00001100.jpg"," ","","feedback_trial","0","","","","","","","","","","","","","","","","","","","","",""
"","","","","","image-keyboard-response","260","441941","0.0-235.0","5d16badb7b0154001a282fdb","665500ab8938657b03fbdba8","6657925495cc9ccd2b0b7bab","629","stimuli/1110111.jpg","1","","prediction_trial","1","","true","","1","false","false","false","false","false","false","[1,0]","110","111","1","","","","","","",""
"","","","","","image-keyboard-response","261","442405","0.0-236.0","5d16badb7b0154001a282fdb","665500ab8938657b03fbdba8","6657925495cc9ccd2b0b7bab","461","stimuli/11101111.jpg"," ","","feedback_trial","1","","","","","","","","","","","","","","","","","","","","",""
"","","","","","image-keyboard-response","262","443141","0.0-237.0","5d16badb7b0154001a282fdb","665500ab8938657b03fbdba8","6657925495cc9ccd2b0b7bab","733","stimuli/2000010.jpg","2","","prediction_trial","2","","true","","2","true","true","true","true","true","true","[2]","000","010","1","","","","","","",""
"","","","","","image-keyboard-response","263","443565","0.0-238.0","5d16badb7b0154001a282fdb","665500ab8938657b03fbdba8","6657925495cc9ccd2b0b7bab","421","stimuli/20000102.jpg"," ","","feedback_trial","2","","","","","","","","","","","","","","","","","","","","",""
"","","","","","image-keyboard-response","264","444251","0.0-239.0","5d16badb7b0154001a282fdb","665500ab8938657b03fbdba8","6657925495cc9ccd2b0b7bab","684","stimuli/2111000.jpg","2","","prediction_trial","1","","false","","2","true","true","false","false","false","false","[1,2,0]","111","000","0","","","","","","",""
"","","","","","image-keyboard-response","265","444653","0.0-240.0","5d16badb7b0154001a282fdb","665500ab8938657b03fbdba8","6657925495cc9ccd2b0b7bab","399","stimuli/21110001.jpg"," ","","feedback_trial","1","","","","","","","","","","","","","","","","","","","","",""
"","","","","","image-keyboard-response","266","446164","0.0-241.0","5d16badb7b0154001a282fdb","665500ab8938657b03fbdba8","6657925495cc9ccd2b0b7bab","1509","stimuli/2011000.jpg","2","","prediction_trial","2","","true","","2","true","true","false","false","false","false","[1,2]","011","000","1","","","","","","",""
"","","","","","image-keyboard-response","267","446605","0.0-242.0","5d16badb7b0154001a282fdb","665500ab8938657b03fbdba8","6657925495cc9ccd2b0b7bab","439","stimuli/20110002.jpg"," ","","feedback_trial","1","","","","","","","","","","","","","","","","","","","","",""
"","","","","","image-keyboard-response","268","447301","0.0-243.0","5d16badb7b0154001a282fdb","665500ab8938657b03fbdba8","6657925495cc9ccd2b0b7bab","693","stimuli/2011011.jpg","1","","prediction_trial","1","","true","","2","false","false","false","false","false","false","[1,2]","011","011","1","","","","","","",""
"","","","","","image-keyboard-response","269","447749","0.0-244.0","5d16badb7b0154001a282fdb","665500ab8938657b03fbdba8","6657925495cc9ccd2b0b7bab","445","stimuli/20110111.jpg"," ","","feedback_trial","1","","","","","","","","","","","","","","","","","","","","",""
"","","","","","image-keyboard-response","270","448533","0.0-245.0","5d16badb7b0154001a282fdb","665500ab8938657b03fbdba8","6657925495cc9ccd2b0b7bab","781","stimuli/0111111.jpg","0","","prediction_trial","2","","false","","0","false","false","false","false","false","false","[2,1,0]","111","111","0","","","","","","",""
"","","","","","image-keyboard-response","271","449013","0.0-246.0","5d16badb7b0154001a282fdb","665500ab8938657b03fbdba8","6657925495cc9ccd2b0b7bab","478","stimuli/01111112.jpg"," ","","feedback_trial","2","","","","","","","","","","","","","","","","","","","","",""
"","","","","","image-keyboard-response","272","449731","0.0-247.0","5d16badb7b0154001a282fdb","665500ab8938657b03fbdba8","6657925495cc9ccd2b0b7bab","715","stimuli/0000001.jpg","0","","prediction_trial","0","","true","","0","true","true","true","true","true","true","[0]","000","001","1","","","","","","",""
"","","","","","image-keyboard-response","273","450101","0.0-248.0","5d16badb7b0154001a282fdb","665500ab8938657b03fbdba8","6657925495cc9ccd2b0b7bab","368","stimuli/00000010.jpg"," ","","feedback_trial","0","","","","","","","","","","","","","","","","","","","","",""
"","","","","","image-keyboard-response","274","450900","0.0-249.0","5d16badb7b0154001a282fdb","665500ab8938657b03fbdba8","6657925495cc9ccd2b0b7bab","797","stimuli/2110111.jpg","1","","prediction_trial","2","","false","","2","false","false","true","true","false","false","[2]","110","111","0","","","","","","",""
"","","","","","image-keyboard-response","275","451379","0.0-250.0","5d16badb7b0154001a282fdb","665500ab8938657b03fbdba8","6657925495cc9ccd2b0b7bab","477","stimuli/21101112.jpg"," ","","feedback_trial","2","","","","","","","","","","","","","","","","","","","","",""
"","","","","","image-keyboard-response","276","452109","0.0-251.0","5d16badb7b0154001a282fdb","665500ab8938657b03fbdba8","6657925495cc9ccd2b0b7bab","728","stimuli/1111010.jpg","1","","prediction_trial","0","","false","","1","false","true","false","false","false","false","[0,1,2]","111","010","0","","","","","","",""
"","","","","","image-keyboard-response","277","452885","0.0-252.0","5d16badb7b0154001a282fdb","665500ab8938657b03fbdba8","6657925495cc9ccd2b0b7bab","773","stimuli/11110100.jpg"," ","","feedback_trial","0","","","","","","","","","","","","","","","","","","","","",""
"","","","","","image-keyboard-response","278","453645","0.0-253.0","5d16badb7b0154001a282fdb","665500ab8938657b03fbdba8","6657925495cc9ccd2b0b7bab","757","stimuli/1110101.jpg","1","","prediction_trial","0","","false","","1","true","true","false","false","false","false","[0,1]","110","101","0","","","","","","",""
"","","","","","image-keyboard-response","279","454005","0.0-254.0","5d16badb7b0154001a282fdb","665500ab8938657b03fbdba8","6657925495cc9ccd2b0b7bab","357","stimuli/11101010.jpg"," ","","feedback_trial","0","","","","","","","","","","","","","","","","","","","","",""
"","","","","","image-keyboard-response","280","455468","0.0-255.0","5d16badb7b0154001a282fdb","665500ab8938657b03fbdba8","6657925495cc9ccd2b0b7bab","1460","stimuli/1010011.jpg","1","","prediction_trial","1","","true","","1","false","false","false","true","false","false","[1]","010","011","1","","","","","","",""
"","","","","","image-keyboard-response","281","455869","0.0-256.0","5d16badb7b0154001a282fdb","665500ab8938657b03fbdba8","6657925495cc9ccd2b0b7bab","398","stimuli/10100111.jpg"," ","","feedback_trial","1","","","","","","","","","","","","","","","","","","","","",""
"","","","","","image-keyboard-response","282","456653","0.0-257.0","5d16badb7b0154001a282fdb","665500ab8938657b03fbdba8","6657925495cc9ccd2b0b7bab","781","stimuli/0110001.jpg","0","","prediction_trial","1","","false","","0","true","true","false","false","false","false","[1,0]","110","001","0","","","","","","",""
"","","","","","image-keyboard-response","283","457020","0.0-258.0","5d16badb7b0154001a282fdb","665500ab8938657b03fbdba8","6657925495cc9ccd2b0b7bab","365","stimuli/01100011.jpg"," ","","feedback_trial","1","","","","","","","","","","","","","","","","","","","","",""
"","","","","","image-keyboard-response","284","457677","0.0-259.0","5d16badb7b0154001a282fdb","665500ab8938657b03fbdba8","6657925495cc9ccd2b0b7bab","653","stimuli/2101110.jpg","2","","prediction_trial","2","","true","","2","true","true","false","false","false","false","[0,2]","101","110","1","","","","","","",""
"","","","","","image-keyboard-response","285","458189","0.0-260.0","5d16badb7b0154001a282fdb","665500ab8938657b03fbdba8","6657925495cc9ccd2b0b7bab","510","stimuli/21011102.jpg"," ","","feedback_trial","0","","","","","","","","","","","","","","","","","","","","",""
"","","","","","image-keyboard-response","286","459414","0.0-261.0","5d16badb7b0154001a282fdb","665500ab8938657b03fbdba8","6657925495cc9ccd2b0b7bab","1215","stimuli/2111110.jpg","2","","prediction_trial","1","","false","","2","true","true","false","false","false","false","[0,1,2]","111","110","0","","","","","","",""
"","","","","","image-keyboard-response","287","460213","0.0-262.0","5d16badb7b0154001a282fdb","665500ab8938657b03fbdba8","6657925495cc9ccd2b0b7bab","796","stimuli/21111101.jpg"," ","","feedback_trial","0","","","","","","","","","","","","","","","","","","","","",""
"","","","","","image-keyboard-response","288","461205","0.0-263.0","5d16badb7b0154001a282fdb","665500ab8938657b03fbdba8","6657925495cc9ccd2b0b7bab","989","stimuli/2100110.jpg","1","","prediction_trial","2","","false","","2","true","true","true","true","true","true","[2]","100","110","0","","","","","","",""
"","","","","","image-keyboard-response","289","461781","0.0-264.0","5d16badb7b0154001a282fdb","665500ab8938657b03fbdba8","6657925495cc9ccd2b0b7bab","573","stimuli/21001102.jpg"," ","","feedback_trial","2","","","","","","","","","","","","","","","","","","","","",""
"","","","","","image-keyboard-response","290","462365","0.0-265.0","5d16badb7b0154001a282fdb","665500ab8938657b03fbdba8","6657925495cc9ccd2b0b7bab","581","stimuli/1000000.jpg","1","","prediction_trial","1","","true","","1","true","true","true","true","true","true","[1]","000","000","1","","","","","","",""
"","","","","","image-keyboard-response","291","462805","0.0-266.0","5d16badb7b0154001a282fdb","665500ab8938657b03fbdba8","6657925495cc9ccd2b0b7bab","437","stimuli/10000001.jpg"," ","","feedback_trial","1","","","","","","","","","","","","","","","","","","","","",""
"","","","","","image-keyboard-response","292","463564","0.0-267.0","5d16badb7b0154001a282fdb","665500ab8938657b03fbdba8","6657925495cc9ccd2b0b7bab","756","stimuli/1011110.jpg","1","","prediction_trial","1","","true","","1","false","false","false","false","false","false","[1,2]","011","110","1","","","","","","",""
"","","","","","image-keyboard-response","293","464197","0.0-268.0","5d16badb7b0154001a282fdb","665500ab8938657b03fbdba8","6657925495cc9ccd2b0b7bab","629","stimuli/10111101.jpg"," ","","feedback_trial","1","","","","","","","","","","","","","","","","","","","","",""
"","","","","","image-keyboard-response","294","465005","0.0-269.0","5d16badb7b0154001a282fdb","665500ab8938657b03fbdba8","6657925495cc9ccd2b0b7bab","805","stimuli/1011001.jpg","1","","prediction_trial","1","","true","","1","true","true","false","false","false","false","[1,2]","011","001","1","","","","","","",""
"","","","","","image-keyboard-response","295","465452","0.0-270.0","5d16badb7b0154001a282fdb","665500ab8938657b03fbdba8","6657925495cc9ccd2b0b7bab","443","stimuli/10110011.jpg"," ","","feedback_trial","1","","","","","","","","","","","","","","","","","","","","",""
"","","","","","image-keyboard-response","296","466245","0.0-271.0","5d16badb7b0154001a282fdb","665500ab8938657b03fbdba8","6657925495cc9ccd2b0b7bab","790","stimuli/0110101.jpg","0","","prediction_trial","1","","false","","0","false","false","false","false","false","false","[1,0]","110","101","0","","","","","","",""
"","","","","","image-keyboard-response","297","466731","0.0-272.0","5d16badb7b0154001a282fdb","665500ab8938657b03fbdba8","6657925495cc9ccd2b0b7bab","484","stimuli/01101011.jpg"," ","","feedback_trial","1","","","","","","","","","","","","","","","","","","","","",""
"","","","","","image-keyboard-response","298","467331","0.0-273.0","5d16badb7b0154001a282fdb","665500ab8938657b03fbdba8","6657925495cc9ccd2b0b7bab","599","stimuli/1110001.jpg","1","","prediction_trial","0","","false","","1","true","true","false","false","false","false","[0,1]","110","001","0","","","","","","",""
"","","","","","image-keyboard-response","299","467747","0.0-274.0","5d16badb7b0154001a282fdb","665500ab8938657b03fbdba8","6657925495cc9ccd2b0b7bab","415","stimuli/11100010.jpg"," ","","feedback_trial","0","","","","","","","","","","","","","","","","","","","","",""
"","","","","","image-keyboard-response","300","468596","0.0-275.0","5d16badb7b0154001a282fdb","665500ab8938657b03fbdba8","6657925495cc9ccd2b0b7bab","848","stimuli/1111111.jpg","1","","prediction_trial","1","","true","","1","false","false","false","false","false","false","[0,2,1]","111","111","1","","","","","","",""
"","","","","","image-keyboard-response","301","469021","0.0-276.0","5d16badb7b0154001a282fdb","665500ab8938657b03fbdba8","6657925495cc9ccd2b0b7bab","422","stimuli/11111111.jpg"," ","","feedback_trial","0","","","","","","","","","","","","","","","","","","","","",""
"","","","","","image-keyboard-response","302","470077","0.0-277.0","5d16badb7b0154001a282fdb","665500ab8938657b03fbdba8","6657925495cc9ccd2b0b7bab","1053","stimuli/1100110.jpg","0","","prediction_trial","1","","false","","1","false","false","true","true","false","false","[1]","100","110","0","","","","","","",""
"","","","","","image-keyboard-response","303","470517","0.0-278.0","5d16badb7b0154001a282fdb","665500ab8938657b03fbdba8","6657925495cc9ccd2b0b7bab","437","stimuli/11001101.jpg"," ","","feedback_trial","1","","","","","","","","","","","","","","","","","","","","",""
"","","","","","image-keyboard-response","304","471013","0.0-279.0","5d16badb7b0154001a282fdb","665500ab8938657b03fbdba8","6657925495cc9ccd2b0b7bab","493","stimuli/0110110.jpg","1","","prediction_trial","1","","true","","0","false","false","false","false","false","false","[0,1]","110","110","1","","","","","","",""
"","","","","","image-keyboard-response","305","471517","0.0-280.0","5d16badb7b0154001a282fdb","665500ab8938657b03fbdba8","6657925495cc9ccd2b0b7bab","501","stimuli/01101101.jpg"," ","","feedback_trial","0","","","","","","","","","","","","","","","","","","","","",""
"","","","","","image-keyboard-response","306","472020","0.0-281.0","5d16badb7b0154001a282fdb","665500ab8938657b03fbdba8","6657925495cc9ccd2b0b7bab","500","stimuli/1010100.jpg","1","","prediction_trial","1","","true","","1","true","true","false","true","false","true","[1]","010","100","1","","","","","","",""
"","","","","","image-keyboard-response","307","472461","0.0-282.0","5d16badb7b0154001a282fdb","665500ab8938657b03fbdba8","6657925495cc9ccd2b0b7bab","437","stimuli/10101001.jpg"," ","","feedback_trial","1","","","","","","","","","","","","","","","","","","","","",""
"","","","","","image-keyboard-response","308","473237","0.0-283.0","5d16badb7b0154001a282fdb","665500ab8938657b03fbdba8","6657925495cc9ccd2b0b7bab","773","stimuli/0101110.jpg","1","","prediction_trial","2","","false","","0","false","false","false","false","false","false","[0,2]","101","110","0","","","","","","",""
"","","","","","image-keyboard-response","309","473917","0.0-284.0","5d16badb7b0154001a282fdb","665500ab8938657b03fbdba8","6657925495cc9ccd2b0b7bab","677","stimuli/01011102.jpg"," ","","feedback_trial","0","","","","","","","","","","","","","","","","","","","","",""
"","","","","","image-keyboard-response","310","474468","0.0-285.0","5d16badb7b0154001a282fdb","665500ab8938657b03fbdba8","6657925495cc9ccd2b0b7bab","548","stimuli/1000010.jpg","1","","prediction_trial","1","","true","","1","false","true","true","true","false","true","[1]","000","010","1","","","","","","",""
"","","","","","image-keyboard-response","311","475052","0.0-286.0","5d16badb7b0154001a282fdb","665500ab8938657b03fbdba8","6657925495cc9ccd2b0b7bab","581","stimuli/10000101.jpg"," ","","feedback_trial","1","","","","","","","","","","","","","","","","","","","","",""
"","","","","","image-keyboard-response","312","475949","0.0-287.0","5d16badb7b0154001a282fdb","665500ab8938657b03fbdba8","6657925495cc9ccd2b0b7bab","894","stimuli/2101101.jpg","0","","prediction_trial","2","","false","","2","false","false","false","false","false","false","[2,0]","101","101","0","","","","","","",""
"","","","","","image-keyboard-response","313","476459","0.0-288.0","5d16badb7b0154001a282fdb","665500ab8938657b03fbdba8","6657925495cc9ccd2b0b7bab","508","stimuli/21011012.jpg"," ","","feedback_trial","2","","","","","","","","","","","","","","","","","","","","",""
"","","","","","image-keyboard-response","314","477811","0.0-289.0","5d16badb7b0154001a282fdb","665500ab8938657b03fbdba8","6657925495cc9ccd2b0b7bab","1351","stimuli/1011011.jpg","2","","prediction_trial","1","","false","","1","false","false","false","false","false","false","[1,2]","011","011","0","","","","","","",""
"","","","","","image-keyboard-response","315","479838","0.0-290.0","5d16badb7b0154001a282fdb","665500ab8938657b03fbdba8","6657925495cc9ccd2b0b7bab","2025","stimuli/10110111.jpg"," ","","feedback_trial","1","","","","","","","","","","","","","","","","","","","","",""
"","","","","","image-keyboard-response","316","480549","0.0-291.0","5d16badb7b0154001a282fdb","665500ab8938657b03fbdba8","6657925495cc9ccd2b0b7bab","708","stimuli/1000110.jpg","1","","prediction_trial","1","","true","","1","false","false","true","true","false","false","[1]","000","110","1","","","","","","",""
"","","","","","image-keyboard-response","317","480973","0.0-292.0","5d16badb7b0154001a282fdb","665500ab8938657b03fbdba8","6657925495cc9ccd2b0b7bab","422","stimuli/10001101.jpg"," ","","feedback_trial","1","","","","","","","","","","","","","","","","","","","","",""
"","","","","","survey-html-form","318","586602","0.0-293.0","5d16badb7b0154001a282fdb","665500ab8938657b03fbdba8","6657925495cc9ccd2b0b7bab","105622","","{""feedback"":""Most of the time I just chose the spot the ball was in, and took a guess on the ones where the boxes were covered."",""age"":""69"",""gender"":""Female"",""other_gender"":"""",""race"":""Black/African American"",""other_race"":"""",""ethnicity"":""Non-Hispanic""}","","exit_survey","","","","","","","","","","","","","","","","Most of the time I just chose the spot the ball was in, and took a guess on the ones where the boxes were covered.","69","Non-Hispanic","Female","Black/African American","0.6180555555555556","0.6180555555555556"
