"success","timeout","failed_images","failed_audio","failed_video","trial_type","trial_index","time_elapsed","internal_node_id","prolific_id","prolific_study_id","prolific_session_id","rt","stimulus","response","view_history","trial","character_choice","stimulus_dict","accuracy","correct_response","ball_pos","ego_ball_visible","ego_can_infer","alter_ball_visible","alter_can_infer","collective_ball_visible","collective_can_infer","search_locations","alter_occluders","ego_occluders","accuracy_bool","feedback","age","ethnicity","gender","race","overall_accuracy","bonus"
"true","false","[]","[]","[]","preload","0","2895","0.0-0.0","59d9d9cd8fd07a0001842484","665500ab8938657b03fbdba8","66579cbb3432e912fb494f81","","","","","","","","","","","","","","","","","","","","","","","","","","",""
"true","","","","","fullscreen","1","206354","0.0-1.0","59d9d9cd8fd07a0001842484","665500ab8938657b03fbdba8","66579cbb3432e912fb494f81","","","","","","","","","","","","","","","","","","","","","","","","","","",""
"","","","","","html-button-response","2","219236","0.0-2.0","59d9d9cd8fd07a0001842484","665500ab8938657b03fbdba8","66579cbb3432e912fb494f81","12880","<p><b>Consent Form</b></p> <div style=""text-align:left;background-color:lightgrey; padding:20px; max-width:900px;""><p>Please consider this information carefully before deciding whether to participate in this research.</p> <p>The purpose of this research is to examine which factors influence social judgment and decision-making. You will be asked to make judgements about individuals and actions in social scenarios. We are simply interested in your judgement. The study will take less than 1 hour to complete, and you will receive less than $20 on Prolific. Your compensation and time commitment are specified in the study description. There are no anticipated risks associated with participating in this study. The effects of participating should be comparable to those you would ordinarily experience from viewing a computer monitor and using a mouse or keyboard for a similar amount of time. At the end of the study, we will provide an explanation of the questions that motivate this line of research and will describe the potential implications. </p><p> Your participation in this study is completely voluntary and you may refuse to participate or you may choose to withdraw at any time without penalty or loss of benefits to you which are otherwise entitled. Your participation in this study will remain confidential. No personally identifiable information will be associated with your data. Also, all analyses of the data will be averaged across all the participants, so your individual responses will never be specifically analyzed. </p><p> If you have questions or concerns about your participation or payment, or want to request a summary of research findings, please contact Dr. Jonathan Phillips at Jonathan.S.Phillips@dartmouth.edu. </p><p> Please save a copy of this form for your records. </p><p><b>Agreement: </b>The nature and purpose of this research have been sufficiently explained and I agree to participate in this study. I understand that I am free to withdraw at any time without incurring any penalty. Please consent by clicking the button below to continue. Otherwise, please exit the study at any time. </p>","0","","","","","","","","","","","","","","","","","","","","","","","",""
"","","","","","instructions","3","449232","0.0-3.0-0.0","59d9d9cd8fd07a0001842484","665500ab8938657b03fbdba8","66579cbb3432e912fb494f81","229995","","","[{""page_index"":0,""viewing_time"":1438},{""page_index"":1,""viewing_time"":1588},{""page_index"":2,""viewing_time"":2195},{""page_index"":3,""viewing_time"":3942},{""page_index"":4,""viewing_time"":2432},{""page_index"":5,""viewing_time"":3357},{""page_index"":6,""viewing_time"":3578},{""page_index"":7,""viewing_time"":1827},{""page_index"":8,""viewing_time"":3181},{""page_index"":9,""viewing_time"":2768},{""page_index"":10,""viewing_time"":54844},{""page_index"":11,""viewing_time"":141020},{""page_index"":12,""viewing_time"":6546},{""page_index"":13,""viewing_time"":1279}]","intro","","","","","","","","","","","","","","","","","","","","","",""
"","","","","","image-keyboard-response","4","451035","0.0-3.0-1.0","59d9d9cd8fd07a0001842484","665500ab8938657b03fbdba8","66579cbb3432e912fb494f81","1802","stimuli/0111111.jpg","0","","prediction_practice","2","{""filepath"":""stimuli/0111111.jpg"",""ball_pos"":0,""ego_ball_visible"":false,""ego_can_infer"":false,""alter_ball_visible"":false,""alter_can_infer"":false,""collective_ball_visible"":false,""collective_can_infer"":false,""search_locations"":[2,0,1],""alter_occluders"":""111"",""ego_occluders"":""111""}","false","","","","","","","","","","","","","","","","","","",""
"","","","","","image-keyboard-response","5","452610","0.0-3.0-2.0","59d9d9cd8fd07a0001842484","665500ab8938657b03fbdba8","66579cbb3432e912fb494f81","1574","stimuli/01111112.jpg"," ","","practrice_feedback","2","","","","","","","","","","","","","","","","","","","","",""
"","","","","","image-keyboard-response","6","454847","0.0-3.0-3.0","59d9d9cd8fd07a0001842484","665500ab8938657b03fbdba8","66579cbb3432e912fb494f81","2235","stimuli/2010110.jpg","2","","prediction_practice","2","{""filepath"":""stimuli/2010110.jpg"",""ball_pos"":2,""ego_ball_visible"":true,""ego_can_infer"":true,""alter_ball_visible"":true,""alter_can_infer"":true,""collective_ball_visible"":true,""collective_can_infer"":true,""search_locations"":[2],""alter_occluders"":""010"",""ego_occluders"":""110""}","true","","","","","","","","","","","","","","","","","","",""
"","","","","","image-keyboard-response","7","455790","0.0-3.0-4.0","59d9d9cd8fd07a0001842484","665500ab8938657b03fbdba8","66579cbb3432e912fb494f81","942","stimuli/20101102.jpg"," ","","practrice_feedback","2","","","","","","","","","","","","","","","","","","","","",""
"","","","","","image-keyboard-response","8","456786","0.0-3.0-5.0","59d9d9cd8fd07a0001842484","665500ab8938657b03fbdba8","66579cbb3432e912fb494f81","995","stimuli/2000000.jpg","2","","prediction_practice","2","{""filepath"":""stimuli/2000000.jpg"",""ball_pos"":2,""ego_ball_visible"":true,""ego_can_infer"":true,""alter_ball_visible"":true,""alter_can_infer"":true,""collective_ball_visible"":true,""collective_can_infer"":true,""search_locations"":[2],""alter_occluders"":""000"",""ego_occluders"":""000""}","true","","","","","","","","","","","","","","","","","","",""
"","","","","","image-keyboard-response","9","457253","0.0-3.0-6.0","59d9d9cd8fd07a0001842484","665500ab8938657b03fbdba8","66579cbb3432e912fb494f81","466","stimuli/20000002.jpg"," ","","practrice_feedback","2","","","","","","","","","","","","","","","","","","","","",""
"","","","","","image-keyboard-response","10","458913","0.0-3.0-7.0","59d9d9cd8fd07a0001842484","665500ab8938657b03fbdba8","66579cbb3432e912fb494f81","1659","stimuli/2011111.jpg","0","","prediction_practice","2","{""filepath"":""stimuli/2011111.jpg"",""ball_pos"":2,""ego_ball_visible"":false,""ego_can_infer"":false,""alter_ball_visible"":false,""alter_can_infer"":false,""collective_ball_visible"":false,""collective_can_infer"":false,""search_locations"":[1,2],""alter_occluders"":""011"",""ego_occluders"":""111""}","false","","","","","","","","","","","","","","","","","","",""
"","","","","","image-keyboard-response","11","460685","0.0-3.0-8.0","59d9d9cd8fd07a0001842484","665500ab8938657b03fbdba8","66579cbb3432e912fb494f81","1771","stimuli/20111112.jpg"," ","","practrice_feedback","1","","","","","","","","","","","","","","","","","","","","",""
"","","","","","image-keyboard-response","12","462933","0.0-3.0-9.0","59d9d9cd8fd07a0001842484","665500ab8938657b03fbdba8","66579cbb3432e912fb494f81","2248","stimuli/2000101.jpg","2","","prediction_practice","2","{""filepath"":""stimuli/2000101.jpg"",""ball_pos"":2,""ego_ball_visible"":false,""ego_can_infer"":false,""alter_ball_visible"":true,""alter_can_infer"":true,""collective_ball_visible"":false,""collective_can_infer"":false,""search_locations"":[2],""alter_occluders"":""000"",""ego_occluders"":""101""}","true","","","","","","","","","","","","","","","","","","",""
"","","","","","image-keyboard-response","13","463861","0.0-3.0-10.0","59d9d9cd8fd07a0001842484","665500ab8938657b03fbdba8","66579cbb3432e912fb494f81","927","stimuli/20001012.jpg"," ","","practrice_feedback","2","","","","","","","","","","","","","","","","","","","","",""
"","","","","","image-keyboard-response","14","465093","0.0-3.0-11.0","59d9d9cd8fd07a0001842484","665500ab8938657b03fbdba8","66579cbb3432e912fb494f81","1232","stimuli/2010111.jpg","2","","prediction_practice","2","{""filepath"":""stimuli/2010111.jpg"",""ball_pos"":2,""ego_ball_visible"":false,""ego_can_infer"":false,""alter_ball_visible"":true,""alter_can_infer"":true,""collective_ball_visible"":false,""collective_can_infer"":false,""search_locations"":[2],""alter_occluders"":""010"",""ego_occluders"":""111""}","true","","","","","","","","","","","","","","","","","","",""
"","","","","","image-keyboard-response","15","465817","0.0-3.0-12.0","59d9d9cd8fd07a0001842484","665500ab8938657b03fbdba8","66579cbb3432e912fb494f81","723","stimuli/20101112.jpg"," ","","practrice_feedback","2","","","","","","","","","","","","","","","","","","","","",""
"","","","","","image-keyboard-response","16","468089","0.0-3.0-13.0","59d9d9cd8fd07a0001842484","665500ab8938657b03fbdba8","66579cbb3432e912fb494f81","2272","stimuli/1100110.jpg","1","","prediction_practice","1","{""filepath"":""stimuli/1100110.jpg"",""ball_pos"":1,""ego_ball_visible"":false,""ego_can_infer"":false,""alter_ball_visible"":true,""alter_can_infer"":true,""collective_ball_visible"":false,""collective_can_infer"":false,""search_locations"":[1],""alter_occluders"":""100"",""ego_occluders"":""110""}","true","","","","","","","","","","","","","","","","","","",""
"","","","","","image-keyboard-response","17","468841","0.0-3.0-14.0","59d9d9cd8fd07a0001842484","665500ab8938657b03fbdba8","66579cbb3432e912fb494f81","751","stimuli/11001101.jpg"," ","","practrice_feedback","1","","","","","","","","","","","","","","","","","","","","",""
"","","","","","image-keyboard-response","18","472125","0.0-3.0-15.0","59d9d9cd8fd07a0001842484","665500ab8938657b03fbdba8","66579cbb3432e912fb494f81","3284","stimuli/2011001.jpg","1","","prediction_practice","1","{""filepath"":""stimuli/2011001.jpg"",""ball_pos"":2,""ego_ball_visible"":false,""ego_can_infer"":true,""alter_ball_visible"":false,""alter_can_infer"":false,""collective_ball_visible"":false,""collective_can_infer"":false,""search_locations"":[2,1],""alter_occluders"":""011"",""ego_occluders"":""001""}","true","","","","","","","","","","","","","","","","","","",""
"","","","","","image-keyboard-response","19","472889","0.0-3.0-16.0","59d9d9cd8fd07a0001842484","665500ab8938657b03fbdba8","66579cbb3432e912fb494f81","762","stimuli/20110011.jpg"," ","","practrice_feedback","2","","","","","","","","","","","","","","","","","","","","",""
"","","","","","image-keyboard-response","20","474341","0.0-3.0-17.0","59d9d9cd8fd07a0001842484","665500ab8938657b03fbdba8","66579cbb3432e912fb494f81","1451","stimuli/2111000.jpg","1","","prediction_practice","2","{""filepath"":""stimuli/2111000.jpg"",""ball_pos"":2,""ego_ball_visible"":true,""ego_can_infer"":true,""alter_ball_visible"":false,""alter_can_infer"":false,""collective_ball_visible"":false,""collective_can_infer"":false,""search_locations"":[2,0,1],""alter_occluders"":""111"",""ego_occluders"":""000""}","false","","","","","","","","","","","","","","","","","","",""
"","","","","","image-keyboard-response","21","475277","0.0-3.0-18.0","59d9d9cd8fd07a0001842484","665500ab8938657b03fbdba8","66579cbb3432e912fb494f81","934","stimuli/21110002.jpg"," ","","practrice_feedback","2","","","","","","","","","","","","","","","","","","","","",""
"","","","","","image-keyboard-response","22","477273","0.0-3.0-19.0","59d9d9cd8fd07a0001842484","665500ab8938657b03fbdba8","66579cbb3432e912fb494f81","1996","stimuli/1010101.jpg","1","","prediction_practice","1","{""filepath"":""stimuli/1010101.jpg"",""ball_pos"":1,""ego_ball_visible"":true,""ego_can_infer"":true,""alter_ball_visible"":false,""alter_can_infer"":true,""collective_ball_visible"":false,""collective_can_infer"":true,""search_locations"":[1],""alter_occluders"":""010"",""ego_occluders"":""101""}","true","","","","","","","","","","","","","","","","","","",""
"","","","","","image-keyboard-response","23","478108","0.0-3.0-20.0","59d9d9cd8fd07a0001842484","665500ab8938657b03fbdba8","66579cbb3432e912fb494f81","834","stimuli/10101011.jpg"," ","","practrice_feedback","1","","","","","","","","","","","","","","","","","","","","",""
"","","","","","html-button-response","24","595018","0.0-3.0-21.0","59d9d9cd8fd07a0001842484","665500ab8938657b03fbdba8","66579cbb3432e912fb494f81","116909","Now that you've had some practice, you'll be tested with a couple of easy trials. If you correctly predict Sam's choice, you'll move on to complete the experiment!","0","","","","","","","","","","","","","","","","","","","","","","","",""
"","","","","","image-keyboard-response","25","596615","0.0-3.0-22.0-0.0","59d9d9cd8fd07a0001842484","665500ab8938657b03fbdba8","66579cbb3432e912fb494f81","1595","stimuli/0000011.jpg","arrowleft","","comprehension_quiz","","","true","arrowleft","","","","","","","","","","","","","","","","","",""
"","","","","","image-keyboard-response","26","597619","0.0-3.0-22.0-1.0","59d9d9cd8fd07a0001842484","665500ab8938657b03fbdba8","66579cbb3432e912fb494f81","1003","stimuli/00000110.jpg"," ","","comprehension_quiz","","","true"," ","","","","","","","","","","","","","","","","","",""
"","","","","","image-keyboard-response","27","599175","0.0-3.0-22.0-2.0","59d9d9cd8fd07a0001842484","665500ab8938657b03fbdba8","66579cbb3432e912fb494f81","1555","stimuli/1010010.jpg","arrowdown","","comprehension_quiz","","","true","arrowdown","","","","","","","","","","","","","","","","","",""
"","","","","","image-keyboard-response","28","599943","0.0-3.0-22.0-3.0","59d9d9cd8fd07a0001842484","665500ab8938657b03fbdba8","66579cbb3432e912fb494f81","768","stimuli/10100101.jpg"," ","","comprehension_quiz","","","true"," ","","","","","","","","","","","","","","","","","",""
"","","","","","html-button-response","29","607245","0.0-4.0","59d9d9cd8fd07a0001842484","665500ab8938657b03fbdba8","66579cbb3432e912fb494f81","7300","The experiment will now begin.","0","","","","","","","","","","","","","","","","","","","","","","","",""
"","","","","","image-keyboard-response","30","609854","0.0-5.0","59d9d9cd8fd07a0001842484","665500ab8938657b03fbdba8","66579cbb3432e912fb494f81","2608","stimuli/2100001.jpg","2","","prediction_trial","2","","true","","2","false","true","true","true","false","true","[2]","100","001","1","","","","","","",""
"","","","","","image-keyboard-response","31","610582","0.0-6.0","59d9d9cd8fd07a0001842484","665500ab8938657b03fbdba8","66579cbb3432e912fb494f81","727","stimuli/21000012.jpg"," ","","feedback_trial","2","","","","","","","","","","","","","","","","","","","","",""
"","","","","","image-keyboard-response","32","612382","0.0-7.0","59d9d9cd8fd07a0001842484","665500ab8938657b03fbdba8","66579cbb3432e912fb494f81","1799","stimuli/2000001.jpg","2","","prediction_trial","2","","true","","2","false","true","true","true","false","true","[2]","000","001","1","","","","","","",""
"","","","","","image-keyboard-response","33","613258","0.0-8.0","59d9d9cd8fd07a0001842484","665500ab8938657b03fbdba8","66579cbb3432e912fb494f81","874","stimuli/20000012.jpg"," ","","feedback_trial","2","","","","","","","","","","","","","","","","","","","","",""
"","","","","","image-keyboard-response","34","617310","0.0-9.0","59d9d9cd8fd07a0001842484","665500ab8938657b03fbdba8","66579cbb3432e912fb494f81","4052","stimuli/2011001.jpg","2","","prediction_trial","2","","true","","2","false","true","false","false","false","false","[2,1]","011","001","1","","","","","","",""
"","","","","","image-keyboard-response","35","618718","0.0-10.0","59d9d9cd8fd07a0001842484","665500ab8938657b03fbdba8","66579cbb3432e912fb494f81","1406","stimuli/20110012.jpg"," ","","feedback_trial","2","","","","","","","","","","","","","","","","","","","","",""
"","","","","","image-keyboard-response","36","620250","0.0-11.0","59d9d9cd8fd07a0001842484","665500ab8938657b03fbdba8","66579cbb3432e912fb494f81","1531","stimuli/0100010.jpg","0","","prediction_trial","0","","true","","0","true","true","false","true","false","true","[0]","100","010","1","","","","","","",""
"","","","","","image-keyboard-response","37","620846","0.0-12.0","59d9d9cd8fd07a0001842484","665500ab8938657b03fbdba8","66579cbb3432e912fb494f81","595","stimuli/01000100.jpg"," ","","feedback_trial","0","","","","","","","","","","","","","","","","","","","","",""
"","","","","","image-keyboard-response","38","623018","0.0-13.0","59d9d9cd8fd07a0001842484","665500ab8938657b03fbdba8","66579cbb3432e912fb494f81","2171","stimuli/1011101.jpg","1","","prediction_trial","2","","false","","1","true","true","false","false","false","false","[2,1]","011","101","0","","","","","","",""
"","","","","","image-keyboard-response","39","624190","0.0-14.0","59d9d9cd8fd07a0001842484","665500ab8938657b03fbdba8","66579cbb3432e912fb494f81","1170","stimuli/10111012.jpg"," ","","feedback_trial","2","","","","","","","","","","","","","","","","","","","","",""
"","","","","","image-keyboard-response","40","628390","0.0-15.0","59d9d9cd8fd07a0001842484","665500ab8938657b03fbdba8","66579cbb3432e912fb494f81","4199","stimuli/2101111.jpg","2","","prediction_trial","0","","false","","2","false","false","false","false","false","false","[2,0]","101","111","0","","","","","","",""
"","","","","","image-keyboard-response","41","629869","0.0-16.0","59d9d9cd8fd07a0001842484","665500ab8938657b03fbdba8","66579cbb3432e912fb494f81","1479","stimuli/21011110.jpg"," ","","feedback_trial","2","","","","","","","","","","","","","","","","","","","","",""
"","","","","","image-keyboard-response","42","631514","0.0-17.0","59d9d9cd8fd07a0001842484","665500ab8938657b03fbdba8","66579cbb3432e912fb494f81","1643","stimuli/1000111.jpg","0","","prediction_trial","1","","false","","1","false","false","true","true","false","false","[1]","000","111","0","","","","","","",""
"","","","","","image-keyboard-response","43","632333","0.0-18.0","59d9d9cd8fd07a0001842484","665500ab8938657b03fbdba8","66579cbb3432e912fb494f81","819","stimuli/10001111.jpg"," ","","feedback_trial","1","","","","","","","","","","","","","","","","","","","","",""
"","","","","","image-keyboard-response","44","634973","0.0-19.0","59d9d9cd8fd07a0001842484","665500ab8938657b03fbdba8","66579cbb3432e912fb494f81","2639","stimuli/1101011.jpg","1","","prediction_trial","1","","true","","1","false","false","true","true","false","false","[1]","101","011","1","","","","","","",""
"","","","","","image-keyboard-response","45","635709","0.0-20.0","59d9d9cd8fd07a0001842484","665500ab8938657b03fbdba8","66579cbb3432e912fb494f81","735","stimuli/11010111.jpg"," ","","feedback_trial","1","","","","","","","","","","","","","","","","","","","","",""
"","","","","","image-keyboard-response","46","636905","0.0-21.0","59d9d9cd8fd07a0001842484","665500ab8938657b03fbdba8","66579cbb3432e912fb494f81","1195","stimuli/2010000.jpg","2","","prediction_trial","2","","true","","2","true","true","true","true","true","true","[2]","010","000","1","","","","","","",""
"","","","","","image-keyboard-response","47","637229","0.0-22.0","59d9d9cd8fd07a0001842484","665500ab8938657b03fbdba8","66579cbb3432e912fb494f81","323","stimuli/20100002.jpg"," ","","feedback_trial","2","","","","","","","","","","","","","","","","","","","","",""
"","","","","","image-keyboard-response","48","637917","0.0-23.0","59d9d9cd8fd07a0001842484","665500ab8938657b03fbdba8","66579cbb3432e912fb494f81","687","stimuli/2010110.jpg","2","","prediction_trial","2","","true","","2","true","true","true","true","true","true","[2]","010","110","1","","","","","","",""
"","","","","","image-keyboard-response","49","638241","0.0-24.0","59d9d9cd8fd07a0001842484","665500ab8938657b03fbdba8","66579cbb3432e912fb494f81","323","stimuli/20101102.jpg"," ","","feedback_trial","2","","","","","","","","","","","","","","","","","","","","",""
"","","","","","image-keyboard-response","50","638870","0.0-25.0","59d9d9cd8fd07a0001842484","665500ab8938657b03fbdba8","66579cbb3432e912fb494f81","628","stimuli/1101001.jpg","1","","prediction_trial","1","","true","","1","true","true","true","true","true","true","[1]","101","001","1","","","","","","",""
"","","","","","image-keyboard-response","51","639114","0.0-26.0","59d9d9cd8fd07a0001842484","665500ab8938657b03fbdba8","66579cbb3432e912fb494f81","243","stimuli/11010011.jpg"," ","","feedback_trial","1","","","","","","","","","","","","","","","","","","","","",""
"","","","","","image-keyboard-response","52","639645","0.0-27.0","59d9d9cd8fd07a0001842484","665500ab8938657b03fbdba8","66579cbb3432e912fb494f81","531","stimuli/1101000.jpg","1","","prediction_trial","1","","true","","1","true","true","true","true","true","true","[1]","101","000","1","","","","","","",""
"","","","","","image-keyboard-response","53","639881","0.0-28.0","59d9d9cd8fd07a0001842484","665500ab8938657b03fbdba8","66579cbb3432e912fb494f81","235","stimuli/11010001.jpg"," ","","feedback_trial","1","","","","","","","","","","","","","","","","","","","","",""
"","","","","","image-keyboard-response","54","642285","0.0-29.0","59d9d9cd8fd07a0001842484","665500ab8938657b03fbdba8","66579cbb3432e912fb494f81","2404","stimuli/2111010.jpg","2","","prediction_trial","2","","true","","2","true","true","false","false","false","false","[1,2,0]","111","010","1","","","","","","",""
"","","","","","image-keyboard-response","55","643125","0.0-30.0","59d9d9cd8fd07a0001842484","665500ab8938657b03fbdba8","66579cbb3432e912fb494f81","839","stimuli/21110102.jpg"," ","","feedback_trial","1","","","","","","","","","","","","","","","","","","","","",""
"","","","","","image-keyboard-response","56","645532","0.0-31.0","59d9d9cd8fd07a0001842484","665500ab8938657b03fbdba8","66579cbb3432e912fb494f81","2406","stimuli/1011010.jpg","1","","prediction_trial","2","","false","","1","false","true","false","false","false","false","[1,2]","011","010","0","","","","","","",""
"","","","","","image-keyboard-response","57","646064","0.0-32.0","59d9d9cd8fd07a0001842484","665500ab8938657b03fbdba8","66579cbb3432e912fb494f81","531","stimuli/10110102.jpg"," ","","feedback_trial","1","","","","","","","","","","","","","","","","","","","","",""
"","","","","","image-keyboard-response","58","648173","0.0-33.0","59d9d9cd8fd07a0001842484","665500ab8938657b03fbdba8","66579cbb3432e912fb494f81","2107","stimuli/2100101.jpg","2","","prediction_trial","2","","true","","2","false","false","true","true","false","false","[2]","100","101","1","","","","","","",""
"","","","","","image-keyboard-response","59","648600","0.0-34.0","59d9d9cd8fd07a0001842484","665500ab8938657b03fbdba8","66579cbb3432e912fb494f81","426","stimuli/21001012.jpg"," ","","feedback_trial","2","","","","","","","","","","","","","","","","","","","","",""
"","","","","","image-keyboard-response","60","649296","0.0-35.0","59d9d9cd8fd07a0001842484","665500ab8938657b03fbdba8","66579cbb3432e912fb494f81","696","stimuli/1111000.jpg","1","","prediction_trial","0","","false","","1","true","true","false","false","false","false","[0,2,1]","111","000","0","","","","","","",""
"","","","","","image-keyboard-response","61","649900","0.0-36.0","59d9d9cd8fd07a0001842484","665500ab8938657b03fbdba8","66579cbb3432e912fb494f81","603","stimuli/11110000.jpg"," ","","feedback_trial","0","","","","","","","","","","","","","","","","","","","","",""
"","","","","","image-keyboard-response","62","650529","0.0-37.0","59d9d9cd8fd07a0001842484","665500ab8938657b03fbdba8","66579cbb3432e912fb494f81","628","stimuli/1001101.jpg","1","","prediction_trial","1","","true","","1","true","true","true","true","true","true","[1]","001","101","1","","","","","","",""
"","","","","","image-keyboard-response","63","650869","0.0-38.0","59d9d9cd8fd07a0001842484","665500ab8938657b03fbdba8","66579cbb3432e912fb494f81","338","stimuli/10011011.jpg"," ","","feedback_trial","1","","","","","","","","","","","","","","","","","","","","",""
"","","","","","image-keyboard-response","64","652337","0.0-39.0","59d9d9cd8fd07a0001842484","665500ab8938657b03fbdba8","66579cbb3432e912fb494f81","1467","stimuli/2101100.jpg","2","","prediction_trial","2","","true","","2","true","true","false","false","false","false","[0,2]","101","100","1","","","","","","",""
"","","","","","image-keyboard-response","65","652813","0.0-40.0","59d9d9cd8fd07a0001842484","665500ab8938657b03fbdba8","66579cbb3432e912fb494f81","475","stimuli/21011002.jpg"," ","","feedback_trial","0","","","","","","","","","","","","","","","","","","","","",""
"","","","","","image-keyboard-response","66","653668","0.0-41.0","59d9d9cd8fd07a0001842484","665500ab8938657b03fbdba8","66579cbb3432e912fb494f81","854","stimuli/0010010.jpg","0","","prediction_trial","0","","true","","0","true","true","true","true","true","true","[0]","010","010","1","","","","","","",""
"","","","","","image-keyboard-response","67","653920","0.0-42.0","59d9d9cd8fd07a0001842484","665500ab8938657b03fbdba8","66579cbb3432e912fb494f81","251","stimuli/00100100.jpg"," ","","feedback_trial","0","","","","","","","","","","","","","","","","","","","","",""
"","","","","","image-keyboard-response","68","655237","0.0-43.0","59d9d9cd8fd07a0001842484","665500ab8938657b03fbdba8","66579cbb3432e912fb494f81","1315","stimuli/1111001.jpg","1","","prediction_trial","1","","true","","1","true","true","false","false","false","false","[2,0,1]","111","001","1","","","","","","",""
"","","","","","image-keyboard-response","69","655636","0.0-44.0","59d9d9cd8fd07a0001842484","665500ab8938657b03fbdba8","66579cbb3432e912fb494f81","399","stimuli/11110011.jpg"," ","","feedback_trial","2","","","","","","","","","","","","","","","","","","","","",""
"","","","","","image-keyboard-response","70","656869","0.0-45.0","59d9d9cd8fd07a0001842484","665500ab8938657b03fbdba8","66579cbb3432e912fb494f81","1231","stimuli/2011000.jpg","2","","prediction_trial","2","","true","","2","true","true","false","false","false","false","[2,1]","011","000","1","","","","","","",""
"","","","","","image-keyboard-response","71","657236","0.0-46.0","59d9d9cd8fd07a0001842484","665500ab8938657b03fbdba8","66579cbb3432e912fb494f81","367","stimuli/20110002.jpg"," ","","feedback_trial","2","","","","","","","","","","","","","","","","","","","","",""
"","","","","","image-keyboard-response","72","657832","0.0-47.0","59d9d9cd8fd07a0001842484","665500ab8938657b03fbdba8","66579cbb3432e912fb494f81","595","stimuli/1101101.jpg","1","","prediction_trial","1","","true","","1","true","true","true","true","true","true","[1]","101","101","1","","","","","","",""
"","","","","","image-keyboard-response","73","658253","0.0-48.0","59d9d9cd8fd07a0001842484","665500ab8938657b03fbdba8","66579cbb3432e912fb494f81","420","stimuli/11011011.jpg"," ","","feedback_trial","1","","","","","","","","","","","","","","","","","","","","",""
"","","","","","image-keyboard-response","74","659169","0.0-49.0","59d9d9cd8fd07a0001842484","665500ab8938657b03fbdba8","66579cbb3432e912fb494f81","915","stimuli/0100100.jpg","0","","prediction_trial","0","","true","","0","false","true","false","true","false","true","[0]","100","100","1","","","","","","",""
"","","","","","image-keyboard-response","75","659540","0.0-50.0","59d9d9cd8fd07a0001842484","665500ab8938657b03fbdba8","66579cbb3432e912fb494f81","371","stimuli/01001000.jpg"," ","","feedback_trial","0","","","","","","","","","","","","","","","","","","","","",""
"","","","","","image-keyboard-response","76","660912","0.0-51.0","59d9d9cd8fd07a0001842484","665500ab8938657b03fbdba8","66579cbb3432e912fb494f81","1371","stimuli/2111011.jpg","2","","prediction_trial","2","","true","","2","false","false","false","false","false","false","[2,1,0]","111","011","1","","","","","","",""
"","","","","","image-keyboard-response","77","661305","0.0-52.0","59d9d9cd8fd07a0001842484","665500ab8938657b03fbdba8","66579cbb3432e912fb494f81","391","stimuli/21110112.jpg"," ","","feedback_trial","2","","","","","","","","","","","","","","","","","","","","",""
"","","","","","image-keyboard-response","78","662796","0.0-53.0","59d9d9cd8fd07a0001842484","665500ab8938657b03fbdba8","66579cbb3432e912fb494f81","1491","stimuli/0001101.jpg","0","","prediction_trial","0","","true","","0","false","false","true","true","false","false","[0]","001","101","1","","","","","","",""
"","","","","","image-keyboard-response","79","663269","0.0-54.0","59d9d9cd8fd07a0001842484","665500ab8938657b03fbdba8","66579cbb3432e912fb494f81","472","stimuli/00011010.jpg"," ","","feedback_trial","0","","","","","","","","","","","","","","","","","","","","",""
"","","","","","image-keyboard-response","80","663868","0.0-55.0","59d9d9cd8fd07a0001842484","665500ab8938657b03fbdba8","66579cbb3432e912fb494f81","599","stimuli/0000010.jpg","0","","prediction_trial","0","","true","","0","true","true","true","true","true","true","[0]","000","010","1","","","","","","",""
"","","","","","image-keyboard-response","81","664340","0.0-56.0","59d9d9cd8fd07a0001842484","665500ab8938657b03fbdba8","66579cbb3432e912fb494f81","471","stimuli/00000100.jpg"," ","","feedback_trial","0","","","","","","","","","","","","","","","","","","","","",""
"","","","","","image-keyboard-response","82","665699","0.0-57.0","59d9d9cd8fd07a0001842484","665500ab8938657b03fbdba8","66579cbb3432e912fb494f81","1358","stimuli/0101100.jpg","0","","prediction_trial","0","","true","","0","false","true","false","false","false","false","[0,2]","101","100","1","","","","","","",""
"","","","","","image-keyboard-response","83","666135","0.0-58.0","59d9d9cd8fd07a0001842484","665500ab8938657b03fbdba8","66579cbb3432e912fb494f81","435","stimuli/01011000.jpg"," ","","feedback_trial","0","","","","","","","","","","","","","","","","","","","","",""
"","","","","","image-keyboard-response","84","669068","0.0-59.0","59d9d9cd8fd07a0001842484","665500ab8938657b03fbdba8","66579cbb3432e912fb494f81","2932","stimuli/1110010.jpg","0","","prediction_trial","0","","true","","1","false","true","false","false","false","false","[1,0]","110","010","1","","","","","","",""
"","","","","","image-keyboard-response","85","669608","0.0-60.0","59d9d9cd8fd07a0001842484","665500ab8938657b03fbdba8","66579cbb3432e912fb494f81","539","stimuli/11100100.jpg"," ","","feedback_trial","1","","","","","","","","","","","","","","","","","","","","",""
"","","","","","image-keyboard-response","86","671724","0.0-61.0","59d9d9cd8fd07a0001842484","665500ab8938657b03fbdba8","66579cbb3432e912fb494f81","2115","stimuli/1010011.jpg","2","","prediction_trial","1","","false","","1","false","false","false","true","false","false","[1]","010","011","0","","","","","","",""
"","","","","","image-keyboard-response","87","672343","0.0-62.0","59d9d9cd8fd07a0001842484","665500ab8938657b03fbdba8","66579cbb3432e912fb494f81","618","stimuli/10100111.jpg"," ","","feedback_trial","1","","","","","","","","","","","","","","","","","","","","",""
"","","","","","image-keyboard-response","88","675675","0.0-63.0","59d9d9cd8fd07a0001842484","665500ab8938657b03fbdba8","66579cbb3432e912fb494f81","3331","stimuli/1111010.jpg","2","","prediction_trial","2","","true","","1","false","true","false","false","false","false","[1,2,0]","111","010","1","","","","","","",""
"","","","","","image-keyboard-response","89","676040","0.0-64.0","59d9d9cd8fd07a0001842484","665500ab8938657b03fbdba8","66579cbb3432e912fb494f81","363","stimuli/11110102.jpg"," ","","feedback_trial","1","","","","","","","","","","","","","","","","","","","","",""
"","","","","","image-keyboard-response","90","678148","0.0-65.0","59d9d9cd8fd07a0001842484","665500ab8938657b03fbdba8","66579cbb3432e912fb494f81","2107","stimuli/1000010.jpg","1","","prediction_trial","1","","true","","1","false","true","true","true","false","true","[1]","000","010","1","","","","","","",""
"","","","","","image-keyboard-response","91","678531","0.0-66.0","59d9d9cd8fd07a0001842484","665500ab8938657b03fbdba8","66579cbb3432e912fb494f81","383","stimuli/10000101.jpg"," ","","feedback_trial","1","","","","","","","","","","","","","","","","","","","","",""
"","","","","","image-keyboard-response","92","680144","0.0-67.0","59d9d9cd8fd07a0001842484","665500ab8938657b03fbdba8","66579cbb3432e912fb494f81","1611","stimuli/0101101.jpg","2","","prediction_trial","0","","false","","0","false","false","false","false","false","false","[0,2]","101","101","0","","","","","","",""
"","","","","","image-keyboard-response","93","680691","0.0-68.0","59d9d9cd8fd07a0001842484","665500ab8938657b03fbdba8","66579cbb3432e912fb494f81","547","stimuli/01011010.jpg"," ","","feedback_trial","0","","","","","","","","","","","","","","","","","","","","",""
"","","","","","image-keyboard-response","94","681971","0.0-69.0","59d9d9cd8fd07a0001842484","665500ab8938657b03fbdba8","66579cbb3432e912fb494f81","1279","stimuli/1011001.jpg","2","","prediction_trial","1","","false","","1","true","true","false","false","false","false","[2,1]","011","001","0","","","","","","",""
"","","","","","image-keyboard-response","95","682740","0.0-70.0","59d9d9cd8fd07a0001842484","665500ab8938657b03fbdba8","66579cbb3432e912fb494f81","767","stimuli/10110011.jpg"," ","","feedback_trial","2","","","","","","","","","","","","","","","","","","","","",""
"","","","","","image-keyboard-response","96","683531","0.0-71.0","59d9d9cd8fd07a0001842484","665500ab8938657b03fbdba8","66579cbb3432e912fb494f81","790","stimuli/0010011.jpg","0","","prediction_trial","0","","true","","0","true","true","true","true","true","true","[0]","010","011","1","","","","","","",""
"","","","","","image-keyboard-response","97","683947","0.0-72.0","59d9d9cd8fd07a0001842484","665500ab8938657b03fbdba8","66579cbb3432e912fb494f81","415","stimuli/00100110.jpg"," ","","feedback_trial","0","","","","","","","","","","","","","","","","","","","","",""
"","","","","","image-keyboard-response","98","684924","0.0-73.0","59d9d9cd8fd07a0001842484","665500ab8938657b03fbdba8","66579cbb3432e912fb494f81","976","stimuli/1110110.jpg","0","","prediction_trial","0","","true","","1","false","false","false","false","false","false","[0,1]","110","110","1","","","","","","",""
"","","","","","image-keyboard-response","99","685304","0.0-74.0","59d9d9cd8fd07a0001842484","665500ab8938657b03fbdba8","66579cbb3432e912fb494f81","378","stimuli/11101100.jpg"," ","","feedback_trial","0","","","","","","","","","","","","","","","","","","","","",""
"","","","","","image-keyboard-response","100","685990","0.0-75.0","59d9d9cd8fd07a0001842484","665500ab8938657b03fbdba8","66579cbb3432e912fb494f81","686","stimuli/2001010.jpg","2","","prediction_trial","2","","true","","2","true","true","false","true","false","true","[2]","001","010","1","","","","","","",""
"","","","","","image-keyboard-response","101","686395","0.0-76.0","59d9d9cd8fd07a0001842484","665500ab8938657b03fbdba8","66579cbb3432e912fb494f81","404","stimuli/20010102.jpg"," ","","feedback_trial","2","","","","","","","","","","","","","","","","","","","","",""
"","","","","","image-keyboard-response","102","688035","0.0-77.0","59d9d9cd8fd07a0001842484","665500ab8938657b03fbdba8","66579cbb3432e912fb494f81","1638","stimuli/2001011.jpg","2","","prediction_trial","2","","true","","2","false","false","false","true","false","false","[2]","001","011","1","","","","","","",""
"","","","","","image-keyboard-response","103","688447","0.0-78.0","59d9d9cd8fd07a0001842484","665500ab8938657b03fbdba8","66579cbb3432e912fb494f81","411","stimuli/20010112.jpg"," ","","feedback_trial","2","","","","","","","","","","","","","","","","","","","","",""
"","","","","","image-keyboard-response","104","689403","0.0-79.0","59d9d9cd8fd07a0001842484","665500ab8938657b03fbdba8","66579cbb3432e912fb494f81","955","stimuli/2111110.jpg","2","","prediction_trial","1","","false","","2","true","true","false","false","false","false","[0,2,1]","111","110","0","","","","","","",""
"","","","","","image-keyboard-response","105","690243","0.0-80.0","59d9d9cd8fd07a0001842484","665500ab8938657b03fbdba8","66579cbb3432e912fb494f81","839","stimuli/21111101.jpg"," ","","feedback_trial","0","","","","","","","","","","","","","","","","","","","","",""
"","","","","","image-keyboard-response","106","690911","0.0-81.0","59d9d9cd8fd07a0001842484","665500ab8938657b03fbdba8","66579cbb3432e912fb494f81","667","stimuli/2110100.jpg","2","","prediction_trial","2","","true","","2","true","true","true","true","true","true","[2]","110","100","1","","","","","","",""
"","","","","","image-keyboard-response","107","691255","0.0-82.0","59d9d9cd8fd07a0001842484","665500ab8938657b03fbdba8","66579cbb3432e912fb494f81","343","stimuli/21101002.jpg"," ","","feedback_trial","2","","","","","","","","","","","","","","","","","","","","",""
"","","","","","image-keyboard-response","108","691794","0.0-83.0","59d9d9cd8fd07a0001842484","665500ab8938657b03fbdba8","66579cbb3432e912fb494f81","539","stimuli/2100100.jpg","2","","prediction_trial","2","","true","","2","true","true","true","true","true","true","[2]","100","100","1","","","","","","",""
"","","","","","image-keyboard-response","109","692247","0.0-84.0","59d9d9cd8fd07a0001842484","665500ab8938657b03fbdba8","66579cbb3432e912fb494f81","452","stimuli/21001002.jpg"," ","","feedback_trial","2","","","","","","","","","","","","","","","","","","","","",""
"","","","","","image-keyboard-response","110","693842","0.0-85.0","59d9d9cd8fd07a0001842484","665500ab8938657b03fbdba8","66579cbb3432e912fb494f81","1595","stimuli/1000110.jpg","0","","prediction_trial","1","","false","","1","false","false","true","true","false","false","[1]","000","110","0","","","","","","",""
"","","","","","image-keyboard-response","111","694399","0.0-86.0","59d9d9cd8fd07a0001842484","665500ab8938657b03fbdba8","66579cbb3432e912fb494f81","555","stimuli/10001101.jpg"," ","","feedback_trial","1","","","","","","","","","","","","","","","","","","","","",""
"","","","","","image-keyboard-response","112","695023","0.0-87.0","59d9d9cd8fd07a0001842484","665500ab8938657b03fbdba8","66579cbb3432e912fb494f81","623","stimuli/0011000.jpg","0","","prediction_trial","0","","true","","0","true","true","true","true","true","true","[0]","011","000","1","","","","","","",""
"","","","","","image-keyboard-response","113","695410","0.0-88.0","59d9d9cd8fd07a0001842484","665500ab8938657b03fbdba8","66579cbb3432e912fb494f81","387","stimuli/00110000.jpg"," ","","feedback_trial","0","","","","","","","","","","","","","","","","","","","","",""
"","","","","","image-keyboard-response","114","696036","0.0-89.0","59d9d9cd8fd07a0001842484","665500ab8938657b03fbdba8","66579cbb3432e912fb494f81","625","stimuli/2000000.jpg","2","","prediction_trial","2","","true","","2","true","true","true","true","true","true","[2]","000","000","1","","","","","","",""
"","","","","","image-keyboard-response","115","696450","0.0-90.0","59d9d9cd8fd07a0001842484","665500ab8938657b03fbdba8","66579cbb3432e912fb494f81","413","stimuli/20000002.jpg"," ","","feedback_trial","2","","","","","","","","","","","","","","","","","","","","",""
"","","","","","image-keyboard-response","116","697070","0.0-91.0","59d9d9cd8fd07a0001842484","665500ab8938657b03fbdba8","66579cbb3432e912fb494f81","619","stimuli/0001001.jpg","0","","prediction_trial","0","","true","","0","true","true","true","true","true","true","[0]","001","001","1","","","","","","",""
"","","","","","image-keyboard-response","117","697502","0.0-92.0","59d9d9cd8fd07a0001842484","665500ab8938657b03fbdba8","66579cbb3432e912fb494f81","431","stimuli/00010010.jpg"," ","","feedback_trial","0","","","","","","","","","","","","","","","","","","","","",""
"","","","","","image-keyboard-response","118","699067","0.0-93.0","59d9d9cd8fd07a0001842484","665500ab8938657b03fbdba8","66579cbb3432e912fb494f81","1563","stimuli/2000111.jpg","1","","prediction_trial","2","","false","","2","false","false","true","true","false","false","[2]","000","111","0","","","","","","",""
"","","","","","image-keyboard-response","119","699575","0.0-94.0","59d9d9cd8fd07a0001842484","665500ab8938657b03fbdba8","66579cbb3432e912fb494f81","507","stimuli/20001112.jpg"," ","","feedback_trial","2","","","","","","","","","","","","","","","","","","","","",""
"","","","","","image-keyboard-response","120","700602","0.0-95.0","59d9d9cd8fd07a0001842484","665500ab8938657b03fbdba8","66579cbb3432e912fb494f81","1027","stimuli/1000011.jpg","2","","prediction_trial","1","","false","","1","false","false","true","true","false","false","[1]","000","011","0","","","","","","",""
"","","","","","image-keyboard-response","121","701175","0.0-96.0","59d9d9cd8fd07a0001842484","665500ab8938657b03fbdba8","66579cbb3432e912fb494f81","571","stimuli/10000111.jpg"," ","","feedback_trial","1","","","","","","","","","","","","","","","","","","","","",""
"","","","","","image-keyboard-response","122","704102","0.0-97.0","59d9d9cd8fd07a0001842484","665500ab8938657b03fbdba8","66579cbb3432e912fb494f81","2927","stimuli/2110101.jpg","2","","prediction_trial","2","","true","","2","false","false","true","true","false","false","[2]","110","101","1","","","","","","",""
"","","","","","image-keyboard-response","123","704598","0.0-98.0","59d9d9cd8fd07a0001842484","665500ab8938657b03fbdba8","66579cbb3432e912fb494f81","495","stimuli/21101012.jpg"," ","","feedback_trial","2","","","","","","","","","","","","","","","","","","","","",""
"","","","","","image-keyboard-response","124","706043","0.0-99.0","59d9d9cd8fd07a0001842484","665500ab8938657b03fbdba8","66579cbb3432e912fb494f81","1444","stimuli/2101110.jpg","2","","prediction_trial","0","","false","","2","true","true","false","false","false","false","[0,2]","101","110","0","","","","","","",""
"","","","","","image-keyboard-response","125","706894","0.0-100.0","59d9d9cd8fd07a0001842484","665500ab8938657b03fbdba8","66579cbb3432e912fb494f81","849","stimuli/21011100.jpg"," ","","feedback_trial","0","","","","","","","","","","","","","","","","","","","","",""
"","","","","","image-keyboard-response","126","708230","0.0-101.0","59d9d9cd8fd07a0001842484","665500ab8938657b03fbdba8","66579cbb3432e912fb494f81","1336","stimuli/2110001.jpg","2","","prediction_trial","2","","true","","2","false","true","true","true","false","true","[2]","110","001","1","","","","","","",""
"","","","","","image-keyboard-response","127","708593","0.0-102.0","59d9d9cd8fd07a0001842484","665500ab8938657b03fbdba8","66579cbb3432e912fb494f81","362","stimuli/21100012.jpg"," ","","feedback_trial","2","","","","","","","","","","","","","","","","","","","","",""
"","","","","","image-keyboard-response","128","709629","0.0-103.0","59d9d9cd8fd07a0001842484","665500ab8938657b03fbdba8","66579cbb3432e912fb494f81","1035","stimuli/0111001.jpg","0","","prediction_trial","2","","false","","0","true","true","false","false","false","false","[2,1,0]","111","001","0","","","","","","",""
"","","","","","image-keyboard-response","129","710225","0.0-104.0","59d9d9cd8fd07a0001842484","665500ab8938657b03fbdba8","66579cbb3432e912fb494f81","595","stimuli/01110012.jpg"," ","","feedback_trial","2","","","","","","","","","","","","","","","","","","","","",""
"","","","","","image-keyboard-response","130","711841","0.0-105.0","59d9d9cd8fd07a0001842484","665500ab8938657b03fbdba8","66579cbb3432e912fb494f81","1615","stimuli/1111011.jpg","2","","prediction_trial","0","","false","","1","false","false","false","false","false","false","[0,1,2]","111","011","0","","","","","","",""
"","","","","","image-keyboard-response","131","713197","0.0-106.0","59d9d9cd8fd07a0001842484","665500ab8938657b03fbdba8","66579cbb3432e912fb494f81","1355","stimuli/11110110.jpg"," ","","feedback_trial","0","","","","","","","","","","","","","","","","","","","","",""
"","","","","","image-keyboard-response","132","714601","0.0-107.0","59d9d9cd8fd07a0001842484","665500ab8938657b03fbdba8","66579cbb3432e912fb494f81","1403","stimuli/0000100.jpg","0","","prediction_trial","0","","true","","0","false","true","true","true","false","true","[0]","000","100","1","","","","","","",""
"","","","","","image-keyboard-response","133","714897","0.0-108.0","59d9d9cd8fd07a0001842484","665500ab8938657b03fbdba8","66579cbb3432e912fb494f81","295","stimuli/00001000.jpg"," ","","feedback_trial","0","","","","","","","","","","","","","","","","","","","","",""
"","","","","","image-keyboard-response","134","716777","0.0-109.0","59d9d9cd8fd07a0001842484","665500ab8938657b03fbdba8","66579cbb3432e912fb494f81","1879","stimuli/0001110.jpg","0","","prediction_trial","0","","true","","0","false","false","true","true","false","false","[0]","001","110","1","","","","","","",""
"","","","","","image-keyboard-response","135","717177","0.0-110.0","59d9d9cd8fd07a0001842484","665500ab8938657b03fbdba8","66579cbb3432e912fb494f81","399","stimuli/00011100.jpg"," ","","feedback_trial","0","","","","","","","","","","","","","","","","","","","","",""
"","","","","","image-keyboard-response","136","718906","0.0-111.0","59d9d9cd8fd07a0001842484","665500ab8938657b03fbdba8","66579cbb3432e912fb494f81","1728","stimuli/0110001.jpg","0","","prediction_trial","0","","true","","0","true","true","false","false","false","false","[1,0]","110","001","1","","","","","","",""
"","","","","","image-keyboard-response","137","719257","0.0-112.0","59d9d9cd8fd07a0001842484","665500ab8938657b03fbdba8","66579cbb3432e912fb494f81","350","stimuli/01100010.jpg"," ","","feedback_trial","1","","","","","","","","","","","","","","","","","","","","",""
"","","","","","image-keyboard-response","138","720197","0.0-113.0","59d9d9cd8fd07a0001842484","665500ab8938657b03fbdba8","66579cbb3432e912fb494f81","939","stimuli/1010101.jpg","1","","prediction_trial","1","","true","","1","true","true","false","true","false","true","[1]","010","101","1","","","","","","",""
"","","","","","image-keyboard-response","139","720761","0.0-114.0","59d9d9cd8fd07a0001842484","665500ab8938657b03fbdba8","66579cbb3432e912fb494f81","563","stimuli/10101011.jpg"," ","","feedback_trial","1","","","","","","","","","","","","","","","","","","","","",""
"","","","","","image-keyboard-response","140","722542","0.0-115.0","59d9d9cd8fd07a0001842484","665500ab8938657b03fbdba8","66579cbb3432e912fb494f81","1780","stimuli/1111110.jpg","2","","prediction_trial","2","","true","","1","false","false","false","false","false","false","[1,2,0]","111","110","1","","","","","","",""
"","","","","","image-keyboard-response","141","722985","0.0-116.0","59d9d9cd8fd07a0001842484","665500ab8938657b03fbdba8","66579cbb3432e912fb494f81","442","stimuli/11111102.jpg"," ","","feedback_trial","1","","","","","","","","","","","","","","","","","","","","",""
"","","","","","image-keyboard-response","142","723610","0.0-117.0","59d9d9cd8fd07a0001842484","665500ab8938657b03fbdba8","66579cbb3432e912fb494f81","623","stimuli/0001011.jpg","0","","prediction_trial","0","","true","","0","true","true","true","true","true","true","[0]","001","011","1","","","","","","",""
"","","","","","image-keyboard-response","143","724010","0.0-118.0","59d9d9cd8fd07a0001842484","665500ab8938657b03fbdba8","66579cbb3432e912fb494f81","399","stimuli/00010110.jpg"," ","","feedback_trial","0","","","","","","","","","","","","","","","","","","","","",""
"","","","","","image-keyboard-response","144","725797","0.0-119.0","59d9d9cd8fd07a0001842484","665500ab8938657b03fbdba8","66579cbb3432e912fb494f81","1786","stimuli/0110101.jpg","0","","prediction_trial","1","","false","","0","false","false","false","false","false","false","[1,0]","110","101","0","","","","","","",""
"","","","","","image-keyboard-response","145","726453","0.0-120.0","59d9d9cd8fd07a0001842484","665500ab8938657b03fbdba8","66579cbb3432e912fb494f81","656","stimuli/01101011.jpg"," ","","feedback_trial","1","","","","","","","","","","","","","","","","","","","","",""
"","","","","","image-keyboard-response","146","727541","0.0-121.0","59d9d9cd8fd07a0001842484","665500ab8938657b03fbdba8","66579cbb3432e912fb494f81","1087","stimuli/1000000.jpg","1","","prediction_trial","1","","true","","1","true","true","true","true","true","true","[1]","000","000","1","","","","","","",""
"","","","","","image-keyboard-response","147","728720","0.0-122.0","59d9d9cd8fd07a0001842484","665500ab8938657b03fbdba8","66579cbb3432e912fb494f81","1178","stimuli/10000001.jpg"," ","","feedback_trial","1","","","","","","","","","","","","","","","","","","","","",""
"","","","","","image-keyboard-response","148","730213","0.0-123.0","59d9d9cd8fd07a0001842484","665500ab8938657b03fbdba8","66579cbb3432e912fb494f81","1492","stimuli/2010101.jpg","2","","prediction_trial","2","","true","","2","false","false","true","true","false","false","[2]","010","101","1","","","","","","",""
"","","","","","image-keyboard-response","149","730608","0.0-124.0","59d9d9cd8fd07a0001842484","665500ab8938657b03fbdba8","66579cbb3432e912fb494f81","394","stimuli/20101012.jpg"," ","","feedback_trial","2","","","","","","","","","","","","","","","","","","","","",""
"","","","","","image-keyboard-response","150","732372","0.0-125.0","59d9d9cd8fd07a0001842484","665500ab8938657b03fbdba8","66579cbb3432e912fb494f81","1763","stimuli/2011101.jpg","0","","prediction_trial","1","","false","","2","false","false","false","false","false","false","[1,2]","011","101","0","","","","","","",""
"","","","","","image-keyboard-response","151","733705","0.0-126.0","59d9d9cd8fd07a0001842484","665500ab8938657b03fbdba8","66579cbb3432e912fb494f81","1332","stimuli/20111011.jpg"," ","","feedback_trial","1","","","","","","","","","","","","","","","","","","","","",""
"","","","","","image-keyboard-response","152","734484","0.0-127.0","59d9d9cd8fd07a0001842484","665500ab8938657b03fbdba8","66579cbb3432e912fb494f81","778","stimuli/2101000.jpg","2","","prediction_trial","0","","false","","2","true","true","false","false","false","false","[0,2]","101","000","0","","","","","","",""
"","","","","","image-keyboard-response","153","735244","0.0-128.0","59d9d9cd8fd07a0001842484","665500ab8938657b03fbdba8","66579cbb3432e912fb494f81","759","stimuli/21010000.jpg"," ","","feedback_trial","0","","","","","","","","","","","","","","","","","","","","",""
"","","","","","image-keyboard-response","154","736845","0.0-129.0","59d9d9cd8fd07a0001842484","665500ab8938657b03fbdba8","66579cbb3432e912fb494f81","1599","stimuli/2101011.jpg","2","","prediction_trial","0","","false","","2","false","false","false","false","false","false","[2,0]","101","011","0","","","","","","",""
"","","","","","image-keyboard-response","155","737424","0.0-130.0","59d9d9cd8fd07a0001842484","665500ab8938657b03fbdba8","66579cbb3432e912fb494f81","579","stimuli/21010110.jpg"," ","","feedback_trial","2","","","","","","","","","","","","","","","","","","","","",""
"","","","","","image-keyboard-response","156","740164","0.0-131.0","59d9d9cd8fd07a0001842484","665500ab8938657b03fbdba8","66579cbb3432e912fb494f81","2739","stimuli/2000101.jpg","2","","prediction_trial","2","","true","","2","false","false","true","true","false","false","[2]","000","101","1","","","","","","",""
"","","","","","image-keyboard-response","157","740636","0.0-132.0","59d9d9cd8fd07a0001842484","665500ab8938657b03fbdba8","66579cbb3432e912fb494f81","470","stimuli/20001012.jpg"," ","","feedback_trial","2","","","","","","","","","","","","","","","","","","","","",""
"","","","","","image-keyboard-response","158","741196","0.0-133.0","59d9d9cd8fd07a0001842484","665500ab8938657b03fbdba8","66579cbb3432e912fb494f81","559","stimuli/2100110.jpg","2","","prediction_trial","2","","true","","2","true","true","true","true","true","true","[2]","100","110","1","","","","","","",""
"","","","","","image-keyboard-response","159","741532","0.0-134.0","59d9d9cd8fd07a0001842484","665500ab8938657b03fbdba8","66579cbb3432e912fb494f81","335","stimuli/21001102.jpg"," ","","feedback_trial","2","","","","","","","","","","","","","","","","","","","","",""
"","","","","","image-keyboard-response","160","742753","0.0-135.0","59d9d9cd8fd07a0001842484","665500ab8938657b03fbdba8","66579cbb3432e912fb494f81","1219","stimuli/2101101.jpg","0","","prediction_trial","2","","false","","2","false","false","false","false","false","false","[2,0]","101","101","0","","","","","","",""
"","","","","","image-keyboard-response","161","743216","0.0-136.0","59d9d9cd8fd07a0001842484","665500ab8938657b03fbdba8","66579cbb3432e912fb494f81","462","stimuli/21011012.jpg"," ","","feedback_trial","2","","","","","","","","","","","","","","","","","","","","",""
"","","","","","image-keyboard-response","162","743945","0.0-137.0","59d9d9cd8fd07a0001842484","665500ab8938657b03fbdba8","66579cbb3432e912fb494f81","728","stimuli/2001001.jpg","2","","prediction_trial","2","","true","","2","false","true","false","true","false","true","[2]","001","001","1","","","","","","",""
"","","","","","image-keyboard-response","163","744396","0.0-138.0","59d9d9cd8fd07a0001842484","665500ab8938657b03fbdba8","66579cbb3432e912fb494f81","450","stimuli/20010012.jpg"," ","","feedback_trial","2","","","","","","","","","","","","","","","","","","","","",""
"","","","","","image-keyboard-response","164","744998","0.0-139.0","59d9d9cd8fd07a0001842484","665500ab8938657b03fbdba8","66579cbb3432e912fb494f81","600","stimuli/0000000.jpg","0","","prediction_trial","0","","true","","0","true","true","true","true","true","true","[0]","000","000","1","","","","","","",""
"","","","","","image-keyboard-response","165","745376","0.0-140.0","59d9d9cd8fd07a0001842484","665500ab8938657b03fbdba8","66579cbb3432e912fb494f81","377","stimuli/00000000.jpg"," ","","feedback_trial","0","","","","","","","","","","","","","","","","","","","","",""
"","","","","","image-keyboard-response","166","747068","0.0-141.0","59d9d9cd8fd07a0001842484","665500ab8938657b03fbdba8","66579cbb3432e912fb494f81","1691","stimuli/1111100.jpg","2","","prediction_trial","1","","false","","1","true","true","false","false","false","false","[2,1,0]","111","100","0","","","","","","",""
"","","","","","image-keyboard-response","167","747649","0.0-142.0","59d9d9cd8fd07a0001842484","665500ab8938657b03fbdba8","66579cbb3432e912fb494f81","579","stimuli/11111001.jpg"," ","","feedback_trial","2","","","","","","","","","","","","","","","","","","","","",""
"","","","","","image-keyboard-response","168","749307","0.0-143.0","59d9d9cd8fd07a0001842484","665500ab8938657b03fbdba8","66579cbb3432e912fb494f81","1657","stimuli/0010100.jpg","0","","prediction_trial","0","","true","","0","false","true","true","true","false","true","[0]","010","100","1","","","","","","",""
"","","","","","image-keyboard-response","169","749643","0.0-144.0","59d9d9cd8fd07a0001842484","665500ab8938657b03fbdba8","66579cbb3432e912fb494f81","335","stimuli/00101000.jpg"," ","","feedback_trial","0","","","","","","","","","","","","","","","","","","","","",""
"","","","","","image-keyboard-response","170","751371","0.0-145.0","59d9d9cd8fd07a0001842484","665500ab8938657b03fbdba8","66579cbb3432e912fb494f81","1727","stimuli/1001110.jpg","1","","prediction_trial","1","","true","","1","false","false","true","true","false","false","[1]","001","110","1","","","","","","",""
"","","","","","image-keyboard-response","171","751927","0.0-146.0","59d9d9cd8fd07a0001842484","665500ab8938657b03fbdba8","66579cbb3432e912fb494f81","554","stimuli/10011101.jpg"," ","","feedback_trial","1","","","","","","","","","","","","","","","","","","","","",""
"","","","","","image-keyboard-response","172","753007","0.0-147.0","59d9d9cd8fd07a0001842484","665500ab8938657b03fbdba8","66579cbb3432e912fb494f81","1079","stimuli/2101010.jpg","2","","prediction_trial","0","","false","","2","true","true","false","false","false","false","[2,0]","101","010","0","","","","","","",""
"","","","","","image-keyboard-response","173","753746","0.0-148.0","59d9d9cd8fd07a0001842484","665500ab8938657b03fbdba8","66579cbb3432e912fb494f81","738","stimuli/21010100.jpg"," ","","feedback_trial","2","","","","","","","","","","","","","","","","","","","","",""
"","","","","","image-keyboard-response","174","757304","0.0-149.0","59d9d9cd8fd07a0001842484","665500ab8938657b03fbdba8","66579cbb3432e912fb494f81","3556","stimuli/2110011.jpg","1","","prediction_trial","2","","false","","2","false","false","true","true","false","false","[2]","110","011","0","","","","","","",""
"","","","","","image-keyboard-response","175","757923","0.0-150.0","59d9d9cd8fd07a0001842484","665500ab8938657b03fbdba8","66579cbb3432e912fb494f81","618","stimuli/21100112.jpg"," ","","feedback_trial","2","","","","","","","","","","","","","","","","","","","","",""
"","","","","","image-keyboard-response","176","759647","0.0-151.0","59d9d9cd8fd07a0001842484","665500ab8938657b03fbdba8","66579cbb3432e912fb494f81","1723","stimuli/0110111.jpg","2","","prediction_trial","0","","false","","0","false","false","false","false","false","false","[1,0]","110","111","0","","","","","","",""
"","","","","","image-keyboard-response","177","760211","0.0-152.0","59d9d9cd8fd07a0001842484","665500ab8938657b03fbdba8","66579cbb3432e912fb494f81","563","stimuli/01101110.jpg"," ","","feedback_trial","1","","","","","","","","","","","","","","","","","","","","",""
"","","","","","image-keyboard-response","178","761891","0.0-153.0","59d9d9cd8fd07a0001842484","665500ab8938657b03fbdba8","66579cbb3432e912fb494f81","1679","stimuli/2011110.jpg","2","","prediction_trial","2","","true","","2","true","true","false","false","false","false","[2,1]","011","110","1","","","","","","",""
"","","","","","image-keyboard-response","179","762231","0.0-154.0","59d9d9cd8fd07a0001842484","665500ab8938657b03fbdba8","66579cbb3432e912fb494f81","339","stimuli/20111102.jpg"," ","","feedback_trial","2","","","","","","","","","","","","","","","","","","","","",""
"","","","","","image-keyboard-response","180","764623","0.0-155.0","59d9d9cd8fd07a0001842484","665500ab8938657b03fbdba8","66579cbb3432e912fb494f81","2391","stimuli/1001011.jpg","2","","prediction_trial","1","","false","","1","false","false","true","true","false","false","[1]","001","011","0","","","","","","",""
"","","","","","image-keyboard-response","181","765132","0.0-156.0","59d9d9cd8fd07a0001842484","665500ab8938657b03fbdba8","66579cbb3432e912fb494f81","508","stimuli/10010111.jpg"," ","","feedback_trial","1","","","","","","","","","","","","","","","","","","","","",""
"","","","","","image-keyboard-response","182","766771","0.0-157.0","59d9d9cd8fd07a0001842484","665500ab8938657b03fbdba8","66579cbb3432e912fb494f81","1636","stimuli/0101001.jpg","0","","prediction_trial","2","","false","","0","true","true","false","false","false","false","[0,2]","101","001","0","","","","","","",""
"","","","","","image-keyboard-response","183","767271","0.0-158.0","59d9d9cd8fd07a0001842484","665500ab8938657b03fbdba8","66579cbb3432e912fb494f81","499","stimuli/01010012.jpg"," ","","feedback_trial","0","","","","","","","","","","","","","","","","","","","","",""
"","","","","","image-keyboard-response","184","768183","0.0-159.0","59d9d9cd8fd07a0001842484","665500ab8938657b03fbdba8","66579cbb3432e912fb494f81","911","stimuli/2111111.jpg","0","","prediction_trial","0","","true","","2","false","false","false","false","false","false","[0,1,2]","111","111","1","","","","","","",""
"","","","","","image-keyboard-response","185","768563","0.0-160.0","59d9d9cd8fd07a0001842484","665500ab8938657b03fbdba8","66579cbb3432e912fb494f81","379","stimuli/21111110.jpg"," ","","feedback_trial","0","","","","","","","","","","","","","","","","","","","","",""
"","","","","","image-keyboard-response","186","769370","0.0-161.0","59d9d9cd8fd07a0001842484","665500ab8938657b03fbdba8","66579cbb3432e912fb494f81","806","stimuli/0011001.jpg","0","","prediction_trial","0","","true","","0","true","true","true","true","true","true","[0]","011","001","1","","","","","","",""
"","","","","","image-keyboard-response","187","769699","0.0-162.0","59d9d9cd8fd07a0001842484","665500ab8938657b03fbdba8","66579cbb3432e912fb494f81","328","stimuli/00110010.jpg"," ","","feedback_trial","0","","","","","","","","","","","","","","","","","","","","",""
"","","","","","image-keyboard-response","188","770806","0.0-163.0","59d9d9cd8fd07a0001842484","665500ab8938657b03fbdba8","66579cbb3432e912fb494f81","1106","stimuli/0000101.jpg","2","","prediction_trial","0","","false","","0","false","false","true","true","false","false","[0]","000","101","0","","","","","","",""
"","","","","","image-keyboard-response","189","771322","0.0-164.0","59d9d9cd8fd07a0001842484","665500ab8938657b03fbdba8","66579cbb3432e912fb494f81","515","stimuli/00001010.jpg"," ","","feedback_trial","0","","","","","","","","","","","","","","","","","","","","",""
"","","","","","image-keyboard-response","190","772310","0.0-165.0","59d9d9cd8fd07a0001842484","665500ab8938657b03fbdba8","66579cbb3432e912fb494f81","987","stimuli/1010110.jpg","0","","prediction_trial","1","","false","","1","false","false","false","true","false","false","[1]","010","110","0","","","","","","",""
"","","","","","image-keyboard-response","191","773274","0.0-166.0","59d9d9cd8fd07a0001842484","665500ab8938657b03fbdba8","66579cbb3432e912fb494f81","963","stimuli/10101101.jpg"," ","","feedback_trial","1","","","","","","","","","","","","","","","","","","","","",""
"","","","","","image-keyboard-response","192","775781","0.0-167.0","59d9d9cd8fd07a0001842484","665500ab8938657b03fbdba8","66579cbb3432e912fb494f81","2507","stimuli/0100110.jpg","1","","prediction_trial","0","","false","","0","false","false","false","true","false","false","[0]","100","110","0","","","","","","",""
"","","","","","image-keyboard-response","193","776334","0.0-168.0","59d9d9cd8fd07a0001842484","665500ab8938657b03fbdba8","66579cbb3432e912fb494f81","551","stimuli/01001100.jpg"," ","","feedback_trial","0","","","","","","","","","","","","","","","","","","","","",""
"","","","","","image-keyboard-response","194","777034","0.0-169.0","59d9d9cd8fd07a0001842484","665500ab8938657b03fbdba8","66579cbb3432e912fb494f81","699","stimuli/0001100.jpg","0","","prediction_trial","0","","true","","0","false","true","true","true","false","true","[0]","001","100","1","","","","","","",""
"","","","","","image-keyboard-response","195","777421","0.0-170.0","59d9d9cd8fd07a0001842484","665500ab8938657b03fbdba8","66579cbb3432e912fb494f81","386","stimuli/00011000.jpg"," ","","feedback_trial","0","","","","","","","","","","","","","","","","","","","","",""
"","","","","","image-keyboard-response","196","778142","0.0-171.0","59d9d9cd8fd07a0001842484","665500ab8938657b03fbdba8","66579cbb3432e912fb494f81","719","stimuli/1100101.jpg","1","","prediction_trial","1","","true","","1","true","true","true","true","true","true","[1]","100","101","1","","","","","","",""
"","","","","","image-keyboard-response","197","778790","0.0-172.0","59d9d9cd8fd07a0001842484","665500ab8938657b03fbdba8","66579cbb3432e912fb494f81","648","stimuli/11001011.jpg"," ","","feedback_trial","1","","","","","","","","","","","","","","","","","","","","",""
"","","","","","image-keyboard-response","198","780942","0.0-173.0","59d9d9cd8fd07a0001842484","665500ab8938657b03fbdba8","66579cbb3432e912fb494f81","2151","stimuli/1010001.jpg","1","","prediction_trial","1","","true","","1","true","true","false","true","false","true","[1]","010","001","1","","","","","","",""
"","","","","","image-keyboard-response","199","781306","0.0-174.0","59d9d9cd8fd07a0001842484","665500ab8938657b03fbdba8","66579cbb3432e912fb494f81","364","stimuli/10100011.jpg"," ","","feedback_trial","1","","","","","","","","","","","","","","","","","","","","",""
"","","","","","image-keyboard-response","200","782582","0.0-175.0","59d9d9cd8fd07a0001842484","665500ab8938657b03fbdba8","66579cbb3432e912fb494f81","1276","stimuli/1101010.jpg","1","","prediction_trial","1","","true","","1","false","true","true","true","false","true","[1]","101","010","1","","","","","","",""
"","","","","","image-keyboard-response","201","782937","0.0-176.0","59d9d9cd8fd07a0001842484","665500ab8938657b03fbdba8","66579cbb3432e912fb494f81","355","stimuli/11010101.jpg"," ","","feedback_trial","1","","","","","","","","","","","","","","","","","","","","",""
"","","","","","image-keyboard-response","202","785146","0.0-177.0","59d9d9cd8fd07a0001842484","665500ab8938657b03fbdba8","66579cbb3432e912fb494f81","2208","stimuli/0101000.jpg","2","","prediction_trial","2","","true","","0","true","true","false","false","false","false","[2,0]","101","000","1","","","","","","",""
"","","","","","image-keyboard-response","203","785533","0.0-178.0","59d9d9cd8fd07a0001842484","665500ab8938657b03fbdba8","66579cbb3432e912fb494f81","386","stimuli/01010002.jpg"," ","","feedback_trial","2","","","","","","","","","","","","","","","","","","","","",""
"","","","","","image-keyboard-response","204","786346","0.0-179.0","59d9d9cd8fd07a0001842484","665500ab8938657b03fbdba8","66579cbb3432e912fb494f81","812","stimuli/2100010.jpg","2","","prediction_trial","2","","true","","2","true","true","true","true","true","true","[2]","100","010","1","","","","","","",""
"","","","","","image-keyboard-response","205","786610","0.0-180.0","59d9d9cd8fd07a0001842484","665500ab8938657b03fbdba8","66579cbb3432e912fb494f81","263","stimuli/21000102.jpg"," ","","feedback_trial","2","","","","","","","","","","","","","","","","","","","","",""
"","","","","","image-keyboard-response","206","787214","0.0-181.0","59d9d9cd8fd07a0001842484","665500ab8938657b03fbdba8","66579cbb3432e912fb494f81","603","stimuli/1000101.jpg","1","","prediction_trial","1","","true","","1","true","true","true","true","true","true","[1]","000","101","1","","","","","","",""
"","","","","","image-keyboard-response","207","787506","0.0-182.0","59d9d9cd8fd07a0001842484","665500ab8938657b03fbdba8","66579cbb3432e912fb494f81","292","stimuli/10001011.jpg"," ","","feedback_trial","1","","","","","","","","","","","","","","","","","","","","",""
"","","","","","image-keyboard-response","208","789766","0.0-183.0","59d9d9cd8fd07a0001842484","665500ab8938657b03fbdba8","66579cbb3432e912fb494f81","2259","stimuli/1110111.jpg","2","","prediction_trial","0","","false","","1","false","false","false","false","false","false","[1,0]","110","111","0","","","","","","",""
"","","","","","image-keyboard-response","209","790237","0.0-184.0","59d9d9cd8fd07a0001842484","665500ab8938657b03fbdba8","66579cbb3432e912fb494f81","469","stimuli/11101110.jpg"," ","","feedback_trial","1","","","","","","","","","","","","","","","","","","","","",""
"","","","","","image-keyboard-response","210","791273","0.0-185.0","59d9d9cd8fd07a0001842484","665500ab8938657b03fbdba8","66579cbb3432e912fb494f81","1036","stimuli/2001110.jpg","2","","prediction_trial","2","","true","","2","true","true","false","true","false","true","[2]","001","110","1","","","","","","",""
"","","","","","image-keyboard-response","211","791689","0.0-186.0","59d9d9cd8fd07a0001842484","665500ab8938657b03fbdba8","66579cbb3432e912fb494f81","415","stimuli/20011102.jpg"," ","","feedback_trial","2","","","","","","","","","","","","","","","","","","","","",""
"","","","","","image-keyboard-response","212","793617","0.0-187.0","59d9d9cd8fd07a0001842484","665500ab8938657b03fbdba8","66579cbb3432e912fb494f81","1927","stimuli/1110001.jpg","0","","prediction_trial","1","","false","","1","true","true","false","false","false","false","[1,0]","110","001","0","","","","","","",""
"","","","","","image-keyboard-response","213","794029","0.0-188.0","59d9d9cd8fd07a0001842484","665500ab8938657b03fbdba8","66579cbb3432e912fb494f81","411","stimuli/11100011.jpg"," ","","feedback_trial","1","","","","","","","","","","","","","","","","","","","","",""
"","","","","","image-keyboard-response","214","795245","0.0-189.0","59d9d9cd8fd07a0001842484","665500ab8938657b03fbdba8","66579cbb3432e912fb494f81","1215","stimuli/0110011.jpg","0","","prediction_trial","1","","false","","0","true","true","false","false","false","false","[0,1]","110","011","0","","","","","","",""
"","","","","","image-keyboard-response","215","795789","0.0-190.0","59d9d9cd8fd07a0001842484","665500ab8938657b03fbdba8","66579cbb3432e912fb494f81","543","stimuli/01100111.jpg"," ","","feedback_trial","0","","","","","","","","","","","","","","","","","","","","",""
"","","","","","image-keyboard-response","216","796601","0.0-191.0","59d9d9cd8fd07a0001842484","665500ab8938657b03fbdba8","66579cbb3432e912fb494f81","811","stimuli/0011011.jpg","0","","prediction_trial","0","","true","","0","true","true","true","true","true","true","[0]","011","011","1","","","","","","",""
"","","","","","image-keyboard-response","217","796861","0.0-192.0","59d9d9cd8fd07a0001842484","665500ab8938657b03fbdba8","66579cbb3432e912fb494f81","260","stimuli/00110110.jpg"," ","","feedback_trial","0","","","","","","","","","","","","","","","","","","","","",""
"","","","","","image-keyboard-response","218","798413","0.0-193.0","59d9d9cd8fd07a0001842484","665500ab8938657b03fbdba8","66579cbb3432e912fb494f81","1551","stimuli/0010101.jpg","2","","prediction_trial","0","","false","","0","false","false","true","true","false","false","[0]","010","101","0","","","","","","",""
"","","","","","image-keyboard-response","219","798809","0.0-194.0","59d9d9cd8fd07a0001842484","665500ab8938657b03fbdba8","66579cbb3432e912fb494f81","396","stimuli/00101010.jpg"," ","","feedback_trial","0","","","","","","","","","","","","","","","","","","","","",""
"","","","","","image-keyboard-response","220","799589","0.0-195.0","59d9d9cd8fd07a0001842484","665500ab8938657b03fbdba8","66579cbb3432e912fb494f81","778","stimuli/2100011.jpg","2","","prediction_trial","2","","true","","2","false","false","true","true","false","false","[2]","100","011","1","","","","","","",""
"","","","","","image-keyboard-response","221","799969","0.0-196.0","59d9d9cd8fd07a0001842484","665500ab8938657b03fbdba8","66579cbb3432e912fb494f81","380","stimuli/21000112.jpg"," ","","feedback_trial","2","","","","","","","","","","","","","","","","","","","","",""
"","","","","","image-keyboard-response","222","800600","0.0-197.0","59d9d9cd8fd07a0001842484","665500ab8938657b03fbdba8","66579cbb3432e912fb494f81","631","stimuli/0111000.jpg","0","","prediction_trial","1","","false","","0","true","true","false","false","false","false","[1,0,2]","111","000","0","","","","","","",""
"","","","","","image-keyboard-response","223","801237","0.0-198.0","59d9d9cd8fd07a0001842484","665500ab8938657b03fbdba8","66579cbb3432e912fb494f81","635","stimuli/01110001.jpg"," ","","feedback_trial","1","","","","","","","","","","","","","","","","","","","","",""
"","","","","","image-keyboard-response","224","804081","0.0-199.0","59d9d9cd8fd07a0001842484","665500ab8938657b03fbdba8","66579cbb3432e912fb494f81","2843","stimuli/2011011.jpg","2","","prediction_trial","1","","false","","2","false","false","false","false","false","false","[1,2]","011","011","0","","","","","","",""
"","","","","","image-keyboard-response","225","808673","0.0-200.0","59d9d9cd8fd07a0001842484","665500ab8938657b03fbdba8","66579cbb3432e912fb494f81","4591","stimuli/20110111.jpg"," ","","feedback_trial","1","","","","","","","","","","","","","","","","","","","","",""
"","","","","","image-keyboard-response","226","809641","0.0-201.0","59d9d9cd8fd07a0001842484","665500ab8938657b03fbdba8","66579cbb3432e912fb494f81","967","stimuli/1000001.jpg","1","","prediction_trial","1","","true","","1","true","true","true","true","true","true","[1]","000","001","1","","","","","","",""
"","","","","","image-keyboard-response","227","810237","0.0-202.0","59d9d9cd8fd07a0001842484","665500ab8938657b03fbdba8","66579cbb3432e912fb494f81","595","stimuli/10000011.jpg"," ","","feedback_trial","1","","","","","","","","","","","","","","","","","","","","",""
"","","","","","image-keyboard-response","228","813672","0.0-203.0","59d9d9cd8fd07a0001842484","665500ab8938657b03fbdba8","66579cbb3432e912fb494f81","3434","stimuli/0011110.jpg","0","","prediction_trial","0","","true","","0","false","false","true","true","false","false","[0]","011","110","1","","","","","","",""
"","","","","","image-keyboard-response","229","814076","0.0-204.0","59d9d9cd8fd07a0001842484","665500ab8938657b03fbdba8","66579cbb3432e912fb494f81","403","stimuli/00111100.jpg"," ","","feedback_trial","0","","","","","","","","","","","","","","","","","","","","",""
"","","","","","image-keyboard-response","230","815660","0.0-205.0","59d9d9cd8fd07a0001842484","665500ab8938657b03fbdba8","66579cbb3432e912fb494f81","1583","stimuli/0111111.jpg","0","","prediction_trial","0","","true","","0","false","false","false","false","false","false","[2,0,1]","111","111","1","","","","","","",""
"","","","","","image-keyboard-response","231","816060","0.0-206.0","59d9d9cd8fd07a0001842484","665500ab8938657b03fbdba8","66579cbb3432e912fb494f81","399","stimuli/01111110.jpg"," ","","feedback_trial","2","","","","","","","","","","","","","","","","","","","","",""
"","","","","","image-keyboard-response","232","818424","0.0-207.0","59d9d9cd8fd07a0001842484","665500ab8938657b03fbdba8","66579cbb3432e912fb494f81","2364","stimuli/0010110.jpg","1","","prediction_trial","0","","false","","0","false","false","true","true","false","false","[0]","010","110","0","","","","","","",""
"","","","","","image-keyboard-response","233","818888","0.0-208.0","59d9d9cd8fd07a0001842484","665500ab8938657b03fbdba8","66579cbb3432e912fb494f81","463","stimuli/00101100.jpg"," ","","feedback_trial","0","","","","","","","","","","","","","","","","","","","","",""
"","","","","","image-keyboard-response","234","820285","0.0-209.0","59d9d9cd8fd07a0001842484","665500ab8938657b03fbdba8","66579cbb3432e912fb494f81","1396","stimuli/0101010.jpg","0","","prediction_trial","2","","false","","0","true","true","false","false","false","false","[2,0]","101","010","0","","","","","","",""
"","","","","","image-keyboard-response","235","821772","0.0-210.0","59d9d9cd8fd07a0001842484","665500ab8938657b03fbdba8","66579cbb3432e912fb494f81","1486","stimuli/01010102.jpg"," ","","feedback_trial","2","","","","","","","","","","","","","","","","","","","","",""
"","","","","","image-keyboard-response","236","822408","0.0-211.0","59d9d9cd8fd07a0001842484","665500ab8938657b03fbdba8","66579cbb3432e912fb494f81","635","stimuli/0000001.jpg","0","","prediction_trial","0","","true","","0","true","true","true","true","true","true","[0]","000","001","1","","","","","","",""
"","","","","","image-keyboard-response","237","822688","0.0-212.0","59d9d9cd8fd07a0001842484","665500ab8938657b03fbdba8","66579cbb3432e912fb494f81","279","stimuli/00000010.jpg"," ","","feedback_trial","0","","","","","","","","","","","","","","","","","","","","",""
"","","","","","image-keyboard-response","238","824504","0.0-213.0","59d9d9cd8fd07a0001842484","665500ab8938657b03fbdba8","66579cbb3432e912fb494f81","1815","stimuli/0001111.jpg","2","","prediction_trial","0","","false","","0","false","false","true","true","false","false","[0]","001","111","0","","","","","","",""
"","","","","","image-keyboard-response","239","825008","0.0-214.0","59d9d9cd8fd07a0001842484","665500ab8938657b03fbdba8","66579cbb3432e912fb494f81","503","stimuli/00011110.jpg"," ","","feedback_trial","0","","","","","","","","","","","","","","","","","","","","",""
"","","","","","image-keyboard-response","240","826432","0.0-215.0","59d9d9cd8fd07a0001842484","665500ab8938657b03fbdba8","66579cbb3432e912fb494f81","1423","stimuli/0000110.jpg","0","","prediction_trial","0","","true","","0","false","false","true","true","false","false","[0]","000","110","1","","","","","","",""
"","","","","","image-keyboard-response","241","826868","0.0-216.0","59d9d9cd8fd07a0001842484","665500ab8938657b03fbdba8","66579cbb3432e912fb494f81","435","stimuli/00001100.jpg"," ","","feedback_trial","0","","","","","","","","","","","","","","","","","","","","",""
"","","","","","image-keyboard-response","242","847451","0.0-217.0","59d9d9cd8fd07a0001842484","665500ab8938657b03fbdba8","66579cbb3432e912fb494f81","20582","stimuli/0100101.jpg","2","","prediction_trial","0","","false","","0","false","false","false","true","false","false","[0]","100","101","0","","","","","","",""
"","","","","","image-keyboard-response","243","847915","0.0-218.0","59d9d9cd8fd07a0001842484","665500ab8938657b03fbdba8","66579cbb3432e912fb494f81","463","stimuli/01001010.jpg"," ","","feedback_trial","0","","","","","","","","","","","","","","","","","","","","",""
"","","","","","image-keyboard-response","244","851215","0.0-219.0","59d9d9cd8fd07a0001842484","665500ab8938657b03fbdba8","66579cbb3432e912fb494f81","3299","stimuli/1001010.jpg","1","","prediction_trial","1","","true","","1","false","true","true","true","false","true","[1]","001","010","1","","","","","","",""
"","","","","","image-keyboard-response","245","851547","0.0-220.0","59d9d9cd8fd07a0001842484","665500ab8938657b03fbdba8","66579cbb3432e912fb494f81","331","stimuli/10010101.jpg"," ","","feedback_trial","1","","","","","","","","","","","","","","","","","","","","",""
"","","","","","image-keyboard-response","246","852770","0.0-221.0","59d9d9cd8fd07a0001842484","665500ab8938657b03fbdba8","66579cbb3432e912fb494f81","1222","stimuli/2001000.jpg","2","","prediction_trial","2","","true","","2","true","true","false","true","false","true","[2]","001","000","1","","","","","","",""
"","","","","","image-keyboard-response","247","853075","0.0-222.0","59d9d9cd8fd07a0001842484","665500ab8938657b03fbdba8","66579cbb3432e912fb494f81","303","stimuli/20010002.jpg"," ","","feedback_trial","2","","","","","","","","","","","","","","","","","","","","",""
"","","","","","image-keyboard-response","248","854311","0.0-223.0","59d9d9cd8fd07a0001842484","665500ab8938657b03fbdba8","66579cbb3432e912fb494f81","1235","stimuli/1011011.jpg","2","","prediction_trial","2","","true","","1","false","false","false","false","false","false","[2,1]","011","011","1","","","","","","",""
"","","","","","image-keyboard-response","249","854702","0.0-224.0","59d9d9cd8fd07a0001842484","665500ab8938657b03fbdba8","66579cbb3432e912fb494f81","391","stimuli/10110112.jpg"," ","","feedback_trial","2","","","","","","","","","","","","","","","","","","","","",""
"","","","","","image-keyboard-response","250","855890","0.0-225.0","59d9d9cd8fd07a0001842484","665500ab8938657b03fbdba8","66579cbb3432e912fb494f81","1187","stimuli/2111100.jpg","2","","prediction_trial","2","","true","","2","true","true","false","false","false","false","[0,1,2]","111","100","1","","","","","","",""
"","","","","","image-keyboard-response","251","856247","0.0-226.0","59d9d9cd8fd07a0001842484","665500ab8938657b03fbdba8","66579cbb3432e912fb494f81","356","stimuli/21111002.jpg"," ","","feedback_trial","0","","","","","","","","","","","","","","","","","","","","",""
"","","","","","image-keyboard-response","252","857906","0.0-227.0","59d9d9cd8fd07a0001842484","665500ab8938657b03fbdba8","66579cbb3432e912fb494f81","1659","stimuli/2001101.jpg","2","","prediction_trial","2","","true","","2","false","false","false","true","false","false","[2]","001","101","1","","","","","","",""
"","","","","","image-keyboard-response","253","858247","0.0-228.0","59d9d9cd8fd07a0001842484","665500ab8938657b03fbdba8","66579cbb3432e912fb494f81","340","stimuli/20011012.jpg"," ","","feedback_trial","2","","","","","","","","","","","","","","","","","","","","",""
"","","","","","image-keyboard-response","254","859542","0.0-229.0","59d9d9cd8fd07a0001842484","665500ab8938657b03fbdba8","66579cbb3432e912fb494f81","1295","stimuli/0101111.jpg","2","","prediction_trial","0","","false","","0","false","false","false","false","false","false","[2,0]","101","111","0","","","","","","",""
"","","","","","image-keyboard-response","255","860199","0.0-230.0","59d9d9cd8fd07a0001842484","665500ab8938657b03fbdba8","66579cbb3432e912fb494f81","656","stimuli/01011110.jpg"," ","","feedback_trial","2","","","","","","","","","","","","","","","","","","","","",""
"","","","","","image-keyboard-response","256","862043","0.0-231.0","59d9d9cd8fd07a0001842484","665500ab8938657b03fbdba8","66579cbb3432e912fb494f81","1841","stimuli/2111001.jpg","2","","prediction_trial","1","","false","","2","false","true","false","false","false","false","[0,1,2]","111","001","0","","","","","","",""
"","","","","","image-keyboard-response","257","862610","0.0-232.0","59d9d9cd8fd07a0001842484","665500ab8938657b03fbdba8","66579cbb3432e912fb494f81","566","stimuli/21110011.jpg"," ","","feedback_trial","0","","","","","","","","","","","","","","","","","","","","",""
"","","","","","image-keyboard-response","258","863347","0.0-233.0","59d9d9cd8fd07a0001842484","665500ab8938657b03fbdba8","66579cbb3432e912fb494f81","735","stimuli/2000100.jpg","2","","prediction_trial","2","","true","","2","true","true","true","true","true","true","[2]","000","100","1","","","","","","",""
"","","","","","image-keyboard-response","259","863602","0.0-234.0","59d9d9cd8fd07a0001842484","665500ab8938657b03fbdba8","66579cbb3432e912fb494f81","254","stimuli/20001002.jpg"," ","","feedback_trial","2","","","","","","","","","","","","","","","","","","","","",""
"","","","","","image-keyboard-response","260","864194","0.0-235.0","59d9d9cd8fd07a0001842484","665500ab8938657b03fbdba8","66579cbb3432e912fb494f81","591","stimuli/2000010.jpg","2","","prediction_trial","2","","true","","2","true","true","true","true","true","true","[2]","000","010","1","","","","","","",""
"","","","","","image-keyboard-response","261","864438","0.0-236.0","59d9d9cd8fd07a0001842484","665500ab8938657b03fbdba8","66579cbb3432e912fb494f81","243","stimuli/20000102.jpg"," ","","feedback_trial","2","","","","","","","","","","","","","","","","","","","","",""
"","","","","","image-keyboard-response","262","866531","0.0-237.0","59d9d9cd8fd07a0001842484","665500ab8938657b03fbdba8","66579cbb3432e912fb494f81","2092","stimuli/1100011.jpg","1","","prediction_trial","1","","true","","1","false","false","true","true","false","false","[1]","100","011","1","","","","","","",""
"","","","","","image-keyboard-response","263","866874","0.0-238.0","59d9d9cd8fd07a0001842484","665500ab8938657b03fbdba8","66579cbb3432e912fb494f81","343","stimuli/11000111.jpg"," ","","feedback_trial","1","","","","","","","","","","","","","","","","","","","","",""
"","","","","","image-keyboard-response","264","869439","0.0-239.0","59d9d9cd8fd07a0001842484","665500ab8938657b03fbdba8","66579cbb3432e912fb494f81","2563","stimuli/2001111.jpg","2","","prediction_trial","2","","true","","2","false","false","false","true","false","false","[2]","001","111","1","","","","","","",""
"","","","","","image-keyboard-response","265","869870","0.0-240.0","59d9d9cd8fd07a0001842484","665500ab8938657b03fbdba8","66579cbb3432e912fb494f81","431","stimuli/20011112.jpg"," ","","feedback_trial","2","","","","","","","","","","","","","","","","","","","","",""
"","","","","","image-keyboard-response","266","872170","0.0-241.0","59d9d9cd8fd07a0001842484","665500ab8938657b03fbdba8","66579cbb3432e912fb494f81","2299","stimuli/0010111.jpg","1","","prediction_trial","0","","false","","0","false","false","true","true","false","false","[0]","010","111","0","","","","","","",""
"","","","","","image-keyboard-response","267","872699","0.0-242.0","59d9d9cd8fd07a0001842484","665500ab8938657b03fbdba8","66579cbb3432e912fb494f81","527","stimuli/00101110.jpg"," ","","feedback_trial","0","","","","","","","","","","","","","","","","","","","","",""
"","","","","","image-keyboard-response","268","873298","0.0-243.0","59d9d9cd8fd07a0001842484","665500ab8938657b03fbdba8","66579cbb3432e912fb494f81","598","stimuli/2100000.jpg","2","","prediction_trial","2","","true","","2","true","true","true","true","true","true","[2]","100","000","1","","","","","","",""
"","","","","","image-keyboard-response","269","873577","0.0-244.0","59d9d9cd8fd07a0001842484","665500ab8938657b03fbdba8","66579cbb3432e912fb494f81","278","stimuli/21000002.jpg"," ","","feedback_trial","2","","","","","","","","","","","","","","","","","","","","",""
"","","","","","image-keyboard-response","270","874150","0.0-245.0","59d9d9cd8fd07a0001842484","665500ab8938657b03fbdba8","66579cbb3432e912fb494f81","571","stimuli/1101100.jpg","1","","prediction_trial","1","","true","","1","true","true","true","true","true","true","[1]","101","100","1","","","","","","",""
"","","","","","image-keyboard-response","271","874346","0.0-246.0","59d9d9cd8fd07a0001842484","665500ab8938657b03fbdba8","66579cbb3432e912fb494f81","195","stimuli/11011001.jpg"," ","","feedback_trial","1","","","","","","","","","","","","","","","","","","","","",""
"","","","","","image-keyboard-response","272","878402","0.0-247.0","59d9d9cd8fd07a0001842484","665500ab8938657b03fbdba8","66579cbb3432e912fb494f81","4055","stimuli/0101110.jpg","0","","prediction_trial","2","","false","","0","false","false","false","false","false","false","[2,0]","101","110","0","","","","","","",""
"","","","","","image-keyboard-response","273","879305","0.0-248.0","59d9d9cd8fd07a0001842484","665500ab8938657b03fbdba8","66579cbb3432e912fb494f81","903","stimuli/01011102.jpg"," ","","feedback_trial","2","","","","","","","","","","","","","","","","","","","","",""
"","","","","","image-keyboard-response","274","882542","0.0-249.0","59d9d9cd8fd07a0001842484","665500ab8938657b03fbdba8","66579cbb3432e912fb494f81","3235","stimuli/2010011.jpg","2","","prediction_trial","2","","true","","2","false","false","true","true","false","false","[2]","010","011","1","","","","","","",""
"","","","","","image-keyboard-response","275","882950","0.0-250.0","59d9d9cd8fd07a0001842484","665500ab8938657b03fbdba8","66579cbb3432e912fb494f81","407","stimuli/20100112.jpg"," ","","feedback_trial","2","","","","","","","","","","","","","","","","","","","","",""
"","","","","","image-keyboard-response","276","883994","0.0-251.0","59d9d9cd8fd07a0001842484","665500ab8938657b03fbdba8","66579cbb3432e912fb494f81","1043","stimuli/2111101.jpg","2","","prediction_trial","1","","false","","2","false","false","false","false","false","false","[2,1,0]","111","101","0","","","","","","",""
"","","","","","image-keyboard-response","277","884510","0.0-252.0","59d9d9cd8fd07a0001842484","665500ab8938657b03fbdba8","66579cbb3432e912fb494f81","515","stimuli/21111011.jpg"," ","","feedback_trial","2","","","","","","","","","","","","","","","","","","","","",""
"","","","","","image-keyboard-response","278","885486","0.0-253.0","59d9d9cd8fd07a0001842484","665500ab8938657b03fbdba8","66579cbb3432e912fb494f81","975","stimuli/1010000.jpg","1","","prediction_trial","1","","true","","1","true","true","false","true","false","true","[1]","010","000","1","","","","","","",""
"","","","","","image-keyboard-response","279","885849","0.0-254.0","59d9d9cd8fd07a0001842484","665500ab8938657b03fbdba8","66579cbb3432e912fb494f81","363","stimuli/10100001.jpg"," ","","feedback_trial","1","","","","","","","","","","","","","","","","","","","","",""
"","","","","","image-keyboard-response","280","887738","0.0-255.0","59d9d9cd8fd07a0001842484","665500ab8938657b03fbdba8","66579cbb3432e912fb494f81","1887","stimuli/0110000.jpg","0","","prediction_trial","1","","false","","0","true","true","false","false","false","false","[1,0]","110","000","0","","","","","","",""
"","","","","","image-keyboard-response","281","888189","0.0-256.0","59d9d9cd8fd07a0001842484","665500ab8938657b03fbdba8","66579cbb3432e912fb494f81","451","stimuli/01100001.jpg"," ","","feedback_trial","1","","","","","","","","","","","","","","","","","","","","",""
"","","","","","image-keyboard-response","282","890230","0.0-257.0","59d9d9cd8fd07a0001842484","665500ab8938657b03fbdba8","66579cbb3432e912fb494f81","2040","stimuli/0100111.jpg","2","","prediction_trial","0","","false","","0","false","false","false","true","false","false","[0]","100","111","0","","","","","","",""
"","","","","","image-keyboard-response","283","890722","0.0-258.0","59d9d9cd8fd07a0001842484","665500ab8938657b03fbdba8","66579cbb3432e912fb494f81","491","stimuli/01001110.jpg"," ","","feedback_trial","0","","","","","","","","","","","","","","","","","","","","",""
"","","","","","image-keyboard-response","284","891342","0.0-259.0","59d9d9cd8fd07a0001842484","665500ab8938657b03fbdba8","66579cbb3432e912fb494f81","619","stimuli/0011010.jpg","0","","prediction_trial","0","","true","","0","true","true","true","true","true","true","[0]","011","010","1","","","","","","",""
"","","","","","image-keyboard-response","285","891794","0.0-260.0","59d9d9cd8fd07a0001842484","665500ab8938657b03fbdba8","66579cbb3432e912fb494f81","452","stimuli/00110100.jpg"," ","","feedback_trial","0","","","","","","","","","","","","","","","","","","","","",""
"","","","","","image-keyboard-response","286","892297","0.0-261.0","59d9d9cd8fd07a0001842484","665500ab8938657b03fbdba8","66579cbb3432e912fb494f81","503","stimuli/0100011.jpg","0","","prediction_trial","0","","true","","0","true","true","false","true","false","true","[0]","100","011","1","","","","","","",""
"","","","","","image-keyboard-response","287","892850","0.0-262.0","59d9d9cd8fd07a0001842484","665500ab8938657b03fbdba8","66579cbb3432e912fb494f81","552","stimuli/01000110.jpg"," ","","feedback_trial","0","","","","","","","","","","","","","","","","","","","","",""
"","","","","","image-keyboard-response","288","894445","0.0-263.0","59d9d9cd8fd07a0001842484","665500ab8938657b03fbdba8","66579cbb3432e912fb494f81","1594","stimuli/0111101.jpg","2","","prediction_trial","0","","false","","0","false","false","false","false","false","false","[1,2,0]","111","101","0","","","","","","",""
"","","","","","image-keyboard-response","289","895145","0.0-264.0","59d9d9cd8fd07a0001842484","665500ab8938657b03fbdba8","66579cbb3432e912fb494f81","699","stimuli/01111010.jpg"," ","","feedback_trial","1","","","","","","","","","","","","","","","","","","","","",""
"","","","","","image-keyboard-response","290","897033","0.0-265.0","59d9d9cd8fd07a0001842484","665500ab8938657b03fbdba8","66579cbb3432e912fb494f81","1886","stimuli/0011101.jpg","0","","prediction_trial","0","","true","","0","false","false","true","true","false","false","[0]","011","101","1","","","","","","",""
"","","","","","image-keyboard-response","291","897429","0.0-266.0","59d9d9cd8fd07a0001842484","665500ab8938657b03fbdba8","66579cbb3432e912fb494f81","395","stimuli/00111010.jpg"," ","","feedback_trial","0","","","","","","","","","","","","","","","","","","","","",""
"","","","","","image-keyboard-response","292","898781","0.0-267.0","59d9d9cd8fd07a0001842484","665500ab8938657b03fbdba8","66579cbb3432e912fb494f81","1351","stimuli/1101110.jpg","1","","prediction_trial","1","","true","","1","false","false","true","true","false","false","[1]","101","110","1","","","","","","",""
"","","","","","image-keyboard-response","293","899141","0.0-268.0","59d9d9cd8fd07a0001842484","665500ab8938657b03fbdba8","66579cbb3432e912fb494f81","359","stimuli/11011101.jpg"," ","","feedback_trial","1","","","","","","","","","","","","","","","","","","","","",""
"","","","","","image-keyboard-response","294","900133","0.0-269.0","59d9d9cd8fd07a0001842484","665500ab8938657b03fbdba8","66579cbb3432e912fb494f81","992","stimuli/1100010.jpg","1","","prediction_trial","1","","true","","1","false","true","true","true","false","true","[1]","100","010","1","","","","","","",""
"","","","","","image-keyboard-response","295","900577","0.0-270.0","59d9d9cd8fd07a0001842484","665500ab8938657b03fbdba8","66579cbb3432e912fb494f81","443","stimuli/11000101.jpg"," ","","feedback_trial","1","","","","","","","","","","","","","","","","","","","","",""
"","","","","","image-keyboard-response","296","902457","0.0-271.0","59d9d9cd8fd07a0001842484","665500ab8938657b03fbdba8","66579cbb3432e912fb494f81","1878","stimuli/2010010.jpg","2","","prediction_trial","2","","true","","2","true","true","true","true","true","true","[2]","010","010","1","","","","","","",""
"","","","","","image-keyboard-response","297","913465","0.0-272.0","59d9d9cd8fd07a0001842484","665500ab8938657b03fbdba8","66579cbb3432e912fb494f81","11007","stimuli/20100102.jpg"," ","","feedback_trial","2","","","","","","","","","","","","","","","","","","","","",""
"","","","","","image-keyboard-response","298","914593","0.0-273.0","59d9d9cd8fd07a0001842484","665500ab8938657b03fbdba8","66579cbb3432e912fb494f81","1127","stimuli/2110111.jpg","2","","prediction_trial","2","","true","","2","false","false","true","true","false","false","[2]","110","111","1","","","","","","",""
"","","","","","image-keyboard-response","299","915009","0.0-274.0","59d9d9cd8fd07a0001842484","665500ab8938657b03fbdba8","66579cbb3432e912fb494f81","415","stimuli/21101112.jpg"," ","","feedback_trial","2","","","","","","","","","","","","","","","","","","","","",""
"","","","","","image-keyboard-response","300","916048","0.0-275.0","59d9d9cd8fd07a0001842484","665500ab8938657b03fbdba8","66579cbb3432e912fb494f81","1039","stimuli/0011111.jpg","0","","prediction_trial","0","","true","","0","false","false","true","true","false","false","[0]","011","111","1","","","","","","",""
"","","","","","image-keyboard-response","301","916388","0.0-276.0","59d9d9cd8fd07a0001842484","665500ab8938657b03fbdba8","66579cbb3432e912fb494f81","338","stimuli/00111110.jpg"," ","","feedback_trial","0","","","","","","","","","","","","","","","","","","","","",""
"","","","","","image-keyboard-response","302","917240","0.0-277.0","59d9d9cd8fd07a0001842484","665500ab8938657b03fbdba8","66579cbb3432e912fb494f81","851","stimuli/2010111.jpg","0","","prediction_trial","2","","false","","2","false","false","true","true","false","false","[2]","010","111","0","","","","","","",""
"","","","","","image-keyboard-response","303","917700","0.0-278.0","59d9d9cd8fd07a0001842484","665500ab8938657b03fbdba8","66579cbb3432e912fb494f81","459","stimuli/20101112.jpg"," ","","feedback_trial","2","","","","","","","","","","","","","","","","","","","","",""
"","","","","","image-keyboard-response","304","919028","0.0-279.0","59d9d9cd8fd07a0001842484","665500ab8938657b03fbdba8","66579cbb3432e912fb494f81","1328","stimuli/2001100.jpg","2","","prediction_trial","2","","true","","2","true","true","false","true","false","true","[2]","001","100","1","","","","","","",""
"","","","","","image-keyboard-response","305","919372","0.0-280.0","59d9d9cd8fd07a0001842484","665500ab8938657b03fbdba8","66579cbb3432e912fb494f81","343","stimuli/20011002.jpg"," ","","feedback_trial","2","","","","","","","","","","","","","","","","","","","","",""
"","","","","","image-keyboard-response","306","920092","0.0-281.0","59d9d9cd8fd07a0001842484","665500ab8938657b03fbdba8","66579cbb3432e912fb494f81","719","stimuli/2010100.jpg","2","","prediction_trial","2","","true","","2","true","true","true","true","true","true","[2]","010","100","1","","","","","","",""
"","","","","","image-keyboard-response","307","920320","0.0-282.0","59d9d9cd8fd07a0001842484","665500ab8938657b03fbdba8","66579cbb3432e912fb494f81","226","stimuli/20101002.jpg"," ","","feedback_trial","2","","","","","","","","","","","","","","","","","","","","",""
"","","","","","image-keyboard-response","308","921416","0.0-283.0","59d9d9cd8fd07a0001842484","665500ab8938657b03fbdba8","66579cbb3432e912fb494f81","1096","stimuli/1010010.jpg","1","","prediction_trial","1","","true","","1","false","true","false","true","false","true","[1]","010","010","1","","","","","","",""
"","","","","","image-keyboard-response","309","921684","0.0-284.0","59d9d9cd8fd07a0001842484","665500ab8938657b03fbdba8","66579cbb3432e912fb494f81","267","stimuli/10100101.jpg"," ","","feedback_trial","1","","","","","","","","","","","","","","","","","","","","",""
"","","","","","image-keyboard-response","310","922268","0.0-285.0","59d9d9cd8fd07a0001842484","665500ab8938657b03fbdba8","66579cbb3432e912fb494f81","583","stimuli/2110000.jpg","2","","prediction_trial","2","","true","","2","true","true","true","true","true","true","[2]","110","000","1","","","","","","",""
"","","","","","image-keyboard-response","311","922656","0.0-286.0","59d9d9cd8fd07a0001842484","665500ab8938657b03fbdba8","66579cbb3432e912fb494f81","387","stimuli/21100002.jpg"," ","","feedback_trial","2","","","","","","","","","","","","","","","","","","","","",""
"","","","","","image-keyboard-response","312","924560","0.0-287.0","59d9d9cd8fd07a0001842484","665500ab8938657b03fbdba8","66579cbb3432e912fb494f81","1902","stimuli/2011010.jpg","2","","prediction_trial","1","","false","","2","true","true","false","false","false","false","[2,1]","011","010","0","","","","","","",""
"","","","","","image-keyboard-response","313","925584","0.0-288.0","59d9d9cd8fd07a0001842484","665500ab8938657b03fbdba8","66579cbb3432e912fb494f81","1023","stimuli/20110101.jpg"," ","","feedback_trial","2","","","","","","","","","","","","","","","","","","","","",""
"","","","","","image-keyboard-response","314","926124","0.0-289.0","59d9d9cd8fd07a0001842484","665500ab8938657b03fbdba8","66579cbb3432e912fb494f81","539","stimuli/2110010.jpg","2","","prediction_trial","2","","true","","2","true","true","true","true","true","true","[2]","110","010","1","","","","","","",""
"","","","","","image-keyboard-response","315","926480","0.0-290.0","59d9d9cd8fd07a0001842484","665500ab8938657b03fbdba8","66579cbb3432e912fb494f81","355","stimuli/21100102.jpg"," ","","feedback_trial","2","","","","","","","","","","","","","","","","","","","","",""
"","","","","","image-keyboard-response","316","927040","0.0-291.0","59d9d9cd8fd07a0001842484","665500ab8938657b03fbdba8","66579cbb3432e912fb494f81","559","stimuli/0001010.jpg","0","","prediction_trial","0","","true","","0","true","true","true","true","true","true","[0]","001","010","1","","","","","","",""
"","","","","","image-keyboard-response","317","927344","0.0-292.0","59d9d9cd8fd07a0001842484","665500ab8938657b03fbdba8","66579cbb3432e912fb494f81","304","stimuli/00010100.jpg"," ","","feedback_trial","0","","","","","","","","","","","","","","","","","","","","",""
"","","","","","survey-html-form","318","1016661","0.0-293.0","59d9d9cd8fd07a0001842484","665500ab8938657b03fbdba8","66579cbb3432e912fb494f81","89315","","{""feedback"":""I figured that he had a preference for choosing the outsides when he couldn't see the ball and would usually start with my right then swap to the left side if it was two in a row that were obscured to him but sometimes he would inexplicably go for the middle"",""age"":""30"",""gender"":""Male"",""other_gender"":"""",""race"":""White"",""other_race"":"""",""ethnicity"":""Hispanic""}","","exit_survey","","","","","","","","","","","","","","","","I figured that he had a preference for choosing the outsides when he couldn't see the ball and would usually start with my right then swap to the left side if it was two in a row that were obscured to him but sometimes he would inexplicably go for the middle","30","Hispanic","Male","White","0.6597222222222222","0.6597222222222222"
