"success","timeout","failed_images","failed_audio","failed_video","trial_type","trial_index","time_elapsed","internal_node_id","prolific_id","prolific_study_id","prolific_session_id","rt","stimulus","response","view_history","trial","character_choice","stimulus_dict","accuracy","correct_response","ball_pos","ego_ball_visible","ego_can_infer","alter_ball_visible","alter_can_infer","collective_ball_visible","collective_can_infer","search_locations","alter_occluders","ego_occluders","accuracy_bool","feedback","age","ethnicity","gender","race","overall_accuracy","bonus"
"true","false","[]","[]","[]","preload","0","9649","0.0-0.0","5c39849b19ceb400010c62a1","665500ab8938657b03fbdba8","6657727daefcd1f383a69d27","","","","","","","","","","","","","","","","","","","","","","","","","","",""
"true","","","","","fullscreen","1","11972","0.0-1.0","5c39849b19ceb400010c62a1","665500ab8938657b03fbdba8","6657727daefcd1f383a69d27","","","","","","","","","","","","","","","","","","","","","","","","","","",""
"","","","","","html-button-response","2","13638","0.0-2.0","5c39849b19ceb400010c62a1","665500ab8938657b03fbdba8","6657727daefcd1f383a69d27","1663","<p><b>Consent Form</b></p> <div style=""text-align:left;background-color:lightgrey; padding:20px; max-width:900px;""><p>Please consider this information carefully before deciding whether to participate in this research.</p> <p>The purpose of this research is to examine which factors influence social judgment and decision-making. You will be asked to make judgements about individuals and actions in social scenarios. We are simply interested in your judgement. The study will take less than 1 hour to complete, and you will receive less than $20 on Prolific. Your compensation and time commitment are specified in the study description. There are no anticipated risks associated with participating in this study. The effects of participating should be comparable to those you would ordinarily experience from viewing a computer monitor and using a mouse or keyboard for a similar amount of time. At the end of the study, we will provide an explanation of the questions that motivate this line of research and will describe the potential implications. </p><p> Your participation in this study is completely voluntary and you may refuse to participate or you may choose to withdraw at any time without penalty or loss of benefits to you which are otherwise entitled. Your participation in this study will remain confidential. No personally identifiable information will be associated with your data. Also, all analyses of the data will be averaged across all the participants, so your individual responses will never be specifically analyzed. </p><p> If you have questions or concerns about your participation or payment, or want to request a summary of research findings, please contact Dr. Jonathan Phillips at Jonathan.S.Phillips@dartmouth.edu. </p><p> Please save a copy of this form for your records. </p><p><b>Agreement: </b>The nature and purpose of this research have been sufficiently explained and I agree to participate in this study. I understand that I am free to withdraw at any time without incurring any penalty. Please consent by clicking the button below to continue. Otherwise, please exit the study at any time. </p>","0","","","","","","","","","","","","","","","","","","","","","","","",""
"","","","","","instructions","3","205912","0.0-3.0-0.0","5c39849b19ceb400010c62a1","665500ab8938657b03fbdba8","6657727daefcd1f383a69d27","192281","","","[{""page_index"":0,""viewing_time"":1316},{""page_index"":1,""viewing_time"":1686},{""page_index"":2,""viewing_time"":1831},{""page_index"":3,""viewing_time"":5506},{""page_index"":4,""viewing_time"":1271},{""page_index"":5,""viewing_time"":1846},{""page_index"":6,""viewing_time"":154113},{""page_index"":7,""viewing_time"":2285},{""page_index"":8,""viewing_time"":2278},{""page_index"":9,""viewing_time"":1343},{""page_index"":10,""viewing_time"":12205},{""page_index"":11,""viewing_time"":3419},{""page_index"":12,""viewing_time"":2022},{""page_index"":13,""viewing_time"":1158}]","intro","","","","","","","","","","","","","","","","","","","","","",""
"","","","","","image-keyboard-response","4","208721","0.0-3.0-1.0","5c39849b19ceb400010c62a1","665500ab8938657b03fbdba8","6657727daefcd1f383a69d27","2793","stimuli/2100001.jpg","1","","prediction_practice","2","{""filepath"":""stimuli/2100001.jpg"",""ball_pos"":2,""ego_ball_visible"":false,""ego_can_infer"":true,""alter_ball_visible"":true,""alter_can_infer"":true,""collective_ball_visible"":false,""collective_can_infer"":true,""search_locations"":[2],""alter_occluders"":""100"",""ego_occluders"":""001""}","false","","","","","","","","","","","","","","","","","","",""
"","","","","","image-keyboard-response","5","211473","0.0-3.0-2.0","5c39849b19ceb400010c62a1","665500ab8938657b03fbdba8","6657727daefcd1f383a69d27","2750","stimuli/21000012.jpg"," ","","practrice_feedback","2","","","","","","","","","","","","","","","","","","","","",""
"","","","","","image-keyboard-response","6","212995","0.0-3.0-3.0","5c39849b19ceb400010c62a1","665500ab8938657b03fbdba8","6657727daefcd1f383a69d27","1520","stimuli/0000011.jpg","0","","prediction_practice","0","{""filepath"":""stimuli/0000011.jpg"",""ball_pos"":0,""ego_ball_visible"":true,""ego_can_infer"":true,""alter_ball_visible"":true,""alter_can_infer"":true,""collective_ball_visible"":true,""collective_can_infer"":true,""search_locations"":[0],""alter_occluders"":""000"",""ego_occluders"":""011""}","true","","","","","","","","","","","","","","","","","","",""
"","","","","","image-keyboard-response","7","214833","0.0-3.0-4.0","5c39849b19ceb400010c62a1","665500ab8938657b03fbdba8","6657727daefcd1f383a69d27","1837","stimuli/00000110.jpg"," ","","practrice_feedback","0","","","","","","","","","","","","","","","","","","","","",""
"","","","","","image-keyboard-response","8","219258","0.0-3.0-5.0","5c39849b19ceb400010c62a1","665500ab8938657b03fbdba8","6657727daefcd1f383a69d27","4423","stimuli/2110101.jpg","1","","prediction_practice","2","{""filepath"":""stimuli/2110101.jpg"",""ball_pos"":2,""ego_ball_visible"":false,""ego_can_infer"":false,""alter_ball_visible"":true,""alter_can_infer"":true,""collective_ball_visible"":false,""collective_can_infer"":false,""search_locations"":[2],""alter_occluders"":""110"",""ego_occluders"":""101""}","false","","","","","","","","","","","","","","","","","","",""
"","","","","","image-keyboard-response","9","221143","0.0-3.0-6.0","5c39849b19ceb400010c62a1","665500ab8938657b03fbdba8","6657727daefcd1f383a69d27","1883","stimuli/21101012.jpg"," ","","practrice_feedback","2","","","","","","","","","","","","","","","","","","","","",""
"","","","","","image-keyboard-response","10","222340","0.0-3.0-7.0","5c39849b19ceb400010c62a1","665500ab8938657b03fbdba8","6657727daefcd1f383a69d27","1196","stimuli/2100100.jpg","2","","prediction_practice","2","{""filepath"":""stimuli/2100100.jpg"",""ball_pos"":2,""ego_ball_visible"":true,""ego_can_infer"":true,""alter_ball_visible"":true,""alter_can_infer"":true,""collective_ball_visible"":true,""collective_can_infer"":true,""search_locations"":[2],""alter_occluders"":""100"",""ego_occluders"":""100""}","true","","","","","","","","","","","","","","","","","","",""
"","","","","","image-keyboard-response","11","223262","0.0-3.0-8.0","5c39849b19ceb400010c62a1","665500ab8938657b03fbdba8","6657727daefcd1f383a69d27","913","stimuli/21001002.jpg"," ","","practrice_feedback","2","","","","","","","","","","","","","","","","","","","","",""
"","","","","","image-keyboard-response","12","228074","0.0-3.0-9.0","5c39849b19ceb400010c62a1","665500ab8938657b03fbdba8","6657727daefcd1f383a69d27","4810","stimuli/1100011.jpg","0","","prediction_practice","1","{""filepath"":""stimuli/1100011.jpg"",""ball_pos"":1,""ego_ball_visible"":false,""ego_can_infer"":false,""alter_ball_visible"":true,""alter_can_infer"":true,""collective_ball_visible"":false,""collective_can_infer"":false,""search_locations"":[1],""alter_occluders"":""100"",""ego_occluders"":""011""}","false","","","","","","","","","","","","","","","","","","",""
"","","","","","image-keyboard-response","13","230840","0.0-3.0-10.0","5c39849b19ceb400010c62a1","665500ab8938657b03fbdba8","6657727daefcd1f383a69d27","2764","stimuli/11000111.jpg"," ","","practrice_feedback","1","","","","","","","","","","","","","","","","","","","","",""
"","","","","","image-keyboard-response","14","234834","0.0-3.0-11.0","5c39849b19ceb400010c62a1","665500ab8938657b03fbdba8","6657727daefcd1f383a69d27","3993","stimuli/0110101.jpg","2","","prediction_practice","0","{""filepath"":""stimuli/0110101.jpg"",""ball_pos"":0,""ego_ball_visible"":false,""ego_can_infer"":false,""alter_ball_visible"":false,""alter_can_infer"":false,""collective_ball_visible"":false,""collective_can_infer"":false,""search_locations"":[0,1],""alter_occluders"":""110"",""ego_occluders"":""101""}","false","","","","","","","","","","","","","","","","","","",""
"","","","","","image-keyboard-response","15","235942","0.0-3.0-12.0","5c39849b19ceb400010c62a1","665500ab8938657b03fbdba8","6657727daefcd1f383a69d27","1107","stimuli/01101010.jpg"," ","","practrice_feedback","0","","","","","","","","","","","","","","","","","","","","",""
"","","","","","image-keyboard-response","16","239407","0.0-3.0-13.0","5c39849b19ceb400010c62a1","665500ab8938657b03fbdba8","6657727daefcd1f383a69d27","3463","stimuli/2101010.jpg","0","","prediction_practice","2","{""filepath"":""stimuli/2101010.jpg"",""ball_pos"":2,""ego_ball_visible"":true,""ego_can_infer"":true,""alter_ball_visible"":false,""alter_can_infer"":false,""collective_ball_visible"":false,""collective_can_infer"":false,""search_locations"":[2,0],""alter_occluders"":""101"",""ego_occluders"":""010""}","false","","","","","","","","","","","","","","","","","","",""
"","","","","","image-keyboard-response","17","240376","0.0-3.0-14.0","5c39849b19ceb400010c62a1","665500ab8938657b03fbdba8","6657727daefcd1f383a69d27","968","stimuli/21010102.jpg"," ","","practrice_feedback","2","","","","","","","","","","","","","","","","","","","","",""
"","","","","","image-keyboard-response","18","243651","0.0-3.0-15.0","5c39849b19ceb400010c62a1","665500ab8938657b03fbdba8","6657727daefcd1f383a69d27","3273","stimuli/2011011.jpg","2","","prediction_practice","1","{""filepath"":""stimuli/2011011.jpg"",""ball_pos"":2,""ego_ball_visible"":false,""ego_can_infer"":false,""alter_ball_visible"":false,""alter_can_infer"":false,""collective_ball_visible"":false,""collective_can_infer"":false,""search_locations"":[1,2],""alter_occluders"":""011"",""ego_occluders"":""011""}","false","","","","","","","","","","","","","","","","","","",""
"","","","","","image-keyboard-response","19","244570","0.0-3.0-16.0","5c39849b19ceb400010c62a1","665500ab8938657b03fbdba8","6657727daefcd1f383a69d27","918","stimuli/20110111.jpg"," ","","practrice_feedback","1","","","","","","","","","","","","","","","","","","","","",""
"","","","","","image-keyboard-response","20","245971","0.0-3.0-17.0","5c39849b19ceb400010c62a1","665500ab8938657b03fbdba8","6657727daefcd1f383a69d27","1400","stimuli/0011101.jpg","1","","prediction_practice","0","{""filepath"":""stimuli/0011101.jpg"",""ball_pos"":0,""ego_ball_visible"":false,""ego_can_infer"":false,""alter_ball_visible"":true,""alter_can_infer"":true,""collective_ball_visible"":false,""collective_can_infer"":false,""search_locations"":[0],""alter_occluders"":""011"",""ego_occluders"":""101""}","false","","","","","","","","","","","","","","","","","","",""
"","","","","","image-keyboard-response","21","246654","0.0-3.0-18.0","5c39849b19ceb400010c62a1","665500ab8938657b03fbdba8","6657727daefcd1f383a69d27","681","stimuli/00111010.jpg"," ","","practrice_feedback","0","","","","","","","","","","","","","","","","","","","","",""
"","","","","","image-keyboard-response","22","249193","0.0-3.0-19.0","5c39849b19ceb400010c62a1","665500ab8938657b03fbdba8","6657727daefcd1f383a69d27","2537","stimuli/1101110.jpg","1","","prediction_practice","1","{""filepath"":""stimuli/1101110.jpg"",""ball_pos"":1,""ego_ball_visible"":false,""ego_can_infer"":false,""alter_ball_visible"":true,""alter_can_infer"":true,""collective_ball_visible"":false,""collective_can_infer"":false,""search_locations"":[1],""alter_occluders"":""101"",""ego_occluders"":""110""}","true","","","","","","","","","","","","","","","","","","",""
"","","","","","image-keyboard-response","23","249723","0.0-3.0-20.0","5c39849b19ceb400010c62a1","665500ab8938657b03fbdba8","6657727daefcd1f383a69d27","529","stimuli/11011101.jpg"," ","","practrice_feedback","1","","","","","","","","","","","","","","","","","","","","",""
"","","","","","html-button-response","24","543130","0.0-3.0-21.0","5c39849b19ceb400010c62a1","665500ab8938657b03fbdba8","6657727daefcd1f383a69d27","293397","Now that you've had some practice, you'll be tested with a couple of easy trials. If you correctly predict Sam's choice, you'll move on to complete the experiment!","0","","","","","","","","","","","","","","","","","","","","","","","",""
"","","","","","image-keyboard-response","25","545063","0.0-3.0-22.0-0.0","5c39849b19ceb400010c62a1","665500ab8938657b03fbdba8","6657727daefcd1f383a69d27","1928","stimuli/0000011.jpg","arrowleft","","comprehension_quiz","","","true","arrowleft","","","","","","","","","","","","","","","","","",""
"","","","","","image-keyboard-response","26","546157","0.0-3.0-22.0-1.0","5c39849b19ceb400010c62a1","665500ab8938657b03fbdba8","6657727daefcd1f383a69d27","1091","stimuli/00000110.jpg"," ","","comprehension_quiz","","","true"," ","","","","","","","","","","","","","","","","","",""
"","","","","","image-keyboard-response","27","548492","0.0-3.0-22.0-2.0","5c39849b19ceb400010c62a1","665500ab8938657b03fbdba8","6657727daefcd1f383a69d27","2333","stimuli/1010010.jpg","arrowdown","","comprehension_quiz","","","true","arrowdown","","","","","","","","","","","","","","","","","",""
"","","","","","image-keyboard-response","28","549148","0.0-3.0-22.0-3.0","5c39849b19ceb400010c62a1","665500ab8938657b03fbdba8","6657727daefcd1f383a69d27","655","stimuli/10100101.jpg"," ","","comprehension_quiz","","","true"," ","","","","","","","","","","","","","","","","","",""
"","","","","","html-button-response","29","589995","0.0-4.0","5c39849b19ceb400010c62a1","665500ab8938657b03fbdba8","6657727daefcd1f383a69d27","40842","The experiment will now begin.","0","","","","","","","","","","","","","","","","","","","","","","","",""
"","","","","","image-keyboard-response","30","596342","0.0-5.0","5c39849b19ceb400010c62a1","665500ab8938657b03fbdba8","6657727daefcd1f383a69d27","6345","stimuli/2101111.jpg","0","","prediction_trial","0","","true","","2","false","false","false","false","false","false","[2,0]","101","111","1","","","","","","",""
"","","","","","image-keyboard-response","31","597299","0.0-6.0","5c39849b19ceb400010c62a1","665500ab8938657b03fbdba8","6657727daefcd1f383a69d27","947","stimuli/21011110.jpg"," ","","feedback_trial","2","","","","","","","","","","","","","","","","","","","","",""
"","","","","","image-keyboard-response","32","602136","0.0-7.0","5c39849b19ceb400010c62a1","665500ab8938657b03fbdba8","6657727daefcd1f383a69d27","4836","stimuli/1011000.jpg","1","","prediction_trial","1","","true","","1","true","true","false","false","false","false","[2,1]","011","000","1","","","","","","",""
"","","","","","image-keyboard-response","33","602718","0.0-8.0","5c39849b19ceb400010c62a1","665500ab8938657b03fbdba8","6657727daefcd1f383a69d27","580","stimuli/10110001.jpg"," ","","feedback_trial","2","","","","","","","","","","","","","","","","","","","","",""
"","","","","","image-keyboard-response","34","609873","0.0-9.0","5c39849b19ceb400010c62a1","665500ab8938657b03fbdba8","6657727daefcd1f383a69d27","7154","stimuli/2111010.jpg","0","","prediction_trial","2","","false","","2","true","true","false","false","false","false","[1,0,2]","111","010","0","","","","","","",""
"","","","","","image-keyboard-response","35","611476","0.0-10.0","5c39849b19ceb400010c62a1","665500ab8938657b03fbdba8","6657727daefcd1f383a69d27","1602","stimuli/21110102.jpg"," ","","feedback_trial","1","","","","","","","","","","","","","","","","","","","","",""
"","","","","","image-keyboard-response","36","614750","0.0-11.0","5c39849b19ceb400010c62a1","665500ab8938657b03fbdba8","6657727daefcd1f383a69d27","3272","stimuli/1101010.jpg","1","","prediction_trial","1","","true","","1","false","true","true","true","false","true","[1]","101","010","1","","","","","","",""
"","","","","","image-keyboard-response","37","615578","0.0-12.0","5c39849b19ceb400010c62a1","665500ab8938657b03fbdba8","6657727daefcd1f383a69d27","827","stimuli/11010101.jpg"," ","","feedback_trial","1","","","","","","","","","","","","","","","","","","","","",""
"","","","","","image-keyboard-response","38","619322","0.0-13.0","5c39849b19ceb400010c62a1","665500ab8938657b03fbdba8","6657727daefcd1f383a69d27","3743","stimuli/1111110.jpg","0","","prediction_trial","1","","false","","1","false","false","false","false","false","false","[0,1,2]","111","110","0","","","","","","",""
"","","","","","image-keyboard-response","39","620157","0.0-14.0","5c39849b19ceb400010c62a1","665500ab8938657b03fbdba8","6657727daefcd1f383a69d27","833","stimuli/11111101.jpg"," ","","feedback_trial","0","","","","","","","","","","","","","","","","","","","","",""
"","","","","","image-keyboard-response","40","624446","0.0-15.0","5c39849b19ceb400010c62a1","665500ab8938657b03fbdba8","6657727daefcd1f383a69d27","4288","stimuli/2101001.jpg","2","","prediction_trial","2","","true","","2","false","true","false","false","false","false","[2,0]","101","001","1","","","","","","",""
"","","","","","image-keyboard-response","41","624956","0.0-16.0","5c39849b19ceb400010c62a1","665500ab8938657b03fbdba8","6657727daefcd1f383a69d27","509","stimuli/21010012.jpg"," ","","feedback_trial","2","","","","","","","","","","","","","","","","","","","","",""
"","","","","","image-keyboard-response","42","627841","0.0-17.0","5c39849b19ceb400010c62a1","665500ab8938657b03fbdba8","6657727daefcd1f383a69d27","2882","stimuli/0101011.jpg","0","","prediction_trial","2","","false","","0","true","true","false","false","false","false","[2,0]","101","011","0","","","","","","",""
"","","","","","image-keyboard-response","43","630964","0.0-18.0","5c39849b19ceb400010c62a1","665500ab8938657b03fbdba8","6657727daefcd1f383a69d27","3122","stimuli/01010112.jpg"," ","","feedback_trial","2","","","","","","","","","","","","","","","","","","","","",""
"","","","","","image-keyboard-response","44","634665","0.0-19.0","5c39849b19ceb400010c62a1","665500ab8938657b03fbdba8","6657727daefcd1f383a69d27","3699","stimuli/1110100.jpg","1","","prediction_trial","0","","false","","1","true","true","false","false","false","false","[1,0]","110","100","0","","","","","","",""
"","","","","","image-keyboard-response","45","635256","0.0-20.0","5c39849b19ceb400010c62a1","665500ab8938657b03fbdba8","6657727daefcd1f383a69d27","589","stimuli/11101000.jpg"," ","","feedback_trial","1","","","","","","","","","","","","","","","","","","","","",""
"","","","","","image-keyboard-response","46","637682","0.0-21.0","5c39849b19ceb400010c62a1","665500ab8938657b03fbdba8","6657727daefcd1f383a69d27","2425","stimuli/0101000.jpg","0","","prediction_trial","0","","true","","0","true","true","false","false","false","false","[0,2]","101","000","1","","","","","","",""
"","","","","","image-keyboard-response","47","638318","0.0-22.0","5c39849b19ceb400010c62a1","665500ab8938657b03fbdba8","6657727daefcd1f383a69d27","635","stimuli/01010000.jpg"," ","","feedback_trial","0","","","","","","","","","","","","","","","","","","","","",""
"","","","","","image-keyboard-response","48","640223","0.0-23.0","5c39849b19ceb400010c62a1","665500ab8938657b03fbdba8","6657727daefcd1f383a69d27","1904","stimuli/1100100.jpg","1","","prediction_trial","1","","true","","1","true","true","true","true","true","true","[1]","100","100","1","","","","","","",""
"","","","","","image-keyboard-response","49","641108","0.0-24.0","5c39849b19ceb400010c62a1","665500ab8938657b03fbdba8","6657727daefcd1f383a69d27","884","stimuli/11001001.jpg"," ","","feedback_trial","1","","","","","","","","","","","","","","","","","","","","",""
"","","","","","image-keyboard-response","50","642207","0.0-25.0","5c39849b19ceb400010c62a1","665500ab8938657b03fbdba8","6657727daefcd1f383a69d27","1098","stimuli/2010100.jpg","2","","prediction_trial","2","","true","","2","true","true","true","true","true","true","[2]","010","100","1","","","","","","",""
"","","","","","image-keyboard-response","51","642745","0.0-26.0","5c39849b19ceb400010c62a1","665500ab8938657b03fbdba8","6657727daefcd1f383a69d27","536","stimuli/20101002.jpg"," ","","feedback_trial","2","","","","","","","","","","","","","","","","","","","","",""
"","","","","","image-keyboard-response","52","647541","0.0-27.0","5c39849b19ceb400010c62a1","665500ab8938657b03fbdba8","6657727daefcd1f383a69d27","4794","stimuli/2010111.jpg","0","","prediction_trial","2","","false","","2","false","false","true","true","false","false","[2]","010","111","0","","","","","","",""
"","","","","","image-keyboard-response","53","648172","0.0-28.0","5c39849b19ceb400010c62a1","665500ab8938657b03fbdba8","6657727daefcd1f383a69d27","630","stimuli/20101112.jpg"," ","","feedback_trial","2","","","","","","","","","","","","","","","","","","","","",""
"","","","","","image-keyboard-response","54","651060","0.0-29.0","5c39849b19ceb400010c62a1","665500ab8938657b03fbdba8","6657727daefcd1f383a69d27","2886","stimuli/0101001.jpg","0","","prediction_trial","0","","true","","0","true","true","false","false","false","false","[0,2]","101","001","1","","","","","","",""
"","","","","","image-keyboard-response","55","651769","0.0-30.0","5c39849b19ceb400010c62a1","665500ab8938657b03fbdba8","6657727daefcd1f383a69d27","707","stimuli/01010010.jpg"," ","","feedback_trial","0","","","","","","","","","","","","","","","","","","","","",""
"","","","","","image-keyboard-response","56","660175","0.0-31.0","5c39849b19ceb400010c62a1","665500ab8938657b03fbdba8","6657727daefcd1f383a69d27","8404","stimuli/2101101.jpg","0","","prediction_trial","2","","false","","2","false","false","false","false","false","false","[0,2]","101","101","0","","","","","","",""
"","","","","","image-keyboard-response","57","661012","0.0-32.0","5c39849b19ceb400010c62a1","665500ab8938657b03fbdba8","6657727daefcd1f383a69d27","836","stimuli/21011012.jpg"," ","","feedback_trial","0","","","","","","","","","","","","","","","","","","","","",""
"","","","","","image-keyboard-response","58","663326","0.0-33.0","5c39849b19ceb400010c62a1","665500ab8938657b03fbdba8","6657727daefcd1f383a69d27","2313","stimuli/1100010.jpg","1","","prediction_trial","1","","true","","1","false","true","true","true","false","true","[1]","100","010","1","","","","","","",""
"","","","","","image-keyboard-response","59","663892","0.0-34.0","5c39849b19ceb400010c62a1","665500ab8938657b03fbdba8","6657727daefcd1f383a69d27","565","stimuli/11000101.jpg"," ","","feedback_trial","1","","","","","","","","","","","","","","","","","","","","",""
"","","","","","image-keyboard-response","60","665658","0.0-35.0","5c39849b19ceb400010c62a1","665500ab8938657b03fbdba8","6657727daefcd1f383a69d27","1765","stimuli/1001100.jpg","1","","prediction_trial","1","","true","","1","true","true","true","true","true","true","[1]","001","100","1","","","","","","",""
"","","","","","image-keyboard-response","61","666655","0.0-36.0","5c39849b19ceb400010c62a1","665500ab8938657b03fbdba8","6657727daefcd1f383a69d27","995","stimuli/10011001.jpg"," ","","feedback_trial","1","","","","","","","","","","","","","","","","","","","","",""
"","","","","","image-keyboard-response","62","668548","0.0-37.0","5c39849b19ceb400010c62a1","665500ab8938657b03fbdba8","6657727daefcd1f383a69d27","1892","stimuli/2100001.jpg","2","","prediction_trial","2","","true","","2","false","true","true","true","false","true","[2]","100","001","1","","","","","","",""
"","","","","","image-keyboard-response","63","669405","0.0-38.0","5c39849b19ceb400010c62a1","665500ab8938657b03fbdba8","6657727daefcd1f383a69d27","856","stimuli/21000012.jpg"," ","","feedback_trial","2","","","","","","","","","","","","","","","","","","","","",""
"","","","","","image-keyboard-response","64","678898","0.0-39.0","5c39849b19ceb400010c62a1","665500ab8938657b03fbdba8","6657727daefcd1f383a69d27","9492","stimuli/1110001.jpg","1","","prediction_trial","1","","true","","1","true","true","false","false","false","false","[1,0]","110","001","1","","","","","","",""
"","","","","","image-keyboard-response","65","679498","0.0-40.0","5c39849b19ceb400010c62a1","665500ab8938657b03fbdba8","6657727daefcd1f383a69d27","599","stimuli/11100011.jpg"," ","","feedback_trial","1","","","","","","","","","","","","","","","","","","","","",""
"","","","","","image-keyboard-response","66","680593","0.0-41.0","5c39849b19ceb400010c62a1","665500ab8938657b03fbdba8","6657727daefcd1f383a69d27","1093","stimuli/1001101.jpg","1","","prediction_trial","1","","true","","1","true","true","true","true","true","true","[1]","001","101","1","","","","","","",""
"","","","","","image-keyboard-response","67","681059","0.0-42.0","5c39849b19ceb400010c62a1","665500ab8938657b03fbdba8","6657727daefcd1f383a69d27","457","stimuli/10011011.jpg"," ","","feedback_trial","1","","","","","","","","","","","","","","","","","","","","",""
"","","","","","image-keyboard-response","68","682350","0.0-43.0","5c39849b19ceb400010c62a1","665500ab8938657b03fbdba8","6657727daefcd1f383a69d27","1289","stimuli/2001001.jpg","2","","prediction_trial","2","","true","","2","false","true","false","true","false","true","[2]","001","001","1","","","","","","",""
"","","","","","image-keyboard-response","69","682830","0.0-44.0","5c39849b19ceb400010c62a1","665500ab8938657b03fbdba8","6657727daefcd1f383a69d27","479","stimuli/20010012.jpg"," ","","feedback_trial","2","","","","","","","","","","","","","","","","","","","","",""
"","","","","","image-keyboard-response","70","683829","0.0-45.0","5c39849b19ceb400010c62a1","665500ab8938657b03fbdba8","6657727daefcd1f383a69d27","997","stimuli/2000010.jpg","2","","prediction_trial","2","","true","","2","true","true","true","true","true","true","[2]","000","010","1","","","","","","",""
"","","","","","image-keyboard-response","71","684257","0.0-46.0","5c39849b19ceb400010c62a1","665500ab8938657b03fbdba8","6657727daefcd1f383a69d27","428","stimuli/20000102.jpg"," ","","feedback_trial","2","","","","","","","","","","","","","","","","","","","","",""
"","","","","","image-keyboard-response","72","685238","0.0-47.0","5c39849b19ceb400010c62a1","665500ab8938657b03fbdba8","6657727daefcd1f383a69d27","979","stimuli/2100110.jpg","2","","prediction_trial","2","","true","","2","true","true","true","true","true","true","[2]","100","110","1","","","","","","",""
"","","","","","image-keyboard-response","73","685789","0.0-48.0","5c39849b19ceb400010c62a1","665500ab8938657b03fbdba8","6657727daefcd1f383a69d27","551","stimuli/21001102.jpg"," ","","feedback_trial","2","","","","","","","","","","","","","","","","","","","","",""
"","","","","","image-keyboard-response","74","690660","0.0-49.0","5c39849b19ceb400010c62a1","665500ab8938657b03fbdba8","6657727daefcd1f383a69d27","4869","stimuli/2010011.jpg","2","","prediction_trial","2","","true","","2","false","false","true","true","false","false","[2]","010","011","1","","","","","","",""
"","","","","","image-keyboard-response","75","691252","0.0-50.0","5c39849b19ceb400010c62a1","665500ab8938657b03fbdba8","6657727daefcd1f383a69d27","591","stimuli/20100112.jpg"," ","","feedback_trial","2","","","","","","","","","","","","","","","","","","","","",""
"","","","","","image-keyboard-response","76","703740","0.0-51.0","5c39849b19ceb400010c62a1","665500ab8938657b03fbdba8","6657727daefcd1f383a69d27","12486","stimuli/0001111.jpg","1","","prediction_trial","0","","false","","0","false","false","true","true","false","false","[0]","001","111","0","","","","","","",""
"","","","","","image-keyboard-response","77","705122","0.0-52.0","5c39849b19ceb400010c62a1","665500ab8938657b03fbdba8","6657727daefcd1f383a69d27","1380","stimuli/00011110.jpg"," ","","feedback_trial","0","","","","","","","","","","","","","","","","","","","","",""
"","","","","","image-keyboard-response","78","706915","0.0-53.0","5c39849b19ceb400010c62a1","665500ab8938657b03fbdba8","6657727daefcd1f383a69d27","1792","stimuli/1011110.jpg","0","","prediction_trial","1","","false","","1","false","false","false","false","false","false","[1,2]","011","110","0","","","","","","",""
"","","","","","image-keyboard-response","79","707639","0.0-54.0","5c39849b19ceb400010c62a1","665500ab8938657b03fbdba8","6657727daefcd1f383a69d27","723","stimuli/10111101.jpg"," ","","feedback_trial","1","","","","","","","","","","","","","","","","","","","","",""
"","","","","","image-keyboard-response","80","708786","0.0-55.0","5c39849b19ceb400010c62a1","665500ab8938657b03fbdba8","6657727daefcd1f383a69d27","1145","stimuli/0001001.jpg","0","","prediction_trial","0","","true","","0","true","true","true","true","true","true","[0]","001","001","1","","","","","","",""
"","","","","","image-keyboard-response","81","709195","0.0-56.0","5c39849b19ceb400010c62a1","665500ab8938657b03fbdba8","6657727daefcd1f383a69d27","408","stimuli/00010010.jpg"," ","","feedback_trial","0","","","","","","","","","","","","","","","","","","","","",""
"","","","","","image-keyboard-response","82","710871","0.0-57.0","5c39849b19ceb400010c62a1","665500ab8938657b03fbdba8","6657727daefcd1f383a69d27","1675","stimuli/1111010.jpg","1","","prediction_trial","2","","false","","1","false","true","false","false","false","false","[1,2,0]","111","010","0","","","","","","",""
"","","","","","image-keyboard-response","83","711292","0.0-58.0","5c39849b19ceb400010c62a1","665500ab8938657b03fbdba8","6657727daefcd1f383a69d27","419","stimuli/11110102.jpg"," ","","feedback_trial","1","","","","","","","","","","","","","","","","","","","","",""
"","","","","","image-keyboard-response","84","715328","0.0-59.0","5c39849b19ceb400010c62a1","665500ab8938657b03fbdba8","6657727daefcd1f383a69d27","4035","stimuli/2111100.jpg","2","","prediction_trial","2","","true","","2","true","true","false","false","false","false","[1,2,0]","111","100","1","","","","","","",""
"","","","","","image-keyboard-response","85","715955","0.0-60.0","5c39849b19ceb400010c62a1","665500ab8938657b03fbdba8","6657727daefcd1f383a69d27","626","stimuli/21111002.jpg"," ","","feedback_trial","1","","","","","","","","","","","","","","","","","","","","",""
"","","","","","image-keyboard-response","86","718043","0.0-61.0","5c39849b19ceb400010c62a1","665500ab8938657b03fbdba8","6657727daefcd1f383a69d27","2078","stimuli/2000101.jpg","2","","prediction_trial","2","","true","","2","false","false","true","true","false","false","[2]","000","101","1","","","","","","",""
"","","","","","image-keyboard-response","87","718506","0.0-62.0","5c39849b19ceb400010c62a1","665500ab8938657b03fbdba8","6657727daefcd1f383a69d27","461","stimuli/20001012.jpg"," ","","feedback_trial","2","","","","","","","","","","","","","","","","","","","","",""
"","","","","","image-keyboard-response","88","721229","0.0-63.0","5c39849b19ceb400010c62a1","665500ab8938657b03fbdba8","6657727daefcd1f383a69d27","2722","stimuli/0100111.jpg","1","","prediction_trial","0","","false","","0","false","false","false","true","false","false","[0]","100","111","0","","","","","","",""
"","","","","","image-keyboard-response","89","721730","0.0-64.0","5c39849b19ceb400010c62a1","665500ab8938657b03fbdba8","6657727daefcd1f383a69d27","500","stimuli/01001110.jpg"," ","","feedback_trial","0","","","","","","","","","","","","","","","","","","","","",""
"","","","","","image-keyboard-response","90","723014","0.0-65.0","5c39849b19ceb400010c62a1","665500ab8938657b03fbdba8","6657727daefcd1f383a69d27","1282","stimuli/0011000.jpg","0","","prediction_trial","0","","true","","0","true","true","true","true","true","true","[0]","011","000","1","","","","","","",""
"","","","","","image-keyboard-response","91","723597","0.0-66.0","5c39849b19ceb400010c62a1","665500ab8938657b03fbdba8","6657727daefcd1f383a69d27","582","stimuli/00110000.jpg"," ","","feedback_trial","0","","","","","","","","","","","","","","","","","","","","",""
"","","","","","image-keyboard-response","92","727954","0.0-67.0","5c39849b19ceb400010c62a1","665500ab8938657b03fbdba8","6657727daefcd1f383a69d27","4356","stimuli/2001100.jpg","2","","prediction_trial","2","","true","","2","true","true","false","true","false","true","[2]","001","100","1","","","","","","",""
"","","","","","image-keyboard-response","93","728497","0.0-68.0","5c39849b19ceb400010c62a1","665500ab8938657b03fbdba8","6657727daefcd1f383a69d27","542","stimuli/20011002.jpg"," ","","feedback_trial","2","","","","","","","","","","","","","","","","","","","","",""
"","","","","","image-keyboard-response","94","729771","0.0-69.0","5c39849b19ceb400010c62a1","665500ab8938657b03fbdba8","6657727daefcd1f383a69d27","1273","stimuli/0111011.jpg","0","","prediction_trial","2","","false","","0","true","true","false","false","false","false","[0,1,2]","111","011","0","","","","","","",""
"","","","","","image-keyboard-response","95","730276","0.0-70.0","5c39849b19ceb400010c62a1","665500ab8938657b03fbdba8","6657727daefcd1f383a69d27","503","stimuli/01110112.jpg"," ","","feedback_trial","0","","","","","","","","","","","","","","","","","","","","",""
"","","","","","image-keyboard-response","96","734035","0.0-71.0","5c39849b19ceb400010c62a1","665500ab8938657b03fbdba8","6657727daefcd1f383a69d27","3758","stimuli/0100001.jpg","0","","prediction_trial","0","","true","","0","true","true","false","true","false","true","[0]","100","001","1","","","","","","",""
"","","","","","image-keyboard-response","97","734512","0.0-72.0","5c39849b19ceb400010c62a1","665500ab8938657b03fbdba8","6657727daefcd1f383a69d27","475","stimuli/01000010.jpg"," ","","feedback_trial","0","","","","","","","","","","","","","","","","","","","","",""
"","","","","","image-keyboard-response","98","738266","0.0-73.0","5c39849b19ceb400010c62a1","665500ab8938657b03fbdba8","6657727daefcd1f383a69d27","3753","stimuli/0011100.jpg","0","","prediction_trial","0","","true","","0","false","true","true","true","false","true","[0]","011","100","1","","","","","","",""
"","","","","","image-keyboard-response","99","738870","0.0-74.0","5c39849b19ceb400010c62a1","665500ab8938657b03fbdba8","6657727daefcd1f383a69d27","603","stimuli/00111000.jpg"," ","","feedback_trial","0","","","","","","","","","","","","","","","","","","","","",""
"","","","","","image-keyboard-response","100","740458","0.0-75.0","5c39849b19ceb400010c62a1","665500ab8938657b03fbdba8","6657727daefcd1f383a69d27","1587","stimuli/2000011.jpg","2","","prediction_trial","2","","true","","2","false","false","true","true","false","false","[2]","000","011","1","","","","","","",""
"","","","","","image-keyboard-response","101","740945","0.0-76.0","5c39849b19ceb400010c62a1","665500ab8938657b03fbdba8","6657727daefcd1f383a69d27","486","stimuli/20000112.jpg"," ","","feedback_trial","2","","","","","","","","","","","","","","","","","","","","",""
"","","","","","image-keyboard-response","102","755170","0.0-77.0","5c39849b19ceb400010c62a1","665500ab8938657b03fbdba8","6657727daefcd1f383a69d27","14222","stimuli/1111011.jpg","1","","prediction_trial","1","","true","","1","false","false","false","false","false","false","[2,0,1]","111","011","1","","","","","","",""
"","","","","","image-keyboard-response","103","755699","0.0-78.0","5c39849b19ceb400010c62a1","665500ab8938657b03fbdba8","6657727daefcd1f383a69d27","528","stimuli/11110111.jpg"," ","","feedback_trial","2","","","","","","","","","","","","","","","","","","","","",""
"","","","","","image-keyboard-response","104","758778","0.0-79.0","5c39849b19ceb400010c62a1","665500ab8938657b03fbdba8","6657727daefcd1f383a69d27","3077","stimuli/2110101.jpg","2","","prediction_trial","2","","true","","2","false","false","true","true","false","false","[2]","110","101","1","","","","","","",""
"","","","","","image-keyboard-response","105","759219","0.0-80.0","5c39849b19ceb400010c62a1","665500ab8938657b03fbdba8","6657727daefcd1f383a69d27","440","stimuli/21101012.jpg"," ","","feedback_trial","2","","","","","","","","","","","","","","","","","","","","",""
"","","","","","image-keyboard-response","106","761444","0.0-81.0","5c39849b19ceb400010c62a1","665500ab8938657b03fbdba8","6657727daefcd1f383a69d27","2224","stimuli/1000111.jpg","0","","prediction_trial","1","","false","","1","false","false","true","true","false","false","[1]","000","111","0","","","","","","",""
"","","","","","image-keyboard-response","107","761911","0.0-82.0","5c39849b19ceb400010c62a1","665500ab8938657b03fbdba8","6657727daefcd1f383a69d27","465","stimuli/10001111.jpg"," ","","feedback_trial","1","","","","","","","","","","","","","","","","","","","","",""
"","","","","","image-keyboard-response","108","763084","0.0-83.0","5c39849b19ceb400010c62a1","665500ab8938657b03fbdba8","6657727daefcd1f383a69d27","1172","stimuli/2110110.jpg","2","","prediction_trial","2","","true","","2","true","true","true","true","true","true","[2]","110","110","1","","","","","","",""
"","","","","","image-keyboard-response","109","763550","0.0-84.0","5c39849b19ceb400010c62a1","665500ab8938657b03fbdba8","6657727daefcd1f383a69d27","465","stimuli/21101102.jpg"," ","","feedback_trial","2","","","","","","","","","","","","","","","","","","","","",""
"","","","","","image-keyboard-response","110","771139","0.0-85.0","5c39849b19ceb400010c62a1","665500ab8938657b03fbdba8","6657727daefcd1f383a69d27","7587","stimuli/2000110.jpg","2","","prediction_trial","2","","true","","2","true","true","true","true","true","true","[2]","000","110","1","","","","","","",""
"","","","","","image-keyboard-response","111","771700","0.0-86.0","5c39849b19ceb400010c62a1","665500ab8938657b03fbdba8","6657727daefcd1f383a69d27","560","stimuli/20001102.jpg"," ","","feedback_trial","2","","","","","","","","","","","","","","","","","","","","",""
"","","","","","image-keyboard-response","112","773163","0.0-87.0","5c39849b19ceb400010c62a1","665500ab8938657b03fbdba8","6657727daefcd1f383a69d27","1462","stimuli/0011001.jpg","0","","prediction_trial","0","","true","","0","true","true","true","true","true","true","[0]","011","001","1","","","","","","",""
"","","","","","image-keyboard-response","113","773610","0.0-88.0","5c39849b19ceb400010c62a1","665500ab8938657b03fbdba8","6657727daefcd1f383a69d27","445","stimuli/00110010.jpg"," ","","feedback_trial","0","","","","","","","","","","","","","","","","","","","","",""
"","","","","","image-keyboard-response","114","776173","0.0-89.0","5c39849b19ceb400010c62a1","665500ab8938657b03fbdba8","6657727daefcd1f383a69d27","2562","stimuli/0100000.jpg","0","","prediction_trial","0","","true","","0","true","true","false","true","false","true","[0]","100","000","1","","","","","","",""
"","","","","","image-keyboard-response","115","776549","0.0-90.0","5c39849b19ceb400010c62a1","665500ab8938657b03fbdba8","6657727daefcd1f383a69d27","375","stimuli/01000000.jpg"," ","","feedback_trial","0","","","","","","","","","","","","","","","","","","","","",""
"","","","","","image-keyboard-response","116","779149","0.0-91.0","5c39849b19ceb400010c62a1","665500ab8938657b03fbdba8","6657727daefcd1f383a69d27","2599","stimuli/2011001.jpg","2","","prediction_trial","2","","true","","2","false","true","false","false","false","false","[2,1]","011","001","1","","","","","","",""
"","","","","","image-keyboard-response","117","779874","0.0-92.0","5c39849b19ceb400010c62a1","665500ab8938657b03fbdba8","6657727daefcd1f383a69d27","723","stimuli/20110012.jpg"," ","","feedback_trial","2","","","","","","","","","","","","","","","","","","","","",""
"","","","","","image-keyboard-response","118","786481","0.0-93.0","5c39849b19ceb400010c62a1","665500ab8938657b03fbdba8","6657727daefcd1f383a69d27","6606","stimuli/0011110.jpg","1","","prediction_trial","0","","false","","0","false","false","true","true","false","false","[0]","011","110","0","","","","","","",""
"","","","","","image-keyboard-response","119","787578","0.0-94.0","5c39849b19ceb400010c62a1","665500ab8938657b03fbdba8","6657727daefcd1f383a69d27","1096","stimuli/00111100.jpg"," ","","feedback_trial","0","","","","","","","","","","","","","","","","","","","","",""
"","","","","","image-keyboard-response","120","790757","0.0-95.0","5c39849b19ceb400010c62a1","665500ab8938657b03fbdba8","6657727daefcd1f383a69d27","3177","stimuli/0011101.jpg","0","","prediction_trial","0","","true","","0","false","false","true","true","false","false","[0]","011","101","1","","","","","","",""
"","","","","","image-keyboard-response","121","791325","0.0-96.0","5c39849b19ceb400010c62a1","665500ab8938657b03fbdba8","6657727daefcd1f383a69d27","566","stimuli/00111010.jpg"," ","","feedback_trial","0","","","","","","","","","","","","","","","","","","","","",""
"","","","","","image-keyboard-response","122","793937","0.0-97.0","5c39849b19ceb400010c62a1","665500ab8938657b03fbdba8","6657727daefcd1f383a69d27","2611","stimuli/0110110.jpg","1","","prediction_trial","1","","true","","0","false","false","false","false","false","false","[1,0]","110","110","1","","","","","","",""
"","","","","","image-keyboard-response","123","794412","0.0-98.0","5c39849b19ceb400010c62a1","665500ab8938657b03fbdba8","6657727daefcd1f383a69d27","474","stimuli/01101101.jpg"," ","","feedback_trial","1","","","","","","","","","","","","","","","","","","","","",""
"","","","","","image-keyboard-response","124","796167","0.0-99.0","5c39849b19ceb400010c62a1","665500ab8938657b03fbdba8","6657727daefcd1f383a69d27","1753","stimuli/0100101.jpg","0","","prediction_trial","0","","true","","0","false","false","false","true","false","false","[0]","100","101","1","","","","","","",""
"","","","","","image-keyboard-response","125","796484","0.0-100.0","5c39849b19ceb400010c62a1","665500ab8938657b03fbdba8","6657727daefcd1f383a69d27","316","stimuli/01001010.jpg"," ","","feedback_trial","0","","","","","","","","","","","","","","","","","","","","",""
"","","","","","image-keyboard-response","126","797428","0.0-101.0","5c39849b19ceb400010c62a1","665500ab8938657b03fbdba8","6657727daefcd1f383a69d27","943","stimuli/2000000.jpg","2","","prediction_trial","2","","true","","2","true","true","true","true","true","true","[2]","000","000","1","","","","","","",""
"","","","","","image-keyboard-response","127","797952","0.0-102.0","5c39849b19ceb400010c62a1","665500ab8938657b03fbdba8","6657727daefcd1f383a69d27","523","stimuli/20000002.jpg"," ","","feedback_trial","2","","","","","","","","","","","","","","","","","","","","",""
"","","","","","image-keyboard-response","128","799004","0.0-103.0","5c39849b19ceb400010c62a1","665500ab8938657b03fbdba8","6657727daefcd1f383a69d27","1051","stimuli/0010010.jpg","0","","prediction_trial","0","","true","","0","true","true","true","true","true","true","[0]","010","010","1","","","","","","",""
"","","","","","image-keyboard-response","129","799409","0.0-104.0","5c39849b19ceb400010c62a1","665500ab8938657b03fbdba8","6657727daefcd1f383a69d27","403","stimuli/00100100.jpg"," ","","feedback_trial","0","","","","","","","","","","","","","","","","","","","","",""
"","","","","","image-keyboard-response","130","801130","0.0-105.0","5c39849b19ceb400010c62a1","665500ab8938657b03fbdba8","6657727daefcd1f383a69d27","1720","stimuli/0001101.jpg","2","","prediction_trial","0","","false","","0","false","false","true","true","false","false","[0]","001","101","0","","","","","","",""
"","","","","","image-keyboard-response","131","802060","0.0-106.0","5c39849b19ceb400010c62a1","665500ab8938657b03fbdba8","6657727daefcd1f383a69d27","921","stimuli/00011010.jpg"," ","","feedback_trial","0","","","","","","","","","","","","","","","","","","","","",""
"","","","","","image-keyboard-response","132","804811","0.0-107.0","5c39849b19ceb400010c62a1","665500ab8938657b03fbdba8","6657727daefcd1f383a69d27","2749","stimuli/0001100.jpg","0","","prediction_trial","0","","true","","0","false","true","true","true","false","true","[0]","001","100","1","","","","","","",""
"","","","","","image-keyboard-response","133","805249","0.0-108.0","5c39849b19ceb400010c62a1","665500ab8938657b03fbdba8","6657727daefcd1f383a69d27","436","stimuli/00011000.jpg"," ","","feedback_trial","0","","","","","","","","","","","","","","","","","","","","",""
"","","","","","image-keyboard-response","134","806052","0.0-109.0","5c39849b19ceb400010c62a1","665500ab8938657b03fbdba8","6657727daefcd1f383a69d27","802","stimuli/2000100.jpg","2","","prediction_trial","2","","true","","2","true","true","true","true","true","true","[2]","000","100","1","","","","","","",""
"","","","","","image-keyboard-response","135","806411","0.0-110.0","5c39849b19ceb400010c62a1","665500ab8938657b03fbdba8","6657727daefcd1f383a69d27","357","stimuli/20001002.jpg"," ","","feedback_trial","2","","","","","","","","","","","","","","","","","","","","",""
"","","","","","image-keyboard-response","136","807786","0.0-111.0","5c39849b19ceb400010c62a1","665500ab8938657b03fbdba8","6657727daefcd1f383a69d27","1374","stimuli/1000101.jpg","1","","prediction_trial","1","","true","","1","true","true","true","true","true","true","[1]","000","101","1","","","","","","",""
"","","","","","image-keyboard-response","137","808128","0.0-112.0","5c39849b19ceb400010c62a1","665500ab8938657b03fbdba8","6657727daefcd1f383a69d27","341","stimuli/10001011.jpg"," ","","feedback_trial","1","","","","","","","","","","","","","","","","","","","","",""
"","","","","","image-keyboard-response","138","811503","0.0-113.0","5c39849b19ceb400010c62a1","665500ab8938657b03fbdba8","6657727daefcd1f383a69d27","3374","stimuli/0010110.jpg","1","","prediction_trial","0","","false","","0","false","false","true","true","false","false","[0]","010","110","0","","","","","","",""
"","","","","","image-keyboard-response","139","814085","0.0-114.0","5c39849b19ceb400010c62a1","665500ab8938657b03fbdba8","6657727daefcd1f383a69d27","2581","stimuli/00101100.jpg"," ","","feedback_trial","0","","","","","","","","","","","","","","","","","","","","",""
"","","","","","image-keyboard-response","140","815333","0.0-115.0","5c39849b19ceb400010c62a1","665500ab8938657b03fbdba8","6657727daefcd1f383a69d27","1240","stimuli/1101001.jpg","1","","prediction_trial","1","","true","","1","true","true","true","true","true","true","[1]","101","001","1","","","","","","",""
"","","","","","image-keyboard-response","141","815637","0.0-116.0","5c39849b19ceb400010c62a1","665500ab8938657b03fbdba8","6657727daefcd1f383a69d27","303","stimuli/11010011.jpg"," ","","feedback_trial","1","","","","","","","","","","","","","","","","","","","","",""
"","","","","","image-keyboard-response","142","817828","0.0-117.0","5c39849b19ceb400010c62a1","665500ab8938657b03fbdba8","6657727daefcd1f383a69d27","2189","stimuli/1011011.jpg","2","","prediction_trial","2","","true","","1","false","false","false","false","false","false","[1,2]","011","011","1","","","","","","",""
"","","","","","image-keyboard-response","143","818256","0.0-118.0","5c39849b19ceb400010c62a1","665500ab8938657b03fbdba8","6657727daefcd1f383a69d27","427","stimuli/10110112.jpg"," ","","feedback_trial","1","","","","","","","","","","","","","","","","","","","","",""
"","","","","","image-keyboard-response","144","820633","0.0-119.0","5c39849b19ceb400010c62a1","665500ab8938657b03fbdba8","6657727daefcd1f383a69d27","2376","stimuli/0110010.jpg","0","","prediction_trial","1","","false","","0","true","true","false","false","false","false","[0,1]","110","010","0","","","","","","",""
"","","","","","image-keyboard-response","145","821354","0.0-120.0","5c39849b19ceb400010c62a1","665500ab8938657b03fbdba8","6657727daefcd1f383a69d27","719","stimuli/01100101.jpg"," ","","feedback_trial","0","","","","","","","","","","","","","","","","","","","","",""
"","","","","","image-keyboard-response","146","823391","0.0-121.0","5c39849b19ceb400010c62a1","665500ab8938657b03fbdba8","6657727daefcd1f383a69d27","2036","stimuli/1010000.jpg","1","","prediction_trial","1","","true","","1","true","true","false","true","false","true","[1]","010","000","1","","","","","","",""
"","","","","","image-keyboard-response","147","823744","0.0-122.0","5c39849b19ceb400010c62a1","665500ab8938657b03fbdba8","6657727daefcd1f383a69d27","352","stimuli/10100001.jpg"," ","","feedback_trial","1","","","","","","","","","","","","","","","","","","","","",""
"","","","","","image-keyboard-response","148","825044","0.0-123.0","5c39849b19ceb400010c62a1","665500ab8938657b03fbdba8","6657727daefcd1f383a69d27","1299","stimuli/1001110.jpg","2","","prediction_trial","1","","false","","1","false","false","true","true","false","false","[1]","001","110","0","","","","","","",""
"","","","","","image-keyboard-response","149","827196","0.0-124.0","5c39849b19ceb400010c62a1","665500ab8938657b03fbdba8","6657727daefcd1f383a69d27","2150","stimuli/10011101.jpg"," ","","feedback_trial","1","","","","","","","","","","","","","","","","","","","","",""
"","","","","","image-keyboard-response","150","836947","0.0-125.0","5c39849b19ceb400010c62a1","665500ab8938657b03fbdba8","6657727daefcd1f383a69d27","9749","stimuli/0100110.jpg","1","","prediction_trial","0","","false","","0","false","false","false","true","false","false","[0]","100","110","0","","","","","","",""
"","","","","","image-keyboard-response","151","837754","0.0-126.0","5c39849b19ceb400010c62a1","665500ab8938657b03fbdba8","6657727daefcd1f383a69d27","805","stimuli/01001100.jpg"," ","","feedback_trial","0","","","","","","","","","","","","","","","","","","","","",""
"","","","","","image-keyboard-response","152","843506","0.0-127.0","5c39849b19ceb400010c62a1","665500ab8938657b03fbdba8","6657727daefcd1f383a69d27","5750","stimuli/0000110.jpg","1","","prediction_trial","0","","false","","0","false","false","true","true","false","false","[0]","000","110","0","","","","","","",""
"","","","","","image-keyboard-response","153","844157","0.0-128.0","5c39849b19ceb400010c62a1","665500ab8938657b03fbdba8","6657727daefcd1f383a69d27","650","stimuli/00001100.jpg"," ","","feedback_trial","0","","","","","","","","","","","","","","","","","","","","",""
"","","","","","image-keyboard-response","154","845975","0.0-129.0","5c39849b19ceb400010c62a1","665500ab8938657b03fbdba8","6657727daefcd1f383a69d27","1816","stimuli/1010110.jpg","0","","prediction_trial","1","","false","","1","false","false","false","true","false","false","[1]","010","110","0","","","","","","",""
"","","","","","image-keyboard-response","155","846802","0.0-130.0","5c39849b19ceb400010c62a1","665500ab8938657b03fbdba8","6657727daefcd1f383a69d27","826","stimuli/10101101.jpg"," ","","feedback_trial","1","","","","","","","","","","","","","","","","","","","","",""
"","","","","","image-keyboard-response","156","848136","0.0-131.0","5c39849b19ceb400010c62a1","665500ab8938657b03fbdba8","6657727daefcd1f383a69d27","1332","stimuli/0000101.jpg","2","","prediction_trial","0","","false","","0","false","false","true","true","false","false","[0]","000","101","0","","","","","","",""
"","","","","","image-keyboard-response","157","848821","0.0-132.0","5c39849b19ceb400010c62a1","665500ab8938657b03fbdba8","6657727daefcd1f383a69d27","684","stimuli/00001010.jpg"," ","","feedback_trial","0","","","","","","","","","","","","","","","","","","","","",""
"","","","","","image-keyboard-response","158","851595","0.0-133.0","5c39849b19ceb400010c62a1","665500ab8938657b03fbdba8","6657727daefcd1f383a69d27","2772","stimuli/2011110.jpg","1","","prediction_trial","2","","false","","2","true","true","false","false","false","false","[2,1]","011","110","0","","","","","","",""
"","","","","","image-keyboard-response","159","852232","0.0-134.0","5c39849b19ceb400010c62a1","665500ab8938657b03fbdba8","6657727daefcd1f383a69d27","636","stimuli/20111102.jpg"," ","","feedback_trial","2","","","","","","","","","","","","","","","","","","","","",""
"","","","","","image-keyboard-response","160","854006","0.0-135.0","5c39849b19ceb400010c62a1","665500ab8938657b03fbdba8","6657727daefcd1f383a69d27","1767","stimuli/1111001.jpg","1","","prediction_trial","0","","false","","1","true","true","false","false","false","false","[2,1,0]","111","001","0","","","","","","",""
"","","","","","image-keyboard-response","161","854618","0.0-136.0","5c39849b19ceb400010c62a1","665500ab8938657b03fbdba8","6657727daefcd1f383a69d27","610","stimuli/11110010.jpg"," ","","feedback_trial","2","","","","","","","","","","","","","","","","","","","","",""
"","","","","","image-keyboard-response","162","855665","0.0-137.0","5c39849b19ceb400010c62a1","665500ab8938657b03fbdba8","6657727daefcd1f383a69d27","1046","stimuli/1100101.jpg","1","","prediction_trial","1","","true","","1","true","true","true","true","true","true","[1]","100","101","1","","","","","","",""
"","","","","","image-keyboard-response","163","856046","0.0-138.0","5c39849b19ceb400010c62a1","665500ab8938657b03fbdba8","6657727daefcd1f383a69d27","380","stimuli/11001011.jpg"," ","","feedback_trial","1","","","","","","","","","","","","","","","","","","","","",""
"","","","","","image-keyboard-response","164","857123","0.0-139.0","5c39849b19ceb400010c62a1","665500ab8938657b03fbdba8","6657727daefcd1f383a69d27","1076","stimuli/0001000.jpg","0","","prediction_trial","0","","true","","0","true","true","true","true","true","true","[0]","001","000","1","","","","","","",""
"","","","","","image-keyboard-response","165","857512","0.0-140.0","5c39849b19ceb400010c62a1","665500ab8938657b03fbdba8","6657727daefcd1f383a69d27","387","stimuli/00010000.jpg"," ","","feedback_trial","0","","","","","","","","","","","","","","","","","","","","",""
"","","","","","image-keyboard-response","166","858800","0.0-141.0","5c39849b19ceb400010c62a1","665500ab8938657b03fbdba8","6657727daefcd1f383a69d27","1287","stimuli/2000111.jpg","2","","prediction_trial","2","","true","","2","false","false","true","true","false","false","[2]","000","111","1","","","","","","",""
"","","","","","image-keyboard-response","167","859272","0.0-142.0","5c39849b19ceb400010c62a1","665500ab8938657b03fbdba8","6657727daefcd1f383a69d27","471","stimuli/20001112.jpg"," ","","feedback_trial","2","","","","","","","","","","","","","","","","","","","","",""
"","","","","","image-keyboard-response","168","861305","0.0-143.0","5c39849b19ceb400010c62a1","665500ab8938657b03fbdba8","6657727daefcd1f383a69d27","2032","stimuli/1110111.jpg","2","","prediction_trial","0","","false","","1","false","false","false","false","false","false","[0,1]","110","111","0","","","","","","",""
"","","","","","image-keyboard-response","169","861882","0.0-144.0","5c39849b19ceb400010c62a1","665500ab8938657b03fbdba8","6657727daefcd1f383a69d27","575","stimuli/11101110.jpg"," ","","feedback_trial","0","","","","","","","","","","","","","","","","","","","","",""
"","","","","","image-keyboard-response","170","863590","0.0-145.0","5c39849b19ceb400010c62a1","665500ab8938657b03fbdba8","6657727daefcd1f383a69d27","1707","stimuli/2001000.jpg","2","","prediction_trial","2","","true","","2","true","true","false","true","false","true","[2]","001","000","1","","","","","","",""
"","","","","","image-keyboard-response","171","864421","0.0-146.0","5c39849b19ceb400010c62a1","665500ab8938657b03fbdba8","6657727daefcd1f383a69d27","829","stimuli/20010002.jpg"," ","","feedback_trial","2","","","","","","","","","","","","","","","","","","","","",""
"","","","","","image-keyboard-response","172","867441","0.0-147.0","5c39849b19ceb400010c62a1","665500ab8938657b03fbdba8","6657727daefcd1f383a69d27","3018","stimuli/1011010.jpg","1","","prediction_trial","2","","false","","1","false","true","false","false","false","false","[2,1]","011","010","0","","","","","","",""
"","","","","","image-keyboard-response","173","870605","0.0-148.0","5c39849b19ceb400010c62a1","665500ab8938657b03fbdba8","6657727daefcd1f383a69d27","3163","stimuli/10110102.jpg"," ","","feedback_trial","2","","","","","","","","","","","","","","","","","","","","",""
"","","","","","image-keyboard-response","174","871997","0.0-149.0","5c39849b19ceb400010c62a1","665500ab8938657b03fbdba8","6657727daefcd1f383a69d27","1390","stimuli/0000010.jpg","0","","prediction_trial","0","","true","","0","true","true","true","true","true","true","[0]","000","010","1","","","","","","",""
"","","","","","image-keyboard-response","175","872628","0.0-150.0","5c39849b19ceb400010c62a1","665500ab8938657b03fbdba8","6657727daefcd1f383a69d27","630","stimuli/00000100.jpg"," ","","feedback_trial","0","","","","","","","","","","","","","","","","","","","","",""
"","","","","","image-keyboard-response","176","874353","0.0-151.0","5c39849b19ceb400010c62a1","665500ab8938657b03fbdba8","6657727daefcd1f383a69d27","1724","stimuli/0011111.jpg","0","","prediction_trial","0","","true","","0","false","false","true","true","false","false","[0]","011","111","1","","","","","","",""
"","","","","","image-keyboard-response","177","874828","0.0-152.0","5c39849b19ceb400010c62a1","665500ab8938657b03fbdba8","6657727daefcd1f383a69d27","473","stimuli/00111110.jpg"," ","","feedback_trial","0","","","","","","","","","","","","","","","","","","","","",""
"","","","","","image-keyboard-response","178","876142","0.0-153.0","5c39849b19ceb400010c62a1","665500ab8938657b03fbdba8","6657727daefcd1f383a69d27","1313","stimuli/2011011.jpg","1","","prediction_trial","1","","true","","2","false","false","false","false","false","false","[1,2]","011","011","1","","","","","","",""
"","","","","","image-keyboard-response","179","876584","0.0-154.0","5c39849b19ceb400010c62a1","665500ab8938657b03fbdba8","6657727daefcd1f383a69d27","440","stimuli/20110111.jpg"," ","","feedback_trial","1","","","","","","","","","","","","","","","","","","","","",""
"","","","","","image-keyboard-response","180","878734","0.0-155.0","5c39849b19ceb400010c62a1","665500ab8938657b03fbdba8","6657727daefcd1f383a69d27","2149","stimuli/0101010.jpg","2","","prediction_trial","0","","false","","0","true","true","false","false","false","false","[2,0]","101","010","0","","","","","","",""
"","","","","","image-keyboard-response","181","879211","0.0-156.0","5c39849b19ceb400010c62a1","665500ab8938657b03fbdba8","6657727daefcd1f383a69d27","475","stimuli/01010100.jpg"," ","","feedback_trial","2","","","","","","","","","","","","","","","","","","","","",""
"","","","","","image-keyboard-response","182","880883","0.0-157.0","5c39849b19ceb400010c62a1","665500ab8938657b03fbdba8","6657727daefcd1f383a69d27","1671","stimuli/1001011.jpg","2","","prediction_trial","1","","false","","1","false","false","true","true","false","false","[1]","001","011","0","","","","","","",""
"","","","","","image-keyboard-response","183","881352","0.0-158.0","5c39849b19ceb400010c62a1","665500ab8938657b03fbdba8","6657727daefcd1f383a69d27","468","stimuli/10010111.jpg"," ","","feedback_trial","1","","","","","","","","","","","","","","","","","","","","",""
"","","","","","image-keyboard-response","184","885738","0.0-159.0","5c39849b19ceb400010c62a1","665500ab8938657b03fbdba8","6657727daefcd1f383a69d27","4385","stimuli/2100101.jpg","2","","prediction_trial","2","","true","","2","false","false","true","true","false","false","[2]","100","101","1","","","","","","",""
"","","","","","image-keyboard-response","185","886336","0.0-160.0","5c39849b19ceb400010c62a1","665500ab8938657b03fbdba8","6657727daefcd1f383a69d27","596","stimuli/21001012.jpg"," ","","feedback_trial","2","","","","","","","","","","","","","","","","","","","","",""
"","","","","","image-keyboard-response","186","938790","0.0-161.0","5c39849b19ceb400010c62a1","665500ab8938657b03fbdba8","6657727daefcd1f383a69d27","52451","stimuli/1010100.jpg","0","","prediction_trial","1","","false","","1","true","true","false","true","false","true","[1]","010","100","0","","","","","","",""
"","","","","","image-keyboard-response","187","939281","0.0-162.0","5c39849b19ceb400010c62a1","665500ab8938657b03fbdba8","6657727daefcd1f383a69d27","489","stimuli/10101001.jpg"," ","","feedback_trial","1","","","","","","","","","","","","","","","","","","","","",""
"","","","","","image-keyboard-response","188","956684","0.0-163.0","5c39849b19ceb400010c62a1","665500ab8938657b03fbdba8","6657727daefcd1f383a69d27","17400","stimuli/0110011.jpg","2","","prediction_trial","0","","false","","0","true","true","false","false","false","false","[1,0]","110","011","0","","","","","","",""
"","","","","","image-keyboard-response","189","957629","0.0-164.0","5c39849b19ceb400010c62a1","665500ab8938657b03fbdba8","6657727daefcd1f383a69d27","944","stimuli/01100110.jpg"," ","","feedback_trial","1","","","","","","","","","","","","","","","","","","","","",""
"","","","","","image-keyboard-response","190","958955","0.0-165.0","5c39849b19ceb400010c62a1","665500ab8938657b03fbdba8","6657727daefcd1f383a69d27","1325","stimuli/1101101.jpg","1","","prediction_trial","1","","true","","1","true","true","true","true","true","true","[1]","101","101","1","","","","","","",""
"","","","","","image-keyboard-response","191","959440","0.0-166.0","5c39849b19ceb400010c62a1","665500ab8938657b03fbdba8","6657727daefcd1f383a69d27","483","stimuli/11011011.jpg"," ","","feedback_trial","1","","","","","","","","","","","","","","","","","","","","",""
"","","","","","image-keyboard-response","192","963312","0.0-167.0","5c39849b19ceb400010c62a1","665500ab8938657b03fbdba8","6657727daefcd1f383a69d27","3871","stimuli/0101110.jpg","1","","prediction_trial","0","","false","","0","false","false","false","false","false","false","[0,2]","101","110","0","","","","","","",""
"","","","","","image-keyboard-response","193","964077","0.0-168.0","5c39849b19ceb400010c62a1","665500ab8938657b03fbdba8","6657727daefcd1f383a69d27","763","stimuli/01011100.jpg"," ","","feedback_trial","0","","","","","","","","","","","","","","","","","","","","",""
"","","","","","image-keyboard-response","194","976140","0.0-169.0","5c39849b19ceb400010c62a1","665500ab8938657b03fbdba8","6657727daefcd1f383a69d27","12061","stimuli/2101100.jpg","2","","prediction_trial","2","","true","","2","true","true","false","false","false","false","[0,2]","101","100","1","","","","","","",""
"","","","","","image-keyboard-response","195","976592","0.0-170.0","5c39849b19ceb400010c62a1","665500ab8938657b03fbdba8","6657727daefcd1f383a69d27","451","stimuli/21011002.jpg"," ","","feedback_trial","0","","","","","","","","","","","","","","","","","","","","",""
"","","","","","image-keyboard-response","196","977938","0.0-171.0","5c39849b19ceb400010c62a1","665500ab8938657b03fbdba8","6657727daefcd1f383a69d27","1336","stimuli/2111000.jpg","2","","prediction_trial","1","","false","","2","true","true","false","false","false","false","[2,1,0]","111","000","0","","","","","","",""
"","","","","","image-keyboard-response","197","978934","0.0-172.0","5c39849b19ceb400010c62a1","665500ab8938657b03fbdba8","6657727daefcd1f383a69d27","995","stimuli/21110001.jpg"," ","","feedback_trial","2","","","","","","","","","","","","","","","","","","","","",""
"","","","","","image-keyboard-response","198","980091","0.0-173.0","5c39849b19ceb400010c62a1","665500ab8938657b03fbdba8","6657727daefcd1f383a69d27","1155","stimuli/1000000.jpg","1","","prediction_trial","1","","true","","1","true","true","true","true","true","true","[1]","000","000","1","","","","","","",""
"","","","","","image-keyboard-response","199","980582","0.0-174.0","5c39849b19ceb400010c62a1","665500ab8938657b03fbdba8","6657727daefcd1f383a69d27","490","stimuli/10000001.jpg"," ","","feedback_trial","1","","","","","","","","","","","","","","","","","","","","",""
"","","","","","image-keyboard-response","200","984155","0.0-175.0","5c39849b19ceb400010c62a1","665500ab8938657b03fbdba8","6657727daefcd1f383a69d27","3571","stimuli/1000110.jpg","1","","prediction_trial","1","","true","","1","false","false","true","true","false","false","[1]","000","110","1","","","","","","",""
"","","","","","image-keyboard-response","201","984528","0.0-176.0","5c39849b19ceb400010c62a1","665500ab8938657b03fbdba8","6657727daefcd1f383a69d27","372","stimuli/10001101.jpg"," ","","feedback_trial","1","","","","","","","","","","","","","","","","","","","","",""
"","","","","","image-keyboard-response","202","986538","0.0-177.0","5c39849b19ceb400010c62a1","665500ab8938657b03fbdba8","6657727daefcd1f383a69d27","2008","stimuli/2110001.jpg","2","","prediction_trial","2","","true","","2","false","true","true","true","false","true","[2]","110","001","1","","","","","","",""
"","","","","","image-keyboard-response","203","986948","0.0-178.0","5c39849b19ceb400010c62a1","665500ab8938657b03fbdba8","6657727daefcd1f383a69d27","408","stimuli/21100012.jpg"," ","","feedback_trial","2","","","","","","","","","","","","","","","","","","","","",""
"","","","","","image-keyboard-response","204","988893","0.0-179.0","5c39849b19ceb400010c62a1","665500ab8938657b03fbdba8","6657727daefcd1f383a69d27","1944","stimuli/0111101.jpg","0","","prediction_trial","1","","false","","0","false","false","false","false","false","false","[1,0,2]","111","101","0","","","","","","",""
"","","","","","image-keyboard-response","205","989303","0.0-180.0","5c39849b19ceb400010c62a1","665500ab8938657b03fbdba8","6657727daefcd1f383a69d27","401","stimuli/01111011.jpg"," ","","feedback_trial","1","","","","","","","","","","","","","","","","","","","","",""
"","","","","","image-keyboard-response","206","990818","0.0-181.0","5c39849b19ceb400010c62a1","665500ab8938657b03fbdba8","6657727daefcd1f383a69d27","1514","stimuli/0111010.jpg","0","","prediction_trial","0","","true","","0","true","true","false","false","false","false","[0,2,1]","111","010","1","","","","","","",""
"","","","","","image-keyboard-response","207","991200","0.0-182.0","5c39849b19ceb400010c62a1","665500ab8938657b03fbdba8","6657727daefcd1f383a69d27","380","stimuli/01110100.jpg"," ","","feedback_trial","0","","","","","","","","","","","","","","","","","","","","",""
"","","","","","image-keyboard-response","208","992129","0.0-183.0","5c39849b19ceb400010c62a1","665500ab8938657b03fbdba8","6657727daefcd1f383a69d27","927","stimuli/1100000.jpg","1","","prediction_trial","1","","true","","1","true","true","true","true","true","true","[1]","100","000","1","","","","","","",""
"","","","","","image-keyboard-response","209","992450","0.0-184.0","5c39849b19ceb400010c62a1","665500ab8938657b03fbdba8","6657727daefcd1f383a69d27","319","stimuli/11000001.jpg"," ","","feedback_trial","1","","","","","","","","","","","","","","","","","","","","",""
"","","","","","image-keyboard-response","210","993579","0.0-185.0","5c39849b19ceb400010c62a1","665500ab8938657b03fbdba8","6657727daefcd1f383a69d27","1128","stimuli/2110010.jpg","2","","prediction_trial","2","","true","","2","true","true","true","true","true","true","[2]","110","010","1","","","","","","",""
"","","","","","image-keyboard-response","211","993837","0.0-186.0","5c39849b19ceb400010c62a1","665500ab8938657b03fbdba8","6657727daefcd1f383a69d27","256","stimuli/21100102.jpg"," ","","feedback_trial","2","","","","","","","","","","","","","","","","","","","","",""
"","","","","","image-keyboard-response","212","996474","0.0-187.0","5c39849b19ceb400010c62a1","665500ab8938657b03fbdba8","6657727daefcd1f383a69d27","2636","stimuli/0110000.jpg","2","","prediction_trial","0","","false","","0","true","true","false","false","false","false","[1,0]","110","000","0","","","","","","",""
"","","","","","image-keyboard-response","213","997117","0.0-188.0","5c39849b19ceb400010c62a1","665500ab8938657b03fbdba8","6657727daefcd1f383a69d27","641","stimuli/01100000.jpg"," ","","feedback_trial","1","","","","","","","","","","","","","","","","","","","","",""
"","","","","","image-keyboard-response","214","1001706","0.0-189.0","5c39849b19ceb400010c62a1","665500ab8938657b03fbdba8","6657727daefcd1f383a69d27","4587","stimuli/2011000.jpg","2","","prediction_trial","1","","false","","2","true","true","false","false","false","false","[1,2]","011","000","0","","","","","","",""
"","","","","","image-keyboard-response","215","1002031","0.0-190.0","5c39849b19ceb400010c62a1","665500ab8938657b03fbdba8","6657727daefcd1f383a69d27","324","stimuli/20110001.jpg"," ","","feedback_trial","1","","","","","","","","","","","","","","","","","","","","",""
"","","","","","image-keyboard-response","216","1003309","0.0-191.0","5c39849b19ceb400010c62a1","665500ab8938657b03fbdba8","6657727daefcd1f383a69d27","1276","stimuli/0011011.jpg","0","","prediction_trial","0","","true","","0","true","true","true","true","true","true","[0]","011","011","1","","","","","","",""
"","","","","","image-keyboard-response","217","1003582","0.0-192.0","5c39849b19ceb400010c62a1","665500ab8938657b03fbdba8","6657727daefcd1f383a69d27","271","stimuli/00110110.jpg"," ","","feedback_trial","0","","","","","","","","","","","","","","","","","","","","",""
"","","","","","image-keyboard-response","218","1005943","0.0-193.0","5c39849b19ceb400010c62a1","665500ab8938657b03fbdba8","6657727daefcd1f383a69d27","2359","stimuli/2101011.jpg","1","","prediction_trial","2","","false","","2","false","false","false","false","false","false","[2,0]","101","011","0","","","","","","",""
"","","","","","image-keyboard-response","219","1006449","0.0-194.0","5c39849b19ceb400010c62a1","665500ab8938657b03fbdba8","6657727daefcd1f383a69d27","505","stimuli/21010112.jpg"," ","","feedback_trial","2","","","","","","","","","","","","","","","","","","","","",""
"","","","","","image-keyboard-response","220","1007277","0.0-195.0","5c39849b19ceb400010c62a1","665500ab8938657b03fbdba8","6657727daefcd1f383a69d27","826","stimuli/1100001.jpg","1","","prediction_trial","1","","true","","1","true","true","true","true","true","true","[1]","100","001","1","","","","","","",""
"","","","","","image-keyboard-response","221","1007582","0.0-196.0","5c39849b19ceb400010c62a1","665500ab8938657b03fbdba8","6657727daefcd1f383a69d27","304","stimuli/11000011.jpg"," ","","feedback_trial","1","","","","","","","","","","","","","","","","","","","","",""
"","","","","","image-keyboard-response","222","1009382","0.0-197.0","5c39849b19ceb400010c62a1","665500ab8938657b03fbdba8","6657727daefcd1f383a69d27","1798","stimuli/2011100.jpg","2","","prediction_trial","2","","true","","2","true","true","false","false","false","false","[1,2]","011","100","1","","","","","","",""
"","","","","","image-keyboard-response","223","1009761","0.0-198.0","5c39849b19ceb400010c62a1","665500ab8938657b03fbdba8","6657727daefcd1f383a69d27","378","stimuli/20111002.jpg"," ","","feedback_trial","1","","","","","","","","","","","","","","","","","","","","",""
"","","","","","image-keyboard-response","224","1012975","0.0-199.0","5c39849b19ceb400010c62a1","665500ab8938657b03fbdba8","6657727daefcd1f383a69d27","3204","stimuli/2011111.jpg","0","","prediction_trial","1","","false","","2","false","false","false","false","false","false","[1,2]","011","111","0","","","","","","",""
"","","","","","image-keyboard-response","225","1013414","0.0-200.0","5c39849b19ceb400010c62a1","665500ab8938657b03fbdba8","6657727daefcd1f383a69d27","438","stimuli/20111111.jpg"," ","","feedback_trial","1","","","","","","","","","","","","","","","","","","","","",""
"","","","","","image-keyboard-response","226","1015006","0.0-201.0","5c39849b19ceb400010c62a1","665500ab8938657b03fbdba8","6657727daefcd1f383a69d27","1591","stimuli/1101110.jpg","1","","prediction_trial","1","","true","","1","false","false","true","true","false","false","[1]","101","110","1","","","","","","",""
"","","","","","image-keyboard-response","227","1015330","0.0-202.0","5c39849b19ceb400010c62a1","665500ab8938657b03fbdba8","6657727daefcd1f383a69d27","322","stimuli/11011101.jpg"," ","","feedback_trial","1","","","","","","","","","","","","","","","","","","","","",""
"","","","","","image-keyboard-response","228","1016771","0.0-203.0","5c39849b19ceb400010c62a1","665500ab8938657b03fbdba8","6657727daefcd1f383a69d27","1439","stimuli/0101101.jpg","2","","prediction_trial","2","","true","","0","false","false","false","false","false","false","[0,2]","101","101","1","","","","","","",""
"","","","","","image-keyboard-response","229","1017100","0.0-204.0","5c39849b19ceb400010c62a1","665500ab8938657b03fbdba8","6657727daefcd1f383a69d27","328","stimuli/01011012.jpg"," ","","feedback_trial","0","","","","","","","","","","","","","","","","","","","","",""
"","","","","","image-keyboard-response","230","1020223","0.0-205.0","5c39849b19ceb400010c62a1","665500ab8938657b03fbdba8","6657727daefcd1f383a69d27","3121","stimuli/0010111.jpg","0","","prediction_trial","0","","true","","0","false","false","true","true","false","false","[0]","010","111","1","","","","","","",""
"","","","","","image-keyboard-response","231","1020467","0.0-206.0","5c39849b19ceb400010c62a1","665500ab8938657b03fbdba8","6657727daefcd1f383a69d27","243","stimuli/00101110.jpg"," ","","feedback_trial","0","","","","","","","","","","","","","","","","","","","","",""
"","","","","","image-keyboard-response","232","1022772","0.0-207.0","5c39849b19ceb400010c62a1","665500ab8938657b03fbdba8","6657727daefcd1f383a69d27","2303","stimuli/0110101.jpg","0","","prediction_trial","0","","true","","0","false","false","false","false","false","false","[0,1]","110","101","1","","","","","","",""
"","","","","","image-keyboard-response","233","1023121","0.0-208.0","5c39849b19ceb400010c62a1","665500ab8938657b03fbdba8","6657727daefcd1f383a69d27","347","stimuli/01101010.jpg"," ","","feedback_trial","0","","","","","","","","","","","","","","","","","","","","",""
"","","","","","image-keyboard-response","234","1024396","0.0-209.0","5c39849b19ceb400010c62a1","665500ab8938657b03fbdba8","6657727daefcd1f383a69d27","1274","stimuli/0101111.jpg","1","","prediction_trial","2","","false","","0","false","false","false","false","false","false","[0,2]","101","111","0","","","","","","",""
"","","","","","image-keyboard-response","235","1024700","0.0-210.0","5c39849b19ceb400010c62a1","665500ab8938657b03fbdba8","6657727daefcd1f383a69d27","302","stimuli/01011112.jpg"," ","","feedback_trial","0","","","","","","","","","","","","","","","","","","","","",""
"","","","","","image-keyboard-response","236","1025562","0.0-211.0","5c39849b19ceb400010c62a1","665500ab8938657b03fbdba8","6657727daefcd1f383a69d27","861","stimuli/0100100.jpg","2","","prediction_trial","0","","false","","0","false","true","false","true","false","true","[0]","100","100","0","","","","","","",""
"","","","","","image-keyboard-response","237","1026027","0.0-212.0","5c39849b19ceb400010c62a1","665500ab8938657b03fbdba8","6657727daefcd1f383a69d27","464","stimuli/01001000.jpg"," ","","feedback_trial","0","","","","","","","","","","","","","","","","","","","","",""
"","","","","","image-keyboard-response","238","1147457","0.0-213.0","5c39849b19ceb400010c62a1","665500ab8938657b03fbdba8","6657727daefcd1f383a69d27","121440","stimuli/0001011.jpg","0","","prediction_trial","0","","true","","0","true","true","true","true","true","true","[0]","001","011","1","","","","","","",""
"","","","","","image-keyboard-response","239","1147881","0.0-214.0","5c39849b19ceb400010c62a1","665500ab8938657b03fbdba8","6657727daefcd1f383a69d27","423","stimuli/00010110.jpg"," ","","feedback_trial","0","","","","","","","","","","","","","","","","","","","","",""
"","","","","","image-keyboard-response","240","1151334","0.0-215.0","5c39849b19ceb400010c62a1","665500ab8938657b03fbdba8","6657727daefcd1f383a69d27","3452","stimuli/0101100.jpg","0","","prediction_trial","0","","true","","0","false","true","false","false","false","false","[2,0]","101","100","1","","","","","","",""
"","","","","","image-keyboard-response","241","1151914","0.0-216.0","5c39849b19ceb400010c62a1","665500ab8938657b03fbdba8","6657727daefcd1f383a69d27","579","stimuli/01011000.jpg"," ","","feedback_trial","2","","","","","","","","","","","","","","","","","","","","",""
"","","","","","image-keyboard-response","242","1155600","0.0-217.0","5c39849b19ceb400010c62a1","665500ab8938657b03fbdba8","6657727daefcd1f383a69d27","3684","stimuli/1001001.jpg","1","","prediction_trial","1","","true","","1","true","true","true","true","true","true","[1]","001","001","1","","","","","","",""
"","","","","","image-keyboard-response","243","1156123","0.0-218.0","5c39849b19ceb400010c62a1","665500ab8938657b03fbdba8","6657727daefcd1f383a69d27","522","stimuli/10010011.jpg"," ","","feedback_trial","1","","","","","","","","","","","","","","","","","","","","",""
"","","","","","image-keyboard-response","244","1542340","0.0-219.0","5c39849b19ceb400010c62a1","665500ab8938657b03fbdba8","6657727daefcd1f383a69d27","386208","stimuli/1100110.jpg","1","","prediction_trial","1","","true","","1","false","false","true","true","false","false","[1]","100","110","1","","","","","","",""
"","","","","","image-keyboard-response","245","1542791","0.0-220.0","5c39849b19ceb400010c62a1","665500ab8938657b03fbdba8","6657727daefcd1f383a69d27","450","stimuli/11001101.jpg"," ","","feedback_trial","1","","","","","","","","","","","","","","","","","","","","",""
"","","","","","image-keyboard-response","246","1544396","0.0-221.0","5c39849b19ceb400010c62a1","665500ab8938657b03fbdba8","6657727daefcd1f383a69d27","1603","stimuli/2111001.jpg","2","","prediction_trial","1","","false","","2","false","true","false","false","false","false","[0,1,2]","111","001","0","","","","","","",""
"","","","","","image-keyboard-response","247","1544893","0.0-222.0","5c39849b19ceb400010c62a1","665500ab8938657b03fbdba8","6657727daefcd1f383a69d27","496","stimuli/21110011.jpg"," ","","feedback_trial","0","","","","","","","","","","","","","","","","","","","","",""
"","","","","","image-keyboard-response","248","1545680","0.0-223.0","5c39849b19ceb400010c62a1","665500ab8938657b03fbdba8","6657727daefcd1f383a69d27","786","stimuli/2010000.jpg","2","","prediction_trial","2","","true","","2","true","true","true","true","true","true","[2]","010","000","1","","","","","","",""
"","","","","","image-keyboard-response","249","1546040","0.0-224.0","5c39849b19ceb400010c62a1","665500ab8938657b03fbdba8","6657727daefcd1f383a69d27","358","stimuli/20100002.jpg"," ","","feedback_trial","2","","","","","","","","","","","","","","","","","","","","",""
"","","","","","image-keyboard-response","250","1547421","0.0-225.0","5c39849b19ceb400010c62a1","665500ab8938657b03fbdba8","6657727daefcd1f383a69d27","1379","stimuli/2101110.jpg","1","","prediction_trial","0","","false","","2","true","true","false","false","false","false","[0,2]","101","110","0","","","","","","",""
"","","","","","image-keyboard-response","251","1547846","0.0-226.0","5c39849b19ceb400010c62a1","665500ab8938657b03fbdba8","6657727daefcd1f383a69d27","423","stimuli/21011100.jpg"," ","","feedback_trial","0","","","","","","","","","","","","","","","","","","","","",""
"","","","","","image-keyboard-response","252","1550297","0.0-227.0","5c39849b19ceb400010c62a1","665500ab8938657b03fbdba8","6657727daefcd1f383a69d27","2450","stimuli/1010010.jpg","1","","prediction_trial","1","","true","","1","false","true","false","true","false","true","[1]","010","010","1","","","","","","",""
"","","","","","image-keyboard-response","253","1551032","0.0-228.0","5c39849b19ceb400010c62a1","665500ab8938657b03fbdba8","6657727daefcd1f383a69d27","734","stimuli/10100101.jpg"," ","","feedback_trial","1","","","","","","","","","","","","","","","","","","","","",""
"","","","","","image-keyboard-response","254","1768119","0.0-229.0","5c39849b19ceb400010c62a1","665500ab8938657b03fbdba8","6657727daefcd1f383a69d27","217079","stimuli/1110000.jpg","1","","prediction_trial","1","","true","","1","true","true","false","false","false","false","[1,0]","110","000","1","","","","","","",""
"","","","","","image-keyboard-response","255","1768444","0.0-230.0","5c39849b19ceb400010c62a1","665500ab8938657b03fbdba8","6657727daefcd1f383a69d27","324","stimuli/11100001.jpg"," ","","feedback_trial","1","","","","","","","","","","","","","","","","","","","","",""
"","","","","","image-keyboard-response","256","1770307","0.0-231.0","5c39849b19ceb400010c62a1","665500ab8938657b03fbdba8","6657727daefcd1f383a69d27","1862","stimuli/0110001.jpg","0","","prediction_trial","0","","true","","0","true","true","false","false","false","false","[1,0]","110","001","1","","","","","","",""
"","","","","","image-keyboard-response","257","1770620","0.0-232.0","5c39849b19ceb400010c62a1","665500ab8938657b03fbdba8","6657727daefcd1f383a69d27","311","stimuli/01100010.jpg"," ","","feedback_trial","1","","","","","","","","","","","","","","","","","","","","",""
"","","","","","image-keyboard-response","258","1772051","0.0-233.0","5c39849b19ceb400010c62a1","665500ab8938657b03fbdba8","6657727daefcd1f383a69d27","1430","stimuli/1011101.jpg","1","","prediction_trial","1","","true","","1","true","true","false","false","false","false","[2,1]","011","101","1","","","","","","",""
"","","","","","image-keyboard-response","259","1772354","0.0-234.0","5c39849b19ceb400010c62a1","665500ab8938657b03fbdba8","6657727daefcd1f383a69d27","301","stimuli/10111011.jpg"," ","","feedback_trial","2","","","","","","","","","","","","","","","","","","","","",""
"","","","","","image-keyboard-response","260","1774283","0.0-235.0","5c39849b19ceb400010c62a1","665500ab8938657b03fbdba8","6657727daefcd1f383a69d27","1929","stimuli/0111110.jpg","1","","prediction_trial","1","","true","","0","false","false","false","false","false","false","[0,1,2]","111","110","1","","","","","","",""
"","","","","","image-keyboard-response","261","1774703","0.0-236.0","5c39849b19ceb400010c62a1","665500ab8938657b03fbdba8","6657727daefcd1f383a69d27","418","stimuli/01111101.jpg"," ","","feedback_trial","0","","","","","","","","","","","","","","","","","","","","",""
"","","","","","image-keyboard-response","262","1777589","0.0-237.0","5c39849b19ceb400010c62a1","665500ab8938657b03fbdba8","6657727daefcd1f383a69d27","2885","stimuli/2111101.jpg","0","","prediction_trial","1","","false","","2","false","false","false","false","false","false","[1,2,0]","111","101","0","","","","","","",""
"","","","","","image-keyboard-response","263","1777943","0.0-238.0","5c39849b19ceb400010c62a1","665500ab8938657b03fbdba8","6657727daefcd1f383a69d27","353","stimuli/21111011.jpg"," ","","feedback_trial","1","","","","","","","","","","","","","","","","","","","","",""
"","","","","","image-keyboard-response","264","1779429","0.0-239.0","5c39849b19ceb400010c62a1","665500ab8938657b03fbdba8","6657727daefcd1f383a69d27","1484","stimuli/1101000.jpg","1","","prediction_trial","1","","true","","1","true","true","true","true","true","true","[1]","101","000","1","","","","","","",""
"","","","","","image-keyboard-response","265","1779785","0.0-240.0","5c39849b19ceb400010c62a1","665500ab8938657b03fbdba8","6657727daefcd1f383a69d27","355","stimuli/11010001.jpg"," ","","feedback_trial","1","","","","","","","","","","","","","","","","","","","","",""
"","","","","","image-keyboard-response","266","1797577","0.0-241.0","5c39849b19ceb400010c62a1","665500ab8938657b03fbdba8","6657727daefcd1f383a69d27","17790","stimuli/0111111.jpg","1","","prediction_trial","1","","true","","0","false","false","false","false","false","false","[2,1,0]","111","111","1","","","","","","",""
"","","","","","image-keyboard-response","267","1797887","0.0-242.0","5c39849b19ceb400010c62a1","665500ab8938657b03fbdba8","6657727daefcd1f383a69d27","309","stimuli/01111111.jpg"," ","","feedback_trial","2","","","","","","","","","","","","","","","","","","","","",""
"","","","","","image-keyboard-response","268","1798705","0.0-243.0","5c39849b19ceb400010c62a1","665500ab8938657b03fbdba8","6657727daefcd1f383a69d27","817","stimuli/2010110.jpg","2","","prediction_trial","2","","true","","2","true","true","true","true","true","true","[2]","010","110","1","","","","","","",""
"","","","","","image-keyboard-response","269","1799059","0.0-244.0","5c39849b19ceb400010c62a1","665500ab8938657b03fbdba8","6657727daefcd1f383a69d27","352","stimuli/20101102.jpg"," ","","feedback_trial","2","","","","","","","","","","","","","","","","","","","","",""
"","","","","","image-keyboard-response","270","1799854","0.0-245.0","5c39849b19ceb400010c62a1","665500ab8938657b03fbdba8","6657727daefcd1f383a69d27","793","stimuli/1111100.jpg","1","","prediction_trial","0","","false","","1","true","true","false","false","false","false","[1,2,0]","111","100","0","","","","","","",""
"","","","","","image-keyboard-response","271","1800202","0.0-246.0","5c39849b19ceb400010c62a1","665500ab8938657b03fbdba8","6657727daefcd1f383a69d27","347","stimuli/11111000.jpg"," ","","feedback_trial","1","","","","","","","","","","","","","","","","","","","","",""
"","","","","","image-keyboard-response","272","1801465","0.0-247.0","5c39849b19ceb400010c62a1","665500ab8938657b03fbdba8","6657727daefcd1f383a69d27","1262","stimuli/2011010.jpg","2","","prediction_trial","2","","true","","2","true","true","false","false","false","false","[1,2]","011","010","1","","","","","","",""
"","","","","","image-keyboard-response","273","1801828","0.0-248.0","5c39849b19ceb400010c62a1","665500ab8938657b03fbdba8","6657727daefcd1f383a69d27","361","stimuli/20110102.jpg"," ","","feedback_trial","1","","","","","","","","","","","","","","","","","","","","",""
"","","","","","image-keyboard-response","274","1802959","0.0-249.0","5c39849b19ceb400010c62a1","665500ab8938657b03fbdba8","6657727daefcd1f383a69d27","1122","stimuli/2110011.jpg","2","","prediction_trial","2","","true","","2","false","false","true","true","false","false","[2]","110","011","1","","","","","","",""
"","","","","","image-keyboard-response","275","1803407","0.0-250.0","5c39849b19ceb400010c62a1","665500ab8938657b03fbdba8","6657727daefcd1f383a69d27","447","stimuli/21100112.jpg"," ","","feedback_trial","2","","","","","","","","","","","","","","","","","","","","",""
"","","","","","image-keyboard-response","276","1804534","0.0-251.0","5c39849b19ceb400010c62a1","665500ab8938657b03fbdba8","6657727daefcd1f383a69d27","1126","stimuli/2001111.jpg","1","","prediction_trial","2","","false","","2","false","false","false","true","false","false","[2]","001","111","0","","","","","","",""
"","","","","","image-keyboard-response","277","1805120","0.0-252.0","5c39849b19ceb400010c62a1","665500ab8938657b03fbdba8","6657727daefcd1f383a69d27","584","stimuli/20011112.jpg"," ","","feedback_trial","2","","","","","","","","","","","","","","","","","","","","",""
"","","","","","image-keyboard-response","278","1807698","0.0-253.0","5c39849b19ceb400010c62a1","665500ab8938657b03fbdba8","6657727daefcd1f383a69d27","2577","stimuli/2001011.jpg","2","","prediction_trial","2","","true","","2","false","false","false","true","false","false","[2]","001","011","1","","","","","","",""
"","","","","","image-keyboard-response","279","1808164","0.0-254.0","5c39849b19ceb400010c62a1","665500ab8938657b03fbdba8","6657727daefcd1f383a69d27","464","stimuli/20010112.jpg"," ","","feedback_trial","2","","","","","","","","","","","","","","","","","","","","",""
"","","","","","image-keyboard-response","280","1809466","0.0-255.0","5c39849b19ceb400010c62a1","665500ab8938657b03fbdba8","6657727daefcd1f383a69d27","1301","stimuli/1110101.jpg","1","","prediction_trial","1","","true","","1","true","true","false","false","false","false","[0,1]","110","101","1","","","","","","",""
"","","","","","image-keyboard-response","281","1809868","0.0-256.0","5c39849b19ceb400010c62a1","665500ab8938657b03fbdba8","6657727daefcd1f383a69d27","400","stimuli/11101011.jpg"," ","","feedback_trial","0","","","","","","","","","","","","","","","","","","","","",""
"","","","","","image-keyboard-response","282","1883296","0.0-257.0","5c39849b19ceb400010c62a1","665500ab8938657b03fbdba8","6657727daefcd1f383a69d27","73425","stimuli/0100011.jpg","1","","prediction_trial","0","","false","","0","true","true","false","true","false","true","[0]","100","011","0","","","","","","",""
"","","","","","image-keyboard-response","283","1886320","0.0-258.0","5c39849b19ceb400010c62a1","665500ab8938657b03fbdba8","6657727daefcd1f383a69d27","3023","stimuli/01000110.jpg"," ","","feedback_trial","0","","","","","","","","","","","","","","","","","","","","",""
"","","","","","image-keyboard-response","284","1888076","0.0-259.0","5c39849b19ceb400010c62a1","665500ab8938657b03fbdba8","6657727daefcd1f383a69d27","1755","stimuli/0010001.jpg","0","","prediction_trial","0","","true","","0","true","true","true","true","true","true","[0]","010","001","1","","","","","","",""
"","","","","","image-keyboard-response","285","1888581","0.0-260.0","5c39849b19ceb400010c62a1","665500ab8938657b03fbdba8","6657727daefcd1f383a69d27","505","stimuli/00100010.jpg"," ","","feedback_trial","0","","","","","","","","","","","","","","","","","","","","",""
"","","","","","image-keyboard-response","286","1890019","0.0-261.0","5c39849b19ceb400010c62a1","665500ab8938657b03fbdba8","6657727daefcd1f383a69d27","1436","stimuli/2100010.jpg","2","","prediction_trial","2","","true","","2","true","true","true","true","true","true","[2]","100","010","1","","","","","","",""
"","","","","","image-keyboard-response","287","1890429","0.0-262.0","5c39849b19ceb400010c62a1","665500ab8938657b03fbdba8","6657727daefcd1f383a69d27","409","stimuli/21000102.jpg"," ","","feedback_trial","2","","","","","","","","","","","","","","","","","","","","",""
"","","","","","image-keyboard-response","288","1933458","0.0-263.0","5c39849b19ceb400010c62a1","665500ab8938657b03fbdba8","6657727daefcd1f383a69d27","43027","stimuli/2001110.jpg","1","","prediction_trial","2","","false","","2","true","true","false","true","false","true","[2]","001","110","0","","","","","","",""
"","","","","","image-keyboard-response","289","1934139","0.0-264.0","5c39849b19ceb400010c62a1","665500ab8938657b03fbdba8","6657727daefcd1f383a69d27","679","stimuli/20011102.jpg"," ","","feedback_trial","2","","","","","","","","","","","","","","","","","","","","",""
"","","","","","image-keyboard-response","290","1936883","0.0-265.0","5c39849b19ceb400010c62a1","665500ab8938657b03fbdba8","6657727daefcd1f383a69d27","2744","stimuli/1110011.jpg","2","","prediction_trial","1","","false","","1","false","false","false","false","false","false","[0,1]","110","011","0","","","","","","",""
"","","","","","image-keyboard-response","291","1937256","0.0-266.0","5c39849b19ceb400010c62a1","665500ab8938657b03fbdba8","6657727daefcd1f383a69d27","371","stimuli/11100111.jpg"," ","","feedback_trial","0","","","","","","","","","","","","","","","","","","","","",""
"","","","","","image-keyboard-response","292","1940062","0.0-267.0","5c39849b19ceb400010c62a1","665500ab8938657b03fbdba8","6657727daefcd1f383a69d27","2799","stimuli/0100010.jpg","0","","prediction_trial","0","","true","","0","true","true","false","true","false","true","[0]","100","010","1","","","","","","",""
"","","","","","image-keyboard-response","293","1940445","0.0-268.0","5c39849b19ceb400010c62a1","665500ab8938657b03fbdba8","6657727daefcd1f383a69d27","381","stimuli/01000100.jpg"," ","","feedback_trial","0","","","","","","","","","","","","","","","","","","","","",""
"","","","","","image-keyboard-response","294","1942075","0.0-269.0","5c39849b19ceb400010c62a1","665500ab8938657b03fbdba8","6657727daefcd1f383a69d27","1629","stimuli/1111000.jpg","1","","prediction_trial","0","","false","","1","true","true","false","false","false","false","[0,1,2]","111","000","0","","","","","","",""
"","","","","","image-keyboard-response","295","1942465","0.0-270.0","5c39849b19ceb400010c62a1","665500ab8938657b03fbdba8","6657727daefcd1f383a69d27","388","stimuli/11110000.jpg"," ","","feedback_trial","0","","","","","","","","","","","","","","","","","","","","",""
"","","","","","image-keyboard-response","296","1943317","0.0-271.0","5c39849b19ceb400010c62a1","665500ab8938657b03fbdba8","6657727daefcd1f383a69d27","850","stimuli/1000100.jpg","1","","prediction_trial","1","","true","","1","true","true","true","true","true","true","[1]","000","100","1","","","","","","",""
"","","","","","image-keyboard-response","297","1943671","0.0-272.0","5c39849b19ceb400010c62a1","665500ab8938657b03fbdba8","6657727daefcd1f383a69d27","353","stimuli/10001001.jpg"," ","","feedback_trial","1","","","","","","","","","","","","","","","","","","","","",""
"","","","","","image-keyboard-response","298","1949246","0.0-273.0","5c39849b19ceb400010c62a1","665500ab8938657b03fbdba8","6657727daefcd1f383a69d27","5574","stimuli/0111000.jpg","0","","prediction_trial","2","","false","","0","true","true","false","false","false","false","[2,0,1]","111","000","0","","","","","","",""
"","","","","","image-keyboard-response","299","1949584","0.0-274.0","5c39849b19ceb400010c62a1","665500ab8938657b03fbdba8","6657727daefcd1f383a69d27","336","stimuli/01110002.jpg"," ","","feedback_trial","2","","","","","","","","","","","","","","","","","","","","",""
"","","","","","image-keyboard-response","300","1951550","0.0-275.0","5c39849b19ceb400010c62a1","665500ab8938657b03fbdba8","6657727daefcd1f383a69d27","1964","stimuli/1010101.jpg","1","","prediction_trial","1","","true","","1","true","true","false","true","false","true","[1]","010","101","1","","","","","","",""
"","","","","","image-keyboard-response","301","1951848","0.0-276.0","5c39849b19ceb400010c62a1","665500ab8938657b03fbdba8","6657727daefcd1f383a69d27","296","stimuli/10101011.jpg"," ","","feedback_trial","1","","","","","","","","","","","","","","","","","","","","",""
"","","","","","image-keyboard-response","302","1964546","0.0-277.0","5c39849b19ceb400010c62a1","665500ab8938657b03fbdba8","6657727daefcd1f383a69d27","12697","stimuli/0111100.jpg","0","","prediction_trial","0","","true","","0","false","true","false","false","false","false","[0,1,2]","111","100","1","","","","","","",""
"","","","","","image-keyboard-response","303","1964933","0.0-278.0","5c39849b19ceb400010c62a1","665500ab8938657b03fbdba8","6657727daefcd1f383a69d27","385","stimuli/01111000.jpg"," ","","feedback_trial","0","","","","","","","","","","","","","","","","","","","","",""
"","","","","","image-keyboard-response","304","1966122","0.0-279.0","5c39849b19ceb400010c62a1","665500ab8938657b03fbdba8","6657727daefcd1f383a69d27","1187","stimuli/2001101.jpg","2","","prediction_trial","2","","true","","2","false","false","false","true","false","false","[2]","001","101","1","","","","","","",""
"","","","","","image-keyboard-response","305","1966512","0.0-280.0","5c39849b19ceb400010c62a1","665500ab8938657b03fbdba8","6657727daefcd1f383a69d27","389","stimuli/20011012.jpg"," ","","feedback_trial","2","","","","","","","","","","","","","","","","","","","","",""
"","","","","","image-keyboard-response","306","1968042","0.0-281.0","5c39849b19ceb400010c62a1","665500ab8938657b03fbdba8","6657727daefcd1f383a69d27","1528","stimuli/0110100.jpg","1","","prediction_trial","0","","false","","0","false","true","false","false","false","false","[1,0]","110","100","0","","","","","","",""
"","","","","","image-keyboard-response","307","1968356","0.0-282.0","5c39849b19ceb400010c62a1","665500ab8938657b03fbdba8","6657727daefcd1f383a69d27","312","stimuli/01101000.jpg"," ","","feedback_trial","1","","","","","","","","","","","","","","","","","","","","",""
"","","","","","image-keyboard-response","308","1969103","0.0-283.0","5c39849b19ceb400010c62a1","665500ab8938657b03fbdba8","6657727daefcd1f383a69d27","745","stimuli/2010010.jpg","2","","prediction_trial","2","","true","","2","true","true","true","true","true","true","[2]","010","010","1","","","","","","",""
"","","","","","image-keyboard-response","309","1969412","0.0-284.0","5c39849b19ceb400010c62a1","665500ab8938657b03fbdba8","6657727daefcd1f383a69d27","308","stimuli/20100102.jpg"," ","","feedback_trial","2","","","","","","","","","","","","","","","","","","","","",""
"","","","","","image-keyboard-response","310","1970752","0.0-285.0","5c39849b19ceb400010c62a1","665500ab8938657b03fbdba8","6657727daefcd1f383a69d27","1338","stimuli/1101111.jpg","1","","prediction_trial","1","","true","","1","false","false","true","true","false","false","[1]","101","111","1","","","","","","",""
"","","","","","image-keyboard-response","311","1971155","0.0-286.0","5c39849b19ceb400010c62a1","665500ab8938657b03fbdba8","6657727daefcd1f383a69d27","402","stimuli/11011111.jpg"," ","","feedback_trial","1","","","","","","","","","","","","","","","","","","","","",""
"","","","","","image-keyboard-response","312","1972011","0.0-287.0","5c39849b19ceb400010c62a1","665500ab8938657b03fbdba8","6657727daefcd1f383a69d27","854","stimuli/0000011.jpg","0","","prediction_trial","0","","true","","0","true","true","true","true","true","true","[0]","000","011","1","","","","","","",""
"","","","","","image-keyboard-response","313","1972320","0.0-288.0","5c39849b19ceb400010c62a1","665500ab8938657b03fbdba8","6657727daefcd1f383a69d27","307","stimuli/00000110.jpg"," ","","feedback_trial","0","","","","","","","","","","","","","","","","","","","","",""
"","","","","","image-keyboard-response","314","1973106","0.0-289.0","5c39849b19ceb400010c62a1","665500ab8938657b03fbdba8","6657727daefcd1f383a69d27","784","stimuli/1111111.jpg","1","","prediction_trial","0","","false","","1","false","false","false","false","false","false","[1,2,0]","111","111","0","","","","","","",""
"","","","","","image-keyboard-response","315","1973467","0.0-290.0","5c39849b19ceb400010c62a1","665500ab8938657b03fbdba8","6657727daefcd1f383a69d27","360","stimuli/11111110.jpg"," ","","feedback_trial","1","","","","","","","","","","","","","","","","","","","","",""
"","","","","","image-keyboard-response","316","1974496","0.0-291.0","5c39849b19ceb400010c62a1","665500ab8938657b03fbdba8","6657727daefcd1f383a69d27","1027","stimuli/1100011.jpg","1","","prediction_trial","1","","true","","1","false","false","true","true","false","false","[1]","100","011","1","","","","","","",""
"","","","","","image-keyboard-response","317","1974882","0.0-292.0","5c39849b19ceb400010c62a1","665500ab8938657b03fbdba8","6657727daefcd1f383a69d27","386","stimuli/11000111.jpg"," ","","feedback_trial","1","","","","","","","","","","","","","","","","","","","","",""
"","","","","","survey-html-form","318","2011071","0.0-293.0","5c39849b19ceb400010c62a1","665500ab8938657b03fbdba8","6657727daefcd1f383a69d27","36176","","{""feedback"":""Whether or not he could see the ball on his end."",""age"":""25"",""gender"":""Female"",""other_gender"":"""",""race"":""Black/African American"",""other_race"":"""",""ethnicity"":""Non-Hispanic""}","","exit_survey","","","","","","","","","","","","","","","","Whether or not he could see the ball on his end.","25","Non-Hispanic","Female","Black/African American","0.6527777777777778","0.6527777777777778"
