"success","timeout","failed_images","failed_audio","failed_video","trial_type","trial_index","time_elapsed","internal_node_id","prolific_id","prolific_study_id","prolific_session_id","rt","stimulus","response","view_history","trial","character_choice","stimulus_dict","accuracy","correct_response","ball_pos","ego_ball_visible","ego_can_infer","alter_ball_visible","alter_can_infer","collective_ball_visible","collective_can_infer","search_locations","alter_occluders","ego_occluders","accuracy_bool","feedback","age","ethnicity","gender","race","overall_accuracy","bonus"
"true","false","[]","[]","[]","preload","0","18172","0.0-0.0","63df06a8c5ac5f3c6bf77e6f","665500ab8938657b03fbdba8","6657929bb651b453ebb03e50","","","","","","","","","","","","","","","","","","","","","","","","","","",""
"true","","","","","fullscreen","1","22294","0.0-1.0","63df06a8c5ac5f3c6bf77e6f","665500ab8938657b03fbdba8","6657929bb651b453ebb03e50","","","","","","","","","","","","","","","","","","","","","","","","","","",""
"","","","","","html-button-response","2","25306","0.0-2.0","63df06a8c5ac5f3c6bf77e6f","665500ab8938657b03fbdba8","6657929bb651b453ebb03e50","3009","<p><b>Consent Form</b></p> <div style=""text-align:left;background-color:lightgrey; padding:20px; max-width:900px;""><p>Please consider this information carefully before deciding whether to participate in this research.</p> <p>The purpose of this research is to examine which factors influence social judgment and decision-making. You will be asked to make judgements about individuals and actions in social scenarios. We are simply interested in your judgement. The study will take less than 1 hour to complete, and you will receive less than $20 on Prolific. Your compensation and time commitment are specified in the study description. There are no anticipated risks associated with participating in this study. The effects of participating should be comparable to those you would ordinarily experience from viewing a computer monitor and using a mouse or keyboard for a similar amount of time. At the end of the study, we will provide an explanation of the questions that motivate this line of research and will describe the potential implications. </p><p> Your participation in this study is completely voluntary and you may refuse to participate or you may choose to withdraw at any time without penalty or loss of benefits to you which are otherwise entitled. Your participation in this study will remain confidential. No personally identifiable information will be associated with your data. Also, all analyses of the data will be averaged across all the participants, so your individual responses will never be specifically analyzed. </p><p> If you have questions or concerns about your participation or payment, or want to request a summary of research findings, please contact Dr. Jonathan Phillips at Jonathan.S.Phillips@dartmouth.edu. </p><p> Please save a copy of this form for your records. </p><p><b>Agreement: </b>The nature and purpose of this research have been sufficiently explained and I agree to participate in this study. I understand that I am free to withdraw at any time without incurring any penalty. Please consent by clicking the button below to continue. Otherwise, please exit the study at any time. </p>","0","","","","","","","","","","","","","","","","","","","","","","","",""
"","","","","","instructions","3","101789","0.0-3.0-0.0","63df06a8c5ac5f3c6bf77e6f","665500ab8938657b03fbdba8","6657929bb651b453ebb03e50","76482","","","[{""page_index"":0,""viewing_time"":4383},{""page_index"":1,""viewing_time"":3376},{""page_index"":2,""viewing_time"":3360},{""page_index"":3,""viewing_time"":4272},{""page_index"":4,""viewing_time"":4288},{""page_index"":5,""viewing_time"":2904},{""page_index"":6,""viewing_time"":3460},{""page_index"":7,""viewing_time"":2960},{""page_index"":8,""viewing_time"":5408},{""page_index"":9,""viewing_time"":2284},{""page_index"":10,""viewing_time"":22167},{""page_index"":11,""viewing_time"":10720},{""page_index"":12,""viewing_time"":5624},{""page_index"":13,""viewing_time"":1276}]","intro","","","","","","","","","","","","","","","","","","","","","",""
"","","","","","image-keyboard-response","4","106130","0.0-3.0-1.0","63df06a8c5ac5f3c6bf77e6f","665500ab8938657b03fbdba8","6657929bb651b453ebb03e50","4336","stimuli/2000010.jpg","2","","prediction_practice","2","{""filepath"":""stimuli/2000010.jpg"",""ball_pos"":2,""ego_ball_visible"":true,""ego_can_infer"":true,""alter_ball_visible"":true,""alter_can_infer"":true,""collective_ball_visible"":true,""collective_can_infer"":true,""search_locations"":[2],""alter_occluders"":""000"",""ego_occluders"":""010""}","true","","","","","","","","","","","","","","","","","","",""
"","","","","","image-keyboard-response","5","108570","0.0-3.0-2.0","63df06a8c5ac5f3c6bf77e6f","665500ab8938657b03fbdba8","6657929bb651b453ebb03e50","2436","stimuli/20000102.jpg"," ","","practrice_feedback","2","","","","","","","","","","","","","","","","","","","","",""
"","","","","","image-keyboard-response","6","111104","0.0-3.0-3.0","63df06a8c5ac5f3c6bf77e6f","665500ab8938657b03fbdba8","6657929bb651b453ebb03e50","2531","stimuli/2010011.jpg","2","","prediction_practice","2","{""filepath"":""stimuli/2010011.jpg"",""ball_pos"":2,""ego_ball_visible"":false,""ego_can_infer"":false,""alter_ball_visible"":true,""alter_can_infer"":true,""collective_ball_visible"":false,""collective_can_infer"":false,""search_locations"":[2],""alter_occluders"":""010"",""ego_occluders"":""011""}","true","","","","","","","","","","","","","","","","","","",""
"","","","","","image-keyboard-response","7","111992","0.0-3.0-4.0","63df06a8c5ac5f3c6bf77e6f","665500ab8938657b03fbdba8","6657929bb651b453ebb03e50","885","stimuli/20100112.jpg"," ","","practrice_feedback","2","","","","","","","","","","","","","","","","","","","","",""
"","","","","","image-keyboard-response","8","113249","0.0-3.0-5.0","63df06a8c5ac5f3c6bf77e6f","665500ab8938657b03fbdba8","6657929bb651b453ebb03e50","1255","stimuli/1011011.jpg","2","","prediction_practice","1","{""filepath"":""stimuli/1011011.jpg"",""ball_pos"":1,""ego_ball_visible"":false,""ego_can_infer"":false,""alter_ball_visible"":false,""alter_can_infer"":false,""collective_ball_visible"":false,""collective_can_infer"":false,""search_locations"":[2,1],""alter_occluders"":""011"",""ego_occluders"":""011""}","false","","","","","","","","","","","","","","","","","","",""
"","","","","","image-keyboard-response","9","114095","0.0-3.0-6.0","63df06a8c5ac5f3c6bf77e6f","665500ab8938657b03fbdba8","6657929bb651b453ebb03e50","844","stimuli/10110111.jpg"," ","","practrice_feedback","2","","","","","","","","","","","","","","","","","","","","",""
"","","","","","image-keyboard-response","10","116385","0.0-3.0-7.0","63df06a8c5ac5f3c6bf77e6f","665500ab8938657b03fbdba8","6657929bb651b453ebb03e50","2288","stimuli/0111100.jpg","0","","prediction_practice","2","{""filepath"":""stimuli/0111100.jpg"",""ball_pos"":0,""ego_ball_visible"":false,""ego_can_infer"":true,""alter_ball_visible"":false,""alter_can_infer"":false,""collective_ball_visible"":false,""collective_can_infer"":false,""search_locations"":[1,0,2],""alter_occluders"":""111"",""ego_occluders"":""100""}","false","","","","","","","","","","","","","","","","","","",""
"","","","","","image-keyboard-response","11","116759","0.0-3.0-8.0","63df06a8c5ac5f3c6bf77e6f","665500ab8938657b03fbdba8","6657929bb651b453ebb03e50","384","stimuli/01111002.jpg"," ","","practrice_feedback","1","","","","","","","","","","","","","","","","","","","","",""
"","","","","","image-keyboard-response","12","117920","0.0-3.0-9.0","63df06a8c5ac5f3c6bf77e6f","665500ab8938657b03fbdba8","6657929bb651b453ebb03e50","1158","stimuli/1001011.jpg","2","","prediction_practice","1","{""filepath"":""stimuli/1001011.jpg"",""ball_pos"":1,""ego_ball_visible"":false,""ego_can_infer"":false,""alter_ball_visible"":true,""alter_can_infer"":true,""collective_ball_visible"":false,""collective_can_infer"":false,""search_locations"":[1],""alter_occluders"":""001"",""ego_occluders"":""011""}","false","","","","","","","","","","","","","","","","","","",""
"","","","","","image-keyboard-response","13","118325","0.0-3.0-10.0","63df06a8c5ac5f3c6bf77e6f","665500ab8938657b03fbdba8","6657929bb651b453ebb03e50","403","stimuli/10010111.jpg"," ","","practrice_feedback","1","","","","","","","","","","","","","","","","","","","","",""
"","","","","","image-keyboard-response","14","120177","0.0-3.0-11.0","63df06a8c5ac5f3c6bf77e6f","665500ab8938657b03fbdba8","6657929bb651b453ebb03e50","1849","stimuli/1010101.jpg","1","","prediction_practice","1","{""filepath"":""stimuli/1010101.jpg"",""ball_pos"":1,""ego_ball_visible"":true,""ego_can_infer"":true,""alter_ball_visible"":false,""alter_can_infer"":true,""collective_ball_visible"":false,""collective_can_infer"":true,""search_locations"":[1],""alter_occluders"":""010"",""ego_occluders"":""101""}","true","","","","","","","","","","","","","","","","","","",""
"","","","","","image-keyboard-response","15","121839","0.0-3.0-12.0","63df06a8c5ac5f3c6bf77e6f","665500ab8938657b03fbdba8","6657929bb651b453ebb03e50","1661","stimuli/10101011.jpg"," ","","practrice_feedback","1","","","","","","","","","","","","","","","","","","","","",""
"","","","","","image-keyboard-response","16","123098","0.0-3.0-13.0","63df06a8c5ac5f3c6bf77e6f","665500ab8938657b03fbdba8","6657929bb651b453ebb03e50","1257","stimuli/2011010.jpg","2","","prediction_practice","2","{""filepath"":""stimuli/2011010.jpg"",""ball_pos"":2,""ego_ball_visible"":true,""ego_can_infer"":true,""alter_ball_visible"":false,""alter_can_infer"":false,""collective_ball_visible"":false,""collective_can_infer"":false,""search_locations"":[2,1],""alter_occluders"":""011"",""ego_occluders"":""010""}","true","","","","","","","","","","","","","","","","","","",""
"","","","","","image-keyboard-response","17","123459","0.0-3.0-14.0","63df06a8c5ac5f3c6bf77e6f","665500ab8938657b03fbdba8","6657929bb651b453ebb03e50","358","stimuli/20110102.jpg"," ","","practrice_feedback","2","","","","","","","","","","","","","","","","","","","","",""
"","","","","","image-keyboard-response","18","124167","0.0-3.0-15.0","63df06a8c5ac5f3c6bf77e6f","665500ab8938657b03fbdba8","6657929bb651b453ebb03e50","705","stimuli/2110000.jpg","2","","prediction_practice","2","{""filepath"":""stimuli/2110000.jpg"",""ball_pos"":2,""ego_ball_visible"":true,""ego_can_infer"":true,""alter_ball_visible"":true,""alter_can_infer"":true,""collective_ball_visible"":true,""collective_can_infer"":true,""search_locations"":[2],""alter_occluders"":""110"",""ego_occluders"":""000""}","true","","","","","","","","","","","","","","","","","","",""
"","","","","","image-keyboard-response","19","124455","0.0-3.0-16.0","63df06a8c5ac5f3c6bf77e6f","665500ab8938657b03fbdba8","6657929bb651b453ebb03e50","286","stimuli/21100002.jpg"," ","","practrice_feedback","2","","","","","","","","","","","","","","","","","","","","",""
"","","","","","image-keyboard-response","20","124873","0.0-3.0-17.0","63df06a8c5ac5f3c6bf77e6f","665500ab8938657b03fbdba8","6657929bb651b453ebb03e50","417","stimuli/2010100.jpg","2","","prediction_practice","2","{""filepath"":""stimuli/2010100.jpg"",""ball_pos"":2,""ego_ball_visible"":true,""ego_can_infer"":true,""alter_ball_visible"":true,""alter_can_infer"":true,""collective_ball_visible"":true,""collective_can_infer"":true,""search_locations"":[2],""alter_occluders"":""010"",""ego_occluders"":""100""}","true","","","","","","","","","","","","","","","","","","",""
"","","","","","image-keyboard-response","21","125157","0.0-3.0-18.0","63df06a8c5ac5f3c6bf77e6f","665500ab8938657b03fbdba8","6657929bb651b453ebb03e50","281","stimuli/20101002.jpg"," ","","practrice_feedback","2","","","","","","","","","","","","","","","","","","","","",""
"","","","","","image-keyboard-response","22","125938","0.0-3.0-19.0","63df06a8c5ac5f3c6bf77e6f","665500ab8938657b03fbdba8","6657929bb651b453ebb03e50","779","stimuli/2100110.jpg","2","","prediction_practice","2","{""filepath"":""stimuli/2100110.jpg"",""ball_pos"":2,""ego_ball_visible"":true,""ego_can_infer"":true,""alter_ball_visible"":true,""alter_can_infer"":true,""collective_ball_visible"":true,""collective_can_infer"":true,""search_locations"":[2],""alter_occluders"":""100"",""ego_occluders"":""110""}","true","","","","","","","","","","","","","","","","","","",""
"","","","","","image-keyboard-response","23","126229","0.0-3.0-20.0","63df06a8c5ac5f3c6bf77e6f","665500ab8938657b03fbdba8","6657929bb651b453ebb03e50","290","stimuli/21001102.jpg"," ","","practrice_feedback","2","","","","","","","","","","","","","","","","","","","","",""
"","","","","","html-button-response","24","129374","0.0-3.0-21.0","63df06a8c5ac5f3c6bf77e6f","665500ab8938657b03fbdba8","6657929bb651b453ebb03e50","3144","Now that you've had some practice, you'll be tested with a couple of easy trials. If you correctly predict Sam's choice, you'll move on to complete the experiment!","0","","","","","","","","","","","","","","","","","","","","","","","",""
"","","","","","image-keyboard-response","25","131303","0.0-3.0-22.0-0.0","63df06a8c5ac5f3c6bf77e6f","665500ab8938657b03fbdba8","6657929bb651b453ebb03e50","1927","stimuli/0000011.jpg","arrowleft","","comprehension_quiz","","","true","arrowleft","","","","","","","","","","","","","","","","","",""
"","","","","","image-keyboard-response","26","132690","0.0-3.0-22.0-1.0","63df06a8c5ac5f3c6bf77e6f","665500ab8938657b03fbdba8","6657929bb651b453ebb03e50","1384","stimuli/00000110.jpg"," ","","comprehension_quiz","","","true"," ","","","","","","","","","","","","","","","","","",""
"","","","","","image-keyboard-response","27","133836","0.0-3.0-22.0-2.0","63df06a8c5ac5f3c6bf77e6f","665500ab8938657b03fbdba8","6657929bb651b453ebb03e50","1144","stimuli/1010010.jpg","arrowdown","","comprehension_quiz","","","true","arrowdown","","","","","","","","","","","","","","","","","",""
"","","","","","image-keyboard-response","28","134324","0.0-3.0-22.0-3.0","63df06a8c5ac5f3c6bf77e6f","665500ab8938657b03fbdba8","6657929bb651b453ebb03e50","485","stimuli/10100101.jpg"," ","","comprehension_quiz","","","true"," ","","","","","","","","","","","","","","","","","",""
"","","","","","html-button-response","29","136454","0.0-4.0","63df06a8c5ac5f3c6bf77e6f","665500ab8938657b03fbdba8","6657929bb651b453ebb03e50","2126","The experiment will now begin.","0","","","","","","","","","","","","","","","","","","","","","","","",""
"","","","","","image-keyboard-response","30","138549","0.0-5.0","63df06a8c5ac5f3c6bf77e6f","665500ab8938657b03fbdba8","6657929bb651b453ebb03e50","2094","stimuli/2000010.jpg","2","","prediction_trial","2","","true","","2","true","true","true","true","true","true","[2]","000","010","1","","","","","","",""
"","","","","","image-keyboard-response","31","139471","0.0-6.0","63df06a8c5ac5f3c6bf77e6f","665500ab8938657b03fbdba8","6657929bb651b453ebb03e50","919","stimuli/20000102.jpg"," ","","feedback_trial","2","","","","","","","","","","","","","","","","","","","","",""
"","","","","","image-keyboard-response","32","140085","0.0-7.0","63df06a8c5ac5f3c6bf77e6f","665500ab8938657b03fbdba8","6657929bb651b453ebb03e50","612","stimuli/2011000.jpg","2","","prediction_trial","1","","false","","2","true","true","false","false","false","false","[1,2]","011","000","0","","","","","","",""
"","","","","","image-keyboard-response","33","140695","0.0-8.0","63df06a8c5ac5f3c6bf77e6f","665500ab8938657b03fbdba8","6657929bb651b453ebb03e50","608","stimuli/20110001.jpg"," ","","feedback_trial","1","","","","","","","","","","","","","","","","","","","","",""
"","","","","","image-keyboard-response","34","142169","0.0-9.0","63df06a8c5ac5f3c6bf77e6f","665500ab8938657b03fbdba8","6657929bb651b453ebb03e50","1471","stimuli/1111010.jpg","1","","prediction_trial","1","","true","","1","false","true","false","false","false","false","[1,0,2]","111","010","1","","","","","","",""
"","","","","","image-keyboard-response","35","142882","0.0-10.0","63df06a8c5ac5f3c6bf77e6f","665500ab8938657b03fbdba8","6657929bb651b453ebb03e50","711","stimuli/11110101.jpg"," ","","feedback_trial","1","","","","","","","","","","","","","","","","","","","","",""
"","","","","","image-keyboard-response","36","144281","0.0-11.0","63df06a8c5ac5f3c6bf77e6f","665500ab8938657b03fbdba8","6657929bb651b453ebb03e50","1397","stimuli/0100101.jpg","2","","prediction_trial","0","","false","","0","false","false","false","true","false","false","[0]","100","101","0","","","","","","",""
"","","","","","image-keyboard-response","37","144948","0.0-12.0","63df06a8c5ac5f3c6bf77e6f","665500ab8938657b03fbdba8","6657929bb651b453ebb03e50","664","stimuli/01001010.jpg"," ","","feedback_trial","0","","","","","","","","","","","","","","","","","","","","",""
"","","","","","image-keyboard-response","38","146370","0.0-13.0","63df06a8c5ac5f3c6bf77e6f","665500ab8938657b03fbdba8","6657929bb651b453ebb03e50","1420","stimuli/0010110.jpg","1","","prediction_trial","0","","false","","0","false","false","true","true","false","false","[0]","010","110","0","","","","","","",""
"","","","","","image-keyboard-response","39","148657","0.0-14.0","63df06a8c5ac5f3c6bf77e6f","665500ab8938657b03fbdba8","6657929bb651b453ebb03e50","2284","stimuli/00101100.jpg"," ","","feedback_trial","0","","","","","","","","","","","","","","","","","","","","",""
"","","","","","image-keyboard-response","40","150101","0.0-15.0","63df06a8c5ac5f3c6bf77e6f","665500ab8938657b03fbdba8","6657929bb651b453ebb03e50","1442","stimuli/2001001.jpg","2","","prediction_trial","2","","true","","2","false","true","false","true","false","true","[2]","001","001","1","","","","","","",""
"","","","","","image-keyboard-response","41","150938","0.0-16.0","63df06a8c5ac5f3c6bf77e6f","665500ab8938657b03fbdba8","6657929bb651b453ebb03e50","835","stimuli/20010012.jpg"," ","","feedback_trial","2","","","","","","","","","","","","","","","","","","","","",""
"","","","","","image-keyboard-response","42","154882","0.0-17.0","63df06a8c5ac5f3c6bf77e6f","665500ab8938657b03fbdba8","6657929bb651b453ebb03e50","3942","stimuli/1001101.jpg","1","","prediction_trial","1","","true","","1","true","true","true","true","true","true","[1]","001","101","1","","","","","","",""
"","","","","","image-keyboard-response","43","156168","0.0-18.0","63df06a8c5ac5f3c6bf77e6f","665500ab8938657b03fbdba8","6657929bb651b453ebb03e50","1283","stimuli/10011011.jpg"," ","","feedback_trial","1","","","","","","","","","","","","","","","","","","","","",""
"","","","","","image-keyboard-response","44","156793","0.0-19.0","63df06a8c5ac5f3c6bf77e6f","665500ab8938657b03fbdba8","6657929bb651b453ebb03e50","623","stimuli/1011100.jpg","1","","prediction_trial","1","","true","","1","true","true","false","false","false","false","[1,2]","011","100","1","","","","","","",""
"","","","","","image-keyboard-response","45","157385","0.0-20.0","63df06a8c5ac5f3c6bf77e6f","665500ab8938657b03fbdba8","6657929bb651b453ebb03e50","591","stimuli/10111001.jpg"," ","","feedback_trial","1","","","","","","","","","","","","","","","","","","","","",""
"","","","","","image-keyboard-response","46","157834","0.0-21.0","63df06a8c5ac5f3c6bf77e6f","665500ab8938657b03fbdba8","6657929bb651b453ebb03e50","446","stimuli/1001001.jpg","1","","prediction_trial","1","","true","","1","true","true","true","true","true","true","[1]","001","001","1","","","","","","",""
"","","","","","image-keyboard-response","47","158337","0.0-22.0","63df06a8c5ac5f3c6bf77e6f","665500ab8938657b03fbdba8","6657929bb651b453ebb03e50","500","stimuli/10010011.jpg"," ","","feedback_trial","1","","","","","","","","","","","","","","","","","","","","",""
"","","","","","image-keyboard-response","48","159605","0.0-23.0","63df06a8c5ac5f3c6bf77e6f","665500ab8938657b03fbdba8","6657929bb651b453ebb03e50","1266","stimuli/2011111.jpg","1","","prediction_trial","2","","false","","2","false","false","false","false","false","false","[1,2]","011","111","0","","","","","","",""
"","","","","","image-keyboard-response","49","163168","0.0-24.0","63df06a8c5ac5f3c6bf77e6f","665500ab8938657b03fbdba8","6657929bb651b453ebb03e50","3560","stimuli/20111112.jpg"," ","","feedback_trial","1","","","","","","","","","","","","","","","","","","","","",""
"","","","","","image-keyboard-response","50","165652","0.0-25.0","63df06a8c5ac5f3c6bf77e6f","665500ab8938657b03fbdba8","6657929bb651b453ebb03e50","2483","stimuli/2111101.jpg","2","","prediction_trial","1","","false","","2","false","false","false","false","false","false","[2,1,0]","111","101","0","","","","","","",""
"","","","","","image-keyboard-response","51","166892","0.0-26.0","63df06a8c5ac5f3c6bf77e6f","665500ab8938657b03fbdba8","6657929bb651b453ebb03e50","1238","stimuli/21111011.jpg"," ","","feedback_trial","2","","","","","","","","","","","","","","","","","","","","",""
"","","","","","image-keyboard-response","52","168592","0.0-27.0","63df06a8c5ac5f3c6bf77e6f","665500ab8938657b03fbdba8","6657929bb651b453ebb03e50","1698","stimuli/1110101.jpg","1","","prediction_trial","1","","true","","1","true","true","false","false","false","false","[1,0]","110","101","1","","","","","","",""
"","","","","","image-keyboard-response","53","169230","0.0-28.0","63df06a8c5ac5f3c6bf77e6f","665500ab8938657b03fbdba8","6657929bb651b453ebb03e50","636","stimuli/11101011.jpg"," ","","feedback_trial","1","","","","","","","","","","","","","","","","","","","","",""
"","","","","","image-keyboard-response","54","170330","0.0-29.0","63df06a8c5ac5f3c6bf77e6f","665500ab8938657b03fbdba8","6657929bb651b453ebb03e50","1098","stimuli/2101111.jpg","1","","prediction_trial","0","","false","","2","false","false","false","false","false","false","[2,0]","101","111","0","","","","","","",""
"","","","","","image-keyboard-response","55","171056","0.0-30.0","63df06a8c5ac5f3c6bf77e6f","665500ab8938657b03fbdba8","6657929bb651b453ebb03e50","723","stimuli/21011110.jpg"," ","","feedback_trial","2","","","","","","","","","","","","","","","","","","","","",""
"","","","","","image-keyboard-response","56","173024","0.0-31.0","63df06a8c5ac5f3c6bf77e6f","665500ab8938657b03fbdba8","6657929bb651b453ebb03e50","1966","stimuli/0110100.jpg","0","","prediction_trial","1","","false","","0","false","true","false","false","false","false","[1,0]","110","100","0","","","","","","",""
"","","","","","image-keyboard-response","57","174166","0.0-32.0","63df06a8c5ac5f3c6bf77e6f","665500ab8938657b03fbdba8","6657929bb651b453ebb03e50","1139","stimuli/01101001.jpg"," ","","feedback_trial","1","","","","","","","","","","","","","","","","","","","","",""
"","","","","","image-keyboard-response","58","175137","0.0-33.0","63df06a8c5ac5f3c6bf77e6f","665500ab8938657b03fbdba8","6657929bb651b453ebb03e50","969","stimuli/1000010.jpg","1","","prediction_trial","1","","true","","1","false","true","true","true","false","true","[1]","000","010","1","","","","","","",""
"","","","","","image-keyboard-response","59","175540","0.0-34.0","63df06a8c5ac5f3c6bf77e6f","665500ab8938657b03fbdba8","6657929bb651b453ebb03e50","400","stimuli/10000101.jpg"," ","","feedback_trial","1","","","","","","","","","","","","","","","","","","","","",""
"","","","","","image-keyboard-response","60","176468","0.0-35.0","63df06a8c5ac5f3c6bf77e6f","665500ab8938657b03fbdba8","6657929bb651b453ebb03e50","926","stimuli/2011100.jpg","2","","prediction_trial","2","","true","","2","true","true","false","false","false","false","[1,2]","011","100","1","","","","","","",""
"","","","","","image-keyboard-response","61","176822","0.0-36.0","63df06a8c5ac5f3c6bf77e6f","665500ab8938657b03fbdba8","6657929bb651b453ebb03e50","337","stimuli/20111002.jpg"," ","","feedback_trial","1","","","","","","","","","","","","","","","","","","","","",""
"","","","","","image-keyboard-response","62","177742","0.0-37.0","63df06a8c5ac5f3c6bf77e6f","665500ab8938657b03fbdba8","6657929bb651b453ebb03e50","918","stimuli/1001000.jpg","1","","prediction_trial","1","","true","","1","true","true","true","true","true","true","[1]","001","000","1","","","","","","",""
"","","","","","image-keyboard-response","63","178239","0.0-38.0","63df06a8c5ac5f3c6bf77e6f","665500ab8938657b03fbdba8","6657929bb651b453ebb03e50","495","stimuli/10010001.jpg"," ","","feedback_trial","1","","","","","","","","","","","","","","","","","","","","",""
"","","","","","image-keyboard-response","64","179065","0.0-39.0","63df06a8c5ac5f3c6bf77e6f","665500ab8938657b03fbdba8","6657929bb651b453ebb03e50","824","stimuli/2111100.jpg","2","","prediction_trial","2","","true","","2","true","true","false","false","false","false","[1,0,2]","111","100","1","","","","","","",""
"","","","","","image-keyboard-response","65","179520","0.0-40.0","63df06a8c5ac5f3c6bf77e6f","665500ab8938657b03fbdba8","6657929bb651b453ebb03e50","452","stimuli/21111002.jpg"," ","","feedback_trial","1","","","","","","","","","","","","","","","","","","","","",""
"","","","","","image-keyboard-response","66","181013","0.0-41.0","63df06a8c5ac5f3c6bf77e6f","665500ab8938657b03fbdba8","6657929bb651b453ebb03e50","1491","stimuli/2010011.jpg","2","","prediction_trial","2","","true","","2","false","false","true","true","false","false","[2]","010","011","1","","","","","","",""
"","","","","","image-keyboard-response","67","181399","0.0-42.0","63df06a8c5ac5f3c6bf77e6f","665500ab8938657b03fbdba8","6657929bb651b453ebb03e50","385","stimuli/20100112.jpg"," ","","feedback_trial","2","","","","","","","","","","","","","","","","","","","","",""
"","","","","","image-keyboard-response","68","182546","0.0-43.0","63df06a8c5ac5f3c6bf77e6f","665500ab8938657b03fbdba8","6657929bb651b453ebb03e50","1144","stimuli/0000011.jpg","0","","prediction_trial","0","","true","","0","true","true","true","true","true","true","[0]","000","011","1","","","","","","",""
"","","","","","image-keyboard-response","69","182873","0.0-44.0","63df06a8c5ac5f3c6bf77e6f","665500ab8938657b03fbdba8","6657929bb651b453ebb03e50","325","stimuli/00000110.jpg"," ","","feedback_trial","0","","","","","","","","","","","","","","","","","","","","",""
"","","","","","image-keyboard-response","70","183856","0.0-45.0","63df06a8c5ac5f3c6bf77e6f","665500ab8938657b03fbdba8","6657929bb651b453ebb03e50","982","stimuli/0011110.jpg","0","","prediction_trial","0","","true","","0","false","false","true","true","false","false","[0]","011","110","1","","","","","","",""
"","","","","","image-keyboard-response","71","184363","0.0-46.0","63df06a8c5ac5f3c6bf77e6f","665500ab8938657b03fbdba8","6657929bb651b453ebb03e50","505","stimuli/00111100.jpg"," ","","feedback_trial","0","","","","","","","","","","","","","","","","","","","","",""
"","","","","","image-keyboard-response","72","185299","0.0-47.0","63df06a8c5ac5f3c6bf77e6f","665500ab8938657b03fbdba8","6657929bb651b453ebb03e50","934","stimuli/1110100.jpg","1","","prediction_trial","1","","true","","1","true","true","false","false","false","false","[0,1]","110","100","1","","","","","","",""
"","","","","","image-keyboard-response","73","185611","0.0-48.0","63df06a8c5ac5f3c6bf77e6f","665500ab8938657b03fbdba8","6657929bb651b453ebb03e50","310","stimuli/11101001.jpg"," ","","feedback_trial","0","","","","","","","","","","","","","","","","","","","","",""
"","","","","","image-keyboard-response","74","187039","0.0-49.0","63df06a8c5ac5f3c6bf77e6f","665500ab8938657b03fbdba8","6657929bb651b453ebb03e50","1427","stimuli/0111101.jpg","0","","prediction_trial","2","","false","","0","false","false","false","false","false","false","[2,1,0]","111","101","0","","","","","","",""
"","","","","","image-keyboard-response","75","187604","0.0-50.0","63df06a8c5ac5f3c6bf77e6f","665500ab8938657b03fbdba8","6657929bb651b453ebb03e50","562","stimuli/01111012.jpg"," ","","feedback_trial","2","","","","","","","","","","","","","","","","","","","","",""
"","","","","","image-keyboard-response","76","188721","0.0-51.0","63df06a8c5ac5f3c6bf77e6f","665500ab8938657b03fbdba8","6657929bb651b453ebb03e50","1116","stimuli/1110001.jpg","1","","prediction_trial","1","","true","","1","true","true","false","false","false","false","[1,0]","110","001","1","","","","","","",""
"","","","","","image-keyboard-response","77","189049","0.0-52.0","63df06a8c5ac5f3c6bf77e6f","665500ab8938657b03fbdba8","6657929bb651b453ebb03e50","326","stimuli/11100011.jpg"," ","","feedback_trial","1","","","","","","","","","","","","","","","","","","","","",""
"","","","","","image-keyboard-response","78","190036","0.0-53.0","63df06a8c5ac5f3c6bf77e6f","665500ab8938657b03fbdba8","6657929bb651b453ebb03e50","986","stimuli/0110000.jpg","0","","prediction_trial","0","","true","","0","true","true","false","false","false","false","[0,1]","110","000","1","","","","","","",""
"","","","","","image-keyboard-response","79","190305","0.0-54.0","63df06a8c5ac5f3c6bf77e6f","665500ab8938657b03fbdba8","6657929bb651b453ebb03e50","267","stimuli/01100000.jpg"," ","","feedback_trial","0","","","","","","","","","","","","","","","","","","","","",""
"","","","","","image-keyboard-response","80","190972","0.0-55.0","63df06a8c5ac5f3c6bf77e6f","665500ab8938657b03fbdba8","6657929bb651b453ebb03e50","665","stimuli/1111101.jpg","1","","prediction_trial","2","","false","","1","true","true","false","false","false","false","[0,1,2]","111","101","0","","","","","","",""
"","","","","","image-keyboard-response","81","191271","0.0-56.0","63df06a8c5ac5f3c6bf77e6f","665500ab8938657b03fbdba8","6657929bb651b453ebb03e50","298","stimuli/11111012.jpg"," ","","feedback_trial","0","","","","","","","","","","","","","","","","","","","","",""
"","","","","","image-keyboard-response","82","192191","0.0-57.0","63df06a8c5ac5f3c6bf77e6f","665500ab8938657b03fbdba8","6657929bb651b453ebb03e50","918","stimuli/0010100.jpg","0","","prediction_trial","0","","true","","0","false","true","true","true","false","true","[0]","010","100","1","","","","","","",""
"","","","","","image-keyboard-response","83","192565","0.0-58.0","63df06a8c5ac5f3c6bf77e6f","665500ab8938657b03fbdba8","6657929bb651b453ebb03e50","372","stimuli/00101000.jpg"," ","","feedback_trial","0","","","","","","","","","","","","","","","","","","","","",""
"","","","","","image-keyboard-response","84","193373","0.0-59.0","63df06a8c5ac5f3c6bf77e6f","665500ab8938657b03fbdba8","6657929bb651b453ebb03e50","806","stimuli/0111011.jpg","0","","prediction_trial","0","","true","","0","true","true","false","false","false","false","[2,1,0]","111","011","1","","","","","","",""
"","","","","","image-keyboard-response","85","193764","0.0-60.0","63df06a8c5ac5f3c6bf77e6f","665500ab8938657b03fbdba8","6657929bb651b453ebb03e50","389","stimuli/01110110.jpg"," ","","feedback_trial","2","","","","","","","","","","","","","","","","","","","","",""
"","","","","","image-keyboard-response","86","194557","0.0-61.0","63df06a8c5ac5f3c6bf77e6f","665500ab8938657b03fbdba8","6657929bb651b453ebb03e50","791","stimuli/1101001.jpg","1","","prediction_trial","1","","true","","1","true","true","true","true","true","true","[1]","101","001","1","","","","","","",""
"","","","","","image-keyboard-response","87","194848","0.0-62.0","63df06a8c5ac5f3c6bf77e6f","665500ab8938657b03fbdba8","6657929bb651b453ebb03e50","289","stimuli/11010011.jpg"," ","","feedback_trial","1","","","","","","","","","","","","","","","","","","","","",""
"","","","","","image-keyboard-response","88","195599","0.0-63.0","63df06a8c5ac5f3c6bf77e6f","665500ab8938657b03fbdba8","6657929bb651b453ebb03e50","749","stimuli/0100100.jpg","0","","prediction_trial","0","","true","","0","false","true","false","true","false","true","[0]","100","100","1","","","","","","",""
"","","","","","image-keyboard-response","89","195939","0.0-64.0","63df06a8c5ac5f3c6bf77e6f","665500ab8938657b03fbdba8","6657929bb651b453ebb03e50","338","stimuli/01001000.jpg"," ","","feedback_trial","0","","","","","","","","","","","","","","","","","","","","",""
"","","","","","image-keyboard-response","90","196761","0.0-65.0","63df06a8c5ac5f3c6bf77e6f","665500ab8938657b03fbdba8","6657929bb651b453ebb03e50","819","stimuli/1001010.jpg","1","","prediction_trial","1","","true","","1","false","true","true","true","false","true","[1]","001","010","1","","","","","","",""
"","","","","","image-keyboard-response","91","197400","0.0-66.0","63df06a8c5ac5f3c6bf77e6f","665500ab8938657b03fbdba8","6657929bb651b453ebb03e50","637","stimuli/10010101.jpg"," ","","feedback_trial","1","","","","","","","","","","","","","","","","","","","","",""
"","","","","","image-keyboard-response","92","198775","0.0-67.0","63df06a8c5ac5f3c6bf77e6f","665500ab8938657b03fbdba8","6657929bb651b453ebb03e50","1374","stimuli/0111110.jpg","1","","prediction_trial","0","","false","","0","false","false","false","false","false","false","[1,2,0]","111","110","0","","","","","","",""
"","","","","","image-keyboard-response","93","199093","0.0-68.0","63df06a8c5ac5f3c6bf77e6f","665500ab8938657b03fbdba8","6657929bb651b453ebb03e50","315","stimuli/01111100.jpg"," ","","feedback_trial","1","","","","","","","","","","","","","","","","","","","","",""
"","","","","","image-keyboard-response","94","200258","0.0-69.0","63df06a8c5ac5f3c6bf77e6f","665500ab8938657b03fbdba8","6657929bb651b453ebb03e50","1163","stimuli/2100010.jpg","2","","prediction_trial","2","","true","","2","true","true","true","true","true","true","[2]","100","010","1","","","","","","",""
"","","","","","image-keyboard-response","95","200484","0.0-70.0","63df06a8c5ac5f3c6bf77e6f","665500ab8938657b03fbdba8","6657929bb651b453ebb03e50","223","stimuli/21000102.jpg"," ","","feedback_trial","2","","","","","","","","","","","","","","","","","","","","",""
"","","","","","image-keyboard-response","96","201191","0.0-71.0","63df06a8c5ac5f3c6bf77e6f","665500ab8938657b03fbdba8","6657929bb651b453ebb03e50","704","stimuli/2101100.jpg","2","","prediction_trial","2","","true","","2","true","true","false","false","false","false","[0,2]","101","100","1","","","","","","",""
"","","","","","image-keyboard-response","97","201711","0.0-72.0","63df06a8c5ac5f3c6bf77e6f","665500ab8938657b03fbdba8","6657929bb651b453ebb03e50","518","stimuli/21011002.jpg"," ","","feedback_trial","0","","","","","","","","","","","","","","","","","","","","",""
"","","","","","image-keyboard-response","98","203270","0.0-73.0","63df06a8c5ac5f3c6bf77e6f","665500ab8938657b03fbdba8","6657929bb651b453ebb03e50","1557","stimuli/2100111.jpg","1","","prediction_trial","2","","false","","2","false","false","true","true","false","false","[2]","100","111","0","","","","","","",""
"","","","","","image-keyboard-response","99","203590","0.0-74.0","63df06a8c5ac5f3c6bf77e6f","665500ab8938657b03fbdba8","6657929bb651b453ebb03e50","317","stimuli/21001112.jpg"," ","","feedback_trial","2","","","","","","","","","","","","","","","","","","","","",""
"","","","","","image-keyboard-response","100","205144","0.0-75.0","63df06a8c5ac5f3c6bf77e6f","665500ab8938657b03fbdba8","6657929bb651b453ebb03e50","1552","stimuli/0000101.jpg","2","","prediction_trial","0","","false","","0","false","false","true","true","false","false","[0]","000","101","0","","","","","","",""
"","","","","","image-keyboard-response","101","205537","0.0-76.0","63df06a8c5ac5f3c6bf77e6f","665500ab8938657b03fbdba8","6657929bb651b453ebb03e50","392","stimuli/00001010.jpg"," ","","feedback_trial","0","","","","","","","","","","","","","","","","","","","","",""
"","","","","","image-keyboard-response","102","206441","0.0-77.0","63df06a8c5ac5f3c6bf77e6f","665500ab8938657b03fbdba8","6657929bb651b453ebb03e50","902","stimuli/1111001.jpg","1","","prediction_trial","0","","false","","1","true","true","false","false","false","false","[0,1,2]","111","001","0","","","","","","",""
"","","","","","image-keyboard-response","103","206759","0.0-78.0","63df06a8c5ac5f3c6bf77e6f","665500ab8938657b03fbdba8","6657929bb651b453ebb03e50","315","stimuli/11110010.jpg"," ","","feedback_trial","0","","","","","","","","","","","","","","","","","","","","",""
"","","","","","image-keyboard-response","104","208090","0.0-79.0","63df06a8c5ac5f3c6bf77e6f","665500ab8938657b03fbdba8","6657929bb651b453ebb03e50","1329","stimuli/2101101.jpg","0","","prediction_trial","2","","false","","2","false","false","false","false","false","false","[0,2]","101","101","0","","","","","","",""
"","","","","","image-keyboard-response","105","208334","0.0-80.0","63df06a8c5ac5f3c6bf77e6f","665500ab8938657b03fbdba8","6657929bb651b453ebb03e50","241","stimuli/21011012.jpg"," ","","feedback_trial","0","","","","","","","","","","","","","","","","","","","","",""
"","","","","","image-keyboard-response","106","209174","0.0-81.0","63df06a8c5ac5f3c6bf77e6f","665500ab8938657b03fbdba8","6657929bb651b453ebb03e50","838","stimuli/1101111.jpg","0","","prediction_trial","1","","false","","1","false","false","true","true","false","false","[1]","101","111","0","","","","","","",""
"","","","","","image-keyboard-response","107","210326","0.0-82.0","63df06a8c5ac5f3c6bf77e6f","665500ab8938657b03fbdba8","6657929bb651b453ebb03e50","1150","stimuli/11011111.jpg"," ","","feedback_trial","1","","","","","","","","","","","","","","","","","","","","",""
"","","","","","image-keyboard-response","108","211027","0.0-83.0","63df06a8c5ac5f3c6bf77e6f","665500ab8938657b03fbdba8","6657929bb651b453ebb03e50","699","stimuli/2110101.jpg","0","","prediction_trial","2","","false","","2","false","false","true","true","false","false","[2]","110","101","0","","","","","","",""
"","","","","","image-keyboard-response","109","211633","0.0-84.0","63df06a8c5ac5f3c6bf77e6f","665500ab8938657b03fbdba8","6657929bb651b453ebb03e50","604","stimuli/21101012.jpg"," ","","feedback_trial","2","","","","","","","","","","","","","","","","","","","","",""
"","","","","","image-keyboard-response","110","212199","0.0-85.0","63df06a8c5ac5f3c6bf77e6f","665500ab8938657b03fbdba8","6657929bb651b453ebb03e50","564","stimuli/0101010.jpg","0","","prediction_trial","0","","true","","0","true","true","false","false","false","false","[0,2]","101","010","1","","","","","","",""
"","","","","","image-keyboard-response","111","212763","0.0-86.0","63df06a8c5ac5f3c6bf77e6f","665500ab8938657b03fbdba8","6657929bb651b453ebb03e50","562","stimuli/01010100.jpg"," ","","feedback_trial","0","","","","","","","","","","","","","","","","","","","","",""
"","","","","","image-keyboard-response","112","213620","0.0-87.0","63df06a8c5ac5f3c6bf77e6f","665500ab8938657b03fbdba8","6657929bb651b453ebb03e50","855","stimuli/2010000.jpg","2","","prediction_trial","2","","true","","2","true","true","true","true","true","true","[2]","010","000","1","","","","","","",""
"","","","","","image-keyboard-response","113","213947","0.0-88.0","63df06a8c5ac5f3c6bf77e6f","665500ab8938657b03fbdba8","6657929bb651b453ebb03e50","325","stimuli/20100002.jpg"," ","","feedback_trial","2","","","","","","","","","","","","","","","","","","","","",""
"","","","","","image-keyboard-response","114","214839","0.0-89.0","63df06a8c5ac5f3c6bf77e6f","665500ab8938657b03fbdba8","6657929bb651b453ebb03e50","890","stimuli/2010100.jpg","2","","prediction_trial","2","","true","","2","true","true","true","true","true","true","[2]","010","100","1","","","","","","",""
"","","","","","image-keyboard-response","115","215246","0.0-90.0","63df06a8c5ac5f3c6bf77e6f","665500ab8938657b03fbdba8","6657929bb651b453ebb03e50","405","stimuli/20101002.jpg"," ","","feedback_trial","2","","","","","","","","","","","","","","","","","","","","",""
"","","","","","image-keyboard-response","116","216276","0.0-91.0","63df06a8c5ac5f3c6bf77e6f","665500ab8938657b03fbdba8","6657929bb651b453ebb03e50","1028","stimuli/1100000.jpg","1","","prediction_trial","1","","true","","1","true","true","true","true","true","true","[1]","100","000","1","","","","","","",""
"","","","","","image-keyboard-response","117","216611","0.0-92.0","63df06a8c5ac5f3c6bf77e6f","665500ab8938657b03fbdba8","6657929bb651b453ebb03e50","332","stimuli/11000001.jpg"," ","","feedback_trial","1","","","","","","","","","","","","","","","","","","","","",""
"","","","","","image-keyboard-response","118","217545","0.0-93.0","63df06a8c5ac5f3c6bf77e6f","665500ab8938657b03fbdba8","6657929bb651b453ebb03e50","932","stimuli/1100001.jpg","1","","prediction_trial","1","","true","","1","true","true","true","true","true","true","[1]","100","001","1","","","","","","",""
"","","","","","image-keyboard-response","119","217992","0.0-94.0","63df06a8c5ac5f3c6bf77e6f","665500ab8938657b03fbdba8","6657929bb651b453ebb03e50","445","stimuli/11000011.jpg"," ","","feedback_trial","1","","","","","","","","","","","","","","","","","","","","",""
"","","","","","image-keyboard-response","120","218865","0.0-95.0","63df06a8c5ac5f3c6bf77e6f","665500ab8938657b03fbdba8","6657929bb651b453ebb03e50","870","stimuli/0011111.jpg","1","","prediction_trial","0","","false","","0","false","false","true","true","false","false","[0]","011","111","0","","","","","","",""
"","","","","","image-keyboard-response","121","219396","0.0-96.0","63df06a8c5ac5f3c6bf77e6f","665500ab8938657b03fbdba8","6657929bb651b453ebb03e50","529","stimuli/00111110.jpg"," ","","feedback_trial","0","","","","","","","","","","","","","","","","","","","","",""
"","","","","","image-keyboard-response","122","220692","0.0-97.0","63df06a8c5ac5f3c6bf77e6f","665500ab8938657b03fbdba8","6657929bb651b453ebb03e50","1293","stimuli/2100101.jpg","2","","prediction_trial","2","","true","","2","false","false","true","true","false","false","[2]","100","101","1","","","","","","",""
"","","","","","image-keyboard-response","123","221028","0.0-98.0","63df06a8c5ac5f3c6bf77e6f","665500ab8938657b03fbdba8","6657929bb651b453ebb03e50","335","stimuli/21001012.jpg"," ","","feedback_trial","2","","","","","","","","","","","","","","","","","","","","",""
"","","","","","image-keyboard-response","124","222006","0.0-99.0","63df06a8c5ac5f3c6bf77e6f","665500ab8938657b03fbdba8","6657929bb651b453ebb03e50","976","stimuli/1110000.jpg","1","","prediction_trial","1","","true","","1","true","true","false","false","false","false","[1,0]","110","000","1","","","","","","",""
"","","","","","image-keyboard-response","125","222348","0.0-100.0","63df06a8c5ac5f3c6bf77e6f","665500ab8938657b03fbdba8","6657929bb651b453ebb03e50","340","stimuli/11100001.jpg"," ","","feedback_trial","1","","","","","","","","","","","","","","","","","","","","",""
"","","","","","image-keyboard-response","126","223737","0.0-101.0","63df06a8c5ac5f3c6bf77e6f","665500ab8938657b03fbdba8","6657929bb651b453ebb03e50","1388","stimuli/0101110.jpg","1","","prediction_trial","0","","false","","0","false","false","false","false","false","false","[2,0]","101","110","0","","","","","","",""
"","","","","","image-keyboard-response","127","224337","0.0-102.0","63df06a8c5ac5f3c6bf77e6f","665500ab8938657b03fbdba8","6657929bb651b453ebb03e50","597","stimuli/01011100.jpg"," ","","feedback_trial","2","","","","","","","","","","","","","","","","","","","","",""
"","","","","","image-keyboard-response","128","225154","0.0-103.0","63df06a8c5ac5f3c6bf77e6f","665500ab8938657b03fbdba8","6657929bb651b453ebb03e50","815","stimuli/2001100.jpg","2","","prediction_trial","2","","true","","2","true","true","false","true","false","true","[2]","001","100","1","","","","","","",""
"","","","","","image-keyboard-response","129","225546","0.0-104.0","63df06a8c5ac5f3c6bf77e6f","665500ab8938657b03fbdba8","6657929bb651b453ebb03e50","390","stimuli/20011002.jpg"," ","","feedback_trial","2","","","","","","","","","","","","","","","","","","","","",""
"","","","","","image-keyboard-response","130","226576","0.0-105.0","63df06a8c5ac5f3c6bf77e6f","665500ab8938657b03fbdba8","6657929bb651b453ebb03e50","1028","stimuli/1111000.jpg","1","","prediction_trial","1","","true","","1","true","true","false","false","false","false","[1,0,2]","111","000","1","","","","","","",""
"","","","","","image-keyboard-response","131","226985","0.0-106.0","63df06a8c5ac5f3c6bf77e6f","665500ab8938657b03fbdba8","6657929bb651b453ebb03e50","405","stimuli/11110001.jpg"," ","","feedback_trial","1","","","","","","","","","","","","","","","","","","","","",""
"","","","","","image-keyboard-response","132","227563","0.0-107.0","63df06a8c5ac5f3c6bf77e6f","665500ab8938657b03fbdba8","6657929bb651b453ebb03e50","576","stimuli/2001000.jpg","2","","prediction_trial","2","","true","","2","true","true","false","true","false","true","[2]","001","000","1","","","","","","",""
"","","","","","image-keyboard-response","133","227951","0.0-108.0","63df06a8c5ac5f3c6bf77e6f","665500ab8938657b03fbdba8","6657929bb651b453ebb03e50","386","stimuli/20010002.jpg"," ","","feedback_trial","2","","","","","","","","","","","","","","","","","","","","",""
"","","","","","image-keyboard-response","134","228840","0.0-109.0","63df06a8c5ac5f3c6bf77e6f","665500ab8938657b03fbdba8","6657929bb651b453ebb03e50","887","stimuli/2110010.jpg","2","","prediction_trial","2","","true","","2","true","true","true","true","true","true","[2]","110","010","1","","","","","","",""
"","","","","","image-keyboard-response","135","229356","0.0-110.0","63df06a8c5ac5f3c6bf77e6f","665500ab8938657b03fbdba8","6657929bb651b453ebb03e50","514","stimuli/21100102.jpg"," ","","feedback_trial","2","","","","","","","","","","","","","","","","","","","","",""
"","","","","","image-keyboard-response","136","230284","0.0-111.0","63df06a8c5ac5f3c6bf77e6f","665500ab8938657b03fbdba8","6657929bb651b453ebb03e50","926","stimuli/2001110.jpg","2","","prediction_trial","2","","true","","2","true","true","false","true","false","true","[2]","001","110","1","","","","","","",""
"","","","","","image-keyboard-response","137","230644","0.0-112.0","63df06a8c5ac5f3c6bf77e6f","665500ab8938657b03fbdba8","6657929bb651b453ebb03e50","357","stimuli/20011102.jpg"," ","","feedback_trial","2","","","","","","","","","","","","","","","","","","","","",""
"","","","","","image-keyboard-response","138","231969","0.0-113.0","63df06a8c5ac5f3c6bf77e6f","665500ab8938657b03fbdba8","6657929bb651b453ebb03e50","1323","stimuli/2011101.jpg","0","","prediction_trial","1","","false","","2","false","false","false","false","false","false","[2,1]","011","101","0","","","","","","",""
"","","","","","image-keyboard-response","139","232374","0.0-114.0","63df06a8c5ac5f3c6bf77e6f","665500ab8938657b03fbdba8","6657929bb651b453ebb03e50","403","stimuli/20111011.jpg"," ","","feedback_trial","2","","","","","","","","","","","","","","","","","","","","",""
"","","","","","image-keyboard-response","140","233366","0.0-115.0","63df06a8c5ac5f3c6bf77e6f","665500ab8938657b03fbdba8","6657929bb651b453ebb03e50","990","stimuli/0100010.jpg","0","","prediction_trial","0","","true","","0","true","true","false","true","false","true","[0]","100","010","1","","","","","","",""
"","","","","","image-keyboard-response","141","233629","0.0-116.0","63df06a8c5ac5f3c6bf77e6f","665500ab8938657b03fbdba8","6657929bb651b453ebb03e50","261","stimuli/01000100.jpg"," ","","feedback_trial","0","","","","","","","","","","","","","","","","","","","","",""
"","","","","","image-keyboard-response","142","234990","0.0-117.0","63df06a8c5ac5f3c6bf77e6f","665500ab8938657b03fbdba8","6657929bb651b453ebb03e50","1359","stimuli/1001011.jpg","2","","prediction_trial","1","","false","","1","false","false","true","true","false","false","[1]","001","011","0","","","","","","",""
"","","","","","image-keyboard-response","143","235493","0.0-118.0","63df06a8c5ac5f3c6bf77e6f","665500ab8938657b03fbdba8","6657929bb651b453ebb03e50","502","stimuli/10010111.jpg"," ","","feedback_trial","1","","","","","","","","","","","","","","","","","","","","",""
"","","","","","image-keyboard-response","144","237057","0.0-119.0","63df06a8c5ac5f3c6bf77e6f","665500ab8938657b03fbdba8","6657929bb651b453ebb03e50","1575","stimuli/0110110.jpg","0","","prediction_trial","0","","true","","0","false","false","false","false","false","false","[1,0]","110","110","1","","","","","","",""
"","","","","","image-keyboard-response","145","237384","0.0-120.0","63df06a8c5ac5f3c6bf77e6f","665500ab8938657b03fbdba8","6657929bb651b453ebb03e50","325","stimuli/01101100.jpg"," ","","feedback_trial","1","","","","","","","","","","","","","","","","","","","","",""
"","","","","","image-keyboard-response","146","238699","0.0-121.0","63df06a8c5ac5f3c6bf77e6f","665500ab8938657b03fbdba8","6657929bb651b453ebb03e50","1313","stimuli/0110010.jpg","0","","prediction_trial","0","","true","","0","true","true","false","false","false","false","[0,1]","110","010","1","","","","","","",""
"","","","","","image-keyboard-response","147","239063","0.0-122.0","63df06a8c5ac5f3c6bf77e6f","665500ab8938657b03fbdba8","6657929bb651b453ebb03e50","362","stimuli/01100100.jpg"," ","","feedback_trial","0","","","","","","","","","","","","","","","","","","","","",""
"","","","","","image-keyboard-response","148","240080","0.0-123.0","63df06a8c5ac5f3c6bf77e6f","665500ab8938657b03fbdba8","6657929bb651b453ebb03e50","1015","stimuli/1000101.jpg","1","","prediction_trial","1","","true","","1","true","true","true","true","true","true","[1]","000","101","1","","","","","","",""
"","","","","","image-keyboard-response","149","240342","0.0-124.0","63df06a8c5ac5f3c6bf77e6f","665500ab8938657b03fbdba8","6657929bb651b453ebb03e50","259","stimuli/10001011.jpg"," ","","feedback_trial","1","","","","","","","","","","","","","","","","","","","","",""
"","","","","","image-keyboard-response","150","241481","0.0-125.0","63df06a8c5ac5f3c6bf77e6f","665500ab8938657b03fbdba8","6657929bb651b453ebb03e50","1137","stimuli/0000010.jpg","0","","prediction_trial","0","","true","","0","true","true","true","true","true","true","[0]","000","010","1","","","","","","",""
"","","","","","image-keyboard-response","151","241747","0.0-126.0","63df06a8c5ac5f3c6bf77e6f","665500ab8938657b03fbdba8","6657929bb651b453ebb03e50","264","stimuli/00000100.jpg"," ","","feedback_trial","0","","","","","","","","","","","","","","","","","","","","",""
"","","","","","image-keyboard-response","152","242776","0.0-127.0","63df06a8c5ac5f3c6bf77e6f","665500ab8938657b03fbdba8","6657929bb651b453ebb03e50","1027","stimuli/1010010.jpg","1","","prediction_trial","1","","true","","1","false","true","false","true","false","true","[1]","010","010","1","","","","","","",""
"","","","","","image-keyboard-response","153","243157","0.0-128.0","63df06a8c5ac5f3c6bf77e6f","665500ab8938657b03fbdba8","6657929bb651b453ebb03e50","379","stimuli/10100101.jpg"," ","","feedback_trial","1","","","","","","","","","","","","","","","","","","","","",""
"","","","","","image-keyboard-response","154","245195","0.0-129.0","63df06a8c5ac5f3c6bf77e6f","665500ab8938657b03fbdba8","6657929bb651b453ebb03e50","2036","stimuli/0110011.jpg","0","","prediction_trial","0","","true","","0","true","true","false","false","false","false","[0,1]","110","011","1","","","","","","",""
"","","","","","image-keyboard-response","155","245556","0.0-130.0","63df06a8c5ac5f3c6bf77e6f","665500ab8938657b03fbdba8","6657929bb651b453ebb03e50","359","stimuli/01100110.jpg"," ","","feedback_trial","0","","","","","","","","","","","","","","","","","","","","",""
"","","","","","image-keyboard-response","156","246949","0.0-131.0","63df06a8c5ac5f3c6bf77e6f","665500ab8938657b03fbdba8","6657929bb651b453ebb03e50","1391","stimuli/2101001.jpg","2","","prediction_trial","0","","false","","2","false","true","false","false","false","false","[2,0]","101","001","0","","","","","","",""
"","","","","","image-keyboard-response","157","248023","0.0-132.0","63df06a8c5ac5f3c6bf77e6f","665500ab8938657b03fbdba8","6657929bb651b453ebb03e50","1071","stimuli/21010010.jpg"," ","","feedback_trial","2","","","","","","","","","","","","","","","","","","","","",""
"","","","","","image-keyboard-response","158","250831","0.0-133.0","63df06a8c5ac5f3c6bf77e6f","665500ab8938657b03fbdba8","6657929bb651b453ebb03e50","2807","stimuli/2110100.jpg","2","","prediction_trial","2","","true","","2","true","true","true","true","true","true","[2]","110","100","1","","","","","","",""
"","","","","","image-keyboard-response","159","251256","0.0-134.0","63df06a8c5ac5f3c6bf77e6f","665500ab8938657b03fbdba8","6657929bb651b453ebb03e50","422","stimuli/21101002.jpg"," ","","feedback_trial","2","","","","","","","","","","","","","","","","","","","","",""
"","","","","","image-keyboard-response","160","252726","0.0-135.0","63df06a8c5ac5f3c6bf77e6f","665500ab8938657b03fbdba8","6657929bb651b453ebb03e50","1469","stimuli/0000110.jpg","0","","prediction_trial","0","","true","","0","false","false","true","true","false","false","[0]","000","110","1","","","","","","",""
"","","","","","image-keyboard-response","161","253024","0.0-136.0","63df06a8c5ac5f3c6bf77e6f","665500ab8938657b03fbdba8","6657929bb651b453ebb03e50","295","stimuli/00001100.jpg"," ","","feedback_trial","0","","","","","","","","","","","","","","","","","","","","",""
"","","","","","image-keyboard-response","162","254433","0.0-137.0","63df06a8c5ac5f3c6bf77e6f","665500ab8938657b03fbdba8","6657929bb651b453ebb03e50","1407","stimuli/1000100.jpg","1","","prediction_trial","1","","true","","1","true","true","true","true","true","true","[1]","000","100","1","","","","","","",""
"","","","","","image-keyboard-response","163","254762","0.0-138.0","63df06a8c5ac5f3c6bf77e6f","665500ab8938657b03fbdba8","6657929bb651b453ebb03e50","327","stimuli/10001001.jpg"," ","","feedback_trial","1","","","","","","","","","","","","","","","","","","","","",""
"","","","","","image-keyboard-response","164","257357","0.0-139.0","63df06a8c5ac5f3c6bf77e6f","665500ab8938657b03fbdba8","6657929bb651b453ebb03e50","2593","stimuli/2010111.jpg","1","","prediction_trial","2","","false","","2","false","false","true","true","false","false","[2]","010","111","0","","","","","","",""
"","","","","","image-keyboard-response","165","257702","0.0-140.0","63df06a8c5ac5f3c6bf77e6f","665500ab8938657b03fbdba8","6657929bb651b453ebb03e50","343","stimuli/20101112.jpg"," ","","feedback_trial","2","","","","","","","","","","","","","","","","","","","","",""
"","","","","","image-keyboard-response","166","258976","0.0-141.0","63df06a8c5ac5f3c6bf77e6f","665500ab8938657b03fbdba8","6657929bb651b453ebb03e50","1272","stimuli/1101010.jpg","1","","prediction_trial","1","","true","","1","false","true","true","true","false","true","[1]","101","010","1","","","","","","",""
"","","","","","image-keyboard-response","167","259481","0.0-142.0","63df06a8c5ac5f3c6bf77e6f","665500ab8938657b03fbdba8","6657929bb651b453ebb03e50","503","stimuli/11010101.jpg"," ","","feedback_trial","1","","","","","","","","","","","","","","","","","","","","",""
"","","","","","image-keyboard-response","168","260552","0.0-143.0","63df06a8c5ac5f3c6bf77e6f","665500ab8938657b03fbdba8","6657929bb651b453ebb03e50","1069","stimuli/0001100.jpg","0","","prediction_trial","0","","true","","0","false","true","true","true","false","true","[0]","001","100","1","","","","","","",""
"","","","","","image-keyboard-response","169","261209","0.0-144.0","63df06a8c5ac5f3c6bf77e6f","665500ab8938657b03fbdba8","6657929bb651b453ebb03e50","655","stimuli/00011000.jpg"," ","","feedback_trial","0","","","","","","","","","","","","","","","","","","","","",""
"","","","","","image-keyboard-response","170","262373","0.0-145.0","63df06a8c5ac5f3c6bf77e6f","665500ab8938657b03fbdba8","6657929bb651b453ebb03e50","1161","stimuli/2000011.jpg","1","","prediction_trial","2","","false","","2","false","false","true","true","false","false","[2]","000","011","0","","","","","","",""
"","","","","","image-keyboard-response","171","263026","0.0-146.0","63df06a8c5ac5f3c6bf77e6f","665500ab8938657b03fbdba8","6657929bb651b453ebb03e50","651","stimuli/20000112.jpg"," ","","feedback_trial","2","","","","","","","","","","","","","","","","","","","","",""
"","","","","","image-keyboard-response","172","264181","0.0-147.0","63df06a8c5ac5f3c6bf77e6f","665500ab8938657b03fbdba8","6657929bb651b453ebb03e50","1153","stimuli/2100100.jpg","2","","prediction_trial","2","","true","","2","true","true","true","true","true","true","[2]","100","100","1","","","","","","",""
"","","","","","image-keyboard-response","173","264645","0.0-148.0","63df06a8c5ac5f3c6bf77e6f","665500ab8938657b03fbdba8","6657929bb651b453ebb03e50","461","stimuli/21001002.jpg"," ","","feedback_trial","2","","","","","","","","","","","","","","","","","","","","",""
"","","","","","image-keyboard-response","174","265784","0.0-149.0","63df06a8c5ac5f3c6bf77e6f","665500ab8938657b03fbdba8","6657929bb651b453ebb03e50","1137","stimuli/1011010.jpg","1","","prediction_trial","2","","false","","1","false","true","false","false","false","false","[1,2]","011","010","0","","","","","","",""
"","","","","","image-keyboard-response","175","267426","0.0-150.0","63df06a8c5ac5f3c6bf77e6f","665500ab8938657b03fbdba8","6657929bb651b453ebb03e50","1640","stimuli/10110102.jpg"," ","","feedback_trial","1","","","","","","","","","","","","","","","","","","","","",""
"","","","","","image-keyboard-response","176","269786","0.0-151.0","63df06a8c5ac5f3c6bf77e6f","665500ab8938657b03fbdba8","6657929bb651b453ebb03e50","2358","stimuli/0100111.jpg","1","","prediction_trial","0","","false","","0","false","false","false","true","false","false","[0]","100","111","0","","","","","","",""
"","","","","","image-keyboard-response","177","270329","0.0-152.0","63df06a8c5ac5f3c6bf77e6f","665500ab8938657b03fbdba8","6657929bb651b453ebb03e50","541","stimuli/01001110.jpg"," ","","feedback_trial","0","","","","","","","","","","","","","","","","","","","","",""
"","","","","","image-keyboard-response","178","271179","0.0-153.0","63df06a8c5ac5f3c6bf77e6f","665500ab8938657b03fbdba8","6657929bb651b453ebb03e50","847","stimuli/2100000.jpg","2","","prediction_trial","2","","true","","2","true","true","true","true","true","true","[2]","100","000","1","","","","","","",""
"","","","","","image-keyboard-response","179","271587","0.0-154.0","63df06a8c5ac5f3c6bf77e6f","665500ab8938657b03fbdba8","6657929bb651b453ebb03e50","406","stimuli/21000002.jpg"," ","","feedback_trial","2","","","","","","","","","","","","","","","","","","","","",""
"","","","","","image-keyboard-response","180","273323","0.0-155.0","63df06a8c5ac5f3c6bf77e6f","665500ab8938657b03fbdba8","6657929bb651b453ebb03e50","1734","stimuli/1011111.jpg","2","","prediction_trial","2","","true","","1","false","false","false","false","false","false","[2,1]","011","111","1","","","","","","",""
"","","","","","image-keyboard-response","181","273730","0.0-156.0","63df06a8c5ac5f3c6bf77e6f","665500ab8938657b03fbdba8","6657929bb651b453ebb03e50","405","stimuli/10111112.jpg"," ","","feedback_trial","2","","","","","","","","","","","","","","","","","","","","",""
"","","","","","image-keyboard-response","182","274355","0.0-157.0","63df06a8c5ac5f3c6bf77e6f","665500ab8938657b03fbdba8","6657929bb651b453ebb03e50","623","stimuli/2001010.jpg","2","","prediction_trial","2","","true","","2","true","true","false","true","false","true","[2]","001","010","1","","","","","","",""
"","","","","","image-keyboard-response","183","274805","0.0-158.0","63df06a8c5ac5f3c6bf77e6f","665500ab8938657b03fbdba8","6657929bb651b453ebb03e50","448","stimuli/20010102.jpg"," ","","feedback_trial","2","","","","","","","","","","","","","","","","","","","","",""
"","","","","","image-keyboard-response","184","275824","0.0-159.0","63df06a8c5ac5f3c6bf77e6f","665500ab8938657b03fbdba8","6657929bb651b453ebb03e50","1018","stimuli/2111011.jpg","2","","prediction_trial","0","","false","","2","false","false","false","false","false","false","[2,1,0]","111","011","0","","","","","","",""
"","","","","","image-keyboard-response","185","276535","0.0-160.0","63df06a8c5ac5f3c6bf77e6f","665500ab8938657b03fbdba8","6657929bb651b453ebb03e50","708","stimuli/21110110.jpg"," ","","feedback_trial","2","","","","","","","","","","","","","","","","","","","","",""
"","","","","","image-keyboard-response","186","277974","0.0-161.0","63df06a8c5ac5f3c6bf77e6f","665500ab8938657b03fbdba8","6657929bb651b453ebb03e50","1437","stimuli/1100110.jpg","0","","prediction_trial","1","","false","","1","false","false","true","true","false","false","[1]","100","110","0","","","","","","",""
"","","","","","image-keyboard-response","187","280081","0.0-162.0","63df06a8c5ac5f3c6bf77e6f","665500ab8938657b03fbdba8","6657929bb651b453ebb03e50","2104","stimuli/11001101.jpg"," ","","feedback_trial","1","","","","","","","","","","","","","","","","","","","","",""
"","","","","","image-keyboard-response","188","280815","0.0-163.0","63df06a8c5ac5f3c6bf77e6f","665500ab8938657b03fbdba8","6657929bb651b453ebb03e50","731","stimuli/0100000.jpg","0","","prediction_trial","0","","true","","0","true","true","false","true","false","true","[0]","100","000","1","","","","","","",""
"","","","","","image-keyboard-response","189","281386","0.0-164.0","63df06a8c5ac5f3c6bf77e6f","665500ab8938657b03fbdba8","6657929bb651b453ebb03e50","570","stimuli/01000000.jpg"," ","","feedback_trial","0","","","","","","","","","","","","","","","","","","","","",""
"","","","","","image-keyboard-response","190","283050","0.0-165.0","63df06a8c5ac5f3c6bf77e6f","665500ab8938657b03fbdba8","6657929bb651b453ebb03e50","1663","stimuli/0001111.jpg","0","","prediction_trial","0","","true","","0","false","false","true","true","false","false","[0]","001","111","1","","","","","","",""
"","","","","","image-keyboard-response","191","283563","0.0-166.0","63df06a8c5ac5f3c6bf77e6f","665500ab8938657b03fbdba8","6657929bb651b453ebb03e50","512","stimuli/00011110.jpg"," ","","feedback_trial","0","","","","","","","","","","","","","","","","","","","","",""
"","","","","","image-keyboard-response","192","284710","0.0-167.0","63df06a8c5ac5f3c6bf77e6f","665500ab8938657b03fbdba8","6657929bb651b453ebb03e50","1145","stimuli/1010001.jpg","1","","prediction_trial","1","","true","","1","true","true","false","true","false","true","[1]","010","001","1","","","","","","",""
"","","","","","image-keyboard-response","193","285376","0.0-168.0","63df06a8c5ac5f3c6bf77e6f","665500ab8938657b03fbdba8","6657929bb651b453ebb03e50","664","stimuli/10100011.jpg"," ","","feedback_trial","1","","","","","","","","","","","","","","","","","","","","",""
"","","","","","image-keyboard-response","194","286041","0.0-169.0","63df06a8c5ac5f3c6bf77e6f","665500ab8938657b03fbdba8","6657929bb651b453ebb03e50","663","stimuli/0001010.jpg","0","","prediction_trial","0","","true","","0","true","true","true","true","true","true","[0]","001","010","1","","","","","","",""
"","","","","","image-keyboard-response","195","286605","0.0-170.0","63df06a8c5ac5f3c6bf77e6f","665500ab8938657b03fbdba8","6657929bb651b453ebb03e50","562","stimuli/00010100.jpg"," ","","feedback_trial","0","","","","","","","","","","","","","","","","","","","","",""
"","","","","","image-keyboard-response","196","287396","0.0-171.0","63df06a8c5ac5f3c6bf77e6f","665500ab8938657b03fbdba8","6657929bb651b453ebb03e50","790","stimuli/0010010.jpg","0","","prediction_trial","0","","true","","0","true","true","true","true","true","true","[0]","010","010","1","","","","","","",""
"","","","","","image-keyboard-response","197","287769","0.0-172.0","63df06a8c5ac5f3c6bf77e6f","665500ab8938657b03fbdba8","6657929bb651b453ebb03e50","372","stimuli/00100100.jpg"," ","","feedback_trial","0","","","","","","","","","","","","","","","","","","","","",""
"","","","","","image-keyboard-response","198","289674","0.0-173.0","63df06a8c5ac5f3c6bf77e6f","665500ab8938657b03fbdba8","6657929bb651b453ebb03e50","1903","stimuli/1101110.jpg","1","","prediction_trial","1","","true","","1","false","false","true","true","false","false","[1]","101","110","1","","","","","","",""
"","","","","","image-keyboard-response","199","290379","0.0-174.0","63df06a8c5ac5f3c6bf77e6f","665500ab8938657b03fbdba8","6657929bb651b453ebb03e50","703","stimuli/11011101.jpg"," ","","feedback_trial","1","","","","","","","","","","","","","","","","","","","","",""
"","","","","","image-keyboard-response","200","291532","0.0-175.0","63df06a8c5ac5f3c6bf77e6f","665500ab8938657b03fbdba8","6657929bb651b453ebb03e50","1151","stimuli/2110011.jpg","1","","prediction_trial","2","","false","","2","false","false","true","true","false","false","[2]","110","011","0","","","","","","",""
"","","","","","image-keyboard-response","201","293155","0.0-176.0","63df06a8c5ac5f3c6bf77e6f","665500ab8938657b03fbdba8","6657929bb651b453ebb03e50","1622","stimuli/21100112.jpg"," ","","feedback_trial","2","","","","","","","","","","","","","","","","","","","","",""
"","","","","","image-keyboard-response","202","293967","0.0-177.0","63df06a8c5ac5f3c6bf77e6f","665500ab8938657b03fbdba8","6657929bb651b453ebb03e50","811","stimuli/0101001.jpg","0","","prediction_trial","0","","true","","0","true","true","false","false","false","false","[2,0]","101","001","1","","","","","","",""
"","","","","","image-keyboard-response","203","294559","0.0-178.0","63df06a8c5ac5f3c6bf77e6f","665500ab8938657b03fbdba8","6657929bb651b453ebb03e50","591","stimuli/01010010.jpg"," ","","feedback_trial","2","","","","","","","","","","","","","","","","","","","","",""
"","","","","","image-keyboard-response","204","295244","0.0-179.0","63df06a8c5ac5f3c6bf77e6f","665500ab8938657b03fbdba8","6657929bb651b453ebb03e50","684","stimuli/0001000.jpg","0","","prediction_trial","0","","true","","0","true","true","true","true","true","true","[0]","001","000","1","","","","","","",""
"","","","","","image-keyboard-response","205","295557","0.0-180.0","63df06a8c5ac5f3c6bf77e6f","665500ab8938657b03fbdba8","6657929bb651b453ebb03e50","311","stimuli/00010000.jpg"," ","","feedback_trial","0","","","","","","","","","","","","","","","","","","","","",""
"","","","","","image-keyboard-response","206","296550","0.0-181.0","63df06a8c5ac5f3c6bf77e6f","665500ab8938657b03fbdba8","6657929bb651b453ebb03e50","992","stimuli/1111111.jpg","0","","prediction_trial","1","","false","","1","false","false","false","false","false","false","[0,1,2]","111","111","0","","","","","","",""
"","","","","","image-keyboard-response","207","297448","0.0-182.0","63df06a8c5ac5f3c6bf77e6f","665500ab8938657b03fbdba8","6657929bb651b453ebb03e50","896","stimuli/11111111.jpg"," ","","feedback_trial","0","","","","","","","","","","","","","","","","","","","","",""
"","","","","","image-keyboard-response","208","298404","0.0-183.0","63df06a8c5ac5f3c6bf77e6f","665500ab8938657b03fbdba8","6657929bb651b453ebb03e50","955","stimuli/2000100.jpg","2","","prediction_trial","2","","true","","2","true","true","true","true","true","true","[2]","000","100","1","","","","","","",""
"","","","","","image-keyboard-response","209","298847","0.0-184.0","63df06a8c5ac5f3c6bf77e6f","665500ab8938657b03fbdba8","6657929bb651b453ebb03e50","443","stimuli/20001002.jpg"," ","","feedback_trial","2","","","","","","","","","","","","","","","","","","","","",""
"","","","","","image-keyboard-response","210","299426","0.0-185.0","63df06a8c5ac5f3c6bf77e6f","665500ab8938657b03fbdba8","6657929bb651b453ebb03e50","577","stimuli/2010010.jpg","2","","prediction_trial","2","","true","","2","true","true","true","true","true","true","[2]","010","010","1","","","","","","",""
"","","","","","image-keyboard-response","211","299836","0.0-186.0","63df06a8c5ac5f3c6bf77e6f","665500ab8938657b03fbdba8","6657929bb651b453ebb03e50","409","stimuli/20100102.jpg"," ","","feedback_trial","2","","","","","","","","","","","","","","","","","","","","",""
"","","","","","image-keyboard-response","212","300937","0.0-187.0","63df06a8c5ac5f3c6bf77e6f","665500ab8938657b03fbdba8","6657929bb651b453ebb03e50","1100","stimuli/1110011.jpg","1","","prediction_trial","0","","false","","1","false","false","false","false","false","false","[0,1]","110","011","0","","","","","","",""
"","","","","","image-keyboard-response","213","301464","0.0-188.0","63df06a8c5ac5f3c6bf77e6f","665500ab8938657b03fbdba8","6657929bb651b453ebb03e50","526","stimuli/11100110.jpg"," ","","feedback_trial","0","","","","","","","","","","","","","","","","","","","","",""
"","","","","","image-keyboard-response","214","302275","0.0-189.0","63df06a8c5ac5f3c6bf77e6f","665500ab8938657b03fbdba8","6657929bb651b453ebb03e50","809","stimuli/1001100.jpg","1","","prediction_trial","1","","true","","1","true","true","true","true","true","true","[1]","001","100","1","","","","","","",""
"","","","","","image-keyboard-response","215","302576","0.0-190.0","63df06a8c5ac5f3c6bf77e6f","665500ab8938657b03fbdba8","6657929bb651b453ebb03e50","299","stimuli/10011001.jpg"," ","","feedback_trial","1","","","","","","","","","","","","","","","","","","","","",""
"","","","","","image-keyboard-response","216","303864","0.0-191.0","63df06a8c5ac5f3c6bf77e6f","665500ab8938657b03fbdba8","6657929bb651b453ebb03e50","1286","stimuli/1000001.jpg","1","","prediction_trial","1","","true","","1","true","true","true","true","true","true","[1]","000","001","1","","","","","","",""
"","","","","","image-keyboard-response","217","304635","0.0-192.0","63df06a8c5ac5f3c6bf77e6f","665500ab8938657b03fbdba8","6657929bb651b453ebb03e50","770","stimuli/10000011.jpg"," ","","feedback_trial","1","","","","","","","","","","","","","","","","","","","","",""
"","","","","","image-keyboard-response","218","305740","0.0-193.0","63df06a8c5ac5f3c6bf77e6f","665500ab8938657b03fbdba8","6657929bb651b453ebb03e50","1104","stimuli/2000111.jpg","1","","prediction_trial","2","","false","","2","false","false","true","true","false","false","[2]","000","111","0","","","","","","",""
"","","","","","image-keyboard-response","219","306307","0.0-194.0","63df06a8c5ac5f3c6bf77e6f","665500ab8938657b03fbdba8","6657929bb651b453ebb03e50","566","stimuli/20001112.jpg"," ","","feedback_trial","2","","","","","","","","","","","","","","","","","","","","",""
"","","","","","image-keyboard-response","220","306861","0.0-195.0","63df06a8c5ac5f3c6bf77e6f","665500ab8938657b03fbdba8","6657929bb651b453ebb03e50","553","stimuli/1100100.jpg","1","","prediction_trial","1","","true","","1","true","true","true","true","true","true","[1]","100","100","1","","","","","","",""
"","","","","","image-keyboard-response","221","307221","0.0-196.0","63df06a8c5ac5f3c6bf77e6f","665500ab8938657b03fbdba8","6657929bb651b453ebb03e50","359","stimuli/11001001.jpg"," ","","feedback_trial","1","","","","","","","","","","","","","","","","","","","","",""
"","","","","","image-keyboard-response","222","307812","0.0-197.0","63df06a8c5ac5f3c6bf77e6f","665500ab8938657b03fbdba8","6657929bb651b453ebb03e50","590","stimuli/1101000.jpg","1","","prediction_trial","1","","true","","1","true","true","true","true","true","true","[1]","101","000","1","","","","","","",""
"","","","","","image-keyboard-response","223","308159","0.0-198.0","63df06a8c5ac5f3c6bf77e6f","665500ab8938657b03fbdba8","6657929bb651b453ebb03e50","346","stimuli/11010001.jpg"," ","","feedback_trial","1","","","","","","","","","","","","","","","","","","","","",""
"","","","","","image-keyboard-response","224","309096","0.0-199.0","63df06a8c5ac5f3c6bf77e6f","665500ab8938657b03fbdba8","6657929bb651b453ebb03e50","936","stimuli/0111001.jpg","0","","prediction_trial","2","","false","","0","true","true","false","false","false","false","[0,2,1]","111","001","0","","","","","","",""
"","","","","","image-keyboard-response","225","309399","0.0-200.0","63df06a8c5ac5f3c6bf77e6f","665500ab8938657b03fbdba8","6657929bb651b453ebb03e50","302","stimuli/01110012.jpg"," ","","feedback_trial","0","","","","","","","","","","","","","","","","","","","","",""
"","","","","","image-keyboard-response","226","310867","0.0-201.0","63df06a8c5ac5f3c6bf77e6f","665500ab8938657b03fbdba8","6657929bb651b453ebb03e50","1467","stimuli/1100011.jpg","1","","prediction_trial","1","","true","","1","false","false","true","true","false","false","[1]","100","011","1","","","","","","",""
"","","","","","image-keyboard-response","227","311283","0.0-202.0","63df06a8c5ac5f3c6bf77e6f","665500ab8938657b03fbdba8","6657929bb651b453ebb03e50","414","stimuli/11000111.jpg"," ","","feedback_trial","1","","","","","","","","","","","","","","","","","","","","",""
"","","","","","image-keyboard-response","228","312148","0.0-203.0","63df06a8c5ac5f3c6bf77e6f","665500ab8938657b03fbdba8","6657929bb651b453ebb03e50","865","stimuli/0010111.jpg","1","","prediction_trial","0","","false","","0","false","false","true","true","false","false","[0]","010","111","0","","","","","","",""
"","","","","","image-keyboard-response","229","313068","0.0-204.0","63df06a8c5ac5f3c6bf77e6f","665500ab8938657b03fbdba8","6657929bb651b453ebb03e50","918","stimuli/00101110.jpg"," ","","feedback_trial","0","","","","","","","","","","","","","","","","","","","","",""
"","","","","","image-keyboard-response","230","313940","0.0-205.0","63df06a8c5ac5f3c6bf77e6f","665500ab8938657b03fbdba8","6657929bb651b453ebb03e50","871","stimuli/0001001.jpg","0","","prediction_trial","0","","true","","0","true","true","true","true","true","true","[0]","001","001","1","","","","","","",""
"","","","","","image-keyboard-response","231","314192","0.0-206.0","63df06a8c5ac5f3c6bf77e6f","665500ab8938657b03fbdba8","6657929bb651b453ebb03e50","251","stimuli/00010010.jpg"," ","","feedback_trial","0","","","","","","","","","","","","","","","","","","","","",""
"","","","","","image-keyboard-response","232","315358","0.0-207.0","63df06a8c5ac5f3c6bf77e6f","665500ab8938657b03fbdba8","6657929bb651b453ebb03e50","1164","stimuli/0110111.jpg","1","","prediction_trial","1","","true","","0","false","false","false","false","false","false","[1,0]","110","111","1","","","","","","",""
"","","","","","image-keyboard-response","233","316097","0.0-208.0","63df06a8c5ac5f3c6bf77e6f","665500ab8938657b03fbdba8","6657929bb651b453ebb03e50","739","stimuli/01101111.jpg"," ","","feedback_trial","1","","","","","","","","","","","","","","","","","","","","",""
"","","","","","image-keyboard-response","234","317078","0.0-209.0","63df06a8c5ac5f3c6bf77e6f","665500ab8938657b03fbdba8","6657929bb651b453ebb03e50","979","stimuli/1101011.jpg","1","","prediction_trial","1","","true","","1","false","false","true","true","false","false","[1]","101","011","1","","","","","","",""
"","","","","","image-keyboard-response","235","317865","0.0-210.0","63df06a8c5ac5f3c6bf77e6f","665500ab8938657b03fbdba8","6657929bb651b453ebb03e50","786","stimuli/11010111.jpg"," ","","feedback_trial","1","","","","","","","","","","","","","","","","","","","","",""
"","","","","","image-keyboard-response","236","318284","0.0-211.0","63df06a8c5ac5f3c6bf77e6f","665500ab8938657b03fbdba8","6657929bb651b453ebb03e50","418","stimuli/1100111.jpg","1","","prediction_trial","1","","true","","1","false","false","true","true","false","false","[1]","100","111","1","","","","","","",""
"","","","","","image-keyboard-response","237","318724","0.0-212.0","63df06a8c5ac5f3c6bf77e6f","665500ab8938657b03fbdba8","6657929bb651b453ebb03e50","439","stimuli/11001111.jpg"," ","","feedback_trial","1","","","","","","","","","","","","","","","","","","","","",""
"","","","","","image-keyboard-response","238","319170","0.0-213.0","63df06a8c5ac5f3c6bf77e6f","665500ab8938657b03fbdba8","6657929bb651b453ebb03e50","445","stimuli/1001111.jpg","1","","prediction_trial","1","","true","","1","false","false","true","true","false","false","[1]","001","111","1","","","","","","",""
"","","","","","image-keyboard-response","239","319696","0.0-214.0","63df06a8c5ac5f3c6bf77e6f","665500ab8938657b03fbdba8","6657929bb651b453ebb03e50","525","stimuli/10011111.jpg"," ","","feedback_trial","1","","","","","","","","","","","","","","","","","","","","",""
"","","","","","image-keyboard-response","240","320818","0.0-215.0","63df06a8c5ac5f3c6bf77e6f","665500ab8938657b03fbdba8","6657929bb651b453ebb03e50","1121","stimuli/2111110.jpg","2","","prediction_trial","1","","false","","2","true","true","false","false","false","false","[0,2,1]","111","110","0","","","","","","",""
"","","","","","image-keyboard-response","241","321126","0.0-216.0","63df06a8c5ac5f3c6bf77e6f","665500ab8938657b03fbdba8","6657929bb651b453ebb03e50","306","stimuli/21111101.jpg"," ","","feedback_trial","0","","","","","","","","","","","","","","","","","","","","",""
"","","","","","image-keyboard-response","242","322349","0.0-217.0","63df06a8c5ac5f3c6bf77e6f","665500ab8938657b03fbdba8","6657929bb651b453ebb03e50","1222","stimuli/1110111.jpg","2","","prediction_trial","1","","false","","1","false","false","false","false","false","false","[0,1]","110","111","0","","","","","","",""
"","","","","","image-keyboard-response","243","322868","0.0-218.0","63df06a8c5ac5f3c6bf77e6f","665500ab8938657b03fbdba8","6657929bb651b453ebb03e50","517","stimuli/11101111.jpg"," ","","feedback_trial","0","","","","","","","","","","","","","","","","","","","","",""
"","","","","","image-keyboard-response","244","323653","0.0-219.0","63df06a8c5ac5f3c6bf77e6f","665500ab8938657b03fbdba8","6657929bb651b453ebb03e50","784","stimuli/2110001.jpg","2","","prediction_trial","2","","true","","2","false","true","true","true","false","true","[2]","110","001","1","","","","","","",""
"","","","","","image-keyboard-response","245","324119","0.0-220.0","63df06a8c5ac5f3c6bf77e6f","665500ab8938657b03fbdba8","6657929bb651b453ebb03e50","465","stimuli/21100012.jpg"," ","","feedback_trial","2","","","","","","","","","","","","","","","","","","","","",""
"","","","","","image-keyboard-response","246","325062","0.0-221.0","63df06a8c5ac5f3c6bf77e6f","665500ab8938657b03fbdba8","6657929bb651b453ebb03e50","942","stimuli/0011100.jpg","0","","prediction_trial","0","","true","","0","false","true","true","true","false","true","[0]","011","100","1","","","","","","",""
"","","","","","image-keyboard-response","247","325413","0.0-222.0","63df06a8c5ac5f3c6bf77e6f","665500ab8938657b03fbdba8","6657929bb651b453ebb03e50","350","stimuli/00111000.jpg"," ","","feedback_trial","0","","","","","","","","","","","","","","","","","","","","",""
"","","","","","image-keyboard-response","248","326364","0.0-223.0","63df06a8c5ac5f3c6bf77e6f","665500ab8938657b03fbdba8","6657929bb651b453ebb03e50","949","stimuli/1111110.jpg","0","","prediction_trial","2","","false","","1","false","false","false","false","false","false","[1,2,0]","111","110","0","","","","","","",""
"","","","","","image-keyboard-response","249","327284","0.0-224.0","63df06a8c5ac5f3c6bf77e6f","665500ab8938657b03fbdba8","6657929bb651b453ebb03e50","919","stimuli/11111102.jpg"," ","","feedback_trial","1","","","","","","","","","","","","","","","","","","","","",""
"","","","","","image-keyboard-response","250","328358","0.0-225.0","63df06a8c5ac5f3c6bf77e6f","665500ab8938657b03fbdba8","6657929bb651b453ebb03e50","1073","stimuli/2101010.jpg","2","","prediction_trial","2","","true","","2","true","true","false","false","false","false","[0,2]","101","010","1","","","","","","",""
"","","","","","image-keyboard-response","251","328979","0.0-226.0","63df06a8c5ac5f3c6bf77e6f","665500ab8938657b03fbdba8","6657929bb651b453ebb03e50","620","stimuli/21010102.jpg"," ","","feedback_trial","0","","","","","","","","","","","","","","","","","","","","",""
"","","","","","image-keyboard-response","252","329881","0.0-227.0","63df06a8c5ac5f3c6bf77e6f","665500ab8938657b03fbdba8","6657929bb651b453ebb03e50","901","stimuli/0101011.jpg","0","","prediction_trial","2","","false","","0","true","true","false","false","false","false","[0,2]","101","011","0","","","","","","",""
"","","","","","image-keyboard-response","253","330306","0.0-228.0","63df06a8c5ac5f3c6bf77e6f","665500ab8938657b03fbdba8","6657929bb651b453ebb03e50","424","stimuli/01010112.jpg"," ","","feedback_trial","0","","","","","","","","","","","","","","","","","","","","",""
"","","","","","image-keyboard-response","254","331251","0.0-229.0","63df06a8c5ac5f3c6bf77e6f","665500ab8938657b03fbdba8","6657929bb651b453ebb03e50","945","stimuli/1010101.jpg","1","","prediction_trial","1","","true","","1","true","true","false","true","false","true","[1]","010","101","1","","","","","","",""
"","","","","","image-keyboard-response","255","331719","0.0-230.0","63df06a8c5ac5f3c6bf77e6f","665500ab8938657b03fbdba8","6657929bb651b453ebb03e50","466","stimuli/10101011.jpg"," ","","feedback_trial","1","","","","","","","","","","","","","","","","","","","","",""
"","","","","","image-keyboard-response","256","332867","0.0-231.0","63df06a8c5ac5f3c6bf77e6f","665500ab8938657b03fbdba8","6657929bb651b453ebb03e50","1147","stimuli/1010011.jpg","2","","prediction_trial","1","","false","","1","false","false","false","true","false","false","[1]","010","011","0","","","","","","",""
"","","","","","image-keyboard-response","257","333416","0.0-232.0","63df06a8c5ac5f3c6bf77e6f","665500ab8938657b03fbdba8","6657929bb651b453ebb03e50","548","stimuli/10100111.jpg"," ","","feedback_trial","1","","","","","","","","","","","","","","","","","","","","",""
"","","","","","image-keyboard-response","258","334813","0.0-233.0","63df06a8c5ac5f3c6bf77e6f","665500ab8938657b03fbdba8","6657929bb651b453ebb03e50","1396","stimuli/0010101.jpg","2","","prediction_trial","0","","false","","0","false","false","true","true","false","false","[0]","010","101","0","","","","","","",""
"","","","","","image-keyboard-response","259","335535","0.0-234.0","63df06a8c5ac5f3c6bf77e6f","665500ab8938657b03fbdba8","6657929bb651b453ebb03e50","721","stimuli/00101010.jpg"," ","","feedback_trial","0","","","","","","","","","","","","","","","","","","","","",""
"","","","","","image-keyboard-response","260","336642","0.0-235.0","63df06a8c5ac5f3c6bf77e6f","665500ab8938657b03fbdba8","6657929bb651b453ebb03e50","1106","stimuli/0010000.jpg","0","","prediction_trial","0","","true","","0","true","true","true","true","true","true","[0]","010","000","1","","","","","","",""
"","","","","","image-keyboard-response","261","337355","0.0-236.0","63df06a8c5ac5f3c6bf77e6f","665500ab8938657b03fbdba8","6657929bb651b453ebb03e50","712","stimuli/00100000.jpg"," ","","feedback_trial","0","","","","","","","","","","","","","","","","","","","","",""
"","","","","","image-keyboard-response","262","338183","0.0-237.0","63df06a8c5ac5f3c6bf77e6f","665500ab8938657b03fbdba8","6657929bb651b453ebb03e50","827","stimuli/1111100.jpg","1","","prediction_trial","1","","true","","1","true","true","false","false","false","false","[1,2,0]","111","100","1","","","","","","",""
"","","","","","image-keyboard-response","263","338939","0.0-238.0","63df06a8c5ac5f3c6bf77e6f","665500ab8938657b03fbdba8","6657929bb651b453ebb03e50","754","stimuli/11111001.jpg"," ","","feedback_trial","1","","","","","","","","","","","","","","","","","","","","",""
"","","","","","image-keyboard-response","264","339498","0.0-239.0","63df06a8c5ac5f3c6bf77e6f","665500ab8938657b03fbdba8","6657929bb651b453ebb03e50","558","stimuli/1010100.jpg","1","","prediction_trial","1","","true","","1","true","true","false","true","false","true","[1]","010","100","1","","","","","","",""
"","","","","","image-keyboard-response","265","340006","0.0-240.0","63df06a8c5ac5f3c6bf77e6f","665500ab8938657b03fbdba8","6657929bb651b453ebb03e50","507","stimuli/10101001.jpg"," ","","feedback_trial","1","","","","","","","","","","","","","","","","","","","","",""
"","","","","","image-keyboard-response","266","341352","0.0-241.0","63df06a8c5ac5f3c6bf77e6f","665500ab8938657b03fbdba8","6657929bb651b453ebb03e50","1345","stimuli/2001011.jpg","2","","prediction_trial","2","","true","","2","false","false","false","true","false","false","[2]","001","011","1","","","","","","",""
"","","","","","image-keyboard-response","267","342386","0.0-242.0","63df06a8c5ac5f3c6bf77e6f","665500ab8938657b03fbdba8","6657929bb651b453ebb03e50","1032","stimuli/20010112.jpg"," ","","feedback_trial","2","","","","","","","","","","","","","","","","","","","","",""
"","","","","","image-keyboard-response","268","343391","0.0-243.0","63df06a8c5ac5f3c6bf77e6f","665500ab8938657b03fbdba8","6657929bb651b453ebb03e50","1003","stimuli/2000110.jpg","2","","prediction_trial","2","","true","","2","true","true","true","true","true","true","[2]","000","110","1","","","","","","",""
"","","","","","image-keyboard-response","269","343769","0.0-244.0","63df06a8c5ac5f3c6bf77e6f","665500ab8938657b03fbdba8","6657929bb651b453ebb03e50","376","stimuli/20001102.jpg"," ","","feedback_trial","2","","","","","","","","","","","","","","","","","","","","",""
"","","","","","image-keyboard-response","270","345441","0.0-245.0","63df06a8c5ac5f3c6bf77e6f","665500ab8938657b03fbdba8","6657929bb651b453ebb03e50","1670","stimuli/2101011.jpg","2","","prediction_trial","0","","false","","2","false","false","false","false","false","false","[0,2]","101","011","0","","","","","","",""
"","","","","","image-keyboard-response","271","346317","0.0-246.0","63df06a8c5ac5f3c6bf77e6f","665500ab8938657b03fbdba8","6657929bb651b453ebb03e50","875","stimuli/21010110.jpg"," ","","feedback_trial","0","","","","","","","","","","","","","","","","","","","","",""
"","","","","","image-keyboard-response","272","347680","0.0-247.0","63df06a8c5ac5f3c6bf77e6f","665500ab8938657b03fbdba8","6657929bb651b453ebb03e50","1361","stimuli/0100001.jpg","0","","prediction_trial","0","","true","","0","true","true","false","true","false","true","[0]","100","001","1","","","","","","",""
"","","","","","image-keyboard-response","273","348165","0.0-248.0","63df06a8c5ac5f3c6bf77e6f","665500ab8938657b03fbdba8","6657929bb651b453ebb03e50","484","stimuli/01000010.jpg"," ","","feedback_trial","0","","","","","","","","","","","","","","","","","","","","",""
"","","","","","image-keyboard-response","274","349297","0.0-249.0","63df06a8c5ac5f3c6bf77e6f","665500ab8938657b03fbdba8","6657929bb651b453ebb03e50","1131","stimuli/2001101.jpg","0","","prediction_trial","2","","false","","2","false","false","false","true","false","false","[2]","001","101","0","","","","","","",""
"","","","","","image-keyboard-response","275","350092","0.0-250.0","63df06a8c5ac5f3c6bf77e6f","665500ab8938657b03fbdba8","6657929bb651b453ebb03e50","794","stimuli/20011012.jpg"," ","","feedback_trial","2","","","","","","","","","","","","","","","","","","","","",""
"","","","","","image-keyboard-response","276","351038","0.0-251.0","63df06a8c5ac5f3c6bf77e6f","665500ab8938657b03fbdba8","6657929bb651b453ebb03e50","944","stimuli/2110000.jpg","2","","prediction_trial","2","","true","","2","true","true","true","true","true","true","[2]","110","000","1","","","","","","",""
"","","","","","image-keyboard-response","277","351364","0.0-252.0","63df06a8c5ac5f3c6bf77e6f","665500ab8938657b03fbdba8","6657929bb651b453ebb03e50","323","stimuli/21100002.jpg"," ","","feedback_trial","2","","","","","","","","","","","","","","","","","","","","",""
"","","","","","image-keyboard-response","278","352447","0.0-253.0","63df06a8c5ac5f3c6bf77e6f","665500ab8938657b03fbdba8","6657929bb651b453ebb03e50","1081","stimuli/2010101.jpg","2","","prediction_trial","2","","true","","2","false","false","true","true","false","false","[2]","010","101","1","","","","","","",""
"","","","","","image-keyboard-response","279","353499","0.0-254.0","63df06a8c5ac5f3c6bf77e6f","665500ab8938657b03fbdba8","6657929bb651b453ebb03e50","1050","stimuli/20101012.jpg"," ","","feedback_trial","2","","","","","","","","","","","","","","","","","","","","",""
"","","","","","image-keyboard-response","280","354731","0.0-255.0","63df06a8c5ac5f3c6bf77e6f","665500ab8938657b03fbdba8","6657929bb651b453ebb03e50","1231","stimuli/1110010.jpg","1","","prediction_trial","0","","false","","1","false","true","false","false","false","false","[0,1]","110","010","0","","","","","","",""
"","","","","","image-keyboard-response","281","359510","0.0-256.0","63df06a8c5ac5f3c6bf77e6f","665500ab8938657b03fbdba8","6657929bb651b453ebb03e50","4778","stimuli/11100100.jpg"," ","","feedback_trial","0","","","","","","","","","","","","","","","","","","","","",""
"","","","","","image-keyboard-response","282","360746","0.0-257.0","63df06a8c5ac5f3c6bf77e6f","665500ab8938657b03fbdba8","6657929bb651b453ebb03e50","1234","stimuli/2011110.jpg","2","","prediction_trial","2","","true","","2","true","true","false","false","false","false","[2,1]","011","110","1","","","","","","",""
"","","","","","image-keyboard-response","283","361496","0.0-258.0","63df06a8c5ac5f3c6bf77e6f","665500ab8938657b03fbdba8","6657929bb651b453ebb03e50","748","stimuli/20111102.jpg"," ","","feedback_trial","2","","","","","","","","","","","","","","","","","","","","",""
"","","","","","image-keyboard-response","284","362700","0.0-259.0","63df06a8c5ac5f3c6bf77e6f","665500ab8938657b03fbdba8","6657929bb651b453ebb03e50","1202","stimuli/2100110.jpg","2","","prediction_trial","2","","true","","2","true","true","true","true","true","true","[2]","100","110","1","","","","","","",""
"","","","","","image-keyboard-response","285","363170","0.0-260.0","63df06a8c5ac5f3c6bf77e6f","665500ab8938657b03fbdba8","6657929bb651b453ebb03e50","467","stimuli/21001102.jpg"," ","","feedback_trial","2","","","","","","","","","","","","","","","","","","","","",""
"","","","","","image-keyboard-response","286","364599","0.0-261.0","63df06a8c5ac5f3c6bf77e6f","665500ab8938657b03fbdba8","6657929bb651b453ebb03e50","1427","stimuli/2010110.jpg","2","","prediction_trial","2","","true","","2","true","true","true","true","true","true","[2]","010","110","1","","","","","","",""
"","","","","","image-keyboard-response","287","364920","0.0-262.0","63df06a8c5ac5f3c6bf77e6f","665500ab8938657b03fbdba8","6657929bb651b453ebb03e50","319","stimuli/20101102.jpg"," ","","feedback_trial","2","","","","","","","","","","","","","","","","","","","","",""
"","","","","","image-keyboard-response","288","365891","0.0-263.0","63df06a8c5ac5f3c6bf77e6f","665500ab8938657b03fbdba8","6657929bb651b453ebb03e50","969","stimuli/0100011.jpg","0","","prediction_trial","0","","true","","0","true","true","false","true","false","true","[0]","100","011","1","","","","","","",""
"","","","","","image-keyboard-response","289","366354","0.0-264.0","63df06a8c5ac5f3c6bf77e6f","665500ab8938657b03fbdba8","6657929bb651b453ebb03e50","460","stimuli/01000110.jpg"," ","","feedback_trial","0","","","","","","","","","","","","","","","","","","","","",""
"","","","","","image-keyboard-response","290","367999","0.0-265.0","63df06a8c5ac5f3c6bf77e6f","665500ab8938657b03fbdba8","6657929bb651b453ebb03e50","1644","stimuli/0001101.jpg","1","","prediction_trial","0","","false","","0","false","false","true","true","false","false","[0]","001","101","0","","","","","","",""
"","","","","","image-keyboard-response","291","369129","0.0-266.0","63df06a8c5ac5f3c6bf77e6f","665500ab8938657b03fbdba8","6657929bb651b453ebb03e50","1128","stimuli/00011010.jpg"," ","","feedback_trial","0","","","","","","","","","","","","","","","","","","","","",""
"","","","","","image-keyboard-response","292","370715","0.0-267.0","63df06a8c5ac5f3c6bf77e6f","665500ab8938657b03fbdba8","6657929bb651b453ebb03e50","1584","stimuli/0001011.jpg","0","","prediction_trial","0","","true","","0","true","true","true","true","true","true","[0]","001","011","1","","","","","","",""
"","","","","","image-keyboard-response","293","371203","0.0-268.0","63df06a8c5ac5f3c6bf77e6f","665500ab8938657b03fbdba8","6657929bb651b453ebb03e50","486","stimuli/00010110.jpg"," ","","feedback_trial","0","","","","","","","","","","","","","","","","","","","","",""
"","","","","","image-keyboard-response","294","371818","0.0-269.0","63df06a8c5ac5f3c6bf77e6f","665500ab8938657b03fbdba8","6657929bb651b453ebb03e50","613","stimuli/0111010.jpg","0","","prediction_trial","0","","true","","0","true","true","false","false","false","false","[1,0,2]","111","010","1","","","","","","",""
"","","","","","image-keyboard-response","295","372168","0.0-270.0","63df06a8c5ac5f3c6bf77e6f","665500ab8938657b03fbdba8","6657929bb651b453ebb03e50","348","stimuli/01110100.jpg"," ","","feedback_trial","1","","","","","","","","","","","","","","","","","","","","",""
"","","","","","image-keyboard-response","296","373269","0.0-271.0","63df06a8c5ac5f3c6bf77e6f","665500ab8938657b03fbdba8","6657929bb651b453ebb03e50","1100","stimuli/2011001.jpg","2","","prediction_trial","2","","true","","2","false","true","false","false","false","false","[2,1]","011","001","1","","","","","","",""
"","","","","","image-keyboard-response","297","373833","0.0-272.0","63df06a8c5ac5f3c6bf77e6f","665500ab8938657b03fbdba8","6657929bb651b453ebb03e50","562","stimuli/20110012.jpg"," ","","feedback_trial","2","","","","","","","","","","","","","","","","","","","","",""
"","","","","","image-keyboard-response","298","374838","0.0-273.0","63df06a8c5ac5f3c6bf77e6f","665500ab8938657b03fbdba8","6657929bb651b453ebb03e50","1002","stimuli/0111100.jpg","0","","prediction_trial","0","","true","","0","false","true","false","false","false","false","[1,0,2]","111","100","1","","","","","","",""
"","","","","","image-keyboard-response","299","375264","0.0-274.0","63df06a8c5ac5f3c6bf77e6f","665500ab8938657b03fbdba8","6657929bb651b453ebb03e50","423","stimuli/01111000.jpg"," ","","feedback_trial","1","","","","","","","","","","","","","","","","","","","","",""
"","","","","","image-keyboard-response","300","376498","0.0-275.0","63df06a8c5ac5f3c6bf77e6f","665500ab8938657b03fbdba8","6657929bb651b453ebb03e50","1233","stimuli/2111111.jpg","1","","prediction_trial","1","","true","","2","false","false","false","false","false","false","[0,2,1]","111","111","1","","","","","","",""
"","","","","","image-keyboard-response","301","377113","0.0-276.0","63df06a8c5ac5f3c6bf77e6f","665500ab8938657b03fbdba8","6657929bb651b453ebb03e50","613","stimuli/21111111.jpg"," ","","feedback_trial","0","","","","","","","","","","","","","","","","","","","","",""
"","","","","","image-keyboard-response","302","377971","0.0-277.0","63df06a8c5ac5f3c6bf77e6f","665500ab8938657b03fbdba8","6657929bb651b453ebb03e50","856","stimuli/1011101.jpg","1","","prediction_trial","2","","false","","1","true","true","false","false","false","false","[1,2]","011","101","0","","","","","","",""
"","","","","","image-keyboard-response","303","382008","0.0-278.0","63df06a8c5ac5f3c6bf77e6f","665500ab8938657b03fbdba8","6657929bb651b453ebb03e50","4035","stimuli/10111012.jpg"," ","","feedback_trial","1","","","","","","","","","","","","","","","","","","","","",""
"","","","","","image-keyboard-response","304","382994","0.0-279.0","63df06a8c5ac5f3c6bf77e6f","665500ab8938657b03fbdba8","6657929bb651b453ebb03e50","984","stimuli/1100101.jpg","1","","prediction_trial","1","","true","","1","true","true","true","true","true","true","[1]","100","101","1","","","","","","",""
"","","","","","image-keyboard-response","305","383610","0.0-280.0","63df06a8c5ac5f3c6bf77e6f","665500ab8938657b03fbdba8","6657929bb651b453ebb03e50","613","stimuli/11001011.jpg"," ","","feedback_trial","1","","","","","","","","","","","","","","","","","","","","",""
"","","","","","image-keyboard-response","306","385115","0.0-281.0","63df06a8c5ac5f3c6bf77e6f","665500ab8938657b03fbdba8","6657929bb651b453ebb03e50","1504","stimuli/1000011.jpg","1","","prediction_trial","1","","true","","1","false","false","true","true","false","false","[1]","000","011","1","","","","","","",""
"","","","","","image-keyboard-response","307","385572","0.0-282.0","63df06a8c5ac5f3c6bf77e6f","665500ab8938657b03fbdba8","6657929bb651b453ebb03e50","454","stimuli/10000111.jpg"," ","","feedback_trial","1","","","","","","","","","","","","","","","","","","","","",""
"","","","","","image-keyboard-response","308","386932","0.0-283.0","63df06a8c5ac5f3c6bf77e6f","665500ab8938657b03fbdba8","6657929bb651b453ebb03e50","1359","stimuli/2101110.jpg","2","","prediction_trial","0","","false","","2","true","true","false","false","false","false","[0,2]","101","110","0","","","","","","",""
"","","","","","image-keyboard-response","309","390470","0.0-284.0","63df06a8c5ac5f3c6bf77e6f","665500ab8938657b03fbdba8","6657929bb651b453ebb03e50","3535","stimuli/21011100.jpg"," ","","feedback_trial","0","","","","","","","","","","","","","","","","","","","","",""
"","","","","","image-keyboard-response","310","392136","0.0-285.0","63df06a8c5ac5f3c6bf77e6f","665500ab8938657b03fbdba8","6657929bb651b453ebb03e50","1664","stimuli/2001111.jpg","1","","prediction_trial","2","","false","","2","false","false","false","true","false","false","[2]","001","111","0","","","","","","",""
"","","","","","image-keyboard-response","311","392809","0.0-286.0","63df06a8c5ac5f3c6bf77e6f","665500ab8938657b03fbdba8","6657929bb651b453ebb03e50","671","stimuli/20011112.jpg"," ","","feedback_trial","2","","","","","","","","","","","","","","","","","","","","",""
"","","","","","image-keyboard-response","312","395240","0.0-287.0","63df06a8c5ac5f3c6bf77e6f","665500ab8938657b03fbdba8","6657929bb651b453ebb03e50","2429","stimuli/1110110.jpg","1","","prediction_trial","0","","false","","1","false","false","false","false","false","false","[1,0]","110","110","0","","","","","","",""
"","","","","","image-keyboard-response","313","395961","0.0-288.0","63df06a8c5ac5f3c6bf77e6f","665500ab8938657b03fbdba8","6657929bb651b453ebb03e50","718","stimuli/11101100.jpg"," ","","feedback_trial","1","","","","","","","","","","","","","","","","","","","","",""
"","","","","","image-keyboard-response","314","396944","0.0-289.0","63df06a8c5ac5f3c6bf77e6f","665500ab8938657b03fbdba8","6657929bb651b453ebb03e50","981","stimuli/0011010.jpg","0","","prediction_trial","0","","true","","0","true","true","true","true","true","true","[0]","011","010","1","","","","","","",""
"","","","","","image-keyboard-response","315","397343","0.0-290.0","63df06a8c5ac5f3c6bf77e6f","665500ab8938657b03fbdba8","6657929bb651b453ebb03e50","396","stimuli/00110100.jpg"," ","","feedback_trial","0","","","","","","","","","","","","","","","","","","","","",""
"","","","","","image-keyboard-response","316","398225","0.0-291.0","63df06a8c5ac5f3c6bf77e6f","665500ab8938657b03fbdba8","6657929bb651b453ebb03e50","880","stimuli/2111000.jpg","2","","prediction_trial","1","","false","","2","true","true","false","false","false","false","[0,1,2]","111","000","0","","","","","","",""
"","","","","","image-keyboard-response","317","402467","0.0-292.0","63df06a8c5ac5f3c6bf77e6f","665500ab8938657b03fbdba8","6657929bb651b453ebb03e50","4240","stimuli/21110001.jpg"," ","","feedback_trial","0","","","","","","","","","","","","","","","","","","","","",""
"","","","","","survey-html-form","318","439186","0.0-293.0","63df06a8c5ac5f3c6bf77e6f","665500ab8938657b03fbdba8","6657929bb651b453ebb03e50","36701","","{""feedback"":""I was influenced when I saw the ball but I don't think Sam always was. "",""age"":""57"",""gender"":""Female"",""other_gender"":"""",""race"":""White"",""other_race"":"""",""ethnicity"":""Non-Hispanic""}","","exit_survey","","","","","","","","","","","","","","","","I was influenced when I saw the ball but I don't think Sam always was. ","57","Non-Hispanic","Female","White","0.6666666666666666","0.6666666666666666"
