"success","timeout","failed_images","failed_audio","failed_video","trial_type","trial_index","time_elapsed","internal_node_id","prolific_id","prolific_study_id","prolific_session_id","rt","stimulus","response","view_history","trial","character_choice","stimulus_dict","accuracy","correct_response","ball_pos","ego_ball_visible","ego_can_infer","alter_ball_visible","alter_can_infer","collective_ball_visible","collective_can_infer","search_locations","alter_occluders","ego_occluders","accuracy_bool","feedback","age","ethnicity","gender","race","overall_accuracy","bonus"
"true","false","[]","[]","[]","preload","0","6010","0.0-0.0","631a9f635762d2b83a53202b","665500ab8938657b03fbdba8","66579266c8835dc947089859","","","","","","","","","","","","","","","","","","","","","","","","","","",""
"true","","","","","fullscreen","1","17646","0.0-1.0","631a9f635762d2b83a53202b","665500ab8938657b03fbdba8","66579266c8835dc947089859","","","","","","","","","","","","","","","","","","","","","","","","","","",""
"","","","","","html-button-response","2","65567","0.0-2.0","631a9f635762d2b83a53202b","665500ab8938657b03fbdba8","66579266c8835dc947089859","47918","<p><b>Consent Form</b></p> <div style=""text-align:left;background-color:lightgrey; padding:20px; max-width:900px;""><p>Please consider this information carefully before deciding whether to participate in this research.</p> <p>The purpose of this research is to examine which factors influence social judgment and decision-making. You will be asked to make judgements about individuals and actions in social scenarios. We are simply interested in your judgement. The study will take less than 1 hour to complete, and you will receive less than $20 on Prolific. Your compensation and time commitment are specified in the study description. There are no anticipated risks associated with participating in this study. The effects of participating should be comparable to those you would ordinarily experience from viewing a computer monitor and using a mouse or keyboard for a similar amount of time. At the end of the study, we will provide an explanation of the questions that motivate this line of research and will describe the potential implications. </p><p> Your participation in this study is completely voluntary and you may refuse to participate or you may choose to withdraw at any time without penalty or loss of benefits to you which are otherwise entitled. Your participation in this study will remain confidential. No personally identifiable information will be associated with your data. Also, all analyses of the data will be averaged across all the participants, so your individual responses will never be specifically analyzed. </p><p> If you have questions or concerns about your participation or payment, or want to request a summary of research findings, please contact Dr. Jonathan Phillips at Jonathan.S.Phillips@dartmouth.edu. </p><p> Please save a copy of this form for your records. </p><p><b>Agreement: </b>The nature and purpose of this research have been sufficiently explained and I agree to participate in this study. I understand that I am free to withdraw at any time without incurring any penalty. Please consent by clicking the button below to continue. Otherwise, please exit the study at any time. </p>","0","","","","","","","","","","","","","","","","","","","","","","","",""
"","","","","","instructions","3","116840","0.0-3.0-0.0","631a9f635762d2b83a53202b","665500ab8938657b03fbdba8","66579266c8835dc947089859","51272","","","[{""page_index"":0,""viewing_time"":1418},{""page_index"":1,""viewing_time"":1648},{""page_index"":2,""viewing_time"":2180},{""page_index"":3,""viewing_time"":5788},{""page_index"":4,""viewing_time"":2647},{""page_index"":5,""viewing_time"":2687},{""page_index"":6,""viewing_time"":4502},{""page_index"":7,""viewing_time"":4566},{""page_index"":8,""viewing_time"":3447},{""page_index"":9,""viewing_time"":3162},{""page_index"":10,""viewing_time"":8509},{""page_index"":11,""viewing_time"":4832},{""page_index"":12,""viewing_time"":4583},{""page_index"":13,""viewing_time"":1301}]","intro","","","","","","","","","","","","","","","","","","","","","",""
"","","","","","image-keyboard-response","4","118523","0.0-3.0-1.0","631a9f635762d2b83a53202b","665500ab8938657b03fbdba8","66579266c8835dc947089859","1682","stimuli/2110100.jpg","2","","prediction_practice","2","{""filepath"":""stimuli/2110100.jpg"",""ball_pos"":2,""ego_ball_visible"":true,""ego_can_infer"":true,""alter_ball_visible"":true,""alter_can_infer"":true,""collective_ball_visible"":true,""collective_can_infer"":true,""search_locations"":[2],""alter_occluders"":""110"",""ego_occluders"":""100""}","true","","","","","","","","","","","","","","","","","","",""
"","","","","","image-keyboard-response","5","120276","0.0-3.0-2.0","631a9f635762d2b83a53202b","665500ab8938657b03fbdba8","66579266c8835dc947089859","1750","stimuli/21101002.jpg"," ","","practrice_feedback","2","","","","","","","","","","","","","","","","","","","","",""
"","","","","","image-keyboard-response","6","123120","0.0-3.0-3.0","631a9f635762d2b83a53202b","665500ab8938657b03fbdba8","66579266c8835dc947089859","2843","stimuli/1100011.jpg","1","","prediction_practice","1","{""filepath"":""stimuli/1100011.jpg"",""ball_pos"":1,""ego_ball_visible"":false,""ego_can_infer"":false,""alter_ball_visible"":true,""alter_can_infer"":true,""collective_ball_visible"":false,""collective_can_infer"":false,""search_locations"":[1],""alter_occluders"":""100"",""ego_occluders"":""011""}","true","","","","","","","","","","","","","","","","","","",""
"","","","","","image-keyboard-response","7","124500","0.0-3.0-4.0","631a9f635762d2b83a53202b","665500ab8938657b03fbdba8","66579266c8835dc947089859","1378","stimuli/11000111.jpg"," ","","practrice_feedback","1","","","","","","","","","","","","","","","","","","","","",""
"","","","","","image-keyboard-response","8","127070","0.0-3.0-5.0","631a9f635762d2b83a53202b","665500ab8938657b03fbdba8","66579266c8835dc947089859","2567","stimuli/1110110.jpg","0","","prediction_practice","1","{""filepath"":""stimuli/1110110.jpg"",""ball_pos"":1,""ego_ball_visible"":false,""ego_can_infer"":false,""alter_ball_visible"":false,""alter_can_infer"":false,""collective_ball_visible"":false,""collective_can_infer"":false,""search_locations"":[1,0],""alter_occluders"":""110"",""ego_occluders"":""110""}","false","","","","","","","","","","","","","","","","","","",""
"","","","","","image-keyboard-response","9","127872","0.0-3.0-6.0","631a9f635762d2b83a53202b","665500ab8938657b03fbdba8","66579266c8835dc947089859","801","stimuli/11101101.jpg"," ","","practrice_feedback","1","","","","","","","","","","","","","","","","","","","","",""
"","","","","","image-keyboard-response","10","130472","0.0-3.0-7.0","631a9f635762d2b83a53202b","665500ab8938657b03fbdba8","66579266c8835dc947089859","2598","stimuli/2110111.jpg","2","","prediction_practice","2","{""filepath"":""stimuli/2110111.jpg"",""ball_pos"":2,""ego_ball_visible"":false,""ego_can_infer"":false,""alter_ball_visible"":true,""alter_can_infer"":true,""collective_ball_visible"":false,""collective_can_infer"":false,""search_locations"":[2],""alter_occluders"":""110"",""ego_occluders"":""111""}","true","","","","","","","","","","","","","","","","","","",""
"","","","","","image-keyboard-response","11","131801","0.0-3.0-8.0","631a9f635762d2b83a53202b","665500ab8938657b03fbdba8","66579266c8835dc947089859","1328","stimuli/21101112.jpg"," ","","practrice_feedback","2","","","","","","","","","","","","","","","","","","","","",""
"","","","","","image-keyboard-response","12","133586","0.0-3.0-9.0","631a9f635762d2b83a53202b","665500ab8938657b03fbdba8","66579266c8835dc947089859","1784","stimuli/1001011.jpg","1","","prediction_practice","1","{""filepath"":""stimuli/1001011.jpg"",""ball_pos"":1,""ego_ball_visible"":false,""ego_can_infer"":false,""alter_ball_visible"":true,""alter_can_infer"":true,""collective_ball_visible"":false,""collective_can_infer"":false,""search_locations"":[1],""alter_occluders"":""001"",""ego_occluders"":""011""}","true","","","","","","","","","","","","","","","","","","",""
"","","","","","image-keyboard-response","13","134300","0.0-3.0-10.0","631a9f635762d2b83a53202b","665500ab8938657b03fbdba8","66579266c8835dc947089859","713","stimuli/10010111.jpg"," ","","practrice_feedback","1","","","","","","","","","","","","","","","","","","","","",""
"","","","","","image-keyboard-response","14","136004","0.0-3.0-11.0","631a9f635762d2b83a53202b","665500ab8938657b03fbdba8","66579266c8835dc947089859","1701","stimuli/1110011.jpg","2","","prediction_practice","0","{""filepath"":""stimuli/1110011.jpg"",""ball_pos"":1,""ego_ball_visible"":false,""ego_can_infer"":false,""alter_ball_visible"":false,""alter_can_infer"":false,""collective_ball_visible"":false,""collective_can_infer"":false,""search_locations"":[0,1],""alter_occluders"":""110"",""ego_occluders"":""011""}","false","","","","","","","","","","","","","","","","","","",""
"","","","","","image-keyboard-response","15","136800","0.0-3.0-12.0","631a9f635762d2b83a53202b","665500ab8938657b03fbdba8","66579266c8835dc947089859","795","stimuli/11100110.jpg"," ","","practrice_feedback","0","","","","","","","","","","","","","","","","","","","","",""
"","","","","","image-keyboard-response","16","138309","0.0-3.0-13.0","631a9f635762d2b83a53202b","665500ab8938657b03fbdba8","66579266c8835dc947089859","1508","stimuli/2011010.jpg","2","","prediction_practice","2","{""filepath"":""stimuli/2011010.jpg"",""ball_pos"":2,""ego_ball_visible"":true,""ego_can_infer"":true,""alter_ball_visible"":false,""alter_can_infer"":false,""collective_ball_visible"":false,""collective_can_infer"":false,""search_locations"":[2,1],""alter_occluders"":""011"",""ego_occluders"":""010""}","true","","","","","","","","","","","","","","","","","","",""
"","","","","","image-keyboard-response","17","139502","0.0-3.0-14.0","631a9f635762d2b83a53202b","665500ab8938657b03fbdba8","66579266c8835dc947089859","1193","stimuli/20110102.jpg"," ","","practrice_feedback","2","","","","","","","","","","","","","","","","","","","","",""
"","","","","","image-keyboard-response","18","141377","0.0-3.0-15.0","631a9f635762d2b83a53202b","665500ab8938657b03fbdba8","66579266c8835dc947089859","1872","stimuli/0111110.jpg","1","","prediction_practice","1","{""filepath"":""stimuli/0111110.jpg"",""ball_pos"":0,""ego_ball_visible"":false,""ego_can_infer"":false,""alter_ball_visible"":false,""alter_can_infer"":false,""collective_ball_visible"":false,""collective_can_infer"":false,""search_locations"":[1,0,2],""alter_occluders"":""111"",""ego_occluders"":""110""}","true","","","","","","","","","","","","","","","","","","",""
"","","","","","image-keyboard-response","19","141998","0.0-3.0-16.0","631a9f635762d2b83a53202b","665500ab8938657b03fbdba8","66579266c8835dc947089859","620","stimuli/01111101.jpg"," ","","practrice_feedback","1","","","","","","","","","","","","","","","","","","","","",""
"","","","","","image-keyboard-response","20","142873","0.0-3.0-17.0","631a9f635762d2b83a53202b","665500ab8938657b03fbdba8","66579266c8835dc947089859","873","stimuli/2000100.jpg","2","","prediction_practice","2","{""filepath"":""stimuli/2000100.jpg"",""ball_pos"":2,""ego_ball_visible"":true,""ego_can_infer"":true,""alter_ball_visible"":true,""alter_can_infer"":true,""collective_ball_visible"":true,""collective_can_infer"":true,""search_locations"":[2],""alter_occluders"":""000"",""ego_occluders"":""100""}","true","","","","","","","","","","","","","","","","","","",""
"","","","","","image-keyboard-response","21","143446","0.0-3.0-18.0","631a9f635762d2b83a53202b","665500ab8938657b03fbdba8","66579266c8835dc947089859","571","stimuli/20001002.jpg"," ","","practrice_feedback","2","","","","","","","","","","","","","","","","","","","","",""
"","","","","","image-keyboard-response","22","144758","0.0-3.0-19.0","631a9f635762d2b83a53202b","665500ab8938657b03fbdba8","66579266c8835dc947089859","1312","stimuli/0000101.jpg","0","","prediction_practice","0","{""filepath"":""stimuli/0000101.jpg"",""ball_pos"":0,""ego_ball_visible"":false,""ego_can_infer"":false,""alter_ball_visible"":true,""alter_can_infer"":true,""collective_ball_visible"":false,""collective_can_infer"":false,""search_locations"":[0],""alter_occluders"":""000"",""ego_occluders"":""101""}","true","","","","","","","","","","","","","","","","","","",""
"","","","","","image-keyboard-response","23","145484","0.0-3.0-20.0","631a9f635762d2b83a53202b","665500ab8938657b03fbdba8","66579266c8835dc947089859","725","stimuli/00001010.jpg"," ","","practrice_feedback","0","","","","","","","","","","","","","","","","","","","","",""
"","","","","","html-button-response","24","150045","0.0-3.0-21.0","631a9f635762d2b83a53202b","665500ab8938657b03fbdba8","66579266c8835dc947089859","4560","Now that you've had some practice, you'll be tested with a couple of easy trials. If you correctly predict Sam's choice, you'll move on to complete the experiment!","0","","","","","","","","","","","","","","","","","","","","","","","",""
"","","","","","image-keyboard-response","25","151085","0.0-3.0-22.0-0.0","631a9f635762d2b83a53202b","665500ab8938657b03fbdba8","66579266c8835dc947089859","1039","stimuli/0000011.jpg","arrowleft","","comprehension_quiz","","","true","arrowleft","","","","","","","","","","","","","","","","","",""
"","","","","","image-keyboard-response","26","151933","0.0-3.0-22.0-1.0","631a9f635762d2b83a53202b","665500ab8938657b03fbdba8","66579266c8835dc947089859","845","stimuli/00000110.jpg"," ","","comprehension_quiz","","","true"," ","","","","","","","","","","","","","","","","","",""
"","","","","","image-keyboard-response","27","153415","0.0-3.0-22.0-2.0","631a9f635762d2b83a53202b","665500ab8938657b03fbdba8","66579266c8835dc947089859","1482","stimuli/1010010.jpg","arrowdown","","comprehension_quiz","","","true","arrowdown","","","","","","","","","","","","","","","","","",""
"","","","","","image-keyboard-response","28","154052","0.0-3.0-22.0-3.0","631a9f635762d2b83a53202b","665500ab8938657b03fbdba8","66579266c8835dc947089859","634","stimuli/10100101.jpg"," ","","comprehension_quiz","","","true"," ","","","","","","","","","","","","","","","","","",""
"","","","","","html-button-response","29","155501","0.0-4.0","631a9f635762d2b83a53202b","665500ab8938657b03fbdba8","66579266c8835dc947089859","1447","The experiment will now begin.","0","","","","","","","","","","","","","","","","","","","","","","","",""
"","","","","","image-keyboard-response","30","157081","0.0-5.0","631a9f635762d2b83a53202b","665500ab8938657b03fbdba8","66579266c8835dc947089859","1579","stimuli/0100100.jpg","0","","prediction_trial","0","","true","","0","false","true","false","true","false","true","[0]","100","100","1","","","","","","",""
"","","","","","image-keyboard-response","31","157662","0.0-6.0","631a9f635762d2b83a53202b","665500ab8938657b03fbdba8","66579266c8835dc947089859","578","stimuli/01001000.jpg"," ","","feedback_trial","0","","","","","","","","","","","","","","","","","","","","",""
"","","","","","image-keyboard-response","32","158703","0.0-7.0","631a9f635762d2b83a53202b","665500ab8938657b03fbdba8","66579266c8835dc947089859","1039","stimuli/0111110.jpg","1","","prediction_trial","2","","false","","0","false","false","false","false","false","false","[1,0,2]","111","110","0","","","","","","",""
"","","","","","image-keyboard-response","33","160721","0.0-8.0","631a9f635762d2b83a53202b","665500ab8938657b03fbdba8","66579266c8835dc947089859","2017","stimuli/01111102.jpg"," ","","feedback_trial","1","","","","","","","","","","","","","","","","","","","","",""
"","","","","","image-keyboard-response","34","162780","0.0-9.0","631a9f635762d2b83a53202b","665500ab8938657b03fbdba8","66579266c8835dc947089859","2058","stimuli/0110100.jpg","0","","prediction_trial","0","","true","","0","false","true","false","false","false","false","[0,1]","110","100","1","","","","","","",""
"","","","","","image-keyboard-response","35","163520","0.0-10.0","631a9f635762d2b83a53202b","665500ab8938657b03fbdba8","66579266c8835dc947089859","737","stimuli/01101000.jpg"," ","","feedback_trial","0","","","","","","","","","","","","","","","","","","","","",""
"","","","","","image-keyboard-response","36","164403","0.0-11.0","631a9f635762d2b83a53202b","665500ab8938657b03fbdba8","66579266c8835dc947089859","881","stimuli/0000000.jpg","0","","prediction_trial","0","","true","","0","true","true","true","true","true","true","[0]","000","000","1","","","","","","",""
"","","","","","image-keyboard-response","37","164801","0.0-12.0","631a9f635762d2b83a53202b","665500ab8938657b03fbdba8","66579266c8835dc947089859","394","stimuli/00000000.jpg"," ","","feedback_trial","0","","","","","","","","","","","","","","","","","","","","",""
"","","","","","image-keyboard-response","38","167096","0.0-13.0","631a9f635762d2b83a53202b","665500ab8938657b03fbdba8","66579266c8835dc947089859","2294","stimuli/0101110.jpg","1","","prediction_trial","2","","false","","0","false","false","false","false","false","false","[0,2]","101","110","0","","","","","","",""
"","","","","","image-keyboard-response","39","169550","0.0-14.0","631a9f635762d2b83a53202b","665500ab8938657b03fbdba8","66579266c8835dc947089859","2453","stimuli/01011102.jpg"," ","","feedback_trial","0","","","","","","","","","","","","","","","","","","","","",""
"","","","","","image-keyboard-response","40","170537","0.0-15.0","631a9f635762d2b83a53202b","665500ab8938657b03fbdba8","66579266c8835dc947089859","986","stimuli/2101010.jpg","2","","prediction_trial","0","","false","","2","true","true","false","false","false","false","[2,0]","101","010","0","","","","","","",""
"","","","","","image-keyboard-response","41","171188","0.0-16.0","631a9f635762d2b83a53202b","665500ab8938657b03fbdba8","66579266c8835dc947089859","651","stimuli/21010100.jpg"," ","","feedback_trial","2","","","","","","","","","","","","","","","","","","","","",""
"","","","","","image-keyboard-response","42","172038","0.0-17.0","631a9f635762d2b83a53202b","665500ab8938657b03fbdba8","66579266c8835dc947089859","849","stimuli/0110000.jpg","0","","prediction_trial","1","","false","","0","true","true","false","false","false","false","[0,1]","110","000","0","","","","","","",""
"","","","","","image-keyboard-response","43","172909","0.0-18.0","631a9f635762d2b83a53202b","665500ab8938657b03fbdba8","66579266c8835dc947089859","870","stimuli/01100001.jpg"," ","","feedback_trial","0","","","","","","","","","","","","","","","","","","","","",""
"","","","","","image-keyboard-response","44","174135","0.0-19.0","631a9f635762d2b83a53202b","665500ab8938657b03fbdba8","66579266c8835dc947089859","1227","stimuli/1000010.jpg","1","","prediction_trial","1","","true","","1","false","true","true","true","false","true","[1]","000","010","1","","","","","","",""
"","","","","","image-keyboard-response","45","174766","0.0-20.0","631a9f635762d2b83a53202b","665500ab8938657b03fbdba8","66579266c8835dc947089859","629","stimuli/10000101.jpg"," ","","feedback_trial","1","","","","","","","","","","","","","","","","","","","","",""
"","","","","","image-keyboard-response","46","176529","0.0-21.0","631a9f635762d2b83a53202b","665500ab8938657b03fbdba8","66579266c8835dc947089859","1762","stimuli/1100010.jpg","1","","prediction_trial","1","","true","","1","false","true","true","true","false","true","[1]","100","010","1","","","","","","",""
"","","","","","image-keyboard-response","47","177041","0.0-22.0","631a9f635762d2b83a53202b","665500ab8938657b03fbdba8","66579266c8835dc947089859","512","stimuli/11000101.jpg"," ","","feedback_trial","1","","","","","","","","","","","","","","","","","","","","",""
"","","","","","image-keyboard-response","48","179388","0.0-23.0","631a9f635762d2b83a53202b","665500ab8938657b03fbdba8","66579266c8835dc947089859","2346","stimuli/0100011.jpg","0","","prediction_trial","0","","true","","0","true","true","false","true","false","true","[0]","100","011","1","","","","","","",""
"","","","","","image-keyboard-response","49","179884","0.0-24.0","631a9f635762d2b83a53202b","665500ab8938657b03fbdba8","66579266c8835dc947089859","495","stimuli/01000110.jpg"," ","","feedback_trial","0","","","","","","","","","","","","","","","","","","","","",""
"","","","","","image-keyboard-response","50","182342","0.0-25.0","631a9f635762d2b83a53202b","665500ab8938657b03fbdba8","66579266c8835dc947089859","2455","stimuli/2011100.jpg","1","","prediction_trial","2","","false","","2","true","true","false","false","false","false","[1,2]","011","100","0","","","","","","",""
"","","","","","image-keyboard-response","51","183218","0.0-26.0","631a9f635762d2b83a53202b","665500ab8938657b03fbdba8","66579266c8835dc947089859","875","stimuli/20111002.jpg"," ","","feedback_trial","1","","","","","","","","","","","","","","","","","","","","",""
"","","","","","image-keyboard-response","52","184346","0.0-27.0","631a9f635762d2b83a53202b","665500ab8938657b03fbdba8","66579266c8835dc947089859","1126","stimuli/1000111.jpg","1","","prediction_trial","1","","true","","1","false","false","true","true","false","false","[1]","000","111","1","","","","","","",""
"","","","","","image-keyboard-response","53","185054","0.0-28.0","631a9f635762d2b83a53202b","665500ab8938657b03fbdba8","66579266c8835dc947089859","706","stimuli/10001111.jpg"," ","","feedback_trial","1","","","","","","","","","","","","","","","","","","","","",""
"","","","","","image-keyboard-response","54","186869","0.0-29.0","631a9f635762d2b83a53202b","665500ab8938657b03fbdba8","66579266c8835dc947089859","1813","stimuli/1010010.jpg","1","","prediction_trial","1","","true","","1","false","true","false","true","false","true","[1]","010","010","1","","","","","","",""
"","","","","","image-keyboard-response","55","187225","0.0-30.0","631a9f635762d2b83a53202b","665500ab8938657b03fbdba8","66579266c8835dc947089859","356","stimuli/10100101.jpg"," ","","feedback_trial","1","","","","","","","","","","","","","","","","","","","","",""
"","","","","","image-keyboard-response","56","189092","0.0-31.0","631a9f635762d2b83a53202b","665500ab8938657b03fbdba8","66579266c8835dc947089859","1866","stimuli/0110111.jpg","1","","prediction_trial","1","","true","","0","false","false","false","false","false","false","[1,0]","110","111","1","","","","","","",""
"","","","","","image-keyboard-response","57","189645","0.0-32.0","631a9f635762d2b83a53202b","665500ab8938657b03fbdba8","66579266c8835dc947089859","552","stimuli/01101111.jpg"," ","","feedback_trial","1","","","","","","","","","","","","","","","","","","","","",""
"","","","","","image-keyboard-response","58","190762","0.0-33.0","631a9f635762d2b83a53202b","665500ab8938657b03fbdba8","66579266c8835dc947089859","1115","stimuli/2010100.jpg","2","","prediction_trial","2","","true","","2","true","true","true","true","true","true","[2]","010","100","1","","","","","","",""
"","","","","","image-keyboard-response","59","191187","0.0-34.0","631a9f635762d2b83a53202b","665500ab8938657b03fbdba8","66579266c8835dc947089859","424","stimuli/20101002.jpg"," ","","feedback_trial","2","","","","","","","","","","","","","","","","","","","","",""
"","","","","","image-keyboard-response","60","192552","0.0-35.0","631a9f635762d2b83a53202b","665500ab8938657b03fbdba8","66579266c8835dc947089859","1362","stimuli/2110011.jpg","1","","prediction_trial","2","","false","","2","false","false","true","true","false","false","[2]","110","011","0","","","","","","",""
"","","","","","image-keyboard-response","61","193088","0.0-36.0","631a9f635762d2b83a53202b","665500ab8938657b03fbdba8","66579266c8835dc947089859","535","stimuli/21100112.jpg"," ","","feedback_trial","2","","","","","","","","","","","","","","","","","","","","",""
"","","","","","image-keyboard-response","62","195432","0.0-37.0","631a9f635762d2b83a53202b","665500ab8938657b03fbdba8","66579266c8835dc947089859","2340","stimuli/2011110.jpg","1","","prediction_trial","2","","false","","2","true","true","false","false","false","false","[1,2]","011","110","0","","","","","","",""
"","","","","","image-keyboard-response","63","195949","0.0-38.0","631a9f635762d2b83a53202b","665500ab8938657b03fbdba8","66579266c8835dc947089859","516","stimuli/20111102.jpg"," ","","feedback_trial","1","","","","","","","","","","","","","","","","","","","","",""
"","","","","","image-keyboard-response","64","198439","0.0-39.0","631a9f635762d2b83a53202b","665500ab8938657b03fbdba8","66579266c8835dc947089859","2488","stimuli/2101101.jpg","0","","prediction_trial","2","","false","","2","false","false","false","false","false","false","[2,0]","101","101","0","","","","","","",""
"","","","","","image-keyboard-response","65","199004","0.0-40.0","631a9f635762d2b83a53202b","665500ab8938657b03fbdba8","66579266c8835dc947089859","564","stimuli/21011012.jpg"," ","","feedback_trial","2","","","","","","","","","","","","","","","","","","","","",""
"","","","","","image-keyboard-response","66","202409","0.0-41.0","631a9f635762d2b83a53202b","665500ab8938657b03fbdba8","66579266c8835dc947089859","3403","stimuli/0011101.jpg","2","","prediction_trial","0","","false","","0","false","false","true","true","false","false","[0]","011","101","0","","","","","","",""
"","","","","","image-keyboard-response","67","203721","0.0-42.0","631a9f635762d2b83a53202b","665500ab8938657b03fbdba8","66579266c8835dc947089859","1310","stimuli/00111010.jpg"," ","","feedback_trial","0","","","","","","","","","","","","","","","","","","","","",""
"","","","","","image-keyboard-response","68","204556","0.0-43.0","631a9f635762d2b83a53202b","665500ab8938657b03fbdba8","66579266c8835dc947089859","834","stimuli/0010001.jpg","0","","prediction_trial","0","","true","","0","true","true","true","true","true","true","[0]","010","001","1","","","","","","",""
"","","","","","image-keyboard-response","69","205187","0.0-44.0","631a9f635762d2b83a53202b","665500ab8938657b03fbdba8","66579266c8835dc947089859","630","stimuli/00100010.jpg"," ","","feedback_trial","0","","","","","","","","","","","","","","","","","","","","",""
"","","","","","image-keyboard-response","70","208102","0.0-45.0","631a9f635762d2b83a53202b","665500ab8938657b03fbdba8","66579266c8835dc947089859","2913","stimuli/1010110.jpg","1","","prediction_trial","1","","true","","1","false","false","false","true","false","false","[1]","010","110","1","","","","","","",""
"","","","","","image-keyboard-response","71","208688","0.0-46.0","631a9f635762d2b83a53202b","665500ab8938657b03fbdba8","66579266c8835dc947089859","585","stimuli/10101101.jpg"," ","","feedback_trial","1","","","","","","","","","","","","","","","","","","","","",""
"","","","","","image-keyboard-response","72","209331","0.0-47.0","631a9f635762d2b83a53202b","665500ab8938657b03fbdba8","66579266c8835dc947089859","642","stimuli/0011011.jpg","0","","prediction_trial","0","","true","","0","true","true","true","true","true","true","[0]","011","011","1","","","","","","",""
"","","","","","image-keyboard-response","73","209758","0.0-48.0","631a9f635762d2b83a53202b","665500ab8938657b03fbdba8","66579266c8835dc947089859","424","stimuli/00110110.jpg"," ","","feedback_trial","0","","","","","","","","","","","","","","","","","","","","",""
"","","","","","image-keyboard-response","74","212163","0.0-49.0","631a9f635762d2b83a53202b","665500ab8938657b03fbdba8","66579266c8835dc947089859","2403","stimuli/0110010.jpg","1","","prediction_trial","1","","true","","0","true","true","false","false","false","false","[0,1]","110","010","1","","","","","","",""
"","","","","","image-keyboard-response","75","212643","0.0-50.0","631a9f635762d2b83a53202b","665500ab8938657b03fbdba8","66579266c8835dc947089859","479","stimuli/01100101.jpg"," ","","feedback_trial","0","","","","","","","","","","","","","","","","","","","","",""
"","","","","","image-keyboard-response","76","215034","0.0-51.0","631a9f635762d2b83a53202b","665500ab8938657b03fbdba8","66579266c8835dc947089859","2390","stimuli/0101100.jpg","2","","prediction_trial","0","","false","","0","false","true","false","false","false","false","[0,2]","101","100","0","","","","","","",""
"","","","","","image-keyboard-response","77","215660","0.0-52.0","631a9f635762d2b83a53202b","665500ab8938657b03fbdba8","66579266c8835dc947089859","625","stimuli/01011000.jpg"," ","","feedback_trial","0","","","","","","","","","","","","","","","","","","","","",""
"","","","","","image-keyboard-response","78","216873","0.0-53.0","631a9f635762d2b83a53202b","665500ab8938657b03fbdba8","66579266c8835dc947089859","1212","stimuli/1111011.jpg","1","","prediction_trial","2","","false","","1","false","false","false","false","false","false","[2,0,1]","111","011","0","","","","","","",""
"","","","","","image-keyboard-response","79","217528","0.0-54.0","631a9f635762d2b83a53202b","665500ab8938657b03fbdba8","66579266c8835dc947089859","653","stimuli/11110112.jpg"," ","","feedback_trial","2","","","","","","","","","","","","","","","","","","","","",""
"","","","","","image-keyboard-response","80","218377","0.0-55.0","631a9f635762d2b83a53202b","665500ab8938657b03fbdba8","66579266c8835dc947089859","848","stimuli/1100101.jpg","1","","prediction_trial","1","","true","","1","true","true","true","true","true","true","[1]","100","101","1","","","","","","",""
"","","","","","image-keyboard-response","81","218767","0.0-56.0","631a9f635762d2b83a53202b","665500ab8938657b03fbdba8","66579266c8835dc947089859","389","stimuli/11001011.jpg"," ","","feedback_trial","1","","","","","","","","","","","","","","","","","","","","",""
"","","","","","image-keyboard-response","82","220345","0.0-57.0","631a9f635762d2b83a53202b","665500ab8938657b03fbdba8","66579266c8835dc947089859","1577","stimuli/1101011.jpg","1","","prediction_trial","1","","true","","1","false","false","true","true","false","false","[1]","101","011","1","","","","","","",""
"","","","","","image-keyboard-response","83","220949","0.0-58.0","631a9f635762d2b83a53202b","665500ab8938657b03fbdba8","66579266c8835dc947089859","602","stimuli/11010111.jpg"," ","","feedback_trial","1","","","","","","","","","","","","","","","","","","","","",""
"","","","","","image-keyboard-response","84","221655","0.0-59.0","631a9f635762d2b83a53202b","665500ab8938657b03fbdba8","66579266c8835dc947089859","705","stimuli/2000010.jpg","2","","prediction_trial","2","","true","","2","true","true","true","true","true","true","[2]","000","010","1","","","","","","",""
"","","","","","image-keyboard-response","85","222011","0.0-60.0","631a9f635762d2b83a53202b","665500ab8938657b03fbdba8","66579266c8835dc947089859","355","stimuli/20000102.jpg"," ","","feedback_trial","2","","","","","","","","","","","","","","","","","","","","",""
"","","","","","image-keyboard-response","86","222661","0.0-61.0","631a9f635762d2b83a53202b","665500ab8938657b03fbdba8","66579266c8835dc947089859","648","stimuli/1000101.jpg","1","","prediction_trial","1","","true","","1","true","true","true","true","true","true","[1]","000","101","1","","","","","","",""
"","","","","","image-keyboard-response","87","222938","0.0-62.0","631a9f635762d2b83a53202b","665500ab8938657b03fbdba8","66579266c8835dc947089859","275","stimuli/10001011.jpg"," ","","feedback_trial","1","","","","","","","","","","","","","","","","","","","","",""
"","","","","","image-keyboard-response","88","223550","0.0-63.0","631a9f635762d2b83a53202b","665500ab8938657b03fbdba8","66579266c8835dc947089859","610","stimuli/2110010.jpg","2","","prediction_trial","2","","true","","2","true","true","true","true","true","true","[2]","110","010","1","","","","","","",""
"","","","","","image-keyboard-response","89","223900","0.0-64.0","631a9f635762d2b83a53202b","665500ab8938657b03fbdba8","66579266c8835dc947089859","348","stimuli/21100102.jpg"," ","","feedback_trial","2","","","","","","","","","","","","","","","","","","","","",""
"","","","","","image-keyboard-response","90","226653","0.0-65.0","631a9f635762d2b83a53202b","665500ab8938657b03fbdba8","66579266c8835dc947089859","2752","stimuli/0111101.jpg","1","","prediction_trial","2","","false","","0","false","false","false","false","false","false","[2,1,0]","111","101","0","","","","","","",""
"","","","","","image-keyboard-response","91","227216","0.0-66.0","631a9f635762d2b83a53202b","665500ab8938657b03fbdba8","66579266c8835dc947089859","562","stimuli/01111012.jpg"," ","","feedback_trial","2","","","","","","","","","","","","","","","","","","","","",""
"","","","","","image-keyboard-response","92","227868","0.0-67.0","631a9f635762d2b83a53202b","665500ab8938657b03fbdba8","66579266c8835dc947089859","648","stimuli/1101001.jpg","1","","prediction_trial","1","","true","","1","true","true","true","true","true","true","[1]","101","001","1","","","","","","",""
"","","","","","image-keyboard-response","93","228192","0.0-68.0","631a9f635762d2b83a53202b","665500ab8938657b03fbdba8","66579266c8835dc947089859","323","stimuli/11010011.jpg"," ","","feedback_trial","1","","","","","","","","","","","","","","","","","","","","",""
"","","","","","image-keyboard-response","94","229743","0.0-69.0","631a9f635762d2b83a53202b","665500ab8938657b03fbdba8","66579266c8835dc947089859","1549","stimuli/1110110.jpg","1","","prediction_trial","0","","false","","1","false","false","false","false","false","false","[1,0]","110","110","0","","","","","","",""
"","","","","","image-keyboard-response","95","230341","0.0-70.0","631a9f635762d2b83a53202b","665500ab8938657b03fbdba8","66579266c8835dc947089859","597","stimuli/11101100.jpg"," ","","feedback_trial","1","","","","","","","","","","","","","","","","","","","","",""
"","","","","","image-keyboard-response","96","231272","0.0-71.0","631a9f635762d2b83a53202b","665500ab8938657b03fbdba8","66579266c8835dc947089859","929","stimuli/0100010.jpg","0","","prediction_trial","0","","true","","0","true","true","false","true","false","true","[0]","100","010","1","","","","","","",""
"","","","","","image-keyboard-response","97","231980","0.0-72.0","631a9f635762d2b83a53202b","665500ab8938657b03fbdba8","66579266c8835dc947089859","707","stimuli/01000100.jpg"," ","","feedback_trial","0","","","","","","","","","","","","","","","","","","","","",""
"","","","","","image-keyboard-response","98","232688","0.0-73.0","631a9f635762d2b83a53202b","665500ab8938657b03fbdba8","66579266c8835dc947089859","707","stimuli/1011101.jpg","1","","prediction_trial","1","","true","","1","true","true","false","false","false","false","[2,1]","011","101","1","","","","","","",""
"","","","","","image-keyboard-response","99","233058","0.0-74.0","631a9f635762d2b83a53202b","665500ab8938657b03fbdba8","66579266c8835dc947089859","369","stimuli/10111011.jpg"," ","","feedback_trial","2","","","","","","","","","","","","","","","","","","","","",""
"","","","","","image-keyboard-response","100","236564","0.0-75.0","631a9f635762d2b83a53202b","665500ab8938657b03fbdba8","66579266c8835dc947089859","3505","stimuli/0101111.jpg","1","","prediction_trial","0","","false","","0","false","false","false","false","false","false","[2,0]","101","111","0","","","","","","",""
"","","","","","image-keyboard-response","101","237123","0.0-76.0","631a9f635762d2b83a53202b","665500ab8938657b03fbdba8","66579266c8835dc947089859","559","stimuli/01011110.jpg"," ","","feedback_trial","2","","","","","","","","","","","","","","","","","","","","",""
"","","","","","image-keyboard-response","102","237697","0.0-77.0","631a9f635762d2b83a53202b","665500ab8938657b03fbdba8","66579266c8835dc947089859","573","stimuli/1000000.jpg","1","","prediction_trial","1","","true","","1","true","true","true","true","true","true","[1]","000","000","1","","","","","","",""
"","","","","","image-keyboard-response","103","238093","0.0-78.0","631a9f635762d2b83a53202b","665500ab8938657b03fbdba8","66579266c8835dc947089859","395","stimuli/10000001.jpg"," ","","feedback_trial","1","","","","","","","","","","","","","","","","","","","","",""
"","","","","","image-keyboard-response","104","239572","0.0-79.0","631a9f635762d2b83a53202b","665500ab8938657b03fbdba8","66579266c8835dc947089859","1478","stimuli/0001100.jpg","0","","prediction_trial","0","","true","","0","false","true","true","true","false","true","[0]","001","100","1","","","","","","",""
"","","","","","image-keyboard-response","105","239956","0.0-80.0","631a9f635762d2b83a53202b","665500ab8938657b03fbdba8","66579266c8835dc947089859","383","stimuli/00011000.jpg"," ","","feedback_trial","0","","","","","","","","","","","","","","","","","","","","",""
"","","","","","image-keyboard-response","106","240573","0.0-81.0","631a9f635762d2b83a53202b","665500ab8938657b03fbdba8","66579266c8835dc947089859","616","stimuli/2100000.jpg","2","","prediction_trial","2","","true","","2","true","true","true","true","true","true","[2]","100","000","1","","","","","","",""
"","","","","","image-keyboard-response","107","240913","0.0-82.0","631a9f635762d2b83a53202b","665500ab8938657b03fbdba8","66579266c8835dc947089859","336","stimuli/21000002.jpg"," ","","feedback_trial","2","","","","","","","","","","","","","","","","","","","","",""
"","","","","","image-keyboard-response","108","242819","0.0-83.0","631a9f635762d2b83a53202b","665500ab8938657b03fbdba8","66579266c8835dc947089859","1905","stimuli/2000111.jpg","1","","prediction_trial","2","","false","","2","false","false","true","true","false","false","[2]","000","111","0","","","","","","",""
"","","","","","image-keyboard-response","109","243391","0.0-84.0","631a9f635762d2b83a53202b","665500ab8938657b03fbdba8","66579266c8835dc947089859","570","stimuli/20001112.jpg"," ","","feedback_trial","2","","","","","","","","","","","","","","","","","","","","",""
"","","","","","image-keyboard-response","110","244437","0.0-85.0","631a9f635762d2b83a53202b","665500ab8938657b03fbdba8","66579266c8835dc947089859","1045","stimuli/0000100.jpg","0","","prediction_trial","0","","true","","0","false","true","true","true","false","true","[0]","000","100","1","","","","","","",""
"","","","","","image-keyboard-response","111","244794","0.0-86.0","631a9f635762d2b83a53202b","665500ab8938657b03fbdba8","66579266c8835dc947089859","356","stimuli/00001000.jpg"," ","","feedback_trial","0","","","","","","","","","","","","","","","","","","","","",""
"","","","","","image-keyboard-response","112","246348","0.0-87.0","631a9f635762d2b83a53202b","665500ab8938657b03fbdba8","66579266c8835dc947089859","1552","stimuli/2011111.jpg","1","","prediction_trial","1","","true","","2","false","false","false","false","false","false","[1,2]","011","111","1","","","","","","",""
"","","","","","image-keyboard-response","113","247196","0.0-88.0","631a9f635762d2b83a53202b","665500ab8938657b03fbdba8","66579266c8835dc947089859","847","stimuli/20111111.jpg"," ","","feedback_trial","1","","","","","","","","","","","","","","","","","","","","",""
"","","","","","image-keyboard-response","114","248365","0.0-89.0","631a9f635762d2b83a53202b","665500ab8938657b03fbdba8","66579266c8835dc947089859","1166","stimuli/2110001.jpg","2","","prediction_trial","2","","true","","2","false","true","true","true","false","true","[2]","110","001","1","","","","","","",""
"","","","","","image-keyboard-response","115","248759","0.0-90.0","631a9f635762d2b83a53202b","665500ab8938657b03fbdba8","66579266c8835dc947089859","394","stimuli/21100012.jpg"," ","","feedback_trial","2","","","","","","","","","","","","","","","","","","","","",""
"","","","","","image-keyboard-response","116","249932","0.0-91.0","631a9f635762d2b83a53202b","665500ab8938657b03fbdba8","66579266c8835dc947089859","1171","stimuli/1110010.jpg","1","","prediction_trial","0","","false","","1","false","true","false","false","false","false","[0,1]","110","010","0","","","","","","",""
"","","","","","image-keyboard-response","117","250486","0.0-92.0","631a9f635762d2b83a53202b","665500ab8938657b03fbdba8","66579266c8835dc947089859","552","stimuli/11100100.jpg"," ","","feedback_trial","0","","","","","","","","","","","","","","","","","","","","",""
"","","","","","image-keyboard-response","118","252142","0.0-93.0","631a9f635762d2b83a53202b","665500ab8938657b03fbdba8","66579266c8835dc947089859","1654","stimuli/2010111.jpg","1","","prediction_trial","2","","false","","2","false","false","true","true","false","false","[2]","010","111","0","","","","","","",""
"","","","","","image-keyboard-response","119","252667","0.0-94.0","631a9f635762d2b83a53202b","665500ab8938657b03fbdba8","66579266c8835dc947089859","524","stimuli/20101112.jpg"," ","","feedback_trial","2","","","","","","","","","","","","","","","","","","","","",""
"","","","","","image-keyboard-response","120","253538","0.0-95.0","631a9f635762d2b83a53202b","665500ab8938657b03fbdba8","66579266c8835dc947089859","869","stimuli/1101010.jpg","1","","prediction_trial","1","","true","","1","false","true","true","true","false","true","[1]","101","010","1","","","","","","",""
"","","","","","image-keyboard-response","121","253845","0.0-96.0","631a9f635762d2b83a53202b","665500ab8938657b03fbdba8","66579266c8835dc947089859","306","stimuli/11010101.jpg"," ","","feedback_trial","1","","","","","","","","","","","","","","","","","","","","",""
"","","","","","image-keyboard-response","122","255977","0.0-97.0","631a9f635762d2b83a53202b","665500ab8938657b03fbdba8","66579266c8835dc947089859","2129","stimuli/1000011.jpg","1","","prediction_trial","1","","true","","1","false","false","true","true","false","false","[1]","000","011","1","","","","","","",""
"","","","","","image-keyboard-response","123","256495","0.0-98.0","631a9f635762d2b83a53202b","665500ab8938657b03fbdba8","66579266c8835dc947089859","517","stimuli/10000111.jpg"," ","","feedback_trial","1","","","","","","","","","","","","","","","","","","","","",""
"","","","","","image-keyboard-response","124","257244","0.0-99.0","631a9f635762d2b83a53202b","665500ab8938657b03fbdba8","66579266c8835dc947089859","747","stimuli/2000100.jpg","2","","prediction_trial","2","","true","","2","true","true","true","true","true","true","[2]","000","100","1","","","","","","",""
"","","","","","image-keyboard-response","125","257590","0.0-100.0","631a9f635762d2b83a53202b","665500ab8938657b03fbdba8","66579266c8835dc947089859","346","stimuli/20001002.jpg"," ","","feedback_trial","2","","","","","","","","","","","","","","","","","","","","",""
"","","","","","image-keyboard-response","126","258393","0.0-101.0","631a9f635762d2b83a53202b","665500ab8938657b03fbdba8","66579266c8835dc947089859","802","stimuli/0001001.jpg","0","","prediction_trial","0","","true","","0","true","true","true","true","true","true","[0]","001","001","1","","","","","","",""
"","","","","","image-keyboard-response","127","258635","0.0-102.0","631a9f635762d2b83a53202b","665500ab8938657b03fbdba8","66579266c8835dc947089859","241","stimuli/00010010.jpg"," ","","feedback_trial","0","","","","","","","","","","","","","","","","","","","","",""
"","","","","","image-keyboard-response","128","260809","0.0-103.0","631a9f635762d2b83a53202b","665500ab8938657b03fbdba8","66579266c8835dc947089859","2172","stimuli/1011001.jpg","1","","prediction_trial","1","","true","","1","true","true","false","false","false","false","[2,1]","011","001","1","","","","","","",""
"","","","","","image-keyboard-response","129","261213","0.0-104.0","631a9f635762d2b83a53202b","665500ab8938657b03fbdba8","66579266c8835dc947089859","403","stimuli/10110011.jpg"," ","","feedback_trial","2","","","","","","","","","","","","","","","","","","","","",""
"","","","","","image-keyboard-response","130","262042","0.0-105.0","631a9f635762d2b83a53202b","665500ab8938657b03fbdba8","66579266c8835dc947089859","827","stimuli/0000011.jpg","0","","prediction_trial","0","","true","","0","true","true","true","true","true","true","[0]","000","011","1","","","","","","",""
"","","","","","image-keyboard-response","131","262385","0.0-106.0","631a9f635762d2b83a53202b","665500ab8938657b03fbdba8","66579266c8835dc947089859","342","stimuli/00000110.jpg"," ","","feedback_trial","0","","","","","","","","","","","","","","","","","","","","",""
"","","","","","image-keyboard-response","132","263325","0.0-107.0","631a9f635762d2b83a53202b","665500ab8938657b03fbdba8","66579266c8835dc947089859","939","stimuli/1111010.jpg","1","","prediction_trial","2","","false","","1","false","true","false","false","false","false","[1,0,2]","111","010","0","","","","","","",""
"","","","","","image-keyboard-response","133","263832","0.0-108.0","631a9f635762d2b83a53202b","665500ab8938657b03fbdba8","66579266c8835dc947089859","506","stimuli/11110102.jpg"," ","","feedback_trial","1","","","","","","","","","","","","","","","","","","","","",""
"","","","","","image-keyboard-response","134","264782","0.0-109.0","631a9f635762d2b83a53202b","665500ab8938657b03fbdba8","66579266c8835dc947089859","948","stimuli/0110001.jpg","0","","prediction_trial","1","","false","","0","true","true","false","false","false","false","[0,1]","110","001","0","","","","","","",""
"","","","","","image-keyboard-response","135","265509","0.0-110.0","631a9f635762d2b83a53202b","665500ab8938657b03fbdba8","66579266c8835dc947089859","725","stimuli/01100011.jpg"," ","","feedback_trial","0","","","","","","","","","","","","","","","","","","","","",""
"","","","","","image-keyboard-response","136","266684","0.0-111.0","631a9f635762d2b83a53202b","665500ab8938657b03fbdba8","66579266c8835dc947089859","1174","stimuli/1011111.jpg","1","","prediction_trial","1","","true","","1","false","false","false","false","false","false","[2,1]","011","111","1","","","","","","",""
"","","","","","image-keyboard-response","137","267142","0.0-112.0","631a9f635762d2b83a53202b","665500ab8938657b03fbdba8","66579266c8835dc947089859","456","stimuli/10111111.jpg"," ","","feedback_trial","2","","","","","","","","","","","","","","","","","","","","",""
"","","","","","image-keyboard-response","138","267799","0.0-113.0","631a9f635762d2b83a53202b","665500ab8938657b03fbdba8","66579266c8835dc947089859","655","stimuli/1010000.jpg","1","","prediction_trial","1","","true","","1","true","true","false","true","false","true","[1]","010","000","1","","","","","","",""
"","","","","","image-keyboard-response","139","268272","0.0-114.0","631a9f635762d2b83a53202b","665500ab8938657b03fbdba8","66579266c8835dc947089859","472","stimuli/10100001.jpg"," ","","feedback_trial","1","","","","","","","","","","","","","","","","","","","","",""
"","","","","","image-keyboard-response","140","270621","0.0-115.0","631a9f635762d2b83a53202b","665500ab8938657b03fbdba8","66579266c8835dc947089859","2348","stimuli/1010011.jpg","2","","prediction_trial","1","","false","","1","false","false","false","true","false","false","[1]","010","011","0","","","","","","",""
"","","","","","image-keyboard-response","141","271223","0.0-116.0","631a9f635762d2b83a53202b","665500ab8938657b03fbdba8","66579266c8835dc947089859","601","stimuli/10100111.jpg"," ","","feedback_trial","1","","","","","","","","","","","","","","","","","","","","",""
"","","","","","image-keyboard-response","142","271806","0.0-117.0","631a9f635762d2b83a53202b","665500ab8938657b03fbdba8","66579266c8835dc947089859","580","stimuli/1110001.jpg","1","","prediction_trial","0","","false","","1","true","true","false","false","false","false","[1,0]","110","001","0","","","","","","",""
"","","","","","image-keyboard-response","143","272366","0.0-118.0","631a9f635762d2b83a53202b","665500ab8938657b03fbdba8","66579266c8835dc947089859","559","stimuli/11100010.jpg"," ","","feedback_trial","1","","","","","","","","","","","","","","","","","","","","",""
"","","","","","image-keyboard-response","144","273601","0.0-119.0","631a9f635762d2b83a53202b","665500ab8938657b03fbdba8","66579266c8835dc947089859","1233","stimuli/2000011.jpg","1","","prediction_trial","2","","false","","2","false","false","true","true","false","false","[2]","000","011","0","","","","","","",""
"","","","","","image-keyboard-response","145","274391","0.0-120.0","631a9f635762d2b83a53202b","665500ab8938657b03fbdba8","66579266c8835dc947089859","789","stimuli/20000112.jpg"," ","","feedback_trial","2","","","","","","","","","","","","","","","","","","","","",""
"","","","","","image-keyboard-response","146","275213","0.0-121.0","631a9f635762d2b83a53202b","665500ab8938657b03fbdba8","66579266c8835dc947089859","820","stimuli/1100111.jpg","1","","prediction_trial","1","","true","","1","false","false","true","true","false","false","[1]","100","111","1","","","","","","",""
"","","","","","image-keyboard-response","147","275832","0.0-122.0","631a9f635762d2b83a53202b","665500ab8938657b03fbdba8","66579266c8835dc947089859","618","stimuli/11001111.jpg"," ","","feedback_trial","1","","","","","","","","","","","","","","","","","","","","",""
"","","","","","image-keyboard-response","148","276801","0.0-123.0","631a9f635762d2b83a53202b","665500ab8938657b03fbdba8","66579266c8835dc947089859","969","stimuli/2001111.jpg","1","","prediction_trial","2","","false","","2","false","false","false","true","false","false","[2]","001","111","0","","","","","","",""
"","","","","","image-keyboard-response","149","277303","0.0-124.0","631a9f635762d2b83a53202b","665500ab8938657b03fbdba8","66579266c8835dc947089859","502","stimuli/20011112.jpg"," ","","feedback_trial","2","","","","","","","","","","","","","","","","","","","","",""
"","","","","","image-keyboard-response","150","277957","0.0-125.0","631a9f635762d2b83a53202b","665500ab8938657b03fbdba8","66579266c8835dc947089859","652","stimuli/0010110.jpg","1","","prediction_trial","0","","false","","0","false","false","true","true","false","false","[0]","010","110","0","","","","","","",""
"","","","","","image-keyboard-response","151","278618","0.0-126.0","631a9f635762d2b83a53202b","665500ab8938657b03fbdba8","66579266c8835dc947089859","659","stimuli/00101100.jpg"," ","","feedback_trial","0","","","","","","","","","","","","","","","","","","","","",""
"","","","","","image-keyboard-response","152","279229","0.0-127.0","631a9f635762d2b83a53202b","665500ab8938657b03fbdba8","66579266c8835dc947089859","610","stimuli/1101100.jpg","1","","prediction_trial","1","","true","","1","true","true","true","true","true","true","[1]","101","100","1","","","","","","",""
"","","","","","image-keyboard-response","153","279504","0.0-128.0","631a9f635762d2b83a53202b","665500ab8938657b03fbdba8","66579266c8835dc947089859","274","stimuli/11011001.jpg"," ","","feedback_trial","1","","","","","","","","","","","","","","","","","","","","",""
"","","","","","image-keyboard-response","154","281263","0.0-129.0","631a9f635762d2b83a53202b","665500ab8938657b03fbdba8","66579266c8835dc947089859","1757","stimuli/1110111.jpg","1","","prediction_trial","0","","false","","1","false","false","false","false","false","false","[0,1]","110","111","0","","","","","","",""
"","","","","","image-keyboard-response","155","281792","0.0-130.0","631a9f635762d2b83a53202b","665500ab8938657b03fbdba8","66579266c8835dc947089859","528","stimuli/11101110.jpg"," ","","feedback_trial","0","","","","","","","","","","","","","","","","","","","","",""
"","","","","","image-keyboard-response","156","282579","0.0-131.0","631a9f635762d2b83a53202b","665500ab8938657b03fbdba8","66579266c8835dc947089859","786","stimuli/1110011.jpg","1","","prediction_trial","0","","false","","1","false","false","false","false","false","false","[0,1]","110","011","0","","","","","","",""
"","","","","","image-keyboard-response","157","283240","0.0-132.0","631a9f635762d2b83a53202b","665500ab8938657b03fbdba8","66579266c8835dc947089859","660","stimuli/11100110.jpg"," ","","feedback_trial","0","","","","","","","","","","","","","","","","","","","","",""
"","","","","","image-keyboard-response","158","284049","0.0-133.0","631a9f635762d2b83a53202b","665500ab8938657b03fbdba8","66579266c8835dc947089859","808","stimuli/1001110.jpg","1","","prediction_trial","1","","true","","1","false","false","true","true","false","false","[1]","001","110","1","","","","","","",""
"","","","","","image-keyboard-response","159","284481","0.0-134.0","631a9f635762d2b83a53202b","665500ab8938657b03fbdba8","66579266c8835dc947089859","431","stimuli/10011101.jpg"," ","","feedback_trial","1","","","","","","","","","","","","","","","","","","","","",""
"","","","","","image-keyboard-response","160","285347","0.0-135.0","631a9f635762d2b83a53202b","665500ab8938657b03fbdba8","66579266c8835dc947089859","865","stimuli/2110100.jpg","2","","prediction_trial","2","","true","","2","true","true","true","true","true","true","[2]","110","100","1","","","","","","",""
"","","","","","image-keyboard-response","161","285649","0.0-136.0","631a9f635762d2b83a53202b","665500ab8938657b03fbdba8","66579266c8835dc947089859","301","stimuli/21101002.jpg"," ","","feedback_trial","2","","","","","","","","","","","","","","","","","","","","",""
"","","","","","image-keyboard-response","162","287516","0.0-137.0","631a9f635762d2b83a53202b","665500ab8938657b03fbdba8","66579266c8835dc947089859","1865","stimuli/2111010.jpg","1","","prediction_trial","1","","true","","2","true","true","false","false","false","false","[0,1,2]","111","010","1","","","","","","",""
"","","","","","image-keyboard-response","163","288104","0.0-138.0","631a9f635762d2b83a53202b","665500ab8938657b03fbdba8","66579266c8835dc947089859","587","stimuli/21110101.jpg"," ","","feedback_trial","0","","","","","","","","","","","","","","","","","","","","",""
"","","","","","image-keyboard-response","164","288910","0.0-139.0","631a9f635762d2b83a53202b","665500ab8938657b03fbdba8","66579266c8835dc947089859","804","stimuli/0011001.jpg","0","","prediction_trial","0","","true","","0","true","true","true","true","true","true","[0]","011","001","1","","","","","","",""
"","","","","","image-keyboard-response","165","289336","0.0-140.0","631a9f635762d2b83a53202b","665500ab8938657b03fbdba8","66579266c8835dc947089859","426","stimuli/00110010.jpg"," ","","feedback_trial","0","","","","","","","","","","","","","","","","","","","","",""
"","","","","","image-keyboard-response","166","290069","0.0-141.0","631a9f635762d2b83a53202b","665500ab8938657b03fbdba8","66579266c8835dc947089859","730","stimuli/0011000.jpg","0","","prediction_trial","0","","true","","0","true","true","true","true","true","true","[0]","011","000","1","","","","","","",""
"","","","","","image-keyboard-response","167","290457","0.0-142.0","631a9f635762d2b83a53202b","665500ab8938657b03fbdba8","66579266c8835dc947089859","387","stimuli/00110000.jpg"," ","","feedback_trial","0","","","","","","","","","","","","","","","","","","","","",""
"","","","","","image-keyboard-response","168","292328","0.0-143.0","631a9f635762d2b83a53202b","665500ab8938657b03fbdba8","66579266c8835dc947089859","1869","stimuli/0101000.jpg","0","","prediction_trial","0","","true","","0","true","true","false","false","false","false","[0,2]","101","000","1","","","","","","",""
"","","","","","image-keyboard-response","169","292794","0.0-144.0","631a9f635762d2b83a53202b","665500ab8938657b03fbdba8","66579266c8835dc947089859","466","stimuli/01010000.jpg"," ","","feedback_trial","0","","","","","","","","","","","","","","","","","","","","",""
"","","","","","image-keyboard-response","170","294316","0.0-145.0","631a9f635762d2b83a53202b","665500ab8938657b03fbdba8","66579266c8835dc947089859","1520","stimuli/2011000.jpg","2","","prediction_trial","1","","false","","2","true","true","false","false","false","false","[1,2]","011","000","0","","","","","","",""
"","","","","","image-keyboard-response","171","294797","0.0-146.0","631a9f635762d2b83a53202b","665500ab8938657b03fbdba8","66579266c8835dc947089859","481","stimuli/20110001.jpg"," ","","feedback_trial","1","","","","","","","","","","","","","","","","","","","","",""
"","","","","","image-keyboard-response","172","295923","0.0-147.0","631a9f635762d2b83a53202b","665500ab8938657b03fbdba8","66579266c8835dc947089859","1125","stimuli/0111100.jpg","0","","prediction_trial","1","","false","","0","false","true","false","false","false","false","[0,2,1]","111","100","0","","","","","","",""
"","","","","","image-keyboard-response","173","296916","0.0-148.0","631a9f635762d2b83a53202b","665500ab8938657b03fbdba8","66579266c8835dc947089859","992","stimuli/01111001.jpg"," ","","feedback_trial","0","","","","","","","","","","","","","","","","","","","","",""
"","","","","","image-keyboard-response","174","299127","0.0-149.0","631a9f635762d2b83a53202b","665500ab8938657b03fbdba8","66579266c8835dc947089859","2210","stimuli/2010101.jpg","0","","prediction_trial","2","","false","","2","false","false","true","true","false","false","[2]","010","101","0","","","","","","",""
"","","","","","image-keyboard-response","175","299687","0.0-150.0","631a9f635762d2b83a53202b","665500ab8938657b03fbdba8","66579266c8835dc947089859","559","stimuli/20101012.jpg"," ","","feedback_trial","2","","","","","","","","","","","","","","","","","","","","",""
"","","","","","image-keyboard-response","176","301187","0.0-151.0","631a9f635762d2b83a53202b","665500ab8938657b03fbdba8","66579266c8835dc947089859","1499","stimuli/1000110.jpg","1","","prediction_trial","1","","true","","1","false","false","true","true","false","false","[1]","000","110","1","","","","","","",""
"","","","","","image-keyboard-response","177","301581","0.0-152.0","631a9f635762d2b83a53202b","665500ab8938657b03fbdba8","66579266c8835dc947089859","392","stimuli/10001101.jpg"," ","","feedback_trial","1","","","","","","","","","","","","","","","","","","","","",""
"","","","","","image-keyboard-response","178","302204","0.0-153.0","631a9f635762d2b83a53202b","665500ab8938657b03fbdba8","66579266c8835dc947089859","621","stimuli/0001011.jpg","0","","prediction_trial","0","","true","","0","true","true","true","true","true","true","[0]","001","011","1","","","","","","",""
"","","","","","image-keyboard-response","179","302515","0.0-154.0","631a9f635762d2b83a53202b","665500ab8938657b03fbdba8","66579266c8835dc947089859","309","stimuli/00010110.jpg"," ","","feedback_trial","0","","","","","","","","","","","","","","","","","","","","",""
"","","","","","image-keyboard-response","180","304341","0.0-155.0","631a9f635762d2b83a53202b","665500ab8938657b03fbdba8","66579266c8835dc947089859","1823","stimuli/0111011.jpg","1","","prediction_trial","0","","false","","0","true","true","false","false","false","false","[1,2,0]","111","011","0","","","","","","",""
"","","","","","image-keyboard-response","181","304800","0.0-156.0","631a9f635762d2b83a53202b","665500ab8938657b03fbdba8","66579266c8835dc947089859","458","stimuli/01110110.jpg"," ","","feedback_trial","1","","","","","","","","","","","","","","","","","","","","",""
"","","","","","image-keyboard-response","182","306164","0.0-157.0","631a9f635762d2b83a53202b","665500ab8938657b03fbdba8","66579266c8835dc947089859","1364","stimuli/2111111.jpg","2","","prediction_trial","2","","true","","2","false","false","false","false","false","false","[1,0,2]","111","111","1","","","","","","",""
"","","","","","image-keyboard-response","183","306862","0.0-158.0","631a9f635762d2b83a53202b","665500ab8938657b03fbdba8","66579266c8835dc947089859","697","stimuli/21111112.jpg"," ","","feedback_trial","1","","","","","","","","","","","","","","","","","","","","",""
"","","","","","image-keyboard-response","184","308641","0.0-159.0","631a9f635762d2b83a53202b","665500ab8938657b03fbdba8","66579266c8835dc947089859","1779","stimuli/1110000.jpg","1","","prediction_trial","1","","true","","1","true","true","false","false","false","false","[0,1]","110","000","1","","","","","","",""
"","","","","","image-keyboard-response","185","309031","0.0-160.0","631a9f635762d2b83a53202b","665500ab8938657b03fbdba8","66579266c8835dc947089859","389","stimuli/11100001.jpg"," ","","feedback_trial","0","","","","","","","","","","","","","","","","","","","","",""
"","","","","","image-keyboard-response","186","310206","0.0-161.0","631a9f635762d2b83a53202b","665500ab8938657b03fbdba8","66579266c8835dc947089859","1174","stimuli/0011100.jpg","0","","prediction_trial","0","","true","","0","false","true","true","true","false","true","[0]","011","100","1","","","","","","",""
"","","","","","image-keyboard-response","187","310537","0.0-162.0","631a9f635762d2b83a53202b","665500ab8938657b03fbdba8","66579266c8835dc947089859","330","stimuli/00111000.jpg"," ","","feedback_trial","0","","","","","","","","","","","","","","","","","","","","",""
"","","","","","image-keyboard-response","188","312106","0.0-163.0","631a9f635762d2b83a53202b","665500ab8938657b03fbdba8","66579266c8835dc947089859","1566","stimuli/2101100.jpg","2","","prediction_trial","0","","false","","2","true","true","false","false","false","false","[2,0]","101","100","0","","","","","","",""
"","","","","","image-keyboard-response","189","312559","0.0-164.0","631a9f635762d2b83a53202b","665500ab8938657b03fbdba8","66579266c8835dc947089859","452","stimuli/21011000.jpg"," ","","feedback_trial","2","","","","","","","","","","","","","","","","","","","","",""
"","","","","","image-keyboard-response","190","313247","0.0-165.0","631a9f635762d2b83a53202b","665500ab8938657b03fbdba8","66579266c8835dc947089859","688","stimuli/0001000.jpg","0","","prediction_trial","0","","true","","0","true","true","true","true","true","true","[0]","001","000","1","","","","","","",""
"","","","","","image-keyboard-response","191","313564","0.0-166.0","631a9f635762d2b83a53202b","665500ab8938657b03fbdba8","66579266c8835dc947089859","316","stimuli/00010000.jpg"," ","","feedback_trial","0","","","","","","","","","","","","","","","","","","","","",""
"","","","","","image-keyboard-response","192","314891","0.0-167.0","631a9f635762d2b83a53202b","665500ab8938657b03fbdba8","66579266c8835dc947089859","1325","stimuli/0111010.jpg","1","","prediction_trial","2","","false","","0","true","true","false","false","false","false","[1,2,0]","111","010","0","","","","","","",""
"","","","","","image-keyboard-response","193","315428","0.0-168.0","631a9f635762d2b83a53202b","665500ab8938657b03fbdba8","66579266c8835dc947089859","536","stimuli/01110102.jpg"," ","","feedback_trial","1","","","","","","","","","","","","","","","","","","","","",""
"","","","","","image-keyboard-response","194","316089","0.0-169.0","631a9f635762d2b83a53202b","665500ab8938657b03fbdba8","66579266c8835dc947089859","659","stimuli/1001000.jpg","1","","prediction_trial","1","","true","","1","true","true","true","true","true","true","[1]","001","000","1","","","","","","",""
"","","","","","image-keyboard-response","195","316395","0.0-170.0","631a9f635762d2b83a53202b","665500ab8938657b03fbdba8","66579266c8835dc947089859","305","stimuli/10010001.jpg"," ","","feedback_trial","1","","","","","","","","","","","","","","","","","","","","",""
"","","","","","image-keyboard-response","196","318327","0.0-171.0","631a9f635762d2b83a53202b","665500ab8938657b03fbdba8","66579266c8835dc947089859","1928","stimuli/1100110.jpg","1","","prediction_trial","1","","true","","1","false","false","true","true","false","false","[1]","100","110","1","","","","","","",""
"","","","","","image-keyboard-response","197","318825","0.0-172.0","631a9f635762d2b83a53202b","665500ab8938657b03fbdba8","66579266c8835dc947089859","497","stimuli/11001101.jpg"," ","","feedback_trial","1","","","","","","","","","","","","","","","","","","","","",""
"","","","","","image-keyboard-response","198","320097","0.0-173.0","631a9f635762d2b83a53202b","665500ab8938657b03fbdba8","66579266c8835dc947089859","1271","stimuli/1001010.jpg","1","","prediction_trial","1","","true","","1","false","true","true","true","false","true","[1]","001","010","1","","","","","","",""
"","","","","","image-keyboard-response","199","320426","0.0-174.0","631a9f635762d2b83a53202b","665500ab8938657b03fbdba8","66579266c8835dc947089859","328","stimuli/10010101.jpg"," ","","feedback_trial","1","","","","","","","","","","","","","","","","","","","","",""
"","","","","","image-keyboard-response","200","321471","0.0-175.0","631a9f635762d2b83a53202b","665500ab8938657b03fbdba8","66579266c8835dc947089859","1043","stimuli/0111111.jpg","2","","prediction_trial","2","","true","","0","false","false","false","false","false","false","[0,2,1]","111","111","1","","","","","","",""
"","","","","","image-keyboard-response","201","322134","0.0-176.0","631a9f635762d2b83a53202b","665500ab8938657b03fbdba8","66579266c8835dc947089859","662","stimuli/01111112.jpg"," ","","feedback_trial","0","","","","","","","","","","","","","","","","","","","","",""
"","","","","","image-keyboard-response","202","323510","0.0-177.0","631a9f635762d2b83a53202b","665500ab8938657b03fbdba8","66579266c8835dc947089859","1376","stimuli/0010111.jpg","1","","prediction_trial","0","","false","","0","false","false","true","true","false","false","[0]","010","111","0","","","","","","",""
"","","","","","image-keyboard-response","203","324070","0.0-178.0","631a9f635762d2b83a53202b","665500ab8938657b03fbdba8","66579266c8835dc947089859","558","stimuli/00101110.jpg"," ","","feedback_trial","0","","","","","","","","","","","","","","","","","","","","",""
"","","","","","image-keyboard-response","204","324784","0.0-179.0","631a9f635762d2b83a53202b","665500ab8938657b03fbdba8","66579266c8835dc947089859","713","stimuli/0111000.jpg","0","","prediction_trial","1","","false","","0","true","true","false","false","false","false","[2,0,1]","111","000","0","","","","","","",""
"","","","","","image-keyboard-response","205","325375","0.0-180.0","631a9f635762d2b83a53202b","665500ab8938657b03fbdba8","66579266c8835dc947089859","588","stimuli/01110001.jpg"," ","","feedback_trial","2","","","","","","","","","","","","","","","","","","","","",""
"","","","","","image-keyboard-response","206","326928","0.0-181.0","631a9f635762d2b83a53202b","665500ab8938657b03fbdba8","66579266c8835dc947089859","1552","stimuli/2101001.jpg","2","","prediction_trial","2","","true","","2","false","true","false","false","false","false","[0,2]","101","001","1","","","","","","",""
"","","","","","image-keyboard-response","207","327442","0.0-182.0","631a9f635762d2b83a53202b","665500ab8938657b03fbdba8","66579266c8835dc947089859","514","stimuli/21010012.jpg"," ","","feedback_trial","0","","","","","","","","","","","","","","","","","","","","",""
"","","","","","image-keyboard-response","208","328327","0.0-183.0","631a9f635762d2b83a53202b","665500ab8938657b03fbdba8","66579266c8835dc947089859","881","stimuli/0010100.jpg","0","","prediction_trial","0","","true","","0","false","true","true","true","false","true","[0]","010","100","1","","","","","","",""
"","","","","","image-keyboard-response","209","328744","0.0-184.0","631a9f635762d2b83a53202b","665500ab8938657b03fbdba8","66579266c8835dc947089859","415","stimuli/00101000.jpg"," ","","feedback_trial","0","","","","","","","","","","","","","","","","","","","","",""
"","","","","","image-keyboard-response","210","330577","0.0-185.0","631a9f635762d2b83a53202b","665500ab8938657b03fbdba8","66579266c8835dc947089859","1832","stimuli/1001111.jpg","1","","prediction_trial","1","","true","","1","false","false","true","true","false","false","[1]","001","111","1","","","","","","",""
"","","","","","image-keyboard-response","211","331078","0.0-186.0","631a9f635762d2b83a53202b","665500ab8938657b03fbdba8","66579266c8835dc947089859","500","stimuli/10011111.jpg"," ","","feedback_trial","1","","","","","","","","","","","","","","","","","","","","",""
"","","","","","image-keyboard-response","212","332565","0.0-187.0","631a9f635762d2b83a53202b","665500ab8938657b03fbdba8","66579266c8835dc947089859","1485","stimuli/0100001.jpg","0","","prediction_trial","0","","true","","0","true","true","false","true","false","true","[0]","100","001","1","","","","","","",""
"","","","","","image-keyboard-response","213","332967","0.0-188.0","631a9f635762d2b83a53202b","665500ab8938657b03fbdba8","66579266c8835dc947089859","401","stimuli/01000010.jpg"," ","","feedback_trial","0","","","","","","","","","","","","","","","","","","","","",""
"","","","","","image-keyboard-response","214","335360","0.0-189.0","631a9f635762d2b83a53202b","665500ab8938657b03fbdba8","66579266c8835dc947089859","2389","stimuli/2100101.jpg","2","","prediction_trial","2","","true","","2","false","false","true","true","false","false","[2]","100","101","1","","","","","","",""
"","","","","","image-keyboard-response","215","335789","0.0-190.0","631a9f635762d2b83a53202b","665500ab8938657b03fbdba8","66579266c8835dc947089859","428","stimuli/21001012.jpg"," ","","feedback_trial","2","","","","","","","","","","","","","","","","","","","","",""
"","","","","","image-keyboard-response","216","339231","0.0-191.0","631a9f635762d2b83a53202b","665500ab8938657b03fbdba8","66579266c8835dc947089859","3440","stimuli/0101010.jpg","2","","prediction_trial","2","","true","","0","true","true","false","false","false","false","[0,2]","101","010","1","","","","","","",""
"","","","","","image-keyboard-response","217","339790","0.0-192.0","631a9f635762d2b83a53202b","665500ab8938657b03fbdba8","66579266c8835dc947089859","558","stimuli/01010102.jpg"," ","","feedback_trial","0","","","","","","","","","","","","","","","","","","","","",""
"","","","","","image-keyboard-response","218","340648","0.0-193.0","631a9f635762d2b83a53202b","665500ab8938657b03fbdba8","66579266c8835dc947089859","855","stimuli/2010000.jpg","2","","prediction_trial","2","","true","","2","true","true","true","true","true","true","[2]","010","000","1","","","","","","",""
"","","","","","image-keyboard-response","219","340932","0.0-194.0","631a9f635762d2b83a53202b","665500ab8938657b03fbdba8","66579266c8835dc947089859","282","stimuli/20100002.jpg"," ","","feedback_trial","2","","","","","","","","","","","","","","","","","","","","",""
"","","","","","image-keyboard-response","220","343059","0.0-195.0","631a9f635762d2b83a53202b","665500ab8938657b03fbdba8","66579266c8835dc947089859","2125","stimuli/0110110.jpg","1","","prediction_trial","0","","false","","0","false","false","false","false","false","false","[0,1]","110","110","0","","","","","","",""
"","","","","","image-keyboard-response","221","343535","0.0-196.0","631a9f635762d2b83a53202b","665500ab8938657b03fbdba8","66579266c8835dc947089859","475","stimuli/01101100.jpg"," ","","feedback_trial","0","","","","","","","","","","","","","","","","","","","","",""
"","","","","","image-keyboard-response","222","344119","0.0-197.0","631a9f635762d2b83a53202b","665500ab8938657b03fbdba8","66579266c8835dc947089859","581","stimuli/1001001.jpg","1","","prediction_trial","1","","true","","1","true","true","true","true","true","true","[1]","001","001","1","","","","","","",""
"","","","","","image-keyboard-response","223","344382","0.0-198.0","631a9f635762d2b83a53202b","665500ab8938657b03fbdba8","66579266c8835dc947089859","262","stimuli/10010011.jpg"," ","","feedback_trial","1","","","","","","","","","","","","","","","","","","","","",""
"","","","","","image-keyboard-response","224","346748","0.0-199.0","631a9f635762d2b83a53202b","665500ab8938657b03fbdba8","66579266c8835dc947089859","2364","stimuli/2011101.jpg","2","","prediction_trial","2","","true","","2","false","false","false","false","false","false","[2,1]","011","101","1","","","","","","",""
"","","","","","image-keyboard-response","225","347243","0.0-200.0","631a9f635762d2b83a53202b","665500ab8938657b03fbdba8","66579266c8835dc947089859","494","stimuli/20111012.jpg"," ","","feedback_trial","2","","","","","","","","","","","","","","","","","","","","",""
"","","","","","image-keyboard-response","226","350000","0.0-201.0","631a9f635762d2b83a53202b","665500ab8938657b03fbdba8","66579266c8835dc947089859","2754","stimuli/2011011.jpg","1","","prediction_trial","2","","false","","2","false","false","false","false","false","false","[1,2]","011","011","0","","","","","","",""
"","","","","","image-keyboard-response","227","350657","0.0-202.0","631a9f635762d2b83a53202b","665500ab8938657b03fbdba8","66579266c8835dc947089859","655","stimuli/20110112.jpg"," ","","feedback_trial","1","","","","","","","","","","","","","","","","","","","","",""
"","","","","","image-keyboard-response","228","351373","0.0-203.0","631a9f635762d2b83a53202b","665500ab8938657b03fbdba8","66579266c8835dc947089859","715","stimuli/0000111.jpg","1","","prediction_trial","0","","false","","0","false","false","true","true","false","false","[0]","000","111","0","","","","","","",""
"","","","","","image-keyboard-response","229","351939","0.0-204.0","631a9f635762d2b83a53202b","665500ab8938657b03fbdba8","66579266c8835dc947089859","566","stimuli/00001110.jpg"," ","","feedback_trial","0","","","","","","","","","","","","","","","","","","","","",""
"","","","","","image-keyboard-response","230","352519","0.0-205.0","631a9f635762d2b83a53202b","665500ab8938657b03fbdba8","66579266c8835dc947089859","578","stimuli/1100001.jpg","1","","prediction_trial","1","","true","","1","true","true","true","true","true","true","[1]","100","001","1","","","","","","",""
"","","","","","image-keyboard-response","231","352771","0.0-206.0","631a9f635762d2b83a53202b","665500ab8938657b03fbdba8","66579266c8835dc947089859","250","stimuli/11000011.jpg"," ","","feedback_trial","1","","","","","","","","","","","","","","","","","","","","",""
"","","","","","image-keyboard-response","232","353378","0.0-207.0","631a9f635762d2b83a53202b","665500ab8938657b03fbdba8","66579266c8835dc947089859","606","stimuli/2100010.jpg","2","","prediction_trial","2","","true","","2","true","true","true","true","true","true","[2]","100","010","1","","","","","","",""
"","","","","","image-keyboard-response","233","353662","0.0-208.0","631a9f635762d2b83a53202b","665500ab8938657b03fbdba8","66579266c8835dc947089859","284","stimuli/21000102.jpg"," ","","feedback_trial","2","","","","","","","","","","","","","","","","","","","","",""
"","","","","","image-keyboard-response","234","354827","0.0-209.0","631a9f635762d2b83a53202b","665500ab8938657b03fbdba8","66579266c8835dc947089859","1164","stimuli/0100000.jpg","0","","prediction_trial","0","","true","","0","true","true","false","true","false","true","[0]","100","000","1","","","","","","",""
"","","","","","image-keyboard-response","235","355133","0.0-210.0","631a9f635762d2b83a53202b","665500ab8938657b03fbdba8","66579266c8835dc947089859","303","stimuli/01000000.jpg"," ","","feedback_trial","0","","","","","","","","","","","","","","","","","","","","",""
"","","","","","image-keyboard-response","236","357721","0.0-211.0","631a9f635762d2b83a53202b","665500ab8938657b03fbdba8","66579266c8835dc947089859","2587","stimuli/2010001.jpg","2","","prediction_trial","2","","true","","2","false","true","true","true","false","true","[2]","010","001","1","","","","","","",""
"","","","","","image-keyboard-response","237","358104","0.0-212.0","631a9f635762d2b83a53202b","665500ab8938657b03fbdba8","66579266c8835dc947089859","382","stimuli/20100012.jpg"," ","","feedback_trial","2","","","","","","","","","","","","","","","","","","","","",""
"","","","","","image-keyboard-response","238","359353","0.0-213.0","631a9f635762d2b83a53202b","665500ab8938657b03fbdba8","66579266c8835dc947089859","1249","stimuli/2110101.jpg","2","","prediction_trial","2","","true","","2","false","false","true","true","false","false","[2]","110","101","1","","","","","","",""
"","","","","","image-keyboard-response","239","359840","0.0-214.0","631a9f635762d2b83a53202b","665500ab8938657b03fbdba8","66579266c8835dc947089859","485","stimuli/21101012.jpg"," ","","feedback_trial","2","","","","","","","","","","","","","","","","","","","","",""
"","","","","","image-keyboard-response","240","360567","0.0-215.0","631a9f635762d2b83a53202b","665500ab8938657b03fbdba8","66579266c8835dc947089859","725","stimuli/2110111.jpg","2","","prediction_trial","2","","true","","2","false","false","true","true","false","false","[2]","110","111","1","","","","","","",""
"","","","","","image-keyboard-response","241","361070","0.0-216.0","631a9f635762d2b83a53202b","665500ab8938657b03fbdba8","66579266c8835dc947089859","502","stimuli/21101112.jpg"," ","","feedback_trial","2","","","","","","","","","","","","","","","","","","","","",""
"","","","","","image-keyboard-response","242","362010","0.0-217.0","631a9f635762d2b83a53202b","665500ab8938657b03fbdba8","66579266c8835dc947089859","938","stimuli/0000101.jpg","2","","prediction_trial","0","","false","","0","false","false","true","true","false","false","[0]","000","101","0","","","","","","",""
"","","","","","image-keyboard-response","243","362595","0.0-218.0","631a9f635762d2b83a53202b","665500ab8938657b03fbdba8","66579266c8835dc947089859","582","stimuli/00001010.jpg"," ","","feedback_trial","0","","","","","","","","","","","","","","","","","","","","",""
"","","","","","image-keyboard-response","244","363526","0.0-219.0","631a9f635762d2b83a53202b","665500ab8938657b03fbdba8","66579266c8835dc947089859","930","stimuli/2111011.jpg","1","","prediction_trial","1","","true","","2","false","false","false","false","false","false","[0,2,1]","111","011","1","","","","","","",""
"","","","","","image-keyboard-response","245","364035","0.0-220.0","631a9f635762d2b83a53202b","665500ab8938657b03fbdba8","66579266c8835dc947089859","508","stimuli/21110111.jpg"," ","","feedback_trial","0","","","","","","","","","","","","","","","","","","","","",""
"","","","","","image-keyboard-response","246","366400","0.0-221.0","631a9f635762d2b83a53202b","665500ab8938657b03fbdba8","66579266c8835dc947089859","2364","stimuli/1011010.jpg","2","","prediction_trial","2","","true","","1","false","true","false","false","false","false","[2,1]","011","010","1","","","","","","",""
"","","","","","image-keyboard-response","247","366928","0.0-222.0","631a9f635762d2b83a53202b","665500ab8938657b03fbdba8","66579266c8835dc947089859","527","stimuli/10110102.jpg"," ","","feedback_trial","2","","","","","","","","","","","","","","","","","","","","",""
"","","","","","image-keyboard-response","248","367576","0.0-223.0","631a9f635762d2b83a53202b","665500ab8938657b03fbdba8","66579266c8835dc947089859","646","stimuli/2110000.jpg","2","","prediction_trial","2","","true","","2","true","true","true","true","true","true","[2]","110","000","1","","","","","","",""
"","","","","","image-keyboard-response","249","368066","0.0-224.0","631a9f635762d2b83a53202b","665500ab8938657b03fbdba8","66579266c8835dc947089859","489","stimuli/21100002.jpg"," ","","feedback_trial","2","","","","","","","","","","","","","","","","","","","","",""
"","","","","","image-keyboard-response","250","368797","0.0-225.0","631a9f635762d2b83a53202b","665500ab8938657b03fbdba8","66579266c8835dc947089859","729","stimuli/2110110.jpg","2","","prediction_trial","2","","true","","2","true","true","true","true","true","true","[2]","110","110","1","","","","","","",""
"","","","","","image-keyboard-response","251","369138","0.0-226.0","631a9f635762d2b83a53202b","665500ab8938657b03fbdba8","66579266c8835dc947089859","340","stimuli/21101102.jpg"," ","","feedback_trial","2","","","","","","","","","","","","","","","","","","","","",""
"","","","","","image-keyboard-response","252","370259","0.0-227.0","631a9f635762d2b83a53202b","665500ab8938657b03fbdba8","66579266c8835dc947089859","1120","stimuli/2001011.jpg","1","","prediction_trial","2","","false","","2","false","false","false","true","false","false","[2]","001","011","0","","","","","","",""
"","","","","","image-keyboard-response","253","370746","0.0-228.0","631a9f635762d2b83a53202b","665500ab8938657b03fbdba8","66579266c8835dc947089859","486","stimuli/20010112.jpg"," ","","feedback_trial","2","","","","","","","","","","","","","","","","","","","","",""
"","","","","","image-keyboard-response","254","372339","0.0-229.0","631a9f635762d2b83a53202b","665500ab8938657b03fbdba8","66579266c8835dc947089859","1592","stimuli/0010101.jpg","2","","prediction_trial","0","","false","","0","false","false","true","true","false","false","[0]","010","101","0","","","","","","",""
"","","","","","image-keyboard-response","255","372914","0.0-230.0","631a9f635762d2b83a53202b","665500ab8938657b03fbdba8","66579266c8835dc947089859","573","stimuli/00101010.jpg"," ","","feedback_trial","0","","","","","","","","","","","","","","","","","","","","",""
"","","","","","image-keyboard-response","256","373494","0.0-231.0","631a9f635762d2b83a53202b","665500ab8938657b03fbdba8","66579266c8835dc947089859","580","stimuli/1100100.jpg","1","","prediction_trial","1","","true","","1","true","true","true","true","true","true","[1]","100","100","1","","","","","","",""
"","","","","","image-keyboard-response","257","373742","0.0-232.0","631a9f635762d2b83a53202b","665500ab8938657b03fbdba8","66579266c8835dc947089859","247","stimuli/11001001.jpg"," ","","feedback_trial","1","","","","","","","","","","","","","","","","","","","","",""
"","","","","","image-keyboard-response","258","375629","0.0-233.0","631a9f635762d2b83a53202b","665500ab8938657b03fbdba8","66579266c8835dc947089859","1886","stimuli/1111101.jpg","1","","prediction_trial","1","","true","","1","true","true","false","false","false","false","[1,2,0]","111","101","1","","","","","","",""
"","","","","","image-keyboard-response","259","377607","0.0-234.0","631a9f635762d2b83a53202b","665500ab8938657b03fbdba8","66579266c8835dc947089859","1977","stimuli/11111011.jpg"," ","","feedback_trial","1","","","","","","","","","","","","","","","","","","","","",""
"","","","","","image-keyboard-response","260","378294","0.0-235.0","631a9f635762d2b83a53202b","665500ab8938657b03fbdba8","66579266c8835dc947089859","685","stimuli/1000001.jpg","1","","prediction_trial","1","","true","","1","true","true","true","true","true","true","[1]","000","001","1","","","","","","",""
"","","","","","image-keyboard-response","261","378634","0.0-236.0","631a9f635762d2b83a53202b","665500ab8938657b03fbdba8","66579266c8835dc947089859","339","stimuli/10000011.jpg"," ","","feedback_trial","1","","","","","","","","","","","","","","","","","","","","",""
"","","","","","image-keyboard-response","262","379782","0.0-237.0","631a9f635762d2b83a53202b","665500ab8938657b03fbdba8","66579266c8835dc947089859","1144","stimuli/2001101.jpg","2","","prediction_trial","2","","true","","2","false","false","false","true","false","false","[2]","001","101","1","","","","","","",""
"","","","","","image-keyboard-response","263","380245","0.0-238.0","631a9f635762d2b83a53202b","665500ab8938657b03fbdba8","66579266c8835dc947089859","460","stimuli/20011012.jpg"," ","","feedback_trial","2","","","","","","","","","","","","","","","","","","","","",""
"","","","","","image-keyboard-response","264","381115","0.0-239.0","631a9f635762d2b83a53202b","665500ab8938657b03fbdba8","66579266c8835dc947089859","869","stimuli/2100001.jpg","2","","prediction_trial","2","","true","","2","false","true","true","true","false","true","[2]","100","001","1","","","","","","",""
"","","","","","image-keyboard-response","265","381882","0.0-240.0","631a9f635762d2b83a53202b","665500ab8938657b03fbdba8","66579266c8835dc947089859","766","stimuli/21000012.jpg"," ","","feedback_trial","2","","","","","","","","","","","","","","","","","","","","",""
"","","","","","image-keyboard-response","266","385025","0.0-241.0","631a9f635762d2b83a53202b","665500ab8938657b03fbdba8","66579266c8835dc947089859","3143","stimuli/0010000.jpg","0","","prediction_trial","0","","true","","0","true","true","true","true","true","true","[0]","010","000","1","","","","","","",""
"","","","","","image-keyboard-response","267","386811","0.0-242.0","631a9f635762d2b83a53202b","665500ab8938657b03fbdba8","66579266c8835dc947089859","1783","stimuli/00100000.jpg"," ","","feedback_trial","0","","","","","","","","","","","","","","","","","","","","",""
"","","","","","image-keyboard-response","268","389148","0.0-243.0","631a9f635762d2b83a53202b","665500ab8938657b03fbdba8","66579266c8835dc947089859","2335","stimuli/0011010.jpg","0","","prediction_trial","0","","true","","0","true","true","true","true","true","true","[0]","011","010","1","","","","","","",""
"","","","","","image-keyboard-response","269","389663","0.0-244.0","631a9f635762d2b83a53202b","665500ab8938657b03fbdba8","66579266c8835dc947089859","514","stimuli/00110100.jpg"," ","","feedback_trial","0","","","","","","","","","","","","","","","","","","","","",""
"","","","","","image-keyboard-response","270","392470","0.0-245.0","631a9f635762d2b83a53202b","665500ab8938657b03fbdba8","66579266c8835dc947089859","2807","stimuli/1001011.jpg","1","","prediction_trial","1","","true","","1","false","false","true","true","false","false","[1]","001","011","1","","","","","","",""
"","","","","","image-keyboard-response","271","393137","0.0-246.0","631a9f635762d2b83a53202b","665500ab8938657b03fbdba8","66579266c8835dc947089859","665","stimuli/10010111.jpg"," ","","feedback_trial","1","","","","","","","","","","","","","","","","","","","","",""
"","","","","","image-keyboard-response","272","394327","0.0-247.0","631a9f635762d2b83a53202b","665500ab8938657b03fbdba8","66579266c8835dc947089859","1190","stimuli/1111001.jpg","1","","prediction_trial","2","","false","","1","true","true","false","false","false","false","[0,2,1]","111","001","0","","","","","","",""
"","","","","","image-keyboard-response","273","394850","0.0-248.0","631a9f635762d2b83a53202b","665500ab8938657b03fbdba8","66579266c8835dc947089859","522","stimuli/11110012.jpg"," ","","feedback_trial","0","","","","","","","","","","","","","","","","","","","","",""
"","","","","","image-keyboard-response","274","395789","0.0-249.0","631a9f635762d2b83a53202b","665500ab8938657b03fbdba8","66579266c8835dc947089859","936","stimuli/1011011.jpg","1","","prediction_trial","2","","false","","1","false","false","false","false","false","false","[2,1]","011","011","0","","","","","","",""
"","","","","","image-keyboard-response","275","396404","0.0-250.0","631a9f635762d2b83a53202b","665500ab8938657b03fbdba8","66579266c8835dc947089859","613","stimuli/10110112.jpg"," ","","feedback_trial","2","","","","","","","","","","","","","","","","","","","","",""
"","","","","","image-keyboard-response","276","397382","0.0-251.0","631a9f635762d2b83a53202b","665500ab8938657b03fbdba8","66579266c8835dc947089859","977","stimuli/2001010.jpg","2","","prediction_trial","2","","true","","2","true","true","false","true","false","true","[2]","001","010","1","","","","","","",""
"","","","","","image-keyboard-response","277","397807","0.0-252.0","631a9f635762d2b83a53202b","665500ab8938657b03fbdba8","66579266c8835dc947089859","424","stimuli/20010102.jpg"," ","","feedback_trial","2","","","","","","","","","","","","","","","","","","","","",""
"","","","","","image-keyboard-response","278","398897","0.0-253.0","631a9f635762d2b83a53202b","665500ab8938657b03fbdba8","66579266c8835dc947089859","1089","stimuli/2000000.jpg","2","","prediction_trial","2","","true","","2","true","true","true","true","true","true","[2]","000","000","1","","","","","","",""
"","","","","","image-keyboard-response","279","399398","0.0-254.0","631a9f635762d2b83a53202b","665500ab8938657b03fbdba8","66579266c8835dc947089859","499","stimuli/20000002.jpg"," ","","feedback_trial","2","","","","","","","","","","","","","","","","","","","","",""
"","","","","","image-keyboard-response","280","400934","0.0-255.0","631a9f635762d2b83a53202b","665500ab8938657b03fbdba8","66579266c8835dc947089859","1534","stimuli/0110101.jpg","2","","prediction_trial","1","","false","","0","false","false","false","false","false","false","[0,1]","110","101","0","","","","","","",""
"","","","","","image-keyboard-response","281","401383","0.0-256.0","631a9f635762d2b83a53202b","665500ab8938657b03fbdba8","66579266c8835dc947089859","448","stimuli/01101011.jpg"," ","","feedback_trial","0","","","","","","","","","","","","","","","","","","","","",""
"","","","","","image-keyboard-response","282","402765","0.0-257.0","631a9f635762d2b83a53202b","665500ab8938657b03fbdba8","66579266c8835dc947089859","1380","stimuli/0001110.jpg","1","","prediction_trial","0","","false","","0","false","false","true","true","false","false","[0]","001","110","0","","","","","","",""
"","","","","","image-keyboard-response","283","403845","0.0-258.0","631a9f635762d2b83a53202b","665500ab8938657b03fbdba8","66579266c8835dc947089859","1079","stimuli/00011100.jpg"," ","","feedback_trial","0","","","","","","","","","","","","","","","","","","","","",""
"","","","","","image-keyboard-response","284","404678","0.0-259.0","631a9f635762d2b83a53202b","665500ab8938657b03fbdba8","66579266c8835dc947089859","832","stimuli/2000001.jpg","2","","prediction_trial","2","","true","","2","false","true","true","true","false","true","[2]","000","001","1","","","","","","",""
"","","","","","image-keyboard-response","285","405040","0.0-260.0","631a9f635762d2b83a53202b","665500ab8938657b03fbdba8","66579266c8835dc947089859","360","stimuli/20000012.jpg"," ","","feedback_trial","2","","","","","","","","","","","","","","","","","","","","",""
"","","","","","image-keyboard-response","286","406045","0.0-261.0","631a9f635762d2b83a53202b","665500ab8938657b03fbdba8","66579266c8835dc947089859","1003","stimuli/1010111.jpg","2","","prediction_trial","1","","false","","1","false","false","false","true","false","false","[1]","010","111","0","","","","","","",""
"","","","","","image-keyboard-response","287","406490","0.0-262.0","631a9f635762d2b83a53202b","665500ab8938657b03fbdba8","66579266c8835dc947089859","444","stimuli/10101111.jpg"," ","","feedback_trial","1","","","","","","","","","","","","","","","","","","","","",""
"","","","","","image-keyboard-response","288","407068","0.0-263.0","631a9f635762d2b83a53202b","665500ab8938657b03fbdba8","66579266c8835dc947089859","577","stimuli/2000110.jpg","2","","prediction_trial","2","","true","","2","true","true","true","true","true","true","[2]","000","110","1","","","","","","",""
"","","","","","image-keyboard-response","289","407390","0.0-264.0","631a9f635762d2b83a53202b","665500ab8938657b03fbdba8","66579266c8835dc947089859","318","stimuli/20001102.jpg"," ","","feedback_trial","2","","","","","","","","","","","","","","","","","","","","",""
"","","","","","image-keyboard-response","290","408640","0.0-265.0","631a9f635762d2b83a53202b","665500ab8938657b03fbdba8","66579266c8835dc947089859","1248","stimuli/1010101.jpg","1","","prediction_trial","1","","true","","1","true","true","false","true","false","true","[1]","010","101","1","","","","","","",""
"","","","","","image-keyboard-response","291","409016","0.0-266.0","631a9f635762d2b83a53202b","665500ab8938657b03fbdba8","66579266c8835dc947089859","376","stimuli/10101011.jpg"," ","","feedback_trial","1","","","","","","","","","","","","","","","","","","","","",""
"","","","","","image-keyboard-response","292","410775","0.0-267.0","631a9f635762d2b83a53202b","665500ab8938657b03fbdba8","66579266c8835dc947089859","1755","stimuli/2011001.jpg","2","","prediction_trial","2","","true","","2","false","true","false","false","false","false","[2,1]","011","001","1","","","","","","",""
"","","","","","image-keyboard-response","293","411074","0.0-268.0","631a9f635762d2b83a53202b","665500ab8938657b03fbdba8","66579266c8835dc947089859","298","stimuli/20110012.jpg"," ","","feedback_trial","2","","","","","","","","","","","","","","","","","","","","",""
"","","","","","image-keyboard-response","294","412645","0.0-269.0","631a9f635762d2b83a53202b","665500ab8938657b03fbdba8","66579266c8835dc947089859","1568","stimuli/0100111.jpg","0","","prediction_trial","0","","true","","0","false","false","false","true","false","false","[0]","100","111","1","","","","","","",""
"","","","","","image-keyboard-response","295","413205","0.0-270.0","631a9f635762d2b83a53202b","665500ab8938657b03fbdba8","66579266c8835dc947089859","560","stimuli/01001110.jpg"," ","","feedback_trial","0","","","","","","","","","","","","","","","","","","","","",""
"","","","","","image-keyboard-response","296","413850","0.0-271.0","631a9f635762d2b83a53202b","665500ab8938657b03fbdba8","66579266c8835dc947089859","644","stimuli/2100100.jpg","2","","prediction_trial","2","","true","","2","true","true","true","true","true","true","[2]","100","100","1","","","","","","",""
"","","","","","image-keyboard-response","297","414150","0.0-272.0","631a9f635762d2b83a53202b","665500ab8938657b03fbdba8","66579266c8835dc947089859","298","stimuli/21001002.jpg"," ","","feedback_trial","2","","","","","","","","","","","","","","","","","","","","",""
"","","","","","image-keyboard-response","298","415601","0.0-273.0","631a9f635762d2b83a53202b","665500ab8938657b03fbdba8","66579266c8835dc947089859","1449","stimuli/1111000.jpg","1","","prediction_trial","2","","false","","1","true","true","false","false","false","false","[1,2,0]","111","000","0","","","","","","",""
"","","","","","image-keyboard-response","299","416067","0.0-274.0","631a9f635762d2b83a53202b","665500ab8938657b03fbdba8","66579266c8835dc947089859","465","stimuli/11110002.jpg"," ","","feedback_trial","1","","","","","","","","","","","","","","","","","","","","",""
"","","","","","image-keyboard-response","300","417030","0.0-275.0","631a9f635762d2b83a53202b","665500ab8938657b03fbdba8","66579266c8835dc947089859","960","stimuli/0101101.jpg","2","","prediction_trial","2","","true","","0","false","false","false","false","false","false","[2,0]","101","101","1","","","","","","",""
"","","","","","image-keyboard-response","301","417484","0.0-276.0","631a9f635762d2b83a53202b","665500ab8938657b03fbdba8","66579266c8835dc947089859","453","stimuli/01011012.jpg"," ","","feedback_trial","2","","","","","","","","","","","","","","","","","","","","",""
"","","","","","image-keyboard-response","302","419608","0.0-277.0","631a9f635762d2b83a53202b","665500ab8938657b03fbdba8","66579266c8835dc947089859","2124","stimuli/0101001.jpg","0","","prediction_trial","0","","true","","0","true","true","false","false","false","false","[0,2]","101","001","1","","","","","","",""
"","","","","","image-keyboard-response","303","420057","0.0-278.0","631a9f635762d2b83a53202b","665500ab8938657b03fbdba8","66579266c8835dc947089859","448","stimuli/01010010.jpg"," ","","feedback_trial","0","","","","","","","","","","","","","","","","","","","","",""
"","","","","","image-keyboard-response","304","420921","0.0-279.0","631a9f635762d2b83a53202b","665500ab8938657b03fbdba8","66579266c8835dc947089859","860","stimuli/1011000.jpg","1","","prediction_trial","2","","false","","1","true","true","false","false","false","false","[1,2]","011","000","0","","","","","","",""
"","","","","","image-keyboard-response","305","421347","0.0-280.0","631a9f635762d2b83a53202b","665500ab8938657b03fbdba8","66579266c8835dc947089859","425","stimuli/10110002.jpg"," ","","feedback_trial","1","","","","","","","","","","","","","","","","","","","","",""
"","","","","","image-keyboard-response","306","421993","0.0-281.0","631a9f635762d2b83a53202b","665500ab8938657b03fbdba8","66579266c8835dc947089859","645","stimuli/0000001.jpg","0","","prediction_trial","0","","true","","0","true","true","true","true","true","true","[0]","000","001","1","","","","","","",""
"","","","","","image-keyboard-response","307","422363","0.0-282.0","631a9f635762d2b83a53202b","665500ab8938657b03fbdba8","66579266c8835dc947089859","369","stimuli/00000010.jpg"," ","","feedback_trial","0","","","","","","","","","","","","","","","","","","","","",""
"","","","","","image-keyboard-response","308","423081","0.0-283.0","631a9f635762d2b83a53202b","665500ab8938657b03fbdba8","66579266c8835dc947089859","717","stimuli/1100000.jpg","1","","prediction_trial","1","","true","","1","true","true","true","true","true","true","[1]","100","000","1","","","","","","",""
"","","","","","image-keyboard-response","309","423766","0.0-284.0","631a9f635762d2b83a53202b","665500ab8938657b03fbdba8","66579266c8835dc947089859","683","stimuli/11000001.jpg"," ","","feedback_trial","1","","","","","","","","","","","","","","","","","","","","",""
"","","","","","image-keyboard-response","310","424690","0.0-285.0","631a9f635762d2b83a53202b","665500ab8938657b03fbdba8","66579266c8835dc947089859","922","stimuli/0010011.jpg","0","","prediction_trial","0","","true","","0","true","true","true","true","true","true","[0]","010","011","1","","","","","","",""
"","","","","","image-keyboard-response","311","425234","0.0-286.0","631a9f635762d2b83a53202b","665500ab8938657b03fbdba8","66579266c8835dc947089859","542","stimuli/00100110.jpg"," ","","feedback_trial","0","","","","","","","","","","","","","","","","","","","","",""
"","","","","","image-keyboard-response","312","426468","0.0-287.0","631a9f635762d2b83a53202b","665500ab8938657b03fbdba8","66579266c8835dc947089859","1232","stimuli/1100011.jpg","2","","prediction_trial","1","","false","","1","false","false","true","true","false","false","[1]","100","011","0","","","","","","",""
"","","","","","image-keyboard-response","313","427438","0.0-288.0","631a9f635762d2b83a53202b","665500ab8938657b03fbdba8","66579266c8835dc947089859","967","stimuli/11000111.jpg"," ","","feedback_trial","1","","","","","","","","","","","","","","","","","","","","",""
"","","","","","image-keyboard-response","314","429254","0.0-289.0","631a9f635762d2b83a53202b","665500ab8938657b03fbdba8","66579266c8835dc947089859","1815","stimuli/1011100.jpg","2","","prediction_trial","1","","false","","1","true","true","false","false","false","false","[1,2]","011","100","0","","","","","","",""
"","","","","","image-keyboard-response","315","429775","0.0-290.0","631a9f635762d2b83a53202b","665500ab8938657b03fbdba8","66579266c8835dc947089859","520","stimuli/10111001.jpg"," ","","feedback_trial","1","","","","","","","","","","","","","","","","","","","","",""
"","","","","","image-keyboard-response","316","430712","0.0-291.0","631a9f635762d2b83a53202b","665500ab8938657b03fbdba8","66579266c8835dc947089859","935","stimuli/1101110.jpg","2","","prediction_trial","1","","false","","1","false","false","true","true","false","false","[1]","101","110","0","","","","","","",""
"","","","","","image-keyboard-response","317","431484","0.0-292.0","631a9f635762d2b83a53202b","665500ab8938657b03fbdba8","66579266c8835dc947089859","771","stimuli/11011101.jpg"," ","","feedback_trial","1","","","","","","","","","","","","","","","","","","","","",""
"","","","","","survey-html-form","318","471326","0.0-293.0","631a9f635762d2b83a53202b","665500ab8938657b03fbdba8","66579266c8835dc947089859","39838","","{""feedback"":""If I couldn't see the ball, then I tended to go with the middle or to the right because those options tended to be pick more likely than the left option."",""age"":""32"",""gender"":""Male"",""other_gender"":"""",""race"":""White"",""other_race"":"""",""ethnicity"":""Non-Hispanic""}","","exit_survey","","","","","","","","","","","","","","","","If I couldn't see the ball, then I tended to go with the middle or to the right because those options tended to be pick more likely than the left option.","32","Non-Hispanic","Male","White","0.6527777777777778","0.6527777777777778"
