"success","timeout","failed_images","failed_audio","failed_video","trial_type","trial_index","time_elapsed","internal_node_id","prolific_id","prolific_study_id","prolific_session_id","rt","stimulus","response","view_history","trial","character_choice","stimulus_dict","accuracy","correct_response","ball_pos","ego_ball_visible","ego_can_infer","alter_ball_visible","alter_can_infer","collective_ball_visible","collective_can_infer","search_locations","alter_occluders","ego_occluders","accuracy_bool","feedback","age","ethnicity","gender","race","overall_accuracy","bonus"
"true","false","[]","[]","[]","preload","0","6201","0.0-0.0","641397a5ea8f5954ad10fceb","665500ab8938657b03fbdba8","665796285d33de58ac3f00ca","","","","","","","","","","","","","","","","","","","","","","","","","","",""
"true","","","","","fullscreen","1","13701","0.0-1.0","641397a5ea8f5954ad10fceb","665500ab8938657b03fbdba8","665796285d33de58ac3f00ca","","","","","","","","","","","","","","","","","","","","","","","","","","",""
"","","","","","html-button-response","2","117925","0.0-2.0","641397a5ea8f5954ad10fceb","665500ab8938657b03fbdba8","665796285d33de58ac3f00ca","104214","<p><b>Consent Form</b></p> <div style=""text-align:left;background-color:lightgrey; padding:20px; max-width:900px;""><p>Please consider this information carefully before deciding whether to participate in this research.</p> <p>The purpose of this research is to examine which factors influence social judgment and decision-making. You will be asked to make judgements about individuals and actions in social scenarios. We are simply interested in your judgement. The study will take less than 1 hour to complete, and you will receive less than $20 on Prolific. Your compensation and time commitment are specified in the study description. There are no anticipated risks associated with participating in this study. The effects of participating should be comparable to those you would ordinarily experience from viewing a computer monitor and using a mouse or keyboard for a similar amount of time. At the end of the study, we will provide an explanation of the questions that motivate this line of research and will describe the potential implications. </p><p> Your participation in this study is completely voluntary and you may refuse to participate or you may choose to withdraw at any time without penalty or loss of benefits to you which are otherwise entitled. Your participation in this study will remain confidential. No personally identifiable information will be associated with your data. Also, all analyses of the data will be averaged across all the participants, so your individual responses will never be specifically analyzed. </p><p> If you have questions or concerns about your participation or payment, or want to request a summary of research findings, please contact Dr. Jonathan Phillips at Jonathan.S.Phillips@dartmouth.edu. </p><p> Please save a copy of this form for your records. </p><p><b>Agreement: </b>The nature and purpose of this research have been sufficiently explained and I agree to participate in this study. I understand that I am free to withdraw at any time without incurring any penalty. Please consent by clicking the button below to continue. Otherwise, please exit the study at any time. </p>","0","","","","","","","","","","","","","","","","","","","","","","","",""
"","","","","","instructions","3","224703","0.0-3.0-0.0","641397a5ea8f5954ad10fceb","665500ab8938657b03fbdba8","665796285d33de58ac3f00ca","106775","","","[{""page_index"":0,""viewing_time"":1868},{""page_index"":1,""viewing_time"":2726},{""page_index"":2,""viewing_time"":4131},{""page_index"":3,""viewing_time"":8005},{""page_index"":4,""viewing_time"":7896},{""page_index"":5,""viewing_time"":4776},{""page_index"":6,""viewing_time"":4232},{""page_index"":7,""viewing_time"":6164},{""page_index"":8,""viewing_time"":6520},{""page_index"":9,""viewing_time"":3301},{""page_index"":10,""viewing_time"":31716},{""page_index"":11,""viewing_time"":16682},{""page_index"":12,""viewing_time"":7089},{""page_index"":13,""viewing_time"":1663}]","intro","","","","","","","","","","","","","","","","","","","","","",""
"","","","","","image-keyboard-response","4","227123","0.0-3.0-1.0","641397a5ea8f5954ad10fceb","665500ab8938657b03fbdba8","665796285d33de58ac3f00ca","2404","stimuli/2100100.jpg","2","","prediction_practice","2","{""filepath"":""stimuli/2100100.jpg"",""ball_pos"":2,""ego_ball_visible"":true,""ego_can_infer"":true,""alter_ball_visible"":true,""alter_can_infer"":true,""collective_ball_visible"":true,""collective_can_infer"":true,""search_locations"":[2],""alter_occluders"":""100"",""ego_occluders"":""100""}","true","","","","","","","","","","","","","","","","","","",""
"","","","","","image-keyboard-response","5","229669","0.0-3.0-2.0","641397a5ea8f5954ad10fceb","665500ab8938657b03fbdba8","665796285d33de58ac3f00ca","2534","stimuli/21001002.jpg"," ","","practrice_feedback","2","","","","","","","","","","","","","","","","","","","","",""
"","","","","","image-keyboard-response","6","231069","0.0-3.0-3.0","641397a5ea8f5954ad10fceb","665500ab8938657b03fbdba8","665796285d33de58ac3f00ca","1394","stimuli/0011010.jpg","0","","prediction_practice","0","{""filepath"":""stimuli/0011010.jpg"",""ball_pos"":0,""ego_ball_visible"":true,""ego_can_infer"":true,""alter_ball_visible"":true,""alter_can_infer"":true,""collective_ball_visible"":true,""collective_can_infer"":true,""search_locations"":[0],""alter_occluders"":""011"",""ego_occluders"":""010""}","true","","","","","","","","","","","","","","","","","","",""
"","","","","","image-keyboard-response","7","232433","0.0-3.0-4.0","641397a5ea8f5954ad10fceb","665500ab8938657b03fbdba8","665796285d33de58ac3f00ca","1358","stimuli/00110100.jpg"," ","","practrice_feedback","0","","","","","","","","","","","","","","","","","","","","",""
"","","","","","image-keyboard-response","8","233640","0.0-3.0-5.0","641397a5ea8f5954ad10fceb","665500ab8938657b03fbdba8","665796285d33de58ac3f00ca","1200","stimuli/1100000.jpg","1","","prediction_practice","1","{""filepath"":""stimuli/1100000.jpg"",""ball_pos"":1,""ego_ball_visible"":true,""ego_can_infer"":true,""alter_ball_visible"":true,""alter_can_infer"":true,""collective_ball_visible"":true,""collective_can_infer"":true,""search_locations"":[1],""alter_occluders"":""100"",""ego_occluders"":""000""}","true","","","","","","","","","","","","","","","","","","",""
"","","","","","image-keyboard-response","9","234824","0.0-3.0-6.0","641397a5ea8f5954ad10fceb","665500ab8938657b03fbdba8","665796285d33de58ac3f00ca","1177","stimuli/11000001.jpg"," ","","practrice_feedback","1","","","","","","","","","","","","","","","","","","","","",""
"","","","","","image-keyboard-response","10","237510","0.0-3.0-7.0","641397a5ea8f5954ad10fceb","665500ab8938657b03fbdba8","665796285d33de58ac3f00ca","2679","stimuli/1010001.jpg","1","","prediction_practice","1","{""filepath"":""stimuli/1010001.jpg"",""ball_pos"":1,""ego_ball_visible"":true,""ego_can_infer"":true,""alter_ball_visible"":false,""alter_can_infer"":true,""collective_ball_visible"":false,""collective_can_infer"":true,""search_locations"":[1],""alter_occluders"":""010"",""ego_occluders"":""001""}","true","","","","","","","","","","","","","","","","","","",""
"","","","","","image-keyboard-response","11","238430","0.0-3.0-8.0","641397a5ea8f5954ad10fceb","665500ab8938657b03fbdba8","665796285d33de58ac3f00ca","914","stimuli/10100011.jpg"," ","","practrice_feedback","1","","","","","","","","","","","","","","","","","","","","",""
"","","","","","image-keyboard-response","12","239952","0.0-3.0-9.0","641397a5ea8f5954ad10fceb","665500ab8938657b03fbdba8","665796285d33de58ac3f00ca","1515","stimuli/1101100.jpg","1","","prediction_practice","1","{""filepath"":""stimuli/1101100.jpg"",""ball_pos"":1,""ego_ball_visible"":true,""ego_can_infer"":true,""alter_ball_visible"":true,""alter_can_infer"":true,""collective_ball_visible"":true,""collective_can_infer"":true,""search_locations"":[1],""alter_occluders"":""101"",""ego_occluders"":""100""}","true","","","","","","","","","","","","","","","","","","",""
"","","","","","image-keyboard-response","13","241031","0.0-3.0-10.0","641397a5ea8f5954ad10fceb","665500ab8938657b03fbdba8","665796285d33de58ac3f00ca","1072","stimuli/11011001.jpg"," ","","practrice_feedback","1","","","","","","","","","","","","","","","","","","","","",""
"","","","","","image-keyboard-response","14","242091","0.0-3.0-11.0","641397a5ea8f5954ad10fceb","665500ab8938657b03fbdba8","665796285d33de58ac3f00ca","1054","stimuli/1001001.jpg","1","","prediction_practice","1","{""filepath"":""stimuli/1001001.jpg"",""ball_pos"":1,""ego_ball_visible"":true,""ego_can_infer"":true,""alter_ball_visible"":true,""alter_can_infer"":true,""collective_ball_visible"":true,""collective_can_infer"":true,""search_locations"":[1],""alter_occluders"":""001"",""ego_occluders"":""001""}","true","","","","","","","","","","","","","","","","","","",""
"","","","","","image-keyboard-response","15","242820","0.0-3.0-12.0","641397a5ea8f5954ad10fceb","665500ab8938657b03fbdba8","665796285d33de58ac3f00ca","723","stimuli/10010011.jpg"," ","","practrice_feedback","1","","","","","","","","","","","","","","","","","","","","",""
"","","","","","image-keyboard-response","16","246118","0.0-3.0-13.0","641397a5ea8f5954ad10fceb","665500ab8938657b03fbdba8","665796285d33de58ac3f00ca","3244","stimuli/2011000.jpg","1","","prediction_practice","1","{""filepath"":""stimuli/2011000.jpg"",""ball_pos"":2,""ego_ball_visible"":true,""ego_can_infer"":true,""alter_ball_visible"":false,""alter_can_infer"":false,""collective_ball_visible"":false,""collective_can_infer"":false,""search_locations"":[1,2],""alter_occluders"":""011"",""ego_occluders"":""000""}","true","","","","","","","","","","","","","","","","","","",""
"","","","","","image-keyboard-response","17","247844","0.0-3.0-14.0","641397a5ea8f5954ad10fceb","665500ab8938657b03fbdba8","665796285d33de58ac3f00ca","1720","stimuli/20110001.jpg"," ","","practrice_feedback","1","","","","","","","","","","","","","","","","","","","","",""
"","","","","","image-keyboard-response","18","255563","0.0-3.0-15.0","641397a5ea8f5954ad10fceb","665500ab8938657b03fbdba8","665796285d33de58ac3f00ca","7714","stimuli/2100111.jpg","0","","prediction_practice","2","{""filepath"":""stimuli/2100111.jpg"",""ball_pos"":2,""ego_ball_visible"":false,""ego_can_infer"":false,""alter_ball_visible"":true,""alter_can_infer"":true,""collective_ball_visible"":false,""collective_can_infer"":false,""search_locations"":[2],""alter_occluders"":""100"",""ego_occluders"":""111""}","false","","","","","","","","","","","","","","","","","","",""
"","","","","","image-keyboard-response","19","257051","0.0-3.0-16.0","641397a5ea8f5954ad10fceb","665500ab8938657b03fbdba8","665796285d33de58ac3f00ca","1482","stimuli/21001112.jpg"," ","","practrice_feedback","2","","","","","","","","","","","","","","","","","","","","",""
"","","","","","image-keyboard-response","20","258616","0.0-3.0-17.0","641397a5ea8f5954ad10fceb","665500ab8938657b03fbdba8","665796285d33de58ac3f00ca","1559","stimuli/2010100.jpg","2","","prediction_practice","2","{""filepath"":""stimuli/2010100.jpg"",""ball_pos"":2,""ego_ball_visible"":true,""ego_can_infer"":true,""alter_ball_visible"":true,""alter_can_infer"":true,""collective_ball_visible"":true,""collective_can_infer"":true,""search_locations"":[2],""alter_occluders"":""010"",""ego_occluders"":""100""}","true","","","","","","","","","","","","","","","","","","",""
"","","","","","image-keyboard-response","21","259286","0.0-3.0-18.0","641397a5ea8f5954ad10fceb","665500ab8938657b03fbdba8","665796285d33de58ac3f00ca","664","stimuli/20101002.jpg"," ","","practrice_feedback","2","","","","","","","","","","","","","","","","","","","","",""
"","","","","","image-keyboard-response","22","261972","0.0-3.0-19.0","641397a5ea8f5954ad10fceb","665500ab8938657b03fbdba8","665796285d33de58ac3f00ca","2681","stimuli/0101000.jpg","2","","prediction_practice","0","{""filepath"":""stimuli/0101000.jpg"",""ball_pos"":0,""ego_ball_visible"":true,""ego_can_infer"":true,""alter_ball_visible"":false,""alter_can_infer"":false,""collective_ball_visible"":false,""collective_can_infer"":false,""search_locations"":[0,2],""alter_occluders"":""101"",""ego_occluders"":""000""}","false","","","","","","","","","","","","","","","","","","",""
"","","","","","image-keyboard-response","23","262888","0.0-3.0-20.0","641397a5ea8f5954ad10fceb","665500ab8938657b03fbdba8","665796285d33de58ac3f00ca","910","stimuli/01010000.jpg"," ","","practrice_feedback","0","","","","","","","","","","","","","","","","","","","","",""
"","","","","","html-button-response","24","271566","0.0-3.0-21.0","641397a5ea8f5954ad10fceb","665500ab8938657b03fbdba8","665796285d33de58ac3f00ca","8671","Now that you've had some practice, you'll be tested with a couple of easy trials. If you correctly predict Sam's choice, you'll move on to complete the experiment!","0","","","","","","","","","","","","","","","","","","","","","","","",""
"","","","","","image-keyboard-response","25","272675","0.0-3.0-22.0-0.0","641397a5ea8f5954ad10fceb","665500ab8938657b03fbdba8","665796285d33de58ac3f00ca","1104","stimuli/0000011.jpg","arrowleft","","comprehension_quiz","","","true","arrowleft","","","","","","","","","","","","","","","","","",""
"","","","","","image-keyboard-response","26","273650","0.0-3.0-22.0-1.0","641397a5ea8f5954ad10fceb","665500ab8938657b03fbdba8","665796285d33de58ac3f00ca","965","stimuli/00000110.jpg"," ","","comprehension_quiz","","","true"," ","","","","","","","","","","","","","","","","","",""
"","","","","","image-keyboard-response","27","275440","0.0-3.0-22.0-2.0","641397a5ea8f5954ad10fceb","665500ab8938657b03fbdba8","665796285d33de58ac3f00ca","1785","stimuli/1010010.jpg","arrowdown","","comprehension_quiz","","","true","arrowdown","","","","","","","","","","","","","","","","","",""
"","","","","","image-keyboard-response","28","276257","0.0-3.0-22.0-3.0","641397a5ea8f5954ad10fceb","665500ab8938657b03fbdba8","665796285d33de58ac3f00ca","807","stimuli/10100101.jpg"," ","","comprehension_quiz","","","true"," ","","","","","","","","","","","","","","","","","",""
"","","","","","html-button-response","29","279261","0.0-4.0","641397a5ea8f5954ad10fceb","665500ab8938657b03fbdba8","665796285d33de58ac3f00ca","2990","The experiment will now begin.","0","","","","","","","","","","","","","","","","","","","","","","","",""
"","","","","","image-keyboard-response","30","281284","0.0-5.0","641397a5ea8f5954ad10fceb","665500ab8938657b03fbdba8","665796285d33de58ac3f00ca","2017","stimuli/2101101.jpg","2","","prediction_trial","0","","false","","2","false","false","false","false","false","false","[0,2]","101","101","0","","","","","","",""
"","","","","","image-keyboard-response","31","282654","0.0-6.0","641397a5ea8f5954ad10fceb","665500ab8938657b03fbdba8","665796285d33de58ac3f00ca","1361","stimuli/21011010.jpg"," ","","feedback_trial","0","","","","","","","","","","","","","","","","","","","","",""
"","","","","","image-keyboard-response","32","289334","0.0-7.0","641397a5ea8f5954ad10fceb","665500ab8938657b03fbdba8","665796285d33de58ac3f00ca","6674","stimuli/1111100.jpg","2","","prediction_trial","2","","true","","1","true","true","false","false","false","false","[1,2,0]","111","100","1","","","","","","",""
"","","","","","image-keyboard-response","33","290731","0.0-8.0","641397a5ea8f5954ad10fceb","665500ab8938657b03fbdba8","665796285d33de58ac3f00ca","1392","stimuli/11111002.jpg"," ","","feedback_trial","1","","","","","","","","","","","","","","","","","","","","",""
"","","","","","image-keyboard-response","34","295189","0.0-9.0","641397a5ea8f5954ad10fceb","665500ab8938657b03fbdba8","665796285d33de58ac3f00ca","4454","stimuli/0100110.jpg","0","","prediction_trial","0","","true","","0","false","false","false","true","false","false","[0]","100","110","1","","","","","","",""
"","","","","","image-keyboard-response","35","296577","0.0-10.0","641397a5ea8f5954ad10fceb","665500ab8938657b03fbdba8","665796285d33de58ac3f00ca","1384","stimuli/01001100.jpg"," ","","feedback_trial","0","","","","","","","","","","","","","","","","","","","","",""
"","","","","","image-keyboard-response","36","298563","0.0-11.0","641397a5ea8f5954ad10fceb","665500ab8938657b03fbdba8","665796285d33de58ac3f00ca","1982","stimuli/1011011.jpg","1","","prediction_trial","2","","false","","1","false","false","false","false","false","false","[2,1]","011","011","0","","","","","","",""
"","","","","","image-keyboard-response","37","299726","0.0-12.0","641397a5ea8f5954ad10fceb","665500ab8938657b03fbdba8","665796285d33de58ac3f00ca","1157","stimuli/10110112.jpg"," ","","feedback_trial","2","","","","","","","","","","","","","","","","","","","","",""
"","","","","","image-keyboard-response","38","301632","0.0-13.0","641397a5ea8f5954ad10fceb","665500ab8938657b03fbdba8","665796285d33de58ac3f00ca","1900","stimuli/1001111.jpg","2","","prediction_trial","1","","false","","1","false","false","true","true","false","false","[1]","001","111","0","","","","","","",""
"","","","","","image-keyboard-response","39","303236","0.0-14.0","641397a5ea8f5954ad10fceb","665500ab8938657b03fbdba8","665796285d33de58ac3f00ca","1597","stimuli/10011111.jpg"," ","","feedback_trial","1","","","","","","","","","","","","","","","","","","","","",""
"","","","","","image-keyboard-response","40","304294","0.0-15.0","641397a5ea8f5954ad10fceb","665500ab8938657b03fbdba8","665796285d33de58ac3f00ca","1009","stimuli/2000000.jpg","2","","prediction_trial","2","","true","","2","true","true","true","true","true","true","[2]","000","000","1","","","","","","",""
"","","","","","image-keyboard-response","41","305402","0.0-16.0","641397a5ea8f5954ad10fceb","665500ab8938657b03fbdba8","665796285d33de58ac3f00ca","1101","stimuli/20000002.jpg"," ","","feedback_trial","2","","","","","","","","","","","","","","","","","","","","",""
"","","","","","image-keyboard-response","42","308690","0.0-17.0","641397a5ea8f5954ad10fceb","665500ab8938657b03fbdba8","665796285d33de58ac3f00ca","3282","stimuli/1010111.jpg","0","","prediction_trial","1","","false","","1","false","false","false","true","false","false","[1]","010","111","0","","","","","","",""
"","","","","","image-keyboard-response","43","309828","0.0-18.0","641397a5ea8f5954ad10fceb","665500ab8938657b03fbdba8","665796285d33de58ac3f00ca","1133","stimuli/10101111.jpg"," ","","feedback_trial","1","","","","","","","","","","","","","","","","","","","","",""
"","","","","","image-keyboard-response","44","314059","0.0-19.0","641397a5ea8f5954ad10fceb","665500ab8938657b03fbdba8","665796285d33de58ac3f00ca","4228","stimuli/0110111.jpg","1","","prediction_trial","1","","true","","0","false","false","false","false","false","false","[0,1]","110","111","1","","","","","","",""
"","","","","","image-keyboard-response","45","315298","0.0-20.0","641397a5ea8f5954ad10fceb","665500ab8938657b03fbdba8","665796285d33de58ac3f00ca","1232","stimuli/01101111.jpg"," ","","feedback_trial","0","","","","","","","","","","","","","","","","","","","","",""
"","","","","","image-keyboard-response","46","316312","0.0-21.0","641397a5ea8f5954ad10fceb","665500ab8938657b03fbdba8","665796285d33de58ac3f00ca","1008","stimuli/2110110.jpg","2","","prediction_trial","2","","true","","2","true","true","true","true","true","true","[2]","110","110","1","","","","","","",""
"","","","","","image-keyboard-response","47","317163","0.0-22.0","641397a5ea8f5954ad10fceb","665500ab8938657b03fbdba8","665796285d33de58ac3f00ca","848","stimuli/21101102.jpg"," ","","feedback_trial","2","","","","","","","","","","","","","","","","","","","","",""
"","","","","","image-keyboard-response","48","318128","0.0-23.0","641397a5ea8f5954ad10fceb","665500ab8938657b03fbdba8","665796285d33de58ac3f00ca","959","stimuli/1101001.jpg","1","","prediction_trial","1","","true","","1","true","true","true","true","true","true","[1]","101","001","1","","","","","","",""
"","","","","","image-keyboard-response","49","318712","0.0-24.0","641397a5ea8f5954ad10fceb","665500ab8938657b03fbdba8","665796285d33de58ac3f00ca","577","stimuli/11010011.jpg"," ","","feedback_trial","1","","","","","","","","","","","","","","","","","","","","",""
"","","","","","image-keyboard-response","50","319663","0.0-25.0","641397a5ea8f5954ad10fceb","665500ab8938657b03fbdba8","665796285d33de58ac3f00ca","944","stimuli/1001100.jpg","1","","prediction_trial","1","","true","","1","true","true","true","true","true","true","[1]","001","100","1","","","","","","",""
"","","","","","image-keyboard-response","51","320245","0.0-26.0","641397a5ea8f5954ad10fceb","665500ab8938657b03fbdba8","665796285d33de58ac3f00ca","574","stimuli/10011001.jpg"," ","","feedback_trial","1","","","","","","","","","","","","","","","","","","","","",""
"","","","","","image-keyboard-response","52","324215","0.0-27.0","641397a5ea8f5954ad10fceb","665500ab8938657b03fbdba8","665796285d33de58ac3f00ca","3963","stimuli/0110011.jpg","0","","prediction_trial","0","","true","","0","true","true","false","false","false","false","[0,1]","110","011","1","","","","","","",""
"","","","","","image-keyboard-response","53","325765","0.0-28.0","641397a5ea8f5954ad10fceb","665500ab8938657b03fbdba8","665796285d33de58ac3f00ca","1544","stimuli/01100110.jpg"," ","","feedback_trial","0","","","","","","","","","","","","","","","","","","","","",""
"","","","","","image-keyboard-response","54","327163","0.0-29.0","641397a5ea8f5954ad10fceb","665500ab8938657b03fbdba8","665796285d33de58ac3f00ca","1392","stimuli/0010010.jpg","0","","prediction_trial","0","","true","","0","true","true","true","true","true","true","[0]","010","010","1","","","","","","",""
"","","","","","image-keyboard-response","55","327670","0.0-30.0","641397a5ea8f5954ad10fceb","665500ab8938657b03fbdba8","665796285d33de58ac3f00ca","502","stimuli/00100100.jpg"," ","","feedback_trial","0","","","","","","","","","","","","","","","","","","","","",""
"","","","","","image-keyboard-response","56","328585","0.0-31.0","641397a5ea8f5954ad10fceb","665500ab8938657b03fbdba8","665796285d33de58ac3f00ca","910","stimuli/1001101.jpg","1","","prediction_trial","1","","true","","1","true","true","true","true","true","true","[1]","001","101","1","","","","","","",""
"","","","","","image-keyboard-response","57","329130","0.0-32.0","641397a5ea8f5954ad10fceb","665500ab8938657b03fbdba8","665796285d33de58ac3f00ca","539","stimuli/10011011.jpg"," ","","feedback_trial","1","","","","","","","","","","","","","","","","","","","","",""
"","","","","","image-keyboard-response","58","331590","0.0-33.0","641397a5ea8f5954ad10fceb","665500ab8938657b03fbdba8","665796285d33de58ac3f00ca","2455","stimuli/2011111.jpg","1","","prediction_trial","2","","false","","2","false","false","false","false","false","false","[2,1]","011","111","0","","","","","","",""
"","","","","","image-keyboard-response","59","333066","0.0-34.0","641397a5ea8f5954ad10fceb","665500ab8938657b03fbdba8","665796285d33de58ac3f00ca","1473","stimuli/20111112.jpg"," ","","feedback_trial","2","","","","","","","","","","","","","","","","","","","","",""
"","","","","","image-keyboard-response","60","334054","0.0-35.0","641397a5ea8f5954ad10fceb","665500ab8938657b03fbdba8","665796285d33de58ac3f00ca","981","stimuli/1100000.jpg","1","","prediction_trial","1","","true","","1","true","true","true","true","true","true","[1]","100","000","1","","","","","","",""
"","","","","","image-keyboard-response","61","334483","0.0-36.0","641397a5ea8f5954ad10fceb","665500ab8938657b03fbdba8","665796285d33de58ac3f00ca","423","stimuli/11000001.jpg"," ","","feedback_trial","1","","","","","","","","","","","","","","","","","","","","",""
"","","","","","image-keyboard-response","62","338407","0.0-37.0","641397a5ea8f5954ad10fceb","665500ab8938657b03fbdba8","665796285d33de58ac3f00ca","3875","stimuli/0010101.jpg","0","","prediction_trial","0","","true","","0","false","false","true","true","false","false","[0]","010","101","1","","","","","","",""
"","","","","","image-keyboard-response","63","339820","0.0-38.0","641397a5ea8f5954ad10fceb","665500ab8938657b03fbdba8","665796285d33de58ac3f00ca","1407","stimuli/00101010.jpg"," ","","feedback_trial","0","","","","","","","","","","","","","","","","","","","","",""
"","","","","","image-keyboard-response","64","342497","0.0-39.0","641397a5ea8f5954ad10fceb","665500ab8938657b03fbdba8","665796285d33de58ac3f00ca","2672","stimuli/0011101.jpg","2","","prediction_trial","0","","false","","0","false","false","true","true","false","false","[0]","011","101","0","","","","","","",""
"","","","","","image-keyboard-response","65","343501","0.0-40.0","641397a5ea8f5954ad10fceb","665500ab8938657b03fbdba8","665796285d33de58ac3f00ca","998","stimuli/00111010.jpg"," ","","feedback_trial","0","","","","","","","","","","","","","","","","","","","","",""
"","","","","","image-keyboard-response","66","348349","0.0-41.0","641397a5ea8f5954ad10fceb","665500ab8938657b03fbdba8","665796285d33de58ac3f00ca","4841","stimuli/1111101.jpg","2","","prediction_trial","0","","false","","1","true","true","false","false","false","false","[2,1,0]","111","101","0","","","","","","",""
"","","","","","image-keyboard-response","67","349214","0.0-42.0","641397a5ea8f5954ad10fceb","665500ab8938657b03fbdba8","665796285d33de58ac3f00ca","858","stimuli/11111010.jpg"," ","","feedback_trial","2","","","","","","","","","","","","","","","","","","","","",""
"","","","","","image-keyboard-response","68","351123","0.0-43.0","641397a5ea8f5954ad10fceb","665500ab8938657b03fbdba8","665796285d33de58ac3f00ca","1903","stimuli/1110010.jpg","1","","prediction_trial","1","","true","","1","false","true","false","false","false","false","[0,1]","110","010","1","","","","","","",""
"","","","","","image-keyboard-response","69","352613","0.0-44.0","641397a5ea8f5954ad10fceb","665500ab8938657b03fbdba8","665796285d33de58ac3f00ca","1485","stimuli/11100101.jpg"," ","","feedback_trial","0","","","","","","","","","","","","","","","","","","","","",""
"","","","","","image-keyboard-response","70","356930","0.0-45.0","641397a5ea8f5954ad10fceb","665500ab8938657b03fbdba8","665796285d33de58ac3f00ca","4311","stimuli/0101110.jpg","0","","prediction_trial","0","","true","","0","false","false","false","false","false","false","[2,0]","101","110","1","","","","","","",""
"","","","","","image-keyboard-response","71","358684","0.0-46.0","641397a5ea8f5954ad10fceb","665500ab8938657b03fbdba8","665796285d33de58ac3f00ca","1747","stimuli/01011100.jpg"," ","","feedback_trial","2","","","","","","","","","","","","","","","","","","","","",""
"","","","","","image-keyboard-response","72","360182","0.0-47.0","641397a5ea8f5954ad10fceb","665500ab8938657b03fbdba8","665796285d33de58ac3f00ca","1493","stimuli/0011100.jpg","0","","prediction_trial","0","","true","","0","false","true","true","true","false","true","[0]","011","100","1","","","","","","",""
"","","","","","image-keyboard-response","73","362436","0.0-48.0","641397a5ea8f5954ad10fceb","665500ab8938657b03fbdba8","665796285d33de58ac3f00ca","2250","stimuli/00111000.jpg"," ","","feedback_trial","0","","","","","","","","","","","","","","","","","","","","",""
"","","","","","image-keyboard-response","74","369309","0.0-49.0","641397a5ea8f5954ad10fceb","665500ab8938657b03fbdba8","665796285d33de58ac3f00ca","6866","stimuli/1111001.jpg","0","","prediction_trial","2","","false","","1","true","true","false","false","false","false","[1,2,0]","111","001","0","","","","","","",""
"","","","","","image-keyboard-response","75","370810","0.0-50.0","641397a5ea8f5954ad10fceb","665500ab8938657b03fbdba8","665796285d33de58ac3f00ca","1495","stimuli/11110012.jpg"," ","","feedback_trial","1","","","","","","","","","","","","","","","","","","","","",""
"","","","","","image-keyboard-response","76","371700","0.0-51.0","641397a5ea8f5954ad10fceb","665500ab8938657b03fbdba8","665796285d33de58ac3f00ca","886","stimuli/2000100.jpg","2","","prediction_trial","2","","true","","2","true","true","true","true","true","true","[2]","000","100","1","","","","","","",""
"","","","","","image-keyboard-response","77","372830","0.0-52.0","641397a5ea8f5954ad10fceb","665500ab8938657b03fbdba8","665796285d33de58ac3f00ca","1124","stimuli/20001002.jpg"," ","","feedback_trial","2","","","","","","","","","","","","","","","","","","","","",""
"","","","","","image-keyboard-response","78","374940","0.0-53.0","641397a5ea8f5954ad10fceb","665500ab8938657b03fbdba8","665796285d33de58ac3f00ca","2104","stimuli/0110010.jpg","1","","prediction_trial","1","","true","","0","true","true","false","false","false","false","[0,1]","110","010","1","","","","","","",""
"","","","","","image-keyboard-response","79","376728","0.0-54.0","641397a5ea8f5954ad10fceb","665500ab8938657b03fbdba8","665796285d33de58ac3f00ca","1782","stimuli/01100101.jpg"," ","","feedback_trial","0","","","","","","","","","","","","","","","","","","","","",""
"","","","","","image-keyboard-response","80","380756","0.0-55.0","641397a5ea8f5954ad10fceb","665500ab8938657b03fbdba8","665796285d33de58ac3f00ca","4025","stimuli/0111100.jpg","1","","prediction_trial","2","","false","","0","false","true","false","false","false","false","[2,1,0]","111","100","0","","","","","","",""
"","","","","","image-keyboard-response","81","382149","0.0-56.0","641397a5ea8f5954ad10fceb","665500ab8938657b03fbdba8","665796285d33de58ac3f00ca","1387","stimuli/01111002.jpg"," ","","feedback_trial","2","","","","","","","","","","","","","","","","","","","","",""
"","","","","","image-keyboard-response","82","383395","0.0-57.0","641397a5ea8f5954ad10fceb","665500ab8938657b03fbdba8","665796285d33de58ac3f00ca","1240","stimuli/1101000.jpg","1","","prediction_trial","1","","true","","1","true","true","true","true","true","true","[1]","101","000","1","","","","","","",""
"","","","","","image-keyboard-response","83","384138","0.0-58.0","641397a5ea8f5954ad10fceb","665500ab8938657b03fbdba8","665796285d33de58ac3f00ca","736","stimuli/11010001.jpg"," ","","feedback_trial","1","","","","","","","","","","","","","","","","","","","","",""
"","","","","","image-keyboard-response","84","385279","0.0-59.0","641397a5ea8f5954ad10fceb","665500ab8938657b03fbdba8","665796285d33de58ac3f00ca","1116","stimuli/2110001.jpg","2","","prediction_trial","2","","true","","2","false","true","true","true","false","true","[2]","110","001","1","","","","","","",""
"","","","","","image-keyboard-response","85","386283","0.0-60.0","641397a5ea8f5954ad10fceb","665500ab8938657b03fbdba8","665796285d33de58ac3f00ca","997","stimuli/21100012.jpg"," ","","feedback_trial","2","","","","","","","","","","","","","","","","","","","","",""
"","","","","","image-keyboard-response","86","388447","0.0-61.0","641397a5ea8f5954ad10fceb","665500ab8938657b03fbdba8","665796285d33de58ac3f00ca","2157","stimuli/0100010.jpg","0","","prediction_trial","0","","true","","0","true","true","false","true","false","true","[0]","100","010","1","","","","","","",""
"","","","","","image-keyboard-response","87","389456","0.0-62.0","641397a5ea8f5954ad10fceb","665500ab8938657b03fbdba8","665796285d33de58ac3f00ca","1003","stimuli/01000100.jpg"," ","","feedback_trial","0","","","","","","","","","","","","","","","","","","","","",""
"","","","","","image-keyboard-response","88","391781","0.0-63.0","641397a5ea8f5954ad10fceb","665500ab8938657b03fbdba8","665796285d33de58ac3f00ca","2329","stimuli/0100111.jpg","0","","prediction_trial","0","","true","","0","false","false","false","true","false","false","[0]","100","111","1","","","","","","",""
"","","","","","image-keyboard-response","89","392855","0.0-64.0","641397a5ea8f5954ad10fceb","665500ab8938657b03fbdba8","665796285d33de58ac3f00ca","1068","stimuli/01001110.jpg"," ","","feedback_trial","0","","","","","","","","","","","","","","","","","","","","",""
"","","","","","image-keyboard-response","90","394800","0.0-65.0","641397a5ea8f5954ad10fceb","665500ab8938657b03fbdba8","665796285d33de58ac3f00ca","1939","stimuli/1111011.jpg","1","","prediction_trial","0","","false","","1","false","false","false","false","false","false","[0,2,1]","111","011","0","","","","","","",""
"","","","","","image-keyboard-response","91","396694","0.0-66.0","641397a5ea8f5954ad10fceb","665500ab8938657b03fbdba8","665796285d33de58ac3f00ca","1888","stimuli/11110110.jpg"," ","","feedback_trial","0","","","","","","","","","","","","","","","","","","","","",""
"","","","","","image-keyboard-response","92","401379","0.0-67.0","641397a5ea8f5954ad10fceb","665500ab8938657b03fbdba8","665796285d33de58ac3f00ca","4679","stimuli/1111111.jpg","0","","prediction_trial","0","","true","","1","false","false","false","false","false","false","[2,1,0]","111","111","1","","","","","","",""
"","","","","","image-keyboard-response","93","402604","0.0-68.0","641397a5ea8f5954ad10fceb","665500ab8938657b03fbdba8","665796285d33de58ac3f00ca","1218","stimuli/11111110.jpg"," ","","feedback_trial","2","","","","","","","","","","","","","","","","","","","","",""
"","","","","","image-keyboard-response","94","404191","0.0-69.0","641397a5ea8f5954ad10fceb","665500ab8938657b03fbdba8","665796285d33de58ac3f00ca","1581","stimuli/1010101.jpg","1","","prediction_trial","1","","true","","1","true","true","false","true","false","true","[1]","010","101","1","","","","","","",""
"","","","","","image-keyboard-response","95","404883","0.0-70.0","641397a5ea8f5954ad10fceb","665500ab8938657b03fbdba8","665796285d33de58ac3f00ca","684","stimuli/10101011.jpg"," ","","feedback_trial","1","","","","","","","","","","","","","","","","","","","","",""
"","","","","","image-keyboard-response","96","406627","0.0-71.0","641397a5ea8f5954ad10fceb","665500ab8938657b03fbdba8","665796285d33de58ac3f00ca","1736","stimuli/1010011.jpg","1","","prediction_trial","1","","true","","1","false","false","false","true","false","false","[1]","010","011","1","","","","","","",""
"","","","","","image-keyboard-response","97","407566","0.0-72.0","641397a5ea8f5954ad10fceb","665500ab8938657b03fbdba8","665796285d33de58ac3f00ca","933","stimuli/10100111.jpg"," ","","feedback_trial","1","","","","","","","","","","","","","","","","","","","","",""
"","","","","","image-keyboard-response","98","410114","0.0-73.0","641397a5ea8f5954ad10fceb","665500ab8938657b03fbdba8","665796285d33de58ac3f00ca","2542","stimuli/2010111.jpg","1","","prediction_trial","2","","false","","2","false","false","true","true","false","false","[2]","010","111","0","","","","","","",""
"","","","","","image-keyboard-response","99","410928","0.0-74.0","641397a5ea8f5954ad10fceb","665500ab8938657b03fbdba8","665796285d33de58ac3f00ca","808","stimuli/20101112.jpg"," ","","feedback_trial","2","","","","","","","","","","","","","","","","","","","","",""
"","","","","","image-keyboard-response","100","412005","0.0-75.0","641397a5ea8f5954ad10fceb","665500ab8938657b03fbdba8","665796285d33de58ac3f00ca","1071","stimuli/0000011.jpg","0","","prediction_trial","0","","true","","0","true","true","true","true","true","true","[0]","000","011","1","","","","","","",""
"","","","","","image-keyboard-response","101","412760","0.0-76.0","641397a5ea8f5954ad10fceb","665500ab8938657b03fbdba8","665796285d33de58ac3f00ca","748","stimuli/00000110.jpg"," ","","feedback_trial","0","","","","","","","","","","","","","","","","","","","","",""
"","","","","","image-keyboard-response","102","415334","0.0-77.0","641397a5ea8f5954ad10fceb","665500ab8938657b03fbdba8","665796285d33de58ac3f00ca","2570","stimuli/0001110.jpg","0","","prediction_trial","0","","true","","0","false","false","true","true","false","false","[0]","001","110","1","","","","","","",""
"","","","","","image-keyboard-response","103","416354","0.0-78.0","641397a5ea8f5954ad10fceb","665500ab8938657b03fbdba8","665796285d33de58ac3f00ca","1013","stimuli/00011100.jpg"," ","","feedback_trial","0","","","","","","","","","","","","","","","","","","","","",""
"","","","","","image-keyboard-response","104","417819","0.0-79.0","641397a5ea8f5954ad10fceb","665500ab8938657b03fbdba8","665796285d33de58ac3f00ca","1460","stimuli/0000001.jpg","0","","prediction_trial","0","","true","","0","true","true","true","true","true","true","[0]","000","001","1","","","","","","",""
"","","","","","image-keyboard-response","105","418572","0.0-80.0","641397a5ea8f5954ad10fceb","665500ab8938657b03fbdba8","665796285d33de58ac3f00ca","746","stimuli/00000010.jpg"," ","","feedback_trial","0","","","","","","","","","","","","","","","","","","","","",""
"","","","","","image-keyboard-response","106","420273","0.0-81.0","641397a5ea8f5954ad10fceb","665500ab8938657b03fbdba8","665796285d33de58ac3f00ca","1695","stimuli/0100000.jpg","0","","prediction_trial","0","","true","","0","true","true","false","true","false","true","[0]","100","000","1","","","","","","",""
"","","","","","image-keyboard-response","107","421151","0.0-82.0","641397a5ea8f5954ad10fceb","665500ab8938657b03fbdba8","665796285d33de58ac3f00ca","873","stimuli/01000000.jpg"," ","","feedback_trial","0","","","","","","","","","","","","","","","","","","","","",""
"","","","","","image-keyboard-response","108","424146","0.0-83.0","641397a5ea8f5954ad10fceb","665500ab8938657b03fbdba8","665796285d33de58ac3f00ca","2988","stimuli/1110111.jpg","0","","prediction_trial","1","","false","","1","false","false","false","false","false","false","[1,0]","110","111","0","","","","","","",""
"","","","","","image-keyboard-response","109","424930","0.0-84.0","641397a5ea8f5954ad10fceb","665500ab8938657b03fbdba8","665796285d33de58ac3f00ca","779","stimuli/11101111.jpg"," ","","feedback_trial","1","","","","","","","","","","","","","","","","","","","","",""
"","","","","","image-keyboard-response","110","426540","0.0-85.0","641397a5ea8f5954ad10fceb","665500ab8938657b03fbdba8","665796285d33de58ac3f00ca","1602","stimuli/0101101.jpg","0","","prediction_trial","0","","true","","0","false","false","false","false","false","false","[0,2]","101","101","1","","","","","","",""
"","","","","","image-keyboard-response","111","427601","0.0-86.0","641397a5ea8f5954ad10fceb","665500ab8938657b03fbdba8","665796285d33de58ac3f00ca","1055","stimuli/01011010.jpg"," ","","feedback_trial","0","","","","","","","","","","","","","","","","","","","","",""
"","","","","","image-keyboard-response","112","431664","0.0-87.0","641397a5ea8f5954ad10fceb","665500ab8938657b03fbdba8","665796285d33de58ac3f00ca","4024","stimuli/1011110.jpg","1","","prediction_trial","2","","false","","1","false","false","false","false","false","false","[1,2]","011","110","0","","","","","","",""
"","","","","","image-keyboard-response","113","433799","0.0-88.0","641397a5ea8f5954ad10fceb","665500ab8938657b03fbdba8","665796285d33de58ac3f00ca","2129","stimuli/10111102.jpg"," ","","feedback_trial","1","","","","","","","","","","","","","","","","","","","","",""
"","","","","","image-keyboard-response","114","435959","0.0-89.0","641397a5ea8f5954ad10fceb","665500ab8938657b03fbdba8","665796285d33de58ac3f00ca","2155","stimuli/1000011.jpg","1","","prediction_trial","1","","true","","1","false","false","true","true","false","false","[1]","000","011","1","","","","","","",""
"","","","","","image-keyboard-response","115","436985","0.0-90.0","641397a5ea8f5954ad10fceb","665500ab8938657b03fbdba8","665796285d33de58ac3f00ca","1020","stimuli/10000111.jpg"," ","","feedback_trial","1","","","","","","","","","","","","","","","","","","","","",""
"","","","","","image-keyboard-response","116","440359","0.0-91.0","641397a5ea8f5954ad10fceb","665500ab8938657b03fbdba8","665796285d33de58ac3f00ca","3370","stimuli/0000111.jpg","0","","prediction_trial","0","","true","","0","false","false","true","true","false","false","[0]","000","111","1","","","","","","",""
"","","","","","image-keyboard-response","117","441334","0.0-92.0","641397a5ea8f5954ad10fceb","665500ab8938657b03fbdba8","665796285d33de58ac3f00ca","969","stimuli/00001110.jpg"," ","","feedback_trial","0","","","","","","","","","","","","","","","","","","","","",""
"","","","","","image-keyboard-response","118","443789","0.0-93.0","641397a5ea8f5954ad10fceb","665500ab8938657b03fbdba8","665796285d33de58ac3f00ca","2449","stimuli/2010101.jpg","0","","prediction_trial","2","","false","","2","false","false","true","true","false","false","[2]","010","101","0","","","","","","",""
"","","","","","image-keyboard-response","119","444733","0.0-94.0","641397a5ea8f5954ad10fceb","665500ab8938657b03fbdba8","665796285d33de58ac3f00ca","938","stimuli/20101012.jpg"," ","","feedback_trial","2","","","","","","","","","","","","","","","","","","","","",""
"","","","","","image-keyboard-response","120","448462","0.0-95.0","641397a5ea8f5954ad10fceb","665500ab8938657b03fbdba8","665796285d33de58ac3f00ca","3722","stimuli/1100110.jpg","0","","prediction_trial","1","","false","","1","false","false","true","true","false","false","[1]","100","110","0","","","","","","",""
"","","","","","image-keyboard-response","121","449452","0.0-96.0","641397a5ea8f5954ad10fceb","665500ab8938657b03fbdba8","665796285d33de58ac3f00ca","983","stimuli/11001101.jpg"," ","","feedback_trial","1","","","","","","","","","","","","","","","","","","","","",""
"","","","","","image-keyboard-response","122","452516","0.0-97.0","641397a5ea8f5954ad10fceb","665500ab8938657b03fbdba8","665796285d33de58ac3f00ca","3053","stimuli/1000110.jpg","0","","prediction_trial","1","","false","","1","false","false","true","true","false","false","[1]","000","110","0","","","","","","",""
"","","","","","image-keyboard-response","123","453593","0.0-98.0","641397a5ea8f5954ad10fceb","665500ab8938657b03fbdba8","665796285d33de58ac3f00ca","1070","stimuli/10001101.jpg"," ","","feedback_trial","1","","","","","","","","","","","","","","","","","","","","",""
"","","","","","image-keyboard-response","124","455351","0.0-99.0","641397a5ea8f5954ad10fceb","665500ab8938657b03fbdba8","665796285d33de58ac3f00ca","1755","stimuli/2101010.jpg","0","","prediction_trial","2","","false","","2","true","true","false","false","false","false","[0,2]","101","010","0","","","","","","",""
"","","","","","image-keyboard-response","125","456264","0.0-100.0","641397a5ea8f5954ad10fceb","665500ab8938657b03fbdba8","665796285d33de58ac3f00ca","907","stimuli/21010102.jpg"," ","","feedback_trial","0","","","","","","","","","","","","","","","","","","","","",""
"","","","","","image-keyboard-response","126","459450","0.0-101.0","641397a5ea8f5954ad10fceb","665500ab8938657b03fbdba8","665796285d33de58ac3f00ca","3180","stimuli/0101100.jpg","0","","prediction_trial","2","","false","","0","false","true","false","false","false","false","[0,2]","101","100","0","","","","","","",""
"","","","","","image-keyboard-response","127","460617","0.0-102.0","641397a5ea8f5954ad10fceb","665500ab8938657b03fbdba8","665796285d33de58ac3f00ca","1160","stimuli/01011002.jpg"," ","","feedback_trial","0","","","","","","","","","","","","","","","","","","","","",""
"","","","","","image-keyboard-response","128","464426","0.0-103.0","641397a5ea8f5954ad10fceb","665500ab8938657b03fbdba8","665796285d33de58ac3f00ca","3803","stimuli/2101111.jpg","0","","prediction_trial","2","","false","","2","false","false","false","false","false","false","[2,0]","101","111","0","","","","","","",""
"","","","","","image-keyboard-response","129","465165","0.0-104.0","641397a5ea8f5954ad10fceb","665500ab8938657b03fbdba8","665796285d33de58ac3f00ca","732","stimuli/21011112.jpg"," ","","feedback_trial","2","","","","","","","","","","","","","","","","","","","","",""
"","","","","","image-keyboard-response","130","466614","0.0-105.0","641397a5ea8f5954ad10fceb","665500ab8938657b03fbdba8","665796285d33de58ac3f00ca","1443","stimuli/0110001.jpg","0","","prediction_trial","0","","true","","0","true","true","false","false","false","false","[0,1]","110","001","1","","","","","","",""
"","","","","","image-keyboard-response","131","467680","0.0-106.0","641397a5ea8f5954ad10fceb","665500ab8938657b03fbdba8","665796285d33de58ac3f00ca","1059","stimuli/01100010.jpg"," ","","feedback_trial","0","","","","","","","","","","","","","","","","","","","","",""
"","","","","","image-keyboard-response","132","469982","0.0-107.0","641397a5ea8f5954ad10fceb","665500ab8938657b03fbdba8","665796285d33de58ac3f00ca","2296","stimuli/2111001.jpg","0","","prediction_trial","1","","false","","2","false","true","false","false","false","false","[0,1,2]","111","001","0","","","","","","",""
"","","","","","image-keyboard-response","133","470880","0.0-108.0","641397a5ea8f5954ad10fceb","665500ab8938657b03fbdba8","665796285d33de58ac3f00ca","892","stimuli/21110011.jpg"," ","","feedback_trial","0","","","","","","","","","","","","","","","","","","","","",""
"","","","","","image-keyboard-response","134","472061","0.0-109.0","641397a5ea8f5954ad10fceb","665500ab8938657b03fbdba8","665796285d33de58ac3f00ca","1173","stimuli/1100100.jpg","1","","prediction_trial","1","","true","","1","true","true","true","true","true","true","[1]","100","100","1","","","","","","",""
"","","","","","image-keyboard-response","135","472710","0.0-110.0","641397a5ea8f5954ad10fceb","665500ab8938657b03fbdba8","665796285d33de58ac3f00ca","640","stimuli/11001001.jpg"," ","","feedback_trial","1","","","","","","","","","","","","","","","","","","","","",""
"","","","","","image-keyboard-response","136","473565","0.0-111.0","641397a5ea8f5954ad10fceb","665500ab8938657b03fbdba8","665796285d33de58ac3f00ca","849","stimuli/2010100.jpg","2","","prediction_trial","2","","true","","2","true","true","true","true","true","true","[2]","010","100","1","","","","","","",""
"","","","","","image-keyboard-response","137","474324","0.0-112.0","641397a5ea8f5954ad10fceb","665500ab8938657b03fbdba8","665796285d33de58ac3f00ca","753","stimuli/20101002.jpg"," ","","feedback_trial","2","","","","","","","","","","","","","","","","","","","","",""
"","","","","","image-keyboard-response","138","475417","0.0-113.0","641397a5ea8f5954ad10fceb","665500ab8938657b03fbdba8","665796285d33de58ac3f00ca","1087","stimuli/2100010.jpg","2","","prediction_trial","2","","true","","2","true","true","true","true","true","true","[2]","100","010","1","","","","","","",""
"","","","","","image-keyboard-response","139","476002","0.0-114.0","641397a5ea8f5954ad10fceb","665500ab8938657b03fbdba8","665796285d33de58ac3f00ca","580","stimuli/21000102.jpg"," ","","feedback_trial","2","","","","","","","","","","","","","","","","","","","","",""
"","","","","","image-keyboard-response","140","477728","0.0-115.0","641397a5ea8f5954ad10fceb","665500ab8938657b03fbdba8","665796285d33de58ac3f00ca","1721","stimuli/1111000.jpg","1","","prediction_trial","1","","true","","1","true","true","false","false","false","false","[2,0,1]","111","000","1","","","","","","",""
"","","","","","image-keyboard-response","141","478641","0.0-116.0","641397a5ea8f5954ad10fceb","665500ab8938657b03fbdba8","665796285d33de58ac3f00ca","906","stimuli/11110001.jpg"," ","","feedback_trial","2","","","","","","","","","","","","","","","","","","","","",""
"","","","","","image-keyboard-response","142","479671","0.0-117.0","641397a5ea8f5954ad10fceb","665500ab8938657b03fbdba8","665796285d33de58ac3f00ca","1024","stimuli/0111001.jpg","0","","prediction_trial","0","","true","","0","true","true","false","false","false","false","[2,0,1]","111","001","1","","","","","","",""
"","","","","","image-keyboard-response","143","480591","0.0-118.0","641397a5ea8f5954ad10fceb","665500ab8938657b03fbdba8","665796285d33de58ac3f00ca","915","stimuli/01110010.jpg"," ","","feedback_trial","2","","","","","","","","","","","","","","","","","","","","",""
"","","","","","image-keyboard-response","144","482639","0.0-119.0","641397a5ea8f5954ad10fceb","665500ab8938657b03fbdba8","665796285d33de58ac3f00ca","2040","stimuli/1010010.jpg","1","","prediction_trial","1","","true","","1","false","true","false","true","false","true","[1]","010","010","1","","","","","","",""
"","","","","","image-keyboard-response","145","483408","0.0-120.0","641397a5ea8f5954ad10fceb","665500ab8938657b03fbdba8","665796285d33de58ac3f00ca","760","stimuli/10100101.jpg"," ","","feedback_trial","1","","","","","","","","","","","","","","","","","","","","",""
"","","","","","image-keyboard-response","146","484775","0.0-121.0","641397a5ea8f5954ad10fceb","665500ab8938657b03fbdba8","665796285d33de58ac3f00ca","1359","stimuli/1110001.jpg","1","","prediction_trial","0","","false","","1","true","true","false","false","false","false","[1,0]","110","001","0","","","","","","",""
"","","","","","image-keyboard-response","147","485716","0.0-122.0","641397a5ea8f5954ad10fceb","665500ab8938657b03fbdba8","665796285d33de58ac3f00ca","935","stimuli/11100010.jpg"," ","","feedback_trial","1","","","","","","","","","","","","","","","","","","","","",""
"","","","","","image-keyboard-response","148","487280","0.0-123.0","641397a5ea8f5954ad10fceb","665500ab8938657b03fbdba8","665796285d33de58ac3f00ca","1558","stimuli/0111111.jpg","0","","prediction_trial","2","","false","","0","false","false","false","false","false","false","[0,1,2]","111","111","0","","","","","","",""
"","","","","","image-keyboard-response","149","488104","0.0-124.0","641397a5ea8f5954ad10fceb","665500ab8938657b03fbdba8","665796285d33de58ac3f00ca","818","stimuli/01111112.jpg"," ","","feedback_trial","0","","","","","","","","","","","","","","","","","","","","",""
"","","","","","image-keyboard-response","150","489274","0.0-125.0","641397a5ea8f5954ad10fceb","665500ab8938657b03fbdba8","665796285d33de58ac3f00ca","1165","stimuli/2111111.jpg","0","","prediction_trial","1","","false","","2","false","false","false","false","false","false","[0,1,2]","111","111","0","","","","","","",""
"","","","","","image-keyboard-response","151","491039","0.0-126.0","641397a5ea8f5954ad10fceb","665500ab8938657b03fbdba8","665796285d33de58ac3f00ca","1759","stimuli/21111111.jpg"," ","","feedback_trial","0","","","","","","","","","","","","","","","","","","","","",""
"","","","","","image-keyboard-response","152","491956","0.0-127.0","641397a5ea8f5954ad10fceb","665500ab8938657b03fbdba8","665796285d33de58ac3f00ca","914","stimuli/1001000.jpg","1","","prediction_trial","1","","true","","1","true","true","true","true","true","true","[1]","001","000","1","","","","","","",""
"","","","","","image-keyboard-response","153","492525","0.0-128.0","641397a5ea8f5954ad10fceb","665500ab8938657b03fbdba8","665796285d33de58ac3f00ca","562","stimuli/10010001.jpg"," ","","feedback_trial","1","","","","","","","","","","","","","","","","","","","","",""
"","","","","","image-keyboard-response","154","493655","0.0-129.0","641397a5ea8f5954ad10fceb","665500ab8938657b03fbdba8","665796285d33de58ac3f00ca","1124","stimuli/1100111.jpg","0","","prediction_trial","1","","false","","1","false","false","true","true","false","false","[1]","100","111","0","","","","","","",""
"","","","","","image-keyboard-response","155","494637","0.0-130.0","641397a5ea8f5954ad10fceb","665500ab8938657b03fbdba8","665796285d33de58ac3f00ca","975","stimuli/11001111.jpg"," ","","feedback_trial","1","","","","","","","","","","","","","","","","","","","","",""
"","","","","","image-keyboard-response","156","495653","0.0-131.0","641397a5ea8f5954ad10fceb","665500ab8938657b03fbdba8","665796285d33de58ac3f00ca","966","stimuli/0010001.jpg","0","","prediction_trial","0","","true","","0","true","true","true","true","true","true","[0]","010","001","1","","","","","","",""
"","","","","","image-keyboard-response","157","496439","0.0-132.0","641397a5ea8f5954ad10fceb","665500ab8938657b03fbdba8","665796285d33de58ac3f00ca","779","stimuli/00100010.jpg"," ","","feedback_trial","0","","","","","","","","","","","","","","","","","","","","",""
"","","","","","image-keyboard-response","158","497376","0.0-133.0","641397a5ea8f5954ad10fceb","665500ab8938657b03fbdba8","665796285d33de58ac3f00ca","934","stimuli/2000010.jpg","2","","prediction_trial","2","","true","","2","true","true","true","true","true","true","[2]","000","010","1","","","","","","",""
"","","","","","image-keyboard-response","159","498587","0.0-134.0","641397a5ea8f5954ad10fceb","665500ab8938657b03fbdba8","665796285d33de58ac3f00ca","1205","stimuli/20000102.jpg"," ","","feedback_trial","2","","","","","","","","","","","","","","","","","","","","",""
"","","","","","image-keyboard-response","160","501265","0.0-135.0","641397a5ea8f5954ad10fceb","665500ab8938657b03fbdba8","665796285d33de58ac3f00ca","2672","stimuli/2101011.jpg","0","","prediction_trial","2","","false","","2","false","false","false","false","false","false","[0,2]","101","011","0","","","","","","",""
"","","","","","image-keyboard-response","161","502084","0.0-136.0","641397a5ea8f5954ad10fceb","665500ab8938657b03fbdba8","665796285d33de58ac3f00ca","814","stimuli/21010112.jpg"," ","","feedback_trial","0","","","","","","","","","","","","","","","","","","","","",""
"","","","","","image-keyboard-response","162","504483","0.0-137.0","641397a5ea8f5954ad10fceb","665500ab8938657b03fbdba8","665796285d33de58ac3f00ca","2396","stimuli/0100011.jpg","0","","prediction_trial","0","","true","","0","true","true","false","true","false","true","[0]","100","011","1","","","","","","",""
"","","","","","image-keyboard-response","163","506131","0.0-138.0","641397a5ea8f5954ad10fceb","665500ab8938657b03fbdba8","665796285d33de58ac3f00ca","1641","stimuli/01000110.jpg"," ","","feedback_trial","0","","","","","","","","","","","","","","","","","","","","",""
"","","","","","image-keyboard-response","164","509651","0.0-139.0","641397a5ea8f5954ad10fceb","665500ab8938657b03fbdba8","665796285d33de58ac3f00ca","3515","stimuli/1001110.jpg","0","","prediction_trial","1","","false","","1","false","false","true","true","false","false","[1]","001","110","0","","","","","","",""
"","","","","","image-keyboard-response","165","510687","0.0-140.0","641397a5ea8f5954ad10fceb","665500ab8938657b03fbdba8","665796285d33de58ac3f00ca","1029","stimuli/10011101.jpg"," ","","feedback_trial","1","","","","","","","","","","","","","","","","","","","","",""
"","","","","","image-keyboard-response","166","514669","0.0-141.0","641397a5ea8f5954ad10fceb","665500ab8938657b03fbdba8","665796285d33de58ac3f00ca","3981","stimuli/2000111.jpg","0","","prediction_trial","2","","false","","2","false","false","true","true","false","false","[2]","000","111","0","","","","","","",""
"","","","","","image-keyboard-response","167","515369","0.0-142.0","641397a5ea8f5954ad10fceb","665500ab8938657b03fbdba8","665796285d33de58ac3f00ca","691","stimuli/20001112.jpg"," ","","feedback_trial","2","","","","","","","","","","","","","","","","","","","","",""
"","","","","","image-keyboard-response","168","516800","0.0-143.0","641397a5ea8f5954ad10fceb","665500ab8938657b03fbdba8","665796285d33de58ac3f00ca","1424","stimuli/1010000.jpg","1","","prediction_trial","1","","true","","1","true","true","false","true","false","true","[1]","010","000","1","","","","","","",""
"","","","","","image-keyboard-response","169","517441","0.0-144.0","641397a5ea8f5954ad10fceb","665500ab8938657b03fbdba8","665796285d33de58ac3f00ca","635","stimuli/10100001.jpg"," ","","feedback_trial","1","","","","","","","","","","","","","","","","","","","","",""
"","","","","","image-keyboard-response","170","520869","0.0-145.0","641397a5ea8f5954ad10fceb","665500ab8938657b03fbdba8","665796285d33de58ac3f00ca","3422","stimuli/0010110.jpg","1","","prediction_trial","0","","false","","0","false","false","true","true","false","false","[0]","010","110","0","","","","","","",""
"","","","","","image-keyboard-response","171","521940","0.0-146.0","641397a5ea8f5954ad10fceb","665500ab8938657b03fbdba8","665796285d33de58ac3f00ca","1065","stimuli/00101100.jpg"," ","","feedback_trial","0","","","","","","","","","","","","","","","","","","","","",""
"","","","","","image-keyboard-response","172","523540","0.0-147.0","641397a5ea8f5954ad10fceb","665500ab8938657b03fbdba8","665796285d33de58ac3f00ca","1594","stimuli/2111101.jpg","0","","prediction_trial","2","","false","","2","false","false","false","false","false","false","[0,1,2]","111","101","0","","","","","","",""
"","","","","","image-keyboard-response","173","524638","0.0-148.0","641397a5ea8f5954ad10fceb","665500ab8938657b03fbdba8","665796285d33de58ac3f00ca","1093","stimuli/21111012.jpg"," ","","feedback_trial","0","","","","","","","","","","","","","","","","","","","","",""
"","","","","","image-keyboard-response","174","526772","0.0-149.0","641397a5ea8f5954ad10fceb","665500ab8938657b03fbdba8","665796285d33de58ac3f00ca","2128","stimuli/2011011.jpg","1","","prediction_trial","1","","true","","2","false","false","false","false","false","false","[1,2]","011","011","1","","","","","","",""
"","","","","","image-keyboard-response","175","527636","0.0-150.0","641397a5ea8f5954ad10fceb","665500ab8938657b03fbdba8","665796285d33de58ac3f00ca","858","stimuli/20110111.jpg"," ","","feedback_trial","1","","","","","","","","","","","","","","","","","","","","",""
"","","","","","image-keyboard-response","176","529111","0.0-151.0","641397a5ea8f5954ad10fceb","665500ab8938657b03fbdba8","665796285d33de58ac3f00ca","1469","stimuli/2010011.jpg","1","","prediction_trial","2","","false","","2","false","false","true","true","false","false","[2]","010","011","0","","","","","","",""
"","","","","","image-keyboard-response","177","529978","0.0-152.0","641397a5ea8f5954ad10fceb","665500ab8938657b03fbdba8","665796285d33de58ac3f00ca","860","stimuli/20100112.jpg"," ","","feedback_trial","2","","","","","","","","","","","","","","","","","","","","",""
"","","","","","image-keyboard-response","178","532524","0.0-153.0","641397a5ea8f5954ad10fceb","665500ab8938657b03fbdba8","665796285d33de58ac3f00ca","2539","stimuli/0010111.jpg","1","","prediction_trial","0","","false","","0","false","false","true","true","false","false","[0]","010","111","0","","","","","","",""
"","","","","","image-keyboard-response","179","533394","0.0-154.0","641397a5ea8f5954ad10fceb","665500ab8938657b03fbdba8","665796285d33de58ac3f00ca","863","stimuli/00101110.jpg"," ","","feedback_trial","0","","","","","","","","","","","","","","","","","","","","",""
"","","","","","image-keyboard-response","180","535146","0.0-155.0","641397a5ea8f5954ad10fceb","665500ab8938657b03fbdba8","665796285d33de58ac3f00ca","1746","stimuli/1011010.jpg","1","","prediction_trial","1","","true","","1","false","true","false","false","false","false","[2,1]","011","010","1","","","","","","",""
"","","","","","image-keyboard-response","181","536361","0.0-156.0","641397a5ea8f5954ad10fceb","665500ab8938657b03fbdba8","665796285d33de58ac3f00ca","1209","stimuli/10110101.jpg"," ","","feedback_trial","2","","","","","","","","","","","","","","","","","","","","",""
"","","","","","image-keyboard-response","182","537599","0.0-157.0","641397a5ea8f5954ad10fceb","665500ab8938657b03fbdba8","665796285d33de58ac3f00ca","1232","stimuli/1000100.jpg","1","","prediction_trial","1","","true","","1","true","true","true","true","true","true","[1]","000","100","1","","","","","","",""
"","","","","","image-keyboard-response","183","538368","0.0-158.0","641397a5ea8f5954ad10fceb","665500ab8938657b03fbdba8","665796285d33de58ac3f00ca","763","stimuli/10001001.jpg"," ","","feedback_trial","1","","","","","","","","","","","","","","","","","","","","",""
"","","","","","image-keyboard-response","184","539627","0.0-159.0","641397a5ea8f5954ad10fceb","665500ab8938657b03fbdba8","665796285d33de58ac3f00ca","1253","stimuli/0110100.jpg","0","","prediction_trial","1","","false","","0","false","true","false","false","false","false","[1,0]","110","100","0","","","","","","",""
"","","","","","image-keyboard-response","185","540935","0.0-160.0","641397a5ea8f5954ad10fceb","665500ab8938657b03fbdba8","665796285d33de58ac3f00ca","1302","stimuli/01101001.jpg"," ","","feedback_trial","1","","","","","","","","","","","","","","","","","","","","",""
"","","","","","image-keyboard-response","186","543208","0.0-161.0","641397a5ea8f5954ad10fceb","665500ab8938657b03fbdba8","665796285d33de58ac3f00ca","2267","stimuli/2110111.jpg","1","","prediction_trial","2","","false","","2","false","false","true","true","false","false","[2]","110","111","0","","","","","","",""
"","","","","","image-keyboard-response","187","543854","0.0-162.0","641397a5ea8f5954ad10fceb","665500ab8938657b03fbdba8","665796285d33de58ac3f00ca","643","stimuli/21101112.jpg"," ","","feedback_trial","2","","","","","","","","","","","","","","","","","","","","",""
"","","","","","image-keyboard-response","188","546798","0.0-163.0","641397a5ea8f5954ad10fceb","665500ab8938657b03fbdba8","665796285d33de58ac3f00ca","2938","stimuli/0110110.jpg","1","","prediction_trial","1","","true","","0","false","false","false","false","false","false","[0,1]","110","110","1","","","","","","",""
"","","","","","image-keyboard-response","189","549811","0.0-164.0","641397a5ea8f5954ad10fceb","665500ab8938657b03fbdba8","665796285d33de58ac3f00ca","3004","stimuli/01101101.jpg"," ","","feedback_trial","0","","","","","","","","","","","","","","","","","","","","",""
"","","","","","image-keyboard-response","190","551596","0.0-165.0","641397a5ea8f5954ad10fceb","665500ab8938657b03fbdba8","665796285d33de58ac3f00ca","1777","stimuli/2011110.jpg","2","","prediction_trial","2","","true","","2","true","true","false","false","false","false","[1,2]","011","110","1","","","","","","",""
"","","","","","image-keyboard-response","191","552527","0.0-166.0","641397a5ea8f5954ad10fceb","665500ab8938657b03fbdba8","665796285d33de58ac3f00ca","924","stimuli/20111102.jpg"," ","","feedback_trial","1","","","","","","","","","","","","","","","","","","","","",""
"","","","","","image-keyboard-response","192","555306","0.0-167.0","641397a5ea8f5954ad10fceb","665500ab8938657b03fbdba8","665796285d33de58ac3f00ca","2774","stimuli/0000110.jpg","0","","prediction_trial","0","","true","","0","false","false","true","true","false","false","[0]","000","110","1","","","","","","",""
"","","","","","image-keyboard-response","193","556140","0.0-168.0","641397a5ea8f5954ad10fceb","665500ab8938657b03fbdba8","665796285d33de58ac3f00ca","828","stimuli/00001100.jpg"," ","","feedback_trial","0","","","","","","","","","","","","","","","","","","","","",""
"","","","","","image-keyboard-response","194","557488","0.0-169.0","641397a5ea8f5954ad10fceb","665500ab8938657b03fbdba8","665796285d33de58ac3f00ca","1345","stimuli/0001000.jpg","0","","prediction_trial","0","","true","","0","true","true","true","true","true","true","[0]","001","000","1","","","","","","",""
"","","","","","image-keyboard-response","195","558244","0.0-170.0","641397a5ea8f5954ad10fceb","665500ab8938657b03fbdba8","665796285d33de58ac3f00ca","749","stimuli/00010000.jpg"," ","","feedback_trial","0","","","","","","","","","","","","","","","","","","","","",""
"","","","","","image-keyboard-response","196","559145","0.0-171.0","641397a5ea8f5954ad10fceb","665500ab8938657b03fbdba8","665796285d33de58ac3f00ca","896","stimuli/1101100.jpg","1","","prediction_trial","1","","true","","1","true","true","true","true","true","true","[1]","101","100","1","","","","","","",""
"","","","","","image-keyboard-response","197","559748","0.0-172.0","641397a5ea8f5954ad10fceb","665500ab8938657b03fbdba8","665796285d33de58ac3f00ca","598","stimuli/11011001.jpg"," ","","feedback_trial","1","","","","","","","","","","","","","","","","","","","","",""
"","","","","","image-keyboard-response","198","560669","0.0-173.0","641397a5ea8f5954ad10fceb","665500ab8938657b03fbdba8","665796285d33de58ac3f00ca","917","stimuli/0011010.jpg","0","","prediction_trial","0","","true","","0","true","true","true","true","true","true","[0]","011","010","1","","","","","","",""
"","","","","","image-keyboard-response","199","561326","0.0-174.0","641397a5ea8f5954ad10fceb","665500ab8938657b03fbdba8","665796285d33de58ac3f00ca","651","stimuli/00110100.jpg"," ","","feedback_trial","0","","","","","","","","","","","","","","","","","","","","",""
"","","","","","image-keyboard-response","200","563038","0.0-175.0","641397a5ea8f5954ad10fceb","665500ab8938657b03fbdba8","665796285d33de58ac3f00ca","1655","stimuli/2000011.jpg","1","","prediction_trial","2","","false","","2","false","false","true","true","false","false","[2]","000","011","0","","","","","","",""
"","","","","","image-keyboard-response","201","563793","0.0-176.0","641397a5ea8f5954ad10fceb","665500ab8938657b03fbdba8","665796285d33de58ac3f00ca","749","stimuli/20000112.jpg"," ","","feedback_trial","2","","","","","","","","","","","","","","","","","","","","",""
"","","","","","image-keyboard-response","202","565726","0.0-177.0","641397a5ea8f5954ad10fceb","665500ab8938657b03fbdba8","665796285d33de58ac3f00ca","1927","stimuli/0100101.jpg","0","","prediction_trial","0","","true","","0","false","false","false","true","false","false","[0]","100","101","1","","","","","","",""
"","","","","","image-keyboard-response","203","566649","0.0-178.0","641397a5ea8f5954ad10fceb","665500ab8938657b03fbdba8","665796285d33de58ac3f00ca","917","stimuli/01001010.jpg"," ","","feedback_trial","0","","","","","","","","","","","","","","","","","","","","",""
"","","","","","image-keyboard-response","204","569743","0.0-179.0","641397a5ea8f5954ad10fceb","665500ab8938657b03fbdba8","665796285d33de58ac3f00ca","3090","stimuli/2100101.jpg","2","","prediction_trial","2","","true","","2","false","false","true","true","false","false","[2]","100","101","1","","","","","","",""
"","","","","","image-keyboard-response","205","570412","0.0-180.0","641397a5ea8f5954ad10fceb","665500ab8938657b03fbdba8","665796285d33de58ac3f00ca","663","stimuli/21001012.jpg"," ","","feedback_trial","2","","","","","","","","","","","","","","","","","","","","",""
"","","","","","image-keyboard-response","206","571936","0.0-181.0","641397a5ea8f5954ad10fceb","665500ab8938657b03fbdba8","665796285d33de58ac3f00ca","1518","stimuli/1011000.jpg","1","","prediction_trial","2","","false","","1","true","true","false","false","false","false","[2,1]","011","000","0","","","","","","",""
"","","","","","image-keyboard-response","207","573010","0.0-182.0","641397a5ea8f5954ad10fceb","665500ab8938657b03fbdba8","665796285d33de58ac3f00ca","1068","stimuli/10110002.jpg"," ","","feedback_trial","2","","","","","","","","","","","","","","","","","","","","",""
"","","","","","image-keyboard-response","208","577081","0.0-183.0","641397a5ea8f5954ad10fceb","665500ab8938657b03fbdba8","665796285d33de58ac3f00ca","4065","stimuli/2100011.jpg","2","","prediction_trial","2","","true","","2","false","false","true","true","false","false","[2]","100","011","1","","","","","","",""
"","","","","","image-keyboard-response","209","577848","0.0-184.0","641397a5ea8f5954ad10fceb","665500ab8938657b03fbdba8","665796285d33de58ac3f00ca","759","stimuli/21000112.jpg"," ","","feedback_trial","2","","","","","","","","","","","","","","","","","","","","",""
"","","","","","image-keyboard-response","210","580101","0.0-185.0","641397a5ea8f5954ad10fceb","665500ab8938657b03fbdba8","665796285d33de58ac3f00ca","2248","stimuli/0011111.jpg","1","","prediction_trial","0","","false","","0","false","false","true","true","false","false","[0]","011","111","0","","","","","","",""
"","","","","","image-keyboard-response","211","581666","0.0-186.0","641397a5ea8f5954ad10fceb","665500ab8938657b03fbdba8","665796285d33de58ac3f00ca","1556","stimuli/00111110.jpg"," ","","feedback_trial","0","","","","","","","","","","","","","","","","","","","","",""
"","","","","","image-keyboard-response","212","583208","0.0-187.0","641397a5ea8f5954ad10fceb","665500ab8938657b03fbdba8","665796285d33de58ac3f00ca","1536","stimuli/2001100.jpg","2","","prediction_trial","2","","true","","2","true","true","false","true","false","true","[2]","001","100","1","","","","","","",""
"","","","","","image-keyboard-response","213","584098","0.0-188.0","641397a5ea8f5954ad10fceb","665500ab8938657b03fbdba8","665796285d33de58ac3f00ca","884","stimuli/20011002.jpg"," ","","feedback_trial","2","","","","","","","","","","","","","","","","","","","","",""
"","","","","","image-keyboard-response","214","585155","0.0-189.0","641397a5ea8f5954ad10fceb","665500ab8938657b03fbdba8","665796285d33de58ac3f00ca","1051","stimuli/2110010.jpg","2","","prediction_trial","2","","true","","2","true","true","true","true","true","true","[2]","110","010","1","","","","","","",""
"","","","","","image-keyboard-response","215","585857","0.0-190.0","641397a5ea8f5954ad10fceb","665500ab8938657b03fbdba8","665796285d33de58ac3f00ca","699","stimuli/21100102.jpg"," ","","feedback_trial","2","","","","","","","","","","","","","","","","","","","","",""
"","","","","","image-keyboard-response","216","586831","0.0-191.0","641397a5ea8f5954ad10fceb","665500ab8938657b03fbdba8","665796285d33de58ac3f00ca","969","stimuli/2010010.jpg","2","","prediction_trial","2","","true","","2","true","true","true","true","true","true","[2]","010","010","1","","","","","","",""
"","","","","","image-keyboard-response","217","587533","0.0-192.0","641397a5ea8f5954ad10fceb","665500ab8938657b03fbdba8","665796285d33de58ac3f00ca","696","stimuli/20100102.jpg"," ","","feedback_trial","2","","","","","","","","","","","","","","","","","","","","",""
"","","","","","image-keyboard-response","218","589189","0.0-193.0","641397a5ea8f5954ad10fceb","665500ab8938657b03fbdba8","665796285d33de58ac3f00ca","1649","stimuli/2011100.jpg","2","","prediction_trial","2","","true","","2","true","true","false","false","false","false","[1,2]","011","100","1","","","","","","",""
"","","","","","image-keyboard-response","219","589875","0.0-194.0","641397a5ea8f5954ad10fceb","665500ab8938657b03fbdba8","665796285d33de58ac3f00ca","681","stimuli/20111002.jpg"," ","","feedback_trial","1","","","","","","","","","","","","","","","","","","","","",""
"","","","","","image-keyboard-response","220","591156","0.0-195.0","641397a5ea8f5954ad10fceb","665500ab8938657b03fbdba8","665796285d33de58ac3f00ca","1276","stimuli/2001001.jpg","2","","prediction_trial","2","","true","","2","false","true","false","true","false","true","[2]","001","001","1","","","","","","",""
"","","","","","image-keyboard-response","221","591854","0.0-196.0","641397a5ea8f5954ad10fceb","665500ab8938657b03fbdba8","665796285d33de58ac3f00ca","694","stimuli/20010012.jpg"," ","","feedback_trial","2","","","","","","","","","","","","","","","","","","","","",""
"","","","","","image-keyboard-response","222","594315","0.0-197.0","641397a5ea8f5954ad10fceb","665500ab8938657b03fbdba8","665796285d33de58ac3f00ca","2453","stimuli/0101011.jpg","2","","prediction_trial","0","","false","","0","true","true","false","false","false","false","[2,0]","101","011","0","","","","","","",""
"","","","","","image-keyboard-response","223","595155","0.0-198.0","641397a5ea8f5954ad10fceb","665500ab8938657b03fbdba8","665796285d33de58ac3f00ca","832","stimuli/01010110.jpg"," ","","feedback_trial","2","","","","","","","","","","","","","","","","","","","","",""
"","","","","","image-keyboard-response","224","596999","0.0-199.0","641397a5ea8f5954ad10fceb","665500ab8938657b03fbdba8","665796285d33de58ac3f00ca","1839","stimuli/2111000.jpg","2","","prediction_trial","1","","false","","2","true","true","false","false","false","false","[2,0,1]","111","000","0","","","","","","",""
"","","","","","image-keyboard-response","225","597961","0.0-200.0","641397a5ea8f5954ad10fceb","665500ab8938657b03fbdba8","665796285d33de58ac3f00ca","955","stimuli/21110001.jpg"," ","","feedback_trial","2","","","","","","","","","","","","","","","","","","","","",""
"","","","","","image-keyboard-response","226","598954","0.0-201.0","641397a5ea8f5954ad10fceb","665500ab8938657b03fbdba8","665796285d33de58ac3f00ca","989","stimuli/2110100.jpg","2","","prediction_trial","2","","true","","2","true","true","true","true","true","true","[2]","110","100","1","","","","","","",""
"","","","","","image-keyboard-response","227","599635","0.0-202.0","641397a5ea8f5954ad10fceb","665500ab8938657b03fbdba8","665796285d33de58ac3f00ca","676","stimuli/21101002.jpg"," ","","feedback_trial","2","","","","","","","","","","","","","","","","","","","","",""
"","","","","","image-keyboard-response","228","600731","0.0-203.0","641397a5ea8f5954ad10fceb","665500ab8938657b03fbdba8","665796285d33de58ac3f00ca","1091","stimuli/1000101.jpg","1","","prediction_trial","1","","true","","1","true","true","true","true","true","true","[1]","000","101","1","","","","","","",""
"","","","","","image-keyboard-response","229","601324","0.0-204.0","641397a5ea8f5954ad10fceb","665500ab8938657b03fbdba8","665796285d33de58ac3f00ca","586","stimuli/10001011.jpg"," ","","feedback_trial","1","","","","","","","","","","","","","","","","","","","","",""
"","","","","","image-keyboard-response","230","602588","0.0-205.0","641397a5ea8f5954ad10fceb","665500ab8938657b03fbdba8","665796285d33de58ac3f00ca","1259","stimuli/1011001.jpg","1","","prediction_trial","2","","false","","1","true","true","false","false","false","false","[2,1]","011","001","0","","","","","","",""
"","","","","","image-keyboard-response","231","603306","0.0-206.0","641397a5ea8f5954ad10fceb","665500ab8938657b03fbdba8","665796285d33de58ac3f00ca","712","stimuli/10110012.jpg"," ","","feedback_trial","2","","","","","","","","","","","","","","","","","","","","",""
"","","","","","image-keyboard-response","232","605194","0.0-207.0","641397a5ea8f5954ad10fceb","665500ab8938657b03fbdba8","665796285d33de58ac3f00ca","1883","stimuli/1011101.jpg","1","","prediction_trial","1","","true","","1","true","true","false","false","false","false","[1,2]","011","101","1","","","","","","",""
"","","","","","image-keyboard-response","233","605880","0.0-208.0","641397a5ea8f5954ad10fceb","665500ab8938657b03fbdba8","665796285d33de58ac3f00ca","682","stimuli/10111011.jpg"," ","","feedback_trial","1","","","","","","","","","","","","","","","","","","","","",""
"","","","","","image-keyboard-response","234","607533","0.0-209.0","641397a5ea8f5954ad10fceb","665500ab8938657b03fbdba8","665796285d33de58ac3f00ca","1647","stimuli/1010110.jpg","1","","prediction_trial","1","","true","","1","false","false","false","true","false","false","[1]","010","110","1","","","","","","",""
"","","","","","image-keyboard-response","235","608244","0.0-210.0","641397a5ea8f5954ad10fceb","665500ab8938657b03fbdba8","665796285d33de58ac3f00ca","704","stimuli/10101101.jpg"," ","","feedback_trial","1","","","","","","","","","","","","","","","","","","","","",""
"","","","","","image-keyboard-response","236","609358","0.0-211.0","641397a5ea8f5954ad10fceb","665500ab8938657b03fbdba8","665796285d33de58ac3f00ca","1109","stimuli/1001011.jpg","2","","prediction_trial","1","","false","","1","false","false","true","true","false","false","[1]","001","011","0","","","","","","",""
"","","","","","image-keyboard-response","237","610345","0.0-212.0","641397a5ea8f5954ad10fceb","665500ab8938657b03fbdba8","665796285d33de58ac3f00ca","982","stimuli/10010111.jpg"," ","","feedback_trial","1","","","","","","","","","","","","","","","","","","","","",""
"","","","","","image-keyboard-response","238","611345","0.0-213.0","641397a5ea8f5954ad10fceb","665500ab8938657b03fbdba8","665796285d33de58ac3f00ca","997","stimuli/2100100.jpg","2","","prediction_trial","2","","true","","2","true","true","true","true","true","true","[2]","100","100","1","","","","","","",""
"","","","","","image-keyboard-response","239","612052","0.0-214.0","641397a5ea8f5954ad10fceb","665500ab8938657b03fbdba8","665796285d33de58ac3f00ca","704","stimuli/21001002.jpg"," ","","feedback_trial","2","","","","","","","","","","","","","","","","","","","","",""
"","","","","","image-keyboard-response","240","612932","0.0-215.0","641397a5ea8f5954ad10fceb","665500ab8938657b03fbdba8","665796285d33de58ac3f00ca","877","stimuli/2110000.jpg","2","","prediction_trial","2","","true","","2","true","true","true","true","true","true","[2]","110","000","1","","","","","","",""
"","","","","","image-keyboard-response","241","613653","0.0-216.0","641397a5ea8f5954ad10fceb","665500ab8938657b03fbdba8","665796285d33de58ac3f00ca","717","stimuli/21100002.jpg"," ","","feedback_trial","2","","","","","","","","","","","","","","","","","","","","",""
"","","","","","image-keyboard-response","242","615494","0.0-217.0","641397a5ea8f5954ad10fceb","665500ab8938657b03fbdba8","665796285d33de58ac3f00ca","1835","stimuli/1011100.jpg","2","","prediction_trial","2","","true","","1","true","true","false","false","false","false","[2,1]","011","100","1","","","","","","",""
"","","","","","image-keyboard-response","243","616256","0.0-218.0","641397a5ea8f5954ad10fceb","665500ab8938657b03fbdba8","665796285d33de58ac3f00ca","756","stimuli/10111002.jpg"," ","","feedback_trial","2","","","","","","","","","","","","","","","","","","","","",""
"","","","","","image-keyboard-response","244","617700","0.0-219.0","641397a5ea8f5954ad10fceb","665500ab8938657b03fbdba8","665796285d33de58ac3f00ca","1397","stimuli/1000111.jpg","1","","prediction_trial","1","","true","","1","false","false","true","true","false","false","[1]","000","111","1","","","","","","",""
"","","","","","image-keyboard-response","245","618414","0.0-220.0","641397a5ea8f5954ad10fceb","665500ab8938657b03fbdba8","665796285d33de58ac3f00ca","706","stimuli/10001111.jpg"," ","","feedback_trial","1","","","","","","","","","","","","","","","","","","","","",""
"","","","","","image-keyboard-response","246","620039","0.0-221.0","641397a5ea8f5954ad10fceb","665500ab8938657b03fbdba8","665796285d33de58ac3f00ca","1618","stimuli/2110101.jpg","0","","prediction_trial","2","","false","","2","false","false","true","true","false","false","[2]","110","101","0","","","","","","",""
"","","","","","image-keyboard-response","247","621089","0.0-222.0","641397a5ea8f5954ad10fceb","665500ab8938657b03fbdba8","665796285d33de58ac3f00ca","1043","stimuli/21101012.jpg"," ","","feedback_trial","2","","","","","","","","","","","","","","","","","","","","",""
"","","","","","image-keyboard-response","248","622336","0.0-223.0","641397a5ea8f5954ad10fceb","665500ab8938657b03fbdba8","665796285d33de58ac3f00ca","1243","stimuli/2111010.jpg","2","","prediction_trial","2","","true","","2","true","true","false","false","false","false","[2,0,1]","111","010","1","","","","","","",""
"","","","","","image-keyboard-response","249","624882","0.0-224.0","641397a5ea8f5954ad10fceb","665500ab8938657b03fbdba8","665796285d33de58ac3f00ca","2539","stimuli/21110102.jpg"," ","","feedback_trial","2","","","","","","","","","","","","","","","","","","","","",""
"","","","","","image-keyboard-response","250","625857","0.0-225.0","641397a5ea8f5954ad10fceb","665500ab8938657b03fbdba8","665796285d33de58ac3f00ca","969","stimuli/0001001.jpg","0","","prediction_trial","0","","true","","0","true","true","true","true","true","true","[0]","001","001","1","","","","","","",""
"","","","","","image-keyboard-response","251","626391","0.0-226.0","641397a5ea8f5954ad10fceb","665500ab8938657b03fbdba8","665796285d33de58ac3f00ca","528","stimuli/00010010.jpg"," ","","feedback_trial","0","","","","","","","","","","","","","","","","","","","","",""
"","","","","","image-keyboard-response","252","628240","0.0-227.0","641397a5ea8f5954ad10fceb","665500ab8938657b03fbdba8","665796285d33de58ac3f00ca","1843","stimuli/1110100.jpg","1","","prediction_trial","0","","false","","1","true","true","false","false","false","false","[0,1]","110","100","0","","","","","","",""
"","","","","","image-keyboard-response","253","629044","0.0-228.0","641397a5ea8f5954ad10fceb","665500ab8938657b03fbdba8","665796285d33de58ac3f00ca","797","stimuli/11101000.jpg"," ","","feedback_trial","0","","","","","","","","","","","","","","","","","","","","",""
"","","","","","image-keyboard-response","254","630094","0.0-229.0","641397a5ea8f5954ad10fceb","665500ab8938657b03fbdba8","665796285d33de58ac3f00ca","1044","stimuli/0000010.jpg","0","","prediction_trial","0","","true","","0","true","true","true","true","true","true","[0]","000","010","1","","","","","","",""
"","","","","","image-keyboard-response","255","630482","0.0-230.0","641397a5ea8f5954ad10fceb","665500ab8938657b03fbdba8","665796285d33de58ac3f00ca","384","stimuli/00000100.jpg"," ","","feedback_trial","0","","","","","","","","","","","","","","","","","","","","",""
"","","","","","image-keyboard-response","256","631722","0.0-231.0","641397a5ea8f5954ad10fceb","665500ab8938657b03fbdba8","665796285d33de58ac3f00ca","1236","stimuli/2111110.jpg","2","","prediction_trial","0","","false","","2","true","true","false","false","false","false","[2,1,0]","111","110","0","","","","","","",""
"","","","","","image-keyboard-response","257","632722","0.0-232.0","641397a5ea8f5954ad10fceb","665500ab8938657b03fbdba8","665796285d33de58ac3f00ca","994","stimuli/21111100.jpg"," ","","feedback_trial","2","","","","","","","","","","","","","","","","","","","","",""
"","","","","","image-keyboard-response","258","634165","0.0-233.0","641397a5ea8f5954ad10fceb","665500ab8938657b03fbdba8","665796285d33de58ac3f00ca","1437","stimuli/1111110.jpg","1","","prediction_trial","2","","false","","1","false","false","false","false","false","false","[0,1,2]","111","110","0","","","","","","",""
"","","","","","image-keyboard-response","259","635034","0.0-234.0","641397a5ea8f5954ad10fceb","665500ab8938657b03fbdba8","665796285d33de58ac3f00ca","863","stimuli/11111102.jpg"," ","","feedback_trial","0","","","","","","","","","","","","","","","","","","","","",""
"","","","","","image-keyboard-response","260","637517","0.0-235.0","641397a5ea8f5954ad10fceb","665500ab8938657b03fbdba8","665796285d33de58ac3f00ca","2469","stimuli/1000010.jpg","1","","prediction_trial","1","","true","","1","false","true","true","true","false","true","[1]","000","010","1","","","","","","",""
"","","","","","image-keyboard-response","261","638292","0.0-236.0","641397a5ea8f5954ad10fceb","665500ab8938657b03fbdba8","665796285d33de58ac3f00ca","769","stimuli/10000101.jpg"," ","","feedback_trial","1","","","","","","","","","","","","","","","","","","","","",""
"","","","","","image-keyboard-response","262","639509","0.0-237.0","641397a5ea8f5954ad10fceb","665500ab8938657b03fbdba8","665796285d33de58ac3f00ca","1211","stimuli/1100001.jpg","1","","prediction_trial","1","","true","","1","true","true","true","true","true","true","[1]","100","001","1","","","","","","",""
"","","","","","image-keyboard-response","263","640029","0.0-238.0","641397a5ea8f5954ad10fceb","665500ab8938657b03fbdba8","665796285d33de58ac3f00ca","513","stimuli/11000011.jpg"," ","","feedback_trial","1","","","","","","","","","","","","","","","","","","","","",""
"","","","","","image-keyboard-response","264","641618","0.0-239.0","641397a5ea8f5954ad10fceb","665500ab8938657b03fbdba8","665796285d33de58ac3f00ca","1584","stimuli/1100010.jpg","1","","prediction_trial","1","","true","","1","false","true","true","true","false","true","[1]","100","010","1","","","","","","",""
"","","","","","image-keyboard-response","265","642349","0.0-240.0","641397a5ea8f5954ad10fceb","665500ab8938657b03fbdba8","665796285d33de58ac3f00ca","724","stimuli/11000101.jpg"," ","","feedback_trial","1","","","","","","","","","","","","","","","","","","","","",""
"","","","","","image-keyboard-response","266","643246","0.0-241.0","641397a5ea8f5954ad10fceb","665500ab8938657b03fbdba8","665796285d33de58ac3f00ca","847","stimuli/0010011.jpg","0","","prediction_trial","0","","true","","0","true","true","true","true","true","true","[0]","010","011","1","","","","","","",""
"","","","","","image-keyboard-response","267","643752","0.0-242.0","641397a5ea8f5954ad10fceb","665500ab8938657b03fbdba8","665796285d33de58ac3f00ca","498","stimuli/00100110.jpg"," ","","feedback_trial","0","","","","","","","","","","","","","","","","","","","","",""
"","","","","","image-keyboard-response","268","645365","0.0-243.0","641397a5ea8f5954ad10fceb","665500ab8938657b03fbdba8","665796285d33de58ac3f00ca","1608","stimuli/0010100.jpg","0","","prediction_trial","0","","true","","0","false","true","true","true","false","true","[0]","010","100","1","","","","","","",""
"","","","","","image-keyboard-response","269","646028","0.0-244.0","641397a5ea8f5954ad10fceb","665500ab8938657b03fbdba8","665796285d33de58ac3f00ca","657","stimuli/00101000.jpg"," ","","feedback_trial","0","","","","","","","","","","","","","","","","","","","","",""
"","","","","","image-keyboard-response","270","647013","0.0-245.0","641397a5ea8f5954ad10fceb","665500ab8938657b03fbdba8","665796285d33de58ac3f00ca","980","stimuli/0001010.jpg","0","","prediction_trial","0","","true","","0","true","true","true","true","true","true","[0]","001","010","1","","","","","","",""
"","","","","","image-keyboard-response","271","647650","0.0-246.0","641397a5ea8f5954ad10fceb","665500ab8938657b03fbdba8","665796285d33de58ac3f00ca","631","stimuli/00010100.jpg"," ","","feedback_trial","0","","","","","","","","","","","","","","","","","","","","",""
"","","","","","image-keyboard-response","272","649297","0.0-247.0","641397a5ea8f5954ad10fceb","665500ab8938657b03fbdba8","665796285d33de58ac3f00ca","1641","stimuli/2100111.jpg","0","","prediction_trial","2","","false","","2","false","false","true","true","false","false","[2]","100","111","0","","","","","","",""
"","","","","","image-keyboard-response","273","649914","0.0-248.0","641397a5ea8f5954ad10fceb","665500ab8938657b03fbdba8","665796285d33de58ac3f00ca","612","stimuli/21001112.jpg"," ","","feedback_trial","2","","","","","","","","","","","","","","","","","","","","",""
"","","","","","image-keyboard-response","274","650946","0.0-249.0","641397a5ea8f5954ad10fceb","665500ab8938657b03fbdba8","665796285d33de58ac3f00ca","1025","stimuli/0001011.jpg","0","","prediction_trial","0","","true","","0","true","true","true","true","true","true","[0]","001","011","1","","","","","","",""
"","","","","","image-keyboard-response","275","651507","0.0-250.0","641397a5ea8f5954ad10fceb","665500ab8938657b03fbdba8","665796285d33de58ac3f00ca","556","stimuli/00010110.jpg"," ","","feedback_trial","0","","","","","","","","","","","","","","","","","","","","",""
"","","","","","image-keyboard-response","276","652785","0.0-251.0","641397a5ea8f5954ad10fceb","665500ab8938657b03fbdba8","665796285d33de58ac3f00ca","1272","stimuli/1110110.jpg","1","","prediction_trial","0","","false","","1","false","false","false","false","false","false","[1,0]","110","110","0","","","","","","",""
"","","","","","image-keyboard-response","277","653631","0.0-252.0","641397a5ea8f5954ad10fceb","665500ab8938657b03fbdba8","665796285d33de58ac3f00ca","838","stimuli/11101100.jpg"," ","","feedback_trial","1","","","","","","","","","","","","","","","","","","","","",""
"","","","","","image-keyboard-response","278","654771","0.0-253.0","641397a5ea8f5954ad10fceb","665500ab8938657b03fbdba8","665796285d33de58ac3f00ca","1133","stimuli/2001000.jpg","2","","prediction_trial","2","","true","","2","true","true","false","true","false","true","[2]","001","000","1","","","","","","",""
"","","","","","image-keyboard-response","279","655526","0.0-254.0","641397a5ea8f5954ad10fceb","665500ab8938657b03fbdba8","665796285d33de58ac3f00ca","748","stimuli/20010002.jpg"," ","","feedback_trial","2","","","","","","","","","","","","","","","","","","","","",""
"","","","","","image-keyboard-response","280","657064","0.0-255.0","641397a5ea8f5954ad10fceb","665500ab8938657b03fbdba8","665796285d33de58ac3f00ca","1533","stimuli/1101111.jpg","0","","prediction_trial","1","","false","","1","false","false","true","true","false","false","[1]","101","111","0","","","","","","",""
"","","","","","image-keyboard-response","281","657682","0.0-256.0","641397a5ea8f5954ad10fceb","665500ab8938657b03fbdba8","665796285d33de58ac3f00ca","611","stimuli/11011111.jpg"," ","","feedback_trial","1","","","","","","","","","","","","","","","","","","","","",""
"","","","","","image-keyboard-response","282","659956","0.0-257.0","641397a5ea8f5954ad10fceb","665500ab8938657b03fbdba8","665796285d33de58ac3f00ca","2269","stimuli/1101110.jpg","0","","prediction_trial","1","","false","","1","false","false","true","true","false","false","[1]","101","110","0","","","","","","",""
"","","","","","image-keyboard-response","283","660791","0.0-258.0","641397a5ea8f5954ad10fceb","665500ab8938657b03fbdba8","665796285d33de58ac3f00ca","832","stimuli/11011101.jpg"," ","","feedback_trial","1","","","","","","","","","","","","","","","","","","","","",""
"","","","","","image-keyboard-response","284","661657","0.0-259.0","641397a5ea8f5954ad10fceb","665500ab8938657b03fbdba8","665796285d33de58ac3f00ca","861","stimuli/2010000.jpg","2","","prediction_trial","2","","true","","2","true","true","true","true","true","true","[2]","010","000","1","","","","","","",""
"","","","","","image-keyboard-response","285","662296","0.0-260.0","641397a5ea8f5954ad10fceb","665500ab8938657b03fbdba8","665796285d33de58ac3f00ca","636","stimuli/20100002.jpg"," ","","feedback_trial","2","","","","","","","","","","","","","","","","","","","","",""
"","","","","","image-keyboard-response","286","663789","0.0-261.0","641397a5ea8f5954ad10fceb","665500ab8938657b03fbdba8","665796285d33de58ac3f00ca","1488","stimuli/2001110.jpg","2","","prediction_trial","2","","true","","2","true","true","false","true","false","true","[2]","001","110","1","","","","","","",""
"","","","","","image-keyboard-response","287","664508","0.0-262.0","641397a5ea8f5954ad10fceb","665500ab8938657b03fbdba8","665796285d33de58ac3f00ca","715","stimuli/20011102.jpg"," ","","feedback_trial","2","","","","","","","","","","","","","","","","","","","","",""
"","","","","","image-keyboard-response","288","666264","0.0-263.0","641397a5ea8f5954ad10fceb","665500ab8938657b03fbdba8","665796285d33de58ac3f00ca","1723","stimuli/0100001.jpg","0","","prediction_trial","0","","true","","0","true","true","false","true","false","true","[0]","100","001","1","","","","","","",""
"","","","","","image-keyboard-response","289","667001","0.0-264.0","641397a5ea8f5954ad10fceb","665500ab8938657b03fbdba8","665796285d33de58ac3f00ca","731","stimuli/01000010.jpg"," ","","feedback_trial","0","","","","","","","","","","","","","","","","","","","","",""
"","","","","","image-keyboard-response","290","669582","0.0-265.0","641397a5ea8f5954ad10fceb","665500ab8938657b03fbdba8","665796285d33de58ac3f00ca","2576","stimuli/0101000.jpg","0","","prediction_trial","2","","false","","0","true","true","false","false","false","false","[0,2]","101","000","0","","","","","","",""
"","","","","","image-keyboard-response","291","670305","0.0-266.0","641397a5ea8f5954ad10fceb","665500ab8938657b03fbdba8","665796285d33de58ac3f00ca","716","stimuli/01010002.jpg"," ","","feedback_trial","0","","","","","","","","","","","","","","","","","","","","",""
"","","","","","image-keyboard-response","292","672051","0.0-267.0","641397a5ea8f5954ad10fceb","665500ab8938657b03fbdba8","665796285d33de58ac3f00ca","1743","stimuli/1001010.jpg","1","","prediction_trial","1","","true","","1","false","true","true","true","false","true","[1]","001","010","1","","","","","","",""
"","","","","","image-keyboard-response","293","673850","0.0-268.0","641397a5ea8f5954ad10fceb","665500ab8938657b03fbdba8","665796285d33de58ac3f00ca","1791","stimuli/10010101.jpg"," ","","feedback_trial","1","","","","","","","","","","","","","","","","","","","","",""
"","","","","","image-keyboard-response","294","674920","0.0-269.0","641397a5ea8f5954ad10fceb","665500ab8938657b03fbdba8","665796285d33de58ac3f00ca","1065","stimuli/1011111.jpg","2","","prediction_trial","1","","false","","1","false","false","false","false","false","false","[1,2]","011","111","0","","","","","","",""
"","","","","","image-keyboard-response","295","675808","0.0-270.0","641397a5ea8f5954ad10fceb","665500ab8938657b03fbdba8","665796285d33de58ac3f00ca","881","stimuli/10111111.jpg"," ","","feedback_trial","1","","","","","","","","","","","","","","","","","","","","",""
"","","","","","image-keyboard-response","296","677082","0.0-271.0","641397a5ea8f5954ad10fceb","665500ab8938657b03fbdba8","665796285d33de58ac3f00ca","1268","stimuli/1100011.jpg","0","","prediction_trial","1","","false","","1","false","false","true","true","false","false","[1]","100","011","0","","","","","","",""
"","","","","","image-keyboard-response","297","680781","0.0-272.0","641397a5ea8f5954ad10fceb","665500ab8938657b03fbdba8","665796285d33de58ac3f00ca","3693","stimuli/11000111.jpg"," ","","feedback_trial","1","","","","","","","","","","","","","","","","","","","","",""
"","","","","","image-keyboard-response","298","683425","0.0-273.0","641397a5ea8f5954ad10fceb","665500ab8938657b03fbdba8","665796285d33de58ac3f00ca","2638","stimuli/0001111.jpg","2","","prediction_trial","0","","false","","0","false","false","true","true","false","false","[0]","001","111","0","","","","","","",""
"","","","","","image-keyboard-response","299","684474","0.0-274.0","641397a5ea8f5954ad10fceb","665500ab8938657b03fbdba8","665796285d33de58ac3f00ca","1041","stimuli/00011110.jpg"," ","","feedback_trial","0","","","","","","","","","","","","","","","","","","","","",""
"","","","","","image-keyboard-response","300","686311","0.0-275.0","641397a5ea8f5954ad10fceb","665500ab8938657b03fbdba8","665796285d33de58ac3f00ca","1830","stimuli/2001011.jpg","2","","prediction_trial","2","","true","","2","false","false","false","true","false","false","[2]","001","011","1","","","","","","",""
"","","","","","image-keyboard-response","301","687183","0.0-276.0","641397a5ea8f5954ad10fceb","665500ab8938657b03fbdba8","665796285d33de58ac3f00ca","864","stimuli/20010112.jpg"," ","","feedback_trial","2","","","","","","","","","","","","","","","","","","","","",""
"","","","","","image-keyboard-response","302","688670","0.0-277.0","641397a5ea8f5954ad10fceb","665500ab8938657b03fbdba8","665796285d33de58ac3f00ca","1481","stimuli/2011000.jpg","2","","prediction_trial","1","","false","","2","true","true","false","false","false","false","[1,2]","011","000","0","","","","","","",""
"","","","","","image-keyboard-response","303","689627","0.0-278.0","641397a5ea8f5954ad10fceb","665500ab8938657b03fbdba8","665796285d33de58ac3f00ca","950","stimuli/20110001.jpg"," ","","feedback_trial","1","","","","","","","","","","","","","","","","","","","","",""
"","","","","","image-keyboard-response","304","690775","0.0-279.0","641397a5ea8f5954ad10fceb","665500ab8938657b03fbdba8","665796285d33de58ac3f00ca","1143","stimuli/2011010.jpg","2","","prediction_trial","1","","false","","2","true","true","false","false","false","false","[2,1]","011","010","0","","","","","","",""
"","","","","","image-keyboard-response","305","691886","0.0-280.0","641397a5ea8f5954ad10fceb","665500ab8938657b03fbdba8","665796285d33de58ac3f00ca","1105","stimuli/20110101.jpg"," ","","feedback_trial","2","","","","","","","","","","","","","","","","","","","","",""
"","","","","","image-keyboard-response","306","696812","0.0-281.0","641397a5ea8f5954ad10fceb","665500ab8938657b03fbdba8","665796285d33de58ac3f00ca","4920","stimuli/2100001.jpg","2","","prediction_trial","2","","true","","2","false","true","true","true","false","true","[2]","100","001","1","","","","","","",""
"","","","","","image-keyboard-response","307","697466","0.0-282.0","641397a5ea8f5954ad10fceb","665500ab8938657b03fbdba8","665796285d33de58ac3f00ca","648","stimuli/21000012.jpg"," ","","feedback_trial","2","","","","","","","","","","","","","","","","","","","","",""
"","","","","","image-keyboard-response","308","698732","0.0-283.0","641397a5ea8f5954ad10fceb","665500ab8938657b03fbdba8","665796285d33de58ac3f00ca","1260","stimuli/1100101.jpg","1","","prediction_trial","1","","true","","1","true","true","true","true","true","true","[1]","100","101","1","","","","","","",""
"","","","","","image-keyboard-response","309","699256","0.0-284.0","641397a5ea8f5954ad10fceb","665500ab8938657b03fbdba8","665796285d33de58ac3f00ca","518","stimuli/11001011.jpg"," ","","feedback_trial","1","","","","","","","","","","","","","","","","","","","","",""
"","","","","","image-keyboard-response","310","700919","0.0-285.0","641397a5ea8f5954ad10fceb","665500ab8938657b03fbdba8","665796285d33de58ac3f00ca","1621","stimuli/0111011.jpg","2","","prediction_trial","0","","false","","0","true","true","false","false","false","false","[2,1,0]","111","011","0","","","","","","",""
"","","","","","image-keyboard-response","311","701831","0.0-286.0","641397a5ea8f5954ad10fceb","665500ab8938657b03fbdba8","665796285d33de58ac3f00ca","904","stimuli/01110110.jpg"," ","","feedback_trial","2","","","","","","","","","","","","","","","","","","","","",""
"","","","","","image-keyboard-response","312","704899","0.0-287.0","641397a5ea8f5954ad10fceb","665500ab8938657b03fbdba8","665796285d33de58ac3f00ca","3061","stimuli/2001101.jpg","2","","prediction_trial","2","","true","","2","false","false","false","true","false","false","[2]","001","101","1","","","","","","",""
"","","","","","image-keyboard-response","313","705745","0.0-288.0","641397a5ea8f5954ad10fceb","665500ab8938657b03fbdba8","665796285d33de58ac3f00ca","840","stimuli/20011012.jpg"," ","","feedback_trial","2","","","","","","","","","","","","","","","","","","","","",""
"","","","","","image-keyboard-response","314","707359","0.0-289.0","641397a5ea8f5954ad10fceb","665500ab8938657b03fbdba8","665796285d33de58ac3f00ca","1608","stimuli/2000001.jpg","2","","prediction_trial","2","","true","","2","false","true","true","true","false","true","[2]","000","001","1","","","","","","",""
"","","","","","image-keyboard-response","315","708078","0.0-290.0","641397a5ea8f5954ad10fceb","665500ab8938657b03fbdba8","665796285d33de58ac3f00ca","712","stimuli/20000012.jpg"," ","","feedback_trial","2","","","","","","","","","","","","","","","","","","","","",""
"","","","","","image-keyboard-response","316","709486","0.0-291.0","641397a5ea8f5954ad10fceb","665500ab8938657b03fbdba8","665796285d33de58ac3f00ca","1402","stimuli/0100100.jpg","0","","prediction_trial","0","","true","","0","false","true","false","true","false","true","[0]","100","100","1","","","","","","",""
"","","","","","image-keyboard-response","317","710212","0.0-292.0","641397a5ea8f5954ad10fceb","665500ab8938657b03fbdba8","665796285d33de58ac3f00ca","719","stimuli/01001000.jpg"," ","","feedback_trial","0","","","","","","","","","","","","","","","","","","","","",""
"","","","","","survey-html-form","318","870145","0.0-293.0","641397a5ea8f5954ad10fceb","665500ab8938657b03fbdba8","665796285d33de58ac3f00ca","159916","","{""feedback"":""It was easier to respond when I could see some, if not all of what Sam could see. Other times I tried to follow a pattern, based on which selection Sam seemed to make more often prior to a selection in which I wasn't able to determine what they would pick based on what I could see. I did make 1 error, believe the answer couldn't be what I chose. "",""age"":""51"",""gender"":""Female"",""other_gender"":"""",""race"":""Black/African American"",""other_race"":"""",""ethnicity"":""Non-Hispanic""}","","exit_survey","","","","","","","","","","","","","","","","It was easier to respond when I could see some, if not all of what Sam could see. Other times I tried to follow a pattern, based on which selection Sam seemed to make more often prior to a selection in which I wasn't able to determine what they would pick based on what I could see. I did make 1 error, believe the answer couldn't be what I chose. ","51","Non-Hispanic","Female","Black/African American","0.6180555555555556","0.6180555555555556"
