"success","timeout","failed_images","failed_audio","failed_video","trial_type","trial_index","time_elapsed","internal_node_id","prolific_id","prolific_study_id","prolific_session_id","rt","stimulus","response","view_history","trial","character_choice","stimulus_dict","accuracy","correct_response","ball_pos","ego_ball_visible","ego_can_infer","alter_ball_visible","alter_can_infer","collective_ball_visible","collective_can_infer","search_locations","alter_occluders","ego_occluders","accuracy_bool","feedback","age","ethnicity","gender","race","overall_accuracy","bonus"
"true","false","[]","[]","[]","preload","0","3104","0.0-0.0","63b9d3abc3ddc61c8c08fd84","665500ab8938657b03fbdba8","665792a415c43f13423efe2a","","","","","","","","","","","","","","","","","","","","","","","","","","",""
"true","","","","","fullscreen","1","30091","0.0-1.0","63b9d3abc3ddc61c8c08fd84","665500ab8938657b03fbdba8","665792a415c43f13423efe2a","","","","","","","","","","","","","","","","","","","","","","","","","","",""
"","","","","","html-button-response","2","44664","0.0-2.0","63b9d3abc3ddc61c8c08fd84","665500ab8938657b03fbdba8","665792a415c43f13423efe2a","14571","<p><b>Consent Form</b></p> <div style=""text-align:left;background-color:lightgrey; padding:20px; max-width:900px;""><p>Please consider this information carefully before deciding whether to participate in this research.</p> <p>The purpose of this research is to examine which factors influence social judgment and decision-making. You will be asked to make judgements about individuals and actions in social scenarios. We are simply interested in your judgement. The study will take less than 1 hour to complete, and you will receive less than $20 on Prolific. Your compensation and time commitment are specified in the study description. There are no anticipated risks associated with participating in this study. The effects of participating should be comparable to those you would ordinarily experience from viewing a computer monitor and using a mouse or keyboard for a similar amount of time. At the end of the study, we will provide an explanation of the questions that motivate this line of research and will describe the potential implications. </p><p> Your participation in this study is completely voluntary and you may refuse to participate or you may choose to withdraw at any time without penalty or loss of benefits to you which are otherwise entitled. Your participation in this study will remain confidential. No personally identifiable information will be associated with your data. Also, all analyses of the data will be averaged across all the participants, so your individual responses will never be specifically analyzed. </p><p> If you have questions or concerns about your participation or payment, or want to request a summary of research findings, please contact Dr. Jonathan Phillips at Jonathan.S.Phillips@dartmouth.edu. </p><p> Please save a copy of this form for your records. </p><p><b>Agreement: </b>The nature and purpose of this research have been sufficiently explained and I agree to participate in this study. I understand that I am free to withdraw at any time without incurring any penalty. Please consent by clicking the button below to continue. Otherwise, please exit the study at any time. </p>","0","","","","","","","","","","","","","","","","","","","","","","","",""
"","","","","","instructions","3","170620","0.0-3.0-0.0","63b9d3abc3ddc61c8c08fd84","665500ab8938657b03fbdba8","665792a415c43f13423efe2a","125956","","","[{""page_index"":0,""viewing_time"":1493},{""page_index"":1,""viewing_time"":5695},{""page_index"":2,""viewing_time"":30945},{""page_index"":3,""viewing_time"":8558},{""page_index"":4,""viewing_time"":5129},{""page_index"":5,""viewing_time"":5208},{""page_index"":6,""viewing_time"":7736},{""page_index"":7,""viewing_time"":5754},{""page_index"":8,""viewing_time"":7101},{""page_index"":9,""viewing_time"":3926},{""page_index"":10,""viewing_time"":20015},{""page_index"":11,""viewing_time"":15127},{""page_index"":12,""viewing_time"":7783},{""page_index"":13,""viewing_time"":1486}]","intro","","","","","","","","","","","","","","","","","","","","","",""
"","","","","","image-keyboard-response","4","181060","0.0-3.0-1.0","63b9d3abc3ddc61c8c08fd84","665500ab8938657b03fbdba8","665792a415c43f13423efe2a","10437","stimuli/0110111.jpg","1","","prediction_practice","0","{""filepath"":""stimuli/0110111.jpg"",""ball_pos"":0,""ego_ball_visible"":false,""ego_can_infer"":false,""alter_ball_visible"":false,""alter_can_infer"":false,""collective_ball_visible"":false,""collective_can_infer"":false,""search_locations"":[0,1],""alter_occluders"":""110"",""ego_occluders"":""111""}","false","","","","","","","","","","","","","","","","","","",""
"","","","","","image-keyboard-response","5","184386","0.0-3.0-2.0","63b9d3abc3ddc61c8c08fd84","665500ab8938657b03fbdba8","665792a415c43f13423efe2a","3323","stimuli/01101110.jpg"," ","","practrice_feedback","0","","","","","","","","","","","","","","","","","","","","",""
"","","","","","image-keyboard-response","6","186692","0.0-3.0-3.0","63b9d3abc3ddc61c8c08fd84","665500ab8938657b03fbdba8","665792a415c43f13423efe2a","2304","stimuli/1010010.jpg","1","","prediction_practice","1","{""filepath"":""stimuli/1010010.jpg"",""ball_pos"":1,""ego_ball_visible"":false,""ego_can_infer"":true,""alter_ball_visible"":false,""alter_can_infer"":true,""collective_ball_visible"":false,""collective_can_infer"":true,""search_locations"":[1],""alter_occluders"":""010"",""ego_occluders"":""010""}","true","","","","","","","","","","","","","","","","","","",""
"","","","","","image-keyboard-response","7","188418","0.0-3.0-4.0","63b9d3abc3ddc61c8c08fd84","665500ab8938657b03fbdba8","665792a415c43f13423efe2a","1723","stimuli/10100101.jpg"," ","","practrice_feedback","1","","","","","","","","","","","","","","","","","","","","",""
"","","","","","image-keyboard-response","8","192272","0.0-3.0-5.0","63b9d3abc3ddc61c8c08fd84","665500ab8938657b03fbdba8","665792a415c43f13423efe2a","3853","stimuli/2111110.jpg","2","","prediction_practice","2","{""filepath"":""stimuli/2111110.jpg"",""ball_pos"":2,""ego_ball_visible"":true,""ego_can_infer"":true,""alter_ball_visible"":false,""alter_can_infer"":false,""collective_ball_visible"":false,""collective_can_infer"":false,""search_locations"":[0,2,1],""alter_occluders"":""111"",""ego_occluders"":""110""}","true","","","","","","","","","","","","","","","","","","",""
"","","","","","image-keyboard-response","9","194962","0.0-3.0-6.0","63b9d3abc3ddc61c8c08fd84","665500ab8938657b03fbdba8","665792a415c43f13423efe2a","2688","stimuli/21111102.jpg"," ","","practrice_feedback","0","","","","","","","","","","","","","","","","","","","","",""
"","","","","","image-keyboard-response","10","197942","0.0-3.0-7.0","63b9d3abc3ddc61c8c08fd84","665500ab8938657b03fbdba8","665792a415c43f13423efe2a","2977","stimuli/1110000.jpg","1","","prediction_practice","1","{""filepath"":""stimuli/1110000.jpg"",""ball_pos"":1,""ego_ball_visible"":true,""ego_can_infer"":true,""alter_ball_visible"":false,""alter_can_infer"":false,""collective_ball_visible"":false,""collective_can_infer"":false,""search_locations"":[0,1],""alter_occluders"":""110"",""ego_occluders"":""000""}","true","","","","","","","","","","","","","","","","","","",""
"","","","","","image-keyboard-response","11","199239","0.0-3.0-8.0","63b9d3abc3ddc61c8c08fd84","665500ab8938657b03fbdba8","665792a415c43f13423efe2a","1294","stimuli/11100001.jpg"," ","","practrice_feedback","0","","","","","","","","","","","","","","","","","","","","",""
"","","","","","image-keyboard-response","12","201802","0.0-3.0-9.0","63b9d3abc3ddc61c8c08fd84","665500ab8938657b03fbdba8","665792a415c43f13423efe2a","2561","stimuli/0011001.jpg","0","","prediction_practice","0","{""filepath"":""stimuli/0011001.jpg"",""ball_pos"":0,""ego_ball_visible"":true,""ego_can_infer"":true,""alter_ball_visible"":true,""alter_can_infer"":true,""collective_ball_visible"":true,""collective_can_infer"":true,""search_locations"":[0],""alter_occluders"":""011"",""ego_occluders"":""001""}","true","","","","","","","","","","","","","","","","","","",""
"","","","","","image-keyboard-response","13","204333","0.0-3.0-10.0","63b9d3abc3ddc61c8c08fd84","665500ab8938657b03fbdba8","665792a415c43f13423efe2a","2528","stimuli/00110010.jpg"," ","","practrice_feedback","0","","","","","","","","","","","","","","","","","","","","",""
"","","","","","image-keyboard-response","14","210489","0.0-3.0-11.0","63b9d3abc3ddc61c8c08fd84","665500ab8938657b03fbdba8","665792a415c43f13423efe2a","6154","stimuli/0010111.jpg","1","","prediction_practice","0","{""filepath"":""stimuli/0010111.jpg"",""ball_pos"":0,""ego_ball_visible"":false,""ego_can_infer"":false,""alter_ball_visible"":true,""alter_can_infer"":true,""collective_ball_visible"":false,""collective_can_infer"":false,""search_locations"":[0],""alter_occluders"":""010"",""ego_occluders"":""111""}","false","","","","","","","","","","","","","","","","","","",""
"","","","","","image-keyboard-response","15","212261","0.0-3.0-12.0","63b9d3abc3ddc61c8c08fd84","665500ab8938657b03fbdba8","665792a415c43f13423efe2a","1770","stimuli/00101110.jpg"," ","","practrice_feedback","0","","","","","","","","","","","","","","","","","","","","",""
"","","","","","image-keyboard-response","16","216704","0.0-3.0-13.0","63b9d3abc3ddc61c8c08fd84","665500ab8938657b03fbdba8","665792a415c43f13423efe2a","4442","stimuli/1101000.jpg","1","","prediction_practice","1","{""filepath"":""stimuli/1101000.jpg"",""ball_pos"":1,""ego_ball_visible"":true,""ego_can_infer"":true,""alter_ball_visible"":true,""alter_can_infer"":true,""collective_ball_visible"":true,""collective_can_infer"":true,""search_locations"":[1],""alter_occluders"":""101"",""ego_occluders"":""000""}","true","","","","","","","","","","","","","","","","","","",""
"","","","","","image-keyboard-response","17","217705","0.0-3.0-14.0","63b9d3abc3ddc61c8c08fd84","665500ab8938657b03fbdba8","665792a415c43f13423efe2a","1001","stimuli/11010001.jpg"," ","","practrice_feedback","1","","","","","","","","","","","","","","","","","","","","",""
"","","","","","image-keyboard-response","18","220496","0.0-3.0-15.0","63b9d3abc3ddc61c8c08fd84","665500ab8938657b03fbdba8","665792a415c43f13423efe2a","2785","stimuli/2000111.jpg","1","","prediction_practice","2","{""filepath"":""stimuli/2000111.jpg"",""ball_pos"":2,""ego_ball_visible"":false,""ego_can_infer"":false,""alter_ball_visible"":true,""alter_can_infer"":true,""collective_ball_visible"":false,""collective_can_infer"":false,""search_locations"":[2],""alter_occluders"":""000"",""ego_occluders"":""111""}","false","","","","","","","","","","","","","","","","","","",""
"","","","","","image-keyboard-response","19","221400","0.0-3.0-16.0","63b9d3abc3ddc61c8c08fd84","665500ab8938657b03fbdba8","665792a415c43f13423efe2a","901","stimuli/20001112.jpg"," ","","practrice_feedback","2","","","","","","","","","","","","","","","","","","","","",""
"","","","","","image-keyboard-response","20","224390","0.0-3.0-17.0","63b9d3abc3ddc61c8c08fd84","665500ab8938657b03fbdba8","665792a415c43f13423efe2a","2988","stimuli/1100011.jpg","1","","prediction_practice","1","{""filepath"":""stimuli/1100011.jpg"",""ball_pos"":1,""ego_ball_visible"":false,""ego_can_infer"":false,""alter_ball_visible"":true,""alter_can_infer"":true,""collective_ball_visible"":false,""collective_can_infer"":false,""search_locations"":[1],""alter_occluders"":""100"",""ego_occluders"":""011""}","true","","","","","","","","","","","","","","","","","","",""
"","","","","","image-keyboard-response","21","225555","0.0-3.0-18.0","63b9d3abc3ddc61c8c08fd84","665500ab8938657b03fbdba8","665792a415c43f13423efe2a","1163","stimuli/11000111.jpg"," ","","practrice_feedback","1","","","","","","","","","","","","","","","","","","","","",""
"","","","","","image-keyboard-response","22","228136","0.0-3.0-19.0","63b9d3abc3ddc61c8c08fd84","665500ab8938657b03fbdba8","665792a415c43f13423efe2a","2579","stimuli/0101101.jpg","0","","prediction_practice","0","{""filepath"":""stimuli/0101101.jpg"",""ball_pos"":0,""ego_ball_visible"":false,""ego_can_infer"":false,""alter_ball_visible"":false,""alter_can_infer"":false,""collective_ball_visible"":false,""collective_can_infer"":false,""search_locations"":[0,2],""alter_occluders"":""101"",""ego_occluders"":""101""}","true","","","","","","","","","","","","","","","","","","",""
"","","","","","image-keyboard-response","23","229004","0.0-3.0-20.0","63b9d3abc3ddc61c8c08fd84","665500ab8938657b03fbdba8","665792a415c43f13423efe2a","866","stimuli/01011010.jpg"," ","","practrice_feedback","0","","","","","","","","","","","","","","","","","","","","",""
"","","","","","html-button-response","24","240903","0.0-3.0-21.0","63b9d3abc3ddc61c8c08fd84","665500ab8938657b03fbdba8","665792a415c43f13423efe2a","11898","Now that you've had some practice, you'll be tested with a couple of easy trials. If you correctly predict Sam's choice, you'll move on to complete the experiment!","0","","","","","","","","","","","","","","","","","","","","","","","",""
"","","","","","image-keyboard-response","25","242895","0.0-3.0-22.0-0.0","63b9d3abc3ddc61c8c08fd84","665500ab8938657b03fbdba8","665792a415c43f13423efe2a","1988","stimuli/0000011.jpg","arrowleft","","comprehension_quiz","","","true","arrowleft","","","","","","","","","","","","","","","","","",""
"","","","","","image-keyboard-response","26","244660","0.0-3.0-22.0-1.0","63b9d3abc3ddc61c8c08fd84","665500ab8938657b03fbdba8","665792a415c43f13423efe2a","1762","stimuli/00000110.jpg"," ","","comprehension_quiz","","","true"," ","","","","","","","","","","","","","","","","","",""
"","","","","","image-keyboard-response","27","246897","0.0-3.0-22.0-2.0","63b9d3abc3ddc61c8c08fd84","665500ab8938657b03fbdba8","665792a415c43f13423efe2a","2236","stimuli/1010010.jpg","arrowdown","","comprehension_quiz","","","true","arrowdown","","","","","","","","","","","","","","","","","",""
"","","","","","image-keyboard-response","28","247891","0.0-3.0-22.0-3.0","63b9d3abc3ddc61c8c08fd84","665500ab8938657b03fbdba8","665792a415c43f13423efe2a","992","stimuli/10100101.jpg"," ","","comprehension_quiz","","","true"," ","","","","","","","","","","","","","","","","","",""
"","","","","","html-button-response","29","249020","0.0-4.0","63b9d3abc3ddc61c8c08fd84","665500ab8938657b03fbdba8","665792a415c43f13423efe2a","1129","The experiment will now begin.","0","","","","","","","","","","","","","","","","","","","","","","","",""
"","","","","","image-keyboard-response","30","251615","0.0-5.0","63b9d3abc3ddc61c8c08fd84","665500ab8938657b03fbdba8","665792a415c43f13423efe2a","2591","stimuli/0011100.jpg","0","","prediction_trial","0","","true","","0","false","true","true","true","false","true","[0]","011","100","1","","","","","","",""
"","","","","","image-keyboard-response","31","252504","0.0-6.0","63b9d3abc3ddc61c8c08fd84","665500ab8938657b03fbdba8","665792a415c43f13423efe2a","886","stimuli/00111000.jpg"," ","","feedback_trial","0","","","","","","","","","","","","","","","","","","","","",""
"","","","","","image-keyboard-response","32","255165","0.0-7.0","63b9d3abc3ddc61c8c08fd84","665500ab8938657b03fbdba8","665792a415c43f13423efe2a","2659","stimuli/0010100.jpg","0","","prediction_trial","0","","true","","0","false","true","true","true","false","true","[0]","010","100","1","","","","","","",""
"","","","","","image-keyboard-response","33","255520","0.0-8.0","63b9d3abc3ddc61c8c08fd84","665500ab8938657b03fbdba8","665792a415c43f13423efe2a","352","stimuli/00101000.jpg"," ","","feedback_trial","0","","","","","","","","","","","","","","","","","","","","",""
"","","","","","image-keyboard-response","34","259103","0.0-9.0","63b9d3abc3ddc61c8c08fd84","665500ab8938657b03fbdba8","665792a415c43f13423efe2a","3581","stimuli/2101100.jpg","2","","prediction_trial","2","","true","","2","true","true","false","false","false","false","[2,0]","101","100","1","","","","","","",""
"","","","","","image-keyboard-response","35","259989","0.0-10.0","63b9d3abc3ddc61c8c08fd84","665500ab8938657b03fbdba8","665792a415c43f13423efe2a","883","stimuli/21011002.jpg"," ","","feedback_trial","2","","","","","","","","","","","","","","","","","","","","",""
"","","","","","image-keyboard-response","36","263134","0.0-11.0","63b9d3abc3ddc61c8c08fd84","665500ab8938657b03fbdba8","665792a415c43f13423efe2a","3141","stimuli/2111100.jpg","2","","prediction_trial","0","","false","","2","true","true","false","false","false","false","[2,1,0]","111","100","0","","","","","","",""
"","","","","","image-keyboard-response","37","264000","0.0-12.0","63b9d3abc3ddc61c8c08fd84","665500ab8938657b03fbdba8","665792a415c43f13423efe2a","863","stimuli/21111000.jpg"," ","","feedback_trial","2","","","","","","","","","","","","","","","","","","","","",""
"","","","","","image-keyboard-response","38","267679","0.0-13.0","63b9d3abc3ddc61c8c08fd84","665500ab8938657b03fbdba8","665792a415c43f13423efe2a","3677","stimuli/2001011.jpg","1","","prediction_trial","2","","false","","2","false","false","false","true","false","false","[2]","001","011","0","","","","","","",""
"","","","","","image-keyboard-response","39","269268","0.0-14.0","63b9d3abc3ddc61c8c08fd84","665500ab8938657b03fbdba8","665792a415c43f13423efe2a","1587","stimuli/20010112.jpg"," ","","feedback_trial","2","","","","","","","","","","","","","","","","","","","","",""
"","","","","","image-keyboard-response","40","272934","0.0-15.0","63b9d3abc3ddc61c8c08fd84","665500ab8938657b03fbdba8","665792a415c43f13423efe2a","3664","stimuli/1001110.jpg","1","","prediction_trial","1","","true","","1","false","false","true","true","false","false","[1]","001","110","1","","","","","","",""
"","","","","","image-keyboard-response","41","273779","0.0-16.0","63b9d3abc3ddc61c8c08fd84","665500ab8938657b03fbdba8","665792a415c43f13423efe2a","841","stimuli/10011101.jpg"," ","","feedback_trial","1","","","","","","","","","","","","","","","","","","","","",""
"","","","","","image-keyboard-response","42","274992","0.0-17.0","63b9d3abc3ddc61c8c08fd84","665500ab8938657b03fbdba8","665792a415c43f13423efe2a","1211","stimuli/0011010.jpg","0","","prediction_trial","0","","true","","0","true","true","true","true","true","true","[0]","011","010","1","","","","","","",""
"","","","","","image-keyboard-response","43","275344","0.0-18.0","63b9d3abc3ddc61c8c08fd84","665500ab8938657b03fbdba8","665792a415c43f13423efe2a","349","stimuli/00110100.jpg"," ","","feedback_trial","0","","","","","","","","","","","","","","","","","","","","",""
"","","","","","image-keyboard-response","44","277747","0.0-19.0","63b9d3abc3ddc61c8c08fd84","665500ab8938657b03fbdba8","665792a415c43f13423efe2a","2400","stimuli/2010101.jpg","2","","prediction_trial","2","","true","","2","false","false","true","true","false","false","[2]","010","101","1","","","","","","",""
"","","","","","image-keyboard-response","45","278471","0.0-20.0","63b9d3abc3ddc61c8c08fd84","665500ab8938657b03fbdba8","665792a415c43f13423efe2a","722","stimuli/20101012.jpg"," ","","feedback_trial","2","","","","","","","","","","","","","","","","","","","","",""
"","","","","","image-keyboard-response","46","280021","0.0-21.0","63b9d3abc3ddc61c8c08fd84","665500ab8938657b03fbdba8","665792a415c43f13423efe2a","1547","stimuli/0100100.jpg","0","","prediction_trial","0","","true","","0","false","true","false","true","false","true","[0]","100","100","1","","","","","","",""
"","","","","","image-keyboard-response","47","281398","0.0-22.0","63b9d3abc3ddc61c8c08fd84","665500ab8938657b03fbdba8","665792a415c43f13423efe2a","1375","stimuli/01001000.jpg"," ","","feedback_trial","0","","","","","","","","","","","","","","","","","","","","",""
"","","","","","image-keyboard-response","48","284349","0.0-23.0","63b9d3abc3ddc61c8c08fd84","665500ab8938657b03fbdba8","665792a415c43f13423efe2a","2949","stimuli/2001101.jpg","2","","prediction_trial","2","","true","","2","false","false","false","true","false","false","[2]","001","101","1","","","","","","",""
"","","","","","image-keyboard-response","49","285102","0.0-24.0","63b9d3abc3ddc61c8c08fd84","665500ab8938657b03fbdba8","665792a415c43f13423efe2a","751","stimuli/20011012.jpg"," ","","feedback_trial","2","","","","","","","","","","","","","","","","","","","","",""
"","","","","","image-keyboard-response","50","288008","0.0-25.0","63b9d3abc3ddc61c8c08fd84","665500ab8938657b03fbdba8","665792a415c43f13423efe2a","2902","stimuli/2011100.jpg","2","","prediction_trial","2","","true","","2","true","true","false","false","false","false","[1,2]","011","100","1","","","","","","",""
"","","","","","image-keyboard-response","51","288711","0.0-26.0","63b9d3abc3ddc61c8c08fd84","665500ab8938657b03fbdba8","665792a415c43f13423efe2a","702","stimuli/20111002.jpg"," ","","feedback_trial","1","","","","","","","","","","","","","","","","","","","","",""
"","","","","","image-keyboard-response","52","290336","0.0-27.0","63b9d3abc3ddc61c8c08fd84","665500ab8938657b03fbdba8","665792a415c43f13423efe2a","1621","stimuli/1001101.jpg","1","","prediction_trial","1","","true","","1","true","true","true","true","true","true","[1]","001","101","1","","","","","","",""
"","","","","","image-keyboard-response","53","290721","0.0-28.0","63b9d3abc3ddc61c8c08fd84","665500ab8938657b03fbdba8","665792a415c43f13423efe2a","382","stimuli/10011011.jpg"," ","","feedback_trial","1","","","","","","","","","","","","","","","","","","","","",""
"","","","","","image-keyboard-response","54","292070","0.0-29.0","63b9d3abc3ddc61c8c08fd84","665500ab8938657b03fbdba8","665792a415c43f13423efe2a","1346","stimuli/2001100.jpg","2","","prediction_trial","2","","true","","2","true","true","false","true","false","true","[2]","001","100","1","","","","","","",""
"","","","","","image-keyboard-response","55","292717","0.0-30.0","63b9d3abc3ddc61c8c08fd84","665500ab8938657b03fbdba8","665792a415c43f13423efe2a","645","stimuli/20011002.jpg"," ","","feedback_trial","2","","","","","","","","","","","","","","","","","","","","",""
"","","","","","image-keyboard-response","56","294086","0.0-31.0","63b9d3abc3ddc61c8c08fd84","665500ab8938657b03fbdba8","665792a415c43f13423efe2a","1367","stimuli/0100001.jpg","0","","prediction_trial","0","","true","","0","true","true","false","true","false","true","[0]","100","001","1","","","","","","",""
"","","","","","image-keyboard-response","57","294744","0.0-32.0","63b9d3abc3ddc61c8c08fd84","665500ab8938657b03fbdba8","665792a415c43f13423efe2a","655","stimuli/01000010.jpg"," ","","feedback_trial","0","","","","","","","","","","","","","","","","","","","","",""
"","","","","","image-keyboard-response","58","299097","0.0-33.0","63b9d3abc3ddc61c8c08fd84","665500ab8938657b03fbdba8","665792a415c43f13423efe2a","4351","stimuli/0110001.jpg","1","","prediction_trial","1","","true","","0","true","true","false","false","false","false","[1,0]","110","001","1","","","","","","",""
"","","","","","image-keyboard-response","59","299714","0.0-34.0","63b9d3abc3ddc61c8c08fd84","665500ab8938657b03fbdba8","665792a415c43f13423efe2a","615","stimuli/01100011.jpg"," ","","feedback_trial","1","","","","","","","","","","","","","","","","","","","","",""
"","","","","","image-keyboard-response","60","302113","0.0-35.0","63b9d3abc3ddc61c8c08fd84","665500ab8938657b03fbdba8","665792a415c43f13423efe2a","2397","stimuli/0110110.jpg","0","","prediction_trial","0","","true","","0","false","false","false","false","false","false","[1,0]","110","110","1","","","","","","",""
"","","","","","image-keyboard-response","61","302929","0.0-36.0","63b9d3abc3ddc61c8c08fd84","665500ab8938657b03fbdba8","665792a415c43f13423efe2a","813","stimuli/01101100.jpg"," ","","feedback_trial","1","","","","","","","","","","","","","","","","","","","","",""
"","","","","","image-keyboard-response","62","306941","0.0-37.0","63b9d3abc3ddc61c8c08fd84","665500ab8938657b03fbdba8","665792a415c43f13423efe2a","4009","stimuli/0001101.jpg","2","","prediction_trial","0","","false","","0","false","false","true","true","false","false","[0]","001","101","0","","","","","","",""
"","","","","","image-keyboard-response","63","307554","0.0-38.0","63b9d3abc3ddc61c8c08fd84","665500ab8938657b03fbdba8","665792a415c43f13423efe2a","611","stimuli/00011010.jpg"," ","","feedback_trial","0","","","","","","","","","","","","","","","","","","","","",""
"","","","","","image-keyboard-response","64","309021","0.0-39.0","63b9d3abc3ddc61c8c08fd84","665500ab8938657b03fbdba8","665792a415c43f13423efe2a","1464","stimuli/0000001.jpg","0","","prediction_trial","0","","true","","0","true","true","true","true","true","true","[0]","000","001","1","","","","","","",""
"","","","","","image-keyboard-response","65","309438","0.0-40.0","63b9d3abc3ddc61c8c08fd84","665500ab8938657b03fbdba8","665792a415c43f13423efe2a","413","stimuli/00000010.jpg"," ","","feedback_trial","0","","","","","","","","","","","","","","","","","","","","",""
"","","","","","image-keyboard-response","66","310692","0.0-41.0","63b9d3abc3ddc61c8c08fd84","665500ab8938657b03fbdba8","665792a415c43f13423efe2a","1252","stimuli/2111001.jpg","2","","prediction_trial","0","","false","","2","false","true","false","false","false","false","[0,1,2]","111","001","0","","","","","","",""
"","","","","","image-keyboard-response","67","311050","0.0-42.0","63b9d3abc3ddc61c8c08fd84","665500ab8938657b03fbdba8","665792a415c43f13423efe2a","355","stimuli/21110010.jpg"," ","","feedback_trial","0","","","","","","","","","","","","","","","","","","","","",""
"","","","","","image-keyboard-response","68","314163","0.0-43.0","63b9d3abc3ddc61c8c08fd84","665500ab8938657b03fbdba8","665792a415c43f13423efe2a","3112","stimuli/0111010.jpg","0","","prediction_trial","2","","false","","0","true","true","false","false","false","false","[0,1,2]","111","010","0","","","","","","",""
"","","","","","image-keyboard-response","69","315214","0.0-44.0","63b9d3abc3ddc61c8c08fd84","665500ab8938657b03fbdba8","665792a415c43f13423efe2a","1048","stimuli/01110102.jpg"," ","","feedback_trial","0","","","","","","","","","","","","","","","","","","","","",""
"","","","","","image-keyboard-response","70","317120","0.0-45.0","63b9d3abc3ddc61c8c08fd84","665500ab8938657b03fbdba8","665792a415c43f13423efe2a","1903","stimuli/0001011.jpg","0","","prediction_trial","0","","true","","0","true","true","true","true","true","true","[0]","001","011","1","","","","","","",""
"","","","","","image-keyboard-response","71","317480","0.0-46.0","63b9d3abc3ddc61c8c08fd84","665500ab8938657b03fbdba8","665792a415c43f13423efe2a","357","stimuli/00010110.jpg"," ","","feedback_trial","0","","","","","","","","","","","","","","","","","","","","",""
"","","","","","image-keyboard-response","72","320396","0.0-47.0","63b9d3abc3ddc61c8c08fd84","665500ab8938657b03fbdba8","665792a415c43f13423efe2a","2914","stimuli/0011111.jpg","1","","prediction_trial","0","","false","","0","false","false","true","true","false","false","[0]","011","111","0","","","","","","",""
"","","","","","image-keyboard-response","73","321095","0.0-48.0","63b9d3abc3ddc61c8c08fd84","665500ab8938657b03fbdba8","665792a415c43f13423efe2a","696","stimuli/00111110.jpg"," ","","feedback_trial","0","","","","","","","","","","","","","","","","","","","","",""
"","","","","","image-keyboard-response","74","323326","0.0-49.0","63b9d3abc3ddc61c8c08fd84","665500ab8938657b03fbdba8","665792a415c43f13423efe2a","2229","stimuli/0101010.jpg","0","","prediction_trial","2","","false","","0","true","true","false","false","false","false","[0,2]","101","010","0","","","","","","",""
"","","","","","image-keyboard-response","75","323921","0.0-50.0","63b9d3abc3ddc61c8c08fd84","665500ab8938657b03fbdba8","665792a415c43f13423efe2a","592","stimuli/01010102.jpg"," ","","feedback_trial","0","","","","","","","","","","","","","","","","","","","","",""
"","","","","","image-keyboard-response","76","325810","0.0-51.0","63b9d3abc3ddc61c8c08fd84","665500ab8938657b03fbdba8","665792a415c43f13423efe2a","1888","stimuli/2101101.jpg","0","","prediction_trial","0","","true","","2","false","false","false","false","false","false","[2,0]","101","101","1","","","","","","",""
"","","","","","image-keyboard-response","77","326628","0.0-52.0","63b9d3abc3ddc61c8c08fd84","665500ab8938657b03fbdba8","665792a415c43f13423efe2a","816","stimuli/21011010.jpg"," ","","feedback_trial","2","","","","","","","","","","","","","","","","","","","","",""
"","","","","","image-keyboard-response","78","327949","0.0-53.0","63b9d3abc3ddc61c8c08fd84","665500ab8938657b03fbdba8","665792a415c43f13423efe2a","1318","stimuli/1110000.jpg","1","","prediction_trial","1","","true","","1","true","true","false","false","false","false","[0,1]","110","000","1","","","","","","",""
"","","","","","image-keyboard-response","79","328407","0.0-54.0","63b9d3abc3ddc61c8c08fd84","665500ab8938657b03fbdba8","665792a415c43f13423efe2a","456","stimuli/11100001.jpg"," ","","feedback_trial","0","","","","","","","","","","","","","","","","","","","","",""
"","","","","","image-keyboard-response","80","329939","0.0-55.0","63b9d3abc3ddc61c8c08fd84","665500ab8938657b03fbdba8","665792a415c43f13423efe2a","1529","stimuli/0101100.jpg","0","","prediction_trial","2","","false","","0","false","true","false","false","false","false","[2,0]","101","100","0","","","","","","",""
"","","","","","image-keyboard-response","81","331072","0.0-56.0","63b9d3abc3ddc61c8c08fd84","665500ab8938657b03fbdba8","665792a415c43f13423efe2a","1131","stimuli/01011002.jpg"," ","","feedback_trial","2","","","","","","","","","","","","","","","","","","","","",""
"","","","","","image-keyboard-response","82","332700","0.0-57.0","63b9d3abc3ddc61c8c08fd84","665500ab8938657b03fbdba8","665792a415c43f13423efe2a","1626","stimuli/1100110.jpg","0","","prediction_trial","1","","false","","1","false","false","true","true","false","false","[1]","100","110","0","","","","","","",""
"","","","","","image-keyboard-response","83","334039","0.0-58.0","63b9d3abc3ddc61c8c08fd84","665500ab8938657b03fbdba8","665792a415c43f13423efe2a","1335","stimuli/11001101.jpg"," ","","feedback_trial","1","","","","","","","","","","","","","","","","","","","","",""
"","","","","","image-keyboard-response","84","336035","0.0-59.0","63b9d3abc3ddc61c8c08fd84","665500ab8938657b03fbdba8","665792a415c43f13423efe2a","1993","stimuli/1011000.jpg","1","","prediction_trial","1","","true","","1","true","true","false","false","false","false","[1,2]","011","000","1","","","","","","",""
"","","","","","image-keyboard-response","85","336686","0.0-60.0","63b9d3abc3ddc61c8c08fd84","665500ab8938657b03fbdba8","665792a415c43f13423efe2a","647","stimuli/10110001.jpg"," ","","feedback_trial","1","","","","","","","","","","","","","","","","","","","","",""
"","","","","","image-keyboard-response","86","339084","0.0-61.0","63b9d3abc3ddc61c8c08fd84","665500ab8938657b03fbdba8","665792a415c43f13423efe2a","2396","stimuli/2111000.jpg","2","","prediction_trial","1","","false","","2","true","true","false","false","false","false","[1,2,0]","111","000","0","","","","","","",""
"","","","","","image-keyboard-response","87","340109","0.0-62.0","63b9d3abc3ddc61c8c08fd84","665500ab8938657b03fbdba8","665792a415c43f13423efe2a","1021","stimuli/21110001.jpg"," ","","feedback_trial","1","","","","","","","","","","","","","","","","","","","","",""
"","","","","","image-keyboard-response","88","342160","0.0-63.0","63b9d3abc3ddc61c8c08fd84","665500ab8938657b03fbdba8","665792a415c43f13423efe2a","2048","stimuli/0110010.jpg","0","","prediction_trial","1","","false","","0","true","true","false","false","false","false","[1,0]","110","010","0","","","","","","",""
"","","","","","image-keyboard-response","89","343104","0.0-64.0","63b9d3abc3ddc61c8c08fd84","665500ab8938657b03fbdba8","665792a415c43f13423efe2a","940","stimuli/01100101.jpg"," ","","feedback_trial","1","","","","","","","","","","","","","","","","","","","","",""
"","","","","","image-keyboard-response","90","344438","0.0-65.0","63b9d3abc3ddc61c8c08fd84","665500ab8938657b03fbdba8","665792a415c43f13423efe2a","1332","stimuli/1111010.jpg","1","","prediction_trial","0","","false","","1","false","true","false","false","false","false","[2,1,0]","111","010","0","","","","","","",""
"","","","","","image-keyboard-response","91","346040","0.0-66.0","63b9d3abc3ddc61c8c08fd84","665500ab8938657b03fbdba8","665792a415c43f13423efe2a","1600","stimuli/11110100.jpg"," ","","feedback_trial","2","","","","","","","","","","","","","","","","","","","","",""
"","","","","","image-keyboard-response","92","347757","0.0-67.0","63b9d3abc3ddc61c8c08fd84","665500ab8938657b03fbdba8","665792a415c43f13423efe2a","1715","stimuli/1000001.jpg","1","","prediction_trial","1","","true","","1","true","true","true","true","true","true","[1]","000","001","1","","","","","","",""
"","","","","","image-keyboard-response","93","348216","0.0-68.0","63b9d3abc3ddc61c8c08fd84","665500ab8938657b03fbdba8","665792a415c43f13423efe2a","456","stimuli/10000011.jpg"," ","","feedback_trial","1","","","","","","","","","","","","","","","","","","","","",""
"","","","","","image-keyboard-response","94","350537","0.0-69.0","63b9d3abc3ddc61c8c08fd84","665500ab8938657b03fbdba8","665792a415c43f13423efe2a","2319","stimuli/2011101.jpg","0","","prediction_trial","2","","false","","2","false","false","false","false","false","false","[1,2]","011","101","0","","","","","","",""
"","","","","","image-keyboard-response","95","351268","0.0-70.0","63b9d3abc3ddc61c8c08fd84","665500ab8938657b03fbdba8","665792a415c43f13423efe2a","727","stimuli/20111012.jpg"," ","","feedback_trial","1","","","","","","","","","","","","","","","","","","","","",""
"","","","","","image-keyboard-response","96","353096","0.0-71.0","63b9d3abc3ddc61c8c08fd84","665500ab8938657b03fbdba8","665792a415c43f13423efe2a","1825","stimuli/0101001.jpg","0","","prediction_trial","2","","false","","0","true","true","false","false","false","false","[0,2]","101","001","0","","","","","","",""
"","","","","","image-keyboard-response","97","354025","0.0-72.0","63b9d3abc3ddc61c8c08fd84","665500ab8938657b03fbdba8","665792a415c43f13423efe2a","925","stimuli/01010012.jpg"," ","","feedback_trial","0","","","","","","","","","","","","","","","","","","","","",""
"","","","","","image-keyboard-response","98","355789","0.0-73.0","63b9d3abc3ddc61c8c08fd84","665500ab8938657b03fbdba8","665792a415c43f13423efe2a","1763","stimuli/0100110.jpg","0","","prediction_trial","0","","true","","0","false","false","false","true","false","false","[0]","100","110","1","","","","","","",""
"","","","","","image-keyboard-response","99","356689","0.0-74.0","63b9d3abc3ddc61c8c08fd84","665500ab8938657b03fbdba8","665792a415c43f13423efe2a","896","stimuli/01001100.jpg"," ","","feedback_trial","0","","","","","","","","","","","","","","","","","","","","",""
"","","","","","image-keyboard-response","100","357787","0.0-75.0","63b9d3abc3ddc61c8c08fd84","665500ab8938657b03fbdba8","665792a415c43f13423efe2a","1095","stimuli/1110010.jpg","1","","prediction_trial","0","","false","","1","false","true","false","false","false","false","[1,0]","110","010","0","","","","","","",""
"","","","","","image-keyboard-response","101","358888","0.0-76.0","63b9d3abc3ddc61c8c08fd84","665500ab8938657b03fbdba8","665792a415c43f13423efe2a","1099","stimuli/11100100.jpg"," ","","feedback_trial","1","","","","","","","","","","","","","","","","","","","","",""
"","","","","","image-keyboard-response","102","362655","0.0-77.0","63b9d3abc3ddc61c8c08fd84","665500ab8938657b03fbdba8","665792a415c43f13423efe2a","3764","stimuli/0000110.jpg","1","","prediction_trial","0","","false","","0","false","false","true","true","false","false","[0]","000","110","0","","","","","","",""
"","","","","","image-keyboard-response","103","363230","0.0-78.0","63b9d3abc3ddc61c8c08fd84","665500ab8938657b03fbdba8","665792a415c43f13423efe2a","572","stimuli/00001100.jpg"," ","","feedback_trial","0","","","","","","","","","","","","","","","","","","","","",""
"","","","","","image-keyboard-response","104","364203","0.0-79.0","63b9d3abc3ddc61c8c08fd84","665500ab8938657b03fbdba8","665792a415c43f13423efe2a","972","stimuli/1010011.jpg","1","","prediction_trial","1","","true","","1","false","false","false","true","false","false","[1]","010","011","1","","","","","","",""
"","","","","","image-keyboard-response","105","365079","0.0-80.0","63b9d3abc3ddc61c8c08fd84","665500ab8938657b03fbdba8","665792a415c43f13423efe2a","874","stimuli/10100111.jpg"," ","","feedback_trial","1","","","","","","","","","","","","","","","","","","","","",""
"","","","","","image-keyboard-response","106","367125","0.0-81.0","63b9d3abc3ddc61c8c08fd84","665500ab8938657b03fbdba8","665792a415c43f13423efe2a","2044","stimuli/2111011.jpg","2","","prediction_trial","0","","false","","2","false","false","false","false","false","false","[0,2,1]","111","011","0","","","","","","",""
"","","","","","image-keyboard-response","107","368080","0.0-82.0","63b9d3abc3ddc61c8c08fd84","665500ab8938657b03fbdba8","665792a415c43f13423efe2a","951","stimuli/21110110.jpg"," ","","feedback_trial","0","","","","","","","","","","","","","","","","","","","","",""
"","","","","","image-keyboard-response","108","369654","0.0-83.0","63b9d3abc3ddc61c8c08fd84","665500ab8938657b03fbdba8","665792a415c43f13423efe2a","1571","stimuli/0110100.jpg","0","","prediction_trial","0","","true","","0","false","true","false","false","false","false","[1,0]","110","100","1","","","","","","",""
"","","","","","image-keyboard-response","109","370592","0.0-84.0","63b9d3abc3ddc61c8c08fd84","665500ab8938657b03fbdba8","665792a415c43f13423efe2a","936","stimuli/01101000.jpg"," ","","feedback_trial","1","","","","","","","","","","","","","","","","","","","","",""
"","","","","","image-keyboard-response","110","371728","0.0-85.0","63b9d3abc3ddc61c8c08fd84","665500ab8938657b03fbdba8","665792a415c43f13423efe2a","1133","stimuli/1001000.jpg","1","","prediction_trial","1","","true","","1","true","true","true","true","true","true","[1]","001","000","1","","","","","","",""
"","","","","","image-keyboard-response","111","372109","0.0-86.0","63b9d3abc3ddc61c8c08fd84","665500ab8938657b03fbdba8","665792a415c43f13423efe2a","380","stimuli/10010001.jpg"," ","","feedback_trial","1","","","","","","","","","","","","","","","","","","","","",""
"","","","","","image-keyboard-response","112","374392","0.0-87.0","63b9d3abc3ddc61c8c08fd84","665500ab8938657b03fbdba8","665792a415c43f13423efe2a","2280","stimuli/1111111.jpg","2","","prediction_trial","0","","false","","1","false","false","false","false","false","false","[2,0,1]","111","111","0","","","","","","",""
"","","","","","image-keyboard-response","113","374994","0.0-88.0","63b9d3abc3ddc61c8c08fd84","665500ab8938657b03fbdba8","665792a415c43f13423efe2a","599","stimuli/11111110.jpg"," ","","feedback_trial","2","","","","","","","","","","","","","","","","","","","","",""
"","","","","","image-keyboard-response","114","380101","0.0-89.0","63b9d3abc3ddc61c8c08fd84","665500ab8938657b03fbdba8","665792a415c43f13423efe2a","5106","stimuli/1101110.jpg","1","","prediction_trial","1","","true","","1","false","false","true","true","false","false","[1]","101","110","1","","","","","","",""
"","","","","","image-keyboard-response","115","380966","0.0-90.0","63b9d3abc3ddc61c8c08fd84","665500ab8938657b03fbdba8","665792a415c43f13423efe2a","861","stimuli/11011101.jpg"," ","","feedback_trial","1","","","","","","","","","","","","","","","","","","","","",""
"","","","","","image-keyboard-response","116","382269","0.0-91.0","63b9d3abc3ddc61c8c08fd84","665500ab8938657b03fbdba8","665792a415c43f13423efe2a","1301","stimuli/0011001.jpg","0","","prediction_trial","0","","true","","0","true","true","true","true","true","true","[0]","011","001","1","","","","","","",""
"","","","","","image-keyboard-response","117","382792","0.0-92.0","63b9d3abc3ddc61c8c08fd84","665500ab8938657b03fbdba8","665792a415c43f13423efe2a","521","stimuli/00110010.jpg"," ","","feedback_trial","0","","","","","","","","","","","","","","","","","","","","",""
"","","","","","image-keyboard-response","118","384347","0.0-93.0","63b9d3abc3ddc61c8c08fd84","665500ab8938657b03fbdba8","665792a415c43f13423efe2a","1552","stimuli/2011111.jpg","1","","prediction_trial","2","","false","","2","false","false","false","false","false","false","[2,1]","011","111","0","","","","","","",""
"","","","","","image-keyboard-response","119","385068","0.0-94.0","63b9d3abc3ddc61c8c08fd84","665500ab8938657b03fbdba8","665792a415c43f13423efe2a","717","stimuli/20111112.jpg"," ","","feedback_trial","2","","","","","","","","","","","","","","","","","","","","",""
"","","","","","image-keyboard-response","120","385970","0.0-95.0","63b9d3abc3ddc61c8c08fd84","665500ab8938657b03fbdba8","665792a415c43f13423efe2a","899","stimuli/1011100.jpg","1","","prediction_trial","1","","true","","1","true","true","false","false","false","false","[1,2]","011","100","1","","","","","","",""
"","","","","","image-keyboard-response","121","386690","0.0-96.0","63b9d3abc3ddc61c8c08fd84","665500ab8938657b03fbdba8","665792a415c43f13423efe2a","719","stimuli/10111001.jpg"," ","","feedback_trial","1","","","","","","","","","","","","","","","","","","","","",""
"","","","","","image-keyboard-response","122","387852","0.0-97.0","63b9d3abc3ddc61c8c08fd84","665500ab8938657b03fbdba8","665792a415c43f13423efe2a","1158","stimuli/1110011.jpg","0","","prediction_trial","0","","true","","1","false","false","false","false","false","false","[0,1]","110","011","1","","","","","","",""
"","","","","","image-keyboard-response","123","389068","0.0-98.0","63b9d3abc3ddc61c8c08fd84","665500ab8938657b03fbdba8","665792a415c43f13423efe2a","1214","stimuli/11100110.jpg"," ","","feedback_trial","0","","","","","","","","","","","","","","","","","","","","",""
"","","","","","image-keyboard-response","124","392565","0.0-99.0","63b9d3abc3ddc61c8c08fd84","665500ab8938657b03fbdba8","665792a415c43f13423efe2a","3494","stimuli/2110101.jpg","2","","prediction_trial","2","","true","","2","false","false","true","true","false","false","[2]","110","101","1","","","","","","",""
"","","","","","image-keyboard-response","125","393236","0.0-100.0","63b9d3abc3ddc61c8c08fd84","665500ab8938657b03fbdba8","665792a415c43f13423efe2a","668","stimuli/21101012.jpg"," ","","feedback_trial","2","","","","","","","","","","","","","","","","","","","","",""
"","","","","","image-keyboard-response","126","395367","0.0-101.0","63b9d3abc3ddc61c8c08fd84","665500ab8938657b03fbdba8","665792a415c43f13423efe2a","2129","stimuli/0011000.jpg","1","","prediction_trial","0","","false","","0","true","true","true","true","true","true","[0]","011","000","0","","","","","","",""
"","","","","","image-keyboard-response","127","397014","0.0-102.0","63b9d3abc3ddc61c8c08fd84","665500ab8938657b03fbdba8","665792a415c43f13423efe2a","1644","stimuli/00110000.jpg"," ","","feedback_trial","0","","","","","","","","","","","","","","","","","","","","",""
"","","","","","image-keyboard-response","128","398065","0.0-103.0","63b9d3abc3ddc61c8c08fd84","665500ab8938657b03fbdba8","665792a415c43f13423efe2a","1049","stimuli/2100100.jpg","2","","prediction_trial","2","","true","","2","true","true","true","true","true","true","[2]","100","100","1","","","","","","",""
"","","","","","image-keyboard-response","129","398483","0.0-104.0","63b9d3abc3ddc61c8c08fd84","665500ab8938657b03fbdba8","665792a415c43f13423efe2a","416","stimuli/21001002.jpg"," ","","feedback_trial","2","","","","","","","","","","","","","","","","","","","","",""
"","","","","","image-keyboard-response","130","402852","0.0-105.0","63b9d3abc3ddc61c8c08fd84","665500ab8938657b03fbdba8","665792a415c43f13423efe2a","4366","stimuli/2100000.jpg","2","","prediction_trial","2","","true","","2","true","true","true","true","true","true","[2]","100","000","1","","","","","","",""
"","","","","","image-keyboard-response","131","403388","0.0-106.0","63b9d3abc3ddc61c8c08fd84","665500ab8938657b03fbdba8","665792a415c43f13423efe2a","533","stimuli/21000002.jpg"," ","","feedback_trial","2","","","","","","","","","","","","","","","","","","","","",""
"","","","","","image-keyboard-response","132","405167","0.0-107.0","63b9d3abc3ddc61c8c08fd84","665500ab8938657b03fbdba8","665792a415c43f13423efe2a","1776","stimuli/2101111.jpg","1","","prediction_trial","0","","false","","2","false","false","false","false","false","false","[2,0]","101","111","0","","","","","","",""
"","","","","","image-keyboard-response","133","405892","0.0-108.0","63b9d3abc3ddc61c8c08fd84","665500ab8938657b03fbdba8","665792a415c43f13423efe2a","722","stimuli/21011110.jpg"," ","","feedback_trial","2","","","","","","","","","","","","","","","","","","","","",""
"","","","","","image-keyboard-response","134","408139","0.0-109.0","63b9d3abc3ddc61c8c08fd84","665500ab8938657b03fbdba8","665792a415c43f13423efe2a","2245","stimuli/2111010.jpg","2","","prediction_trial","2","","true","","2","true","true","false","false","false","false","[1,2,0]","111","010","1","","","","","","",""
"","","","","","image-keyboard-response","135","408812","0.0-110.0","63b9d3abc3ddc61c8c08fd84","665500ab8938657b03fbdba8","665792a415c43f13423efe2a","670","stimuli/21110102.jpg"," ","","feedback_trial","1","","","","","","","","","","","","","","","","","","","","",""
"","","","","","image-keyboard-response","136","410204","0.0-111.0","63b9d3abc3ddc61c8c08fd84","665500ab8938657b03fbdba8","665792a415c43f13423efe2a","1389","stimuli/2110110.jpg","2","","prediction_trial","2","","true","","2","true","true","true","true","true","true","[2]","110","110","1","","","","","","",""
"","","","","","image-keyboard-response","137","410551","0.0-112.0","63b9d3abc3ddc61c8c08fd84","665500ab8938657b03fbdba8","665792a415c43f13423efe2a","342","stimuli/21101102.jpg"," ","","feedback_trial","2","","","","","","","","","","","","","","","","","","","","",""
"","","","","","image-keyboard-response","138","413454","0.0-113.0","63b9d3abc3ddc61c8c08fd84","665500ab8938657b03fbdba8","665792a415c43f13423efe2a","2901","stimuli/2000011.jpg","1","","prediction_trial","2","","false","","2","false","false","true","true","false","false","[2]","000","011","0","","","","","","",""
"","","","","","image-keyboard-response","139","414350","0.0-114.0","63b9d3abc3ddc61c8c08fd84","665500ab8938657b03fbdba8","665792a415c43f13423efe2a","893","stimuli/20000112.jpg"," ","","feedback_trial","2","","","","","","","","","","","","","","","","","","","","",""
"","","","","","image-keyboard-response","140","415485","0.0-115.0","63b9d3abc3ddc61c8c08fd84","665500ab8938657b03fbdba8","665792a415c43f13423efe2a","1133","stimuli/2101110.jpg","2","","prediction_trial","2","","true","","2","true","true","false","false","false","false","[0,2]","101","110","1","","","","","","",""
"","","","","","image-keyboard-response","141","416043","0.0-116.0","63b9d3abc3ddc61c8c08fd84","665500ab8938657b03fbdba8","665792a415c43f13423efe2a","554","stimuli/21011102.jpg"," ","","feedback_trial","0","","","","","","","","","","","","","","","","","","","","",""
"","","","","","image-keyboard-response","142","417039","0.0-117.0","63b9d3abc3ddc61c8c08fd84","665500ab8938657b03fbdba8","665792a415c43f13423efe2a","994","stimuli/2101000.jpg","2","","prediction_trial","0","","false","","2","true","true","false","false","false","false","[2,0]","101","000","0","","","","","","",""
"","","","","","image-keyboard-response","143","417633","0.0-118.0","63b9d3abc3ddc61c8c08fd84","665500ab8938657b03fbdba8","665792a415c43f13423efe2a","591","stimuli/21010000.jpg"," ","","feedback_trial","2","","","","","","","","","","","","","","","","","","","","",""
"","","","","","image-keyboard-response","144","418639","0.0-119.0","63b9d3abc3ddc61c8c08fd84","665500ab8938657b03fbdba8","665792a415c43f13423efe2a","1003","stimuli/1000101.jpg","1","","prediction_trial","1","","true","","1","true","true","true","true","true","true","[1]","000","101","1","","","","","","",""
"","","","","","image-keyboard-response","145","418980","0.0-120.0","63b9d3abc3ddc61c8c08fd84","665500ab8938657b03fbdba8","665792a415c43f13423efe2a","338","stimuli/10001011.jpg"," ","","feedback_trial","1","","","","","","","","","","","","","","","","","","","","",""
"","","","","","image-keyboard-response","146","420029","0.0-121.0","63b9d3abc3ddc61c8c08fd84","665500ab8938657b03fbdba8","665792a415c43f13423efe2a","1046","stimuli/1101000.jpg","1","","prediction_trial","1","","true","","1","true","true","true","true","true","true","[1]","101","000","1","","","","","","",""
"","","","","","image-keyboard-response","147","420402","0.0-122.0","63b9d3abc3ddc61c8c08fd84","665500ab8938657b03fbdba8","665792a415c43f13423efe2a","369","stimuli/11010001.jpg"," ","","feedback_trial","1","","","","","","","","","","","","","","","","","","","","",""
"","","","","","image-keyboard-response","148","421116","0.0-123.0","63b9d3abc3ddc61c8c08fd84","665500ab8938657b03fbdba8","665792a415c43f13423efe2a","712","stimuli/1101100.jpg","1","","prediction_trial","1","","true","","1","true","true","true","true","true","true","[1]","101","100","1","","","","","","",""
"","","","","","image-keyboard-response","149","421515","0.0-124.0","63b9d3abc3ddc61c8c08fd84","665500ab8938657b03fbdba8","665792a415c43f13423efe2a","398","stimuli/11011001.jpg"," ","","feedback_trial","1","","","","","","","","","","","","","","","","","","","","",""
"","","","","","image-keyboard-response","150","423215","0.0-125.0","63b9d3abc3ddc61c8c08fd84","665500ab8938657b03fbdba8","665792a415c43f13423efe2a","1696","stimuli/1100111.jpg","1","","prediction_trial","1","","true","","1","false","false","true","true","false","false","[1]","100","111","1","","","","","","",""
"","","","","","image-keyboard-response","151","423838","0.0-126.0","63b9d3abc3ddc61c8c08fd84","665500ab8938657b03fbdba8","665792a415c43f13423efe2a","621","stimuli/11001111.jpg"," ","","feedback_trial","1","","","","","","","","","","","","","","","","","","","","",""
"","","","","","image-keyboard-response","152","425563","0.0-127.0","63b9d3abc3ddc61c8c08fd84","665500ab8938657b03fbdba8","665792a415c43f13423efe2a","1723","stimuli/0100011.jpg","0","","prediction_trial","0","","true","","0","true","true","false","true","false","true","[0]","100","011","1","","","","","","",""
"","","","","","image-keyboard-response","153","425934","0.0-128.0","63b9d3abc3ddc61c8c08fd84","665500ab8938657b03fbdba8","665792a415c43f13423efe2a","368","stimuli/01000110.jpg"," ","","feedback_trial","0","","","","","","","","","","","","","","","","","","","","",""
"","","","","","image-keyboard-response","154","427172","0.0-129.0","63b9d3abc3ddc61c8c08fd84","665500ab8938657b03fbdba8","665792a415c43f13423efe2a","1234","stimuli/1111000.jpg","1","","prediction_trial","2","","false","","1","true","true","false","false","false","false","[2,1,0]","111","000","0","","","","","","",""
"","","","","","image-keyboard-response","155","427912","0.0-130.0","63b9d3abc3ddc61c8c08fd84","665500ab8938657b03fbdba8","665792a415c43f13423efe2a","738","stimuli/11110002.jpg"," ","","feedback_trial","2","","","","","","","","","","","","","","","","","","","","",""
"","","","","","image-keyboard-response","156","429194","0.0-131.0","63b9d3abc3ddc61c8c08fd84","665500ab8938657b03fbdba8","665792a415c43f13423efe2a","1279","stimuli/0101011.jpg","0","","prediction_trial","2","","false","","0","true","true","false","false","false","false","[0,2]","101","011","0","","","","","","",""
"","","","","","image-keyboard-response","157","430047","0.0-132.0","63b9d3abc3ddc61c8c08fd84","665500ab8938657b03fbdba8","665792a415c43f13423efe2a","849","stimuli/01010112.jpg"," ","","feedback_trial","0","","","","","","","","","","","","","","","","","","","","",""
"","","","","","image-keyboard-response","158","433429","0.0-133.0","63b9d3abc3ddc61c8c08fd84","665500ab8938657b03fbdba8","665792a415c43f13423efe2a","3380","stimuli/0000100.jpg","0","","prediction_trial","0","","true","","0","false","true","true","true","false","true","[0]","000","100","1","","","","","","",""
"","","","","","image-keyboard-response","159","434068","0.0-134.0","63b9d3abc3ddc61c8c08fd84","665500ab8938657b03fbdba8","665792a415c43f13423efe2a","636","stimuli/00001000.jpg"," ","","feedback_trial","0","","","","","","","","","","","","","","","","","","","","",""
"","","","","","image-keyboard-response","160","435359","0.0-135.0","63b9d3abc3ddc61c8c08fd84","665500ab8938657b03fbdba8","665792a415c43f13423efe2a","1288","stimuli/1100100.jpg","1","","prediction_trial","1","","true","","1","true","true","true","true","true","true","[1]","100","100","1","","","","","","",""
"","","","","","image-keyboard-response","161","435662","0.0-136.0","63b9d3abc3ddc61c8c08fd84","665500ab8938657b03fbdba8","665792a415c43f13423efe2a","302","stimuli/11001001.jpg"," ","","feedback_trial","1","","","","","","","","","","","","","","","","","","","","",""
"","","","","","image-keyboard-response","162","437199","0.0-137.0","63b9d3abc3ddc61c8c08fd84","665500ab8938657b03fbdba8","665792a415c43f13423efe2a","1534","stimuli/2001001.jpg","2","","prediction_trial","2","","true","","2","false","true","false","true","false","true","[2]","001","001","1","","","","","","",""
"","","","","","image-keyboard-response","163","437726","0.0-138.0","63b9d3abc3ddc61c8c08fd84","665500ab8938657b03fbdba8","665792a415c43f13423efe2a","525","stimuli/20010012.jpg"," ","","feedback_trial","2","","","","","","","","","","","","","","","","","","","","",""
"","","","","","image-keyboard-response","164","439515","0.0-139.0","63b9d3abc3ddc61c8c08fd84","665500ab8938657b03fbdba8","665792a415c43f13423efe2a","1786","stimuli/1101101.jpg","1","","prediction_trial","1","","true","","1","true","true","true","true","true","true","[1]","101","101","1","","","","","","",""
"","","","","","image-keyboard-response","165","440179","0.0-140.0","63b9d3abc3ddc61c8c08fd84","665500ab8938657b03fbdba8","665792a415c43f13423efe2a","662","stimuli/11011011.jpg"," ","","feedback_trial","1","","","","","","","","","","","","","","","","","","","","",""
"","","","","","image-keyboard-response","166","441065","0.0-141.0","63b9d3abc3ddc61c8c08fd84","665500ab8938657b03fbdba8","665792a415c43f13423efe2a","884","stimuli/2100010.jpg","2","","prediction_trial","2","","true","","2","true","true","true","true","true","true","[2]","100","010","1","","","","","","",""
"","","","","","image-keyboard-response","167","441551","0.0-142.0","63b9d3abc3ddc61c8c08fd84","665500ab8938657b03fbdba8","665792a415c43f13423efe2a","484","stimuli/21000102.jpg"," ","","feedback_trial","2","","","","","","","","","","","","","","","","","","","","",""
"","","","","","image-keyboard-response","168","442688","0.0-143.0","63b9d3abc3ddc61c8c08fd84","665500ab8938657b03fbdba8","665792a415c43f13423efe2a","1134","stimuli/0010011.jpg","0","","prediction_trial","0","","true","","0","true","true","true","true","true","true","[0]","010","011","1","","","","","","",""
"","","","","","image-keyboard-response","169","442959","0.0-144.0","63b9d3abc3ddc61c8c08fd84","665500ab8938657b03fbdba8","665792a415c43f13423efe2a","268","stimuli/00100110.jpg"," ","","feedback_trial","0","","","","","","","","","","","","","","","","","","","","",""
"","","","","","image-keyboard-response","170","448346","0.0-145.0","63b9d3abc3ddc61c8c08fd84","665500ab8938657b03fbdba8","665792a415c43f13423efe2a","5386","stimuli/1001111.jpg","2","","prediction_trial","1","","false","","1","false","false","true","true","false","false","[1]","001","111","0","","","","","","",""
"","","","","","image-keyboard-response","171","448979","0.0-146.0","63b9d3abc3ddc61c8c08fd84","665500ab8938657b03fbdba8","665792a415c43f13423efe2a","629","stimuli/10011111.jpg"," ","","feedback_trial","1","","","","","","","","","","","","","","","","","","","","",""
"","","","","","image-keyboard-response","172","449811","0.0-147.0","63b9d3abc3ddc61c8c08fd84","665500ab8938657b03fbdba8","665792a415c43f13423efe2a","829","stimuli/2001010.jpg","2","","prediction_trial","2","","true","","2","true","true","false","true","false","true","[2]","001","010","1","","","","","","",""
"","","","","","image-keyboard-response","173","450171","0.0-148.0","63b9d3abc3ddc61c8c08fd84","665500ab8938657b03fbdba8","665792a415c43f13423efe2a","359","stimuli/20010102.jpg"," ","","feedback_trial","2","","","","","","","","","","","","","","","","","","","","",""
"","","","","","image-keyboard-response","174","451644","0.0-149.0","63b9d3abc3ddc61c8c08fd84","665500ab8938657b03fbdba8","665792a415c43f13423efe2a","1471","stimuli/0010010.jpg","0","","prediction_trial","0","","true","","0","true","true","true","true","true","true","[0]","010","010","1","","","","","","",""
"","","","","","image-keyboard-response","175","451970","0.0-150.0","63b9d3abc3ddc61c8c08fd84","665500ab8938657b03fbdba8","665792a415c43f13423efe2a","322","stimuli/00100100.jpg"," ","","feedback_trial","0","","","","","","","","","","","","","","","","","","","","",""
"","","","","","image-keyboard-response","176","452900","0.0-151.0","63b9d3abc3ddc61c8c08fd84","665500ab8938657b03fbdba8","665792a415c43f13423efe2a","926","stimuli/2001000.jpg","2","","prediction_trial","2","","true","","2","true","true","false","true","false","true","[2]","001","000","1","","","","","","",""
"","","","","","image-keyboard-response","177","453489","0.0-152.0","63b9d3abc3ddc61c8c08fd84","665500ab8938657b03fbdba8","665792a415c43f13423efe2a","587","stimuli/20010002.jpg"," ","","feedback_trial","2","","","","","","","","","","","","","","","","","","","","",""
"","","","","","image-keyboard-response","178","455569","0.0-153.0","63b9d3abc3ddc61c8c08fd84","665500ab8938657b03fbdba8","665792a415c43f13423efe2a","2077","stimuli/1001011.jpg","2","","prediction_trial","1","","false","","1","false","false","true","true","false","false","[1]","001","011","0","","","","","","",""
"","","","","","image-keyboard-response","179","456149","0.0-154.0","63b9d3abc3ddc61c8c08fd84","665500ab8938657b03fbdba8","665792a415c43f13423efe2a","577","stimuli/10010111.jpg"," ","","feedback_trial","1","","","","","","","","","","","","","","","","","","","","",""
"","","","","","image-keyboard-response","180","458116","0.0-155.0","63b9d3abc3ddc61c8c08fd84","665500ab8938657b03fbdba8","665792a415c43f13423efe2a","1966","stimuli/1101010.jpg","1","","prediction_trial","1","","true","","1","false","true","true","true","false","true","[1]","101","010","1","","","","","","",""
"","","","","","image-keyboard-response","181","458651","0.0-156.0","63b9d3abc3ddc61c8c08fd84","665500ab8938657b03fbdba8","665792a415c43f13423efe2a","532","stimuli/11010101.jpg"," ","","feedback_trial","1","","","","","","","","","","","","","","","","","","","","",""
"","","","","","image-keyboard-response","182","462399","0.0-157.0","63b9d3abc3ddc61c8c08fd84","665500ab8938657b03fbdba8","665792a415c43f13423efe2a","3745","stimuli/0111110.jpg","1","","prediction_trial","0","","false","","0","false","false","false","false","false","false","[1,2,0]","111","110","0","","","","","","",""
"","","","","","image-keyboard-response","183","463002","0.0-158.0","63b9d3abc3ddc61c8c08fd84","665500ab8938657b03fbdba8","665792a415c43f13423efe2a","599","stimuli/01111100.jpg"," ","","feedback_trial","1","","","","","","","","","","","","","","","","","","","","",""
"","","","","","image-keyboard-response","184","463579","0.0-159.0","63b9d3abc3ddc61c8c08fd84","665500ab8938657b03fbdba8","665792a415c43f13423efe2a","574","stimuli/1111101.jpg","1","","prediction_trial","0","","false","","1","true","true","false","false","false","false","[2,0,1]","111","101","0","","","","","","",""
"","","","","","image-keyboard-response","185","464657","0.0-160.0","63b9d3abc3ddc61c8c08fd84","665500ab8938657b03fbdba8","665792a415c43f13423efe2a","1074","stimuli/11111010.jpg"," ","","feedback_trial","2","","","","","","","","","","","","","","","","","","","","",""
"","","","","","image-keyboard-response","186","466614","0.0-161.0","63b9d3abc3ddc61c8c08fd84","665500ab8938657b03fbdba8","665792a415c43f13423efe2a","1955","stimuli/2100111.jpg","1","","prediction_trial","2","","false","","2","false","false","true","true","false","false","[2]","100","111","0","","","","","","",""
"","","","","","image-keyboard-response","187","467280","0.0-162.0","63b9d3abc3ddc61c8c08fd84","665500ab8938657b03fbdba8","665792a415c43f13423efe2a","663","stimuli/21001112.jpg"," ","","feedback_trial","2","","","","","","","","","","","","","","","","","","","","",""
"","","","","","image-keyboard-response","188","468138","0.0-163.0","63b9d3abc3ddc61c8c08fd84","665500ab8938657b03fbdba8","665792a415c43f13423efe2a","855","stimuli/1000111.jpg","1","","prediction_trial","1","","true","","1","false","false","true","true","false","false","[1]","000","111","1","","","","","","",""
"","","","","","image-keyboard-response","189","468954","0.0-164.0","63b9d3abc3ddc61c8c08fd84","665500ab8938657b03fbdba8","665792a415c43f13423efe2a","814","stimuli/10001111.jpg"," ","","feedback_trial","1","","","","","","","","","","","","","","","","","","","","",""
"","","","","","image-keyboard-response","190","469862","0.0-165.0","63b9d3abc3ddc61c8c08fd84","665500ab8938657b03fbdba8","665792a415c43f13423efe2a","904","stimuli/0010000.jpg","0","","prediction_trial","0","","true","","0","true","true","true","true","true","true","[0]","010","000","1","","","","","","",""
"","","","","","image-keyboard-response","191","470198","0.0-166.0","63b9d3abc3ddc61c8c08fd84","665500ab8938657b03fbdba8","665792a415c43f13423efe2a","335","stimuli/00100000.jpg"," ","","feedback_trial","0","","","","","","","","","","","","","","","","","","","","",""
"","","","","","image-keyboard-response","192","470918","0.0-167.0","63b9d3abc3ddc61c8c08fd84","665500ab8938657b03fbdba8","665792a415c43f13423efe2a","716","stimuli/0001001.jpg","0","","prediction_trial","0","","true","","0","true","true","true","true","true","true","[0]","001","001","1","","","","","","",""
"","","","","","image-keyboard-response","193","471194","0.0-168.0","63b9d3abc3ddc61c8c08fd84","665500ab8938657b03fbdba8","665792a415c43f13423efe2a","274","stimuli/00010010.jpg"," ","","feedback_trial","0","","","","","","","","","","","","","","","","","","","","",""
"","","","","","image-keyboard-response","194","472351","0.0-169.0","63b9d3abc3ddc61c8c08fd84","665500ab8938657b03fbdba8","665792a415c43f13423efe2a","1156","stimuli/0000111.jpg","1","","prediction_trial","0","","false","","0","false","false","true","true","false","false","[0]","000","111","0","","","","","","",""
"","","","","","image-keyboard-response","195","472975","0.0-170.0","63b9d3abc3ddc61c8c08fd84","665500ab8938657b03fbdba8","665792a415c43f13423efe2a","621","stimuli/00001110.jpg"," ","","feedback_trial","0","","","","","","","","","","","","","","","","","","","","",""
"","","","","","image-keyboard-response","196","473937","0.0-171.0","63b9d3abc3ddc61c8c08fd84","665500ab8938657b03fbdba8","665792a415c43f13423efe2a","960","stimuli/2111110.jpg","2","","prediction_trial","1","","false","","2","true","true","false","false","false","false","[0,2,1]","111","110","0","","","","","","",""
"","","","","","image-keyboard-response","197","474731","0.0-172.0","63b9d3abc3ddc61c8c08fd84","665500ab8938657b03fbdba8","665792a415c43f13423efe2a","792","stimuli/21111101.jpg"," ","","feedback_trial","0","","","","","","","","","","","","","","","","","","","","",""
"","","","","","image-keyboard-response","198","478190","0.0-173.0","63b9d3abc3ddc61c8c08fd84","665500ab8938657b03fbdba8","665792a415c43f13423efe2a","3457","stimuli/0101110.jpg","0","","prediction_trial","2","","false","","0","false","false","false","false","false","false","[2,0]","101","110","0","","","","","","",""
"","","","","","image-keyboard-response","199","479306","0.0-174.0","63b9d3abc3ddc61c8c08fd84","665500ab8938657b03fbdba8","665792a415c43f13423efe2a","1114","stimuli/01011102.jpg"," ","","feedback_trial","2","","","","","","","","","","","","","","","","","","","","",""
"","","","","","image-keyboard-response","200","482641","0.0-175.0","63b9d3abc3ddc61c8c08fd84","665500ab8938657b03fbdba8","665792a415c43f13423efe2a","3333","stimuli/2000001.jpg","2","","prediction_trial","2","","true","","2","false","true","true","true","false","true","[2]","000","001","1","","","","","","",""
"","","","","","image-keyboard-response","201","483131","0.0-176.0","63b9d3abc3ddc61c8c08fd84","665500ab8938657b03fbdba8","665792a415c43f13423efe2a","486","stimuli/20000012.jpg"," ","","feedback_trial","2","","","","","","","","","","","","","","","","","","","","",""
"","","","","","image-keyboard-response","202","484213","0.0-177.0","63b9d3abc3ddc61c8c08fd84","665500ab8938657b03fbdba8","665792a415c43f13423efe2a","1080","stimuli/2100001.jpg","2","","prediction_trial","2","","true","","2","false","true","true","true","false","true","[2]","100","001","1","","","","","","",""
"","","","","","image-keyboard-response","203","484517","0.0-178.0","63b9d3abc3ddc61c8c08fd84","665500ab8938657b03fbdba8","665792a415c43f13423efe2a","301","stimuli/21000012.jpg"," ","","feedback_trial","2","","","","","","","","","","","","","","","","","","","","",""
"","","","","","image-keyboard-response","204","486979","0.0-179.0","63b9d3abc3ddc61c8c08fd84","665500ab8938657b03fbdba8","665792a415c43f13423efe2a","2459","stimuli/0111000.jpg","1","","prediction_trial","0","","false","","0","true","true","false","false","false","false","[2,0,1]","111","000","0","","","","","","",""
"","","","","","image-keyboard-response","205","487526","0.0-180.0","63b9d3abc3ddc61c8c08fd84","665500ab8938657b03fbdba8","665792a415c43f13423efe2a","545","stimuli/01110000.jpg"," ","","feedback_trial","2","","","","","","","","","","","","","","","","","","","","",""
"","","","","","image-keyboard-response","206","488508","0.0-181.0","63b9d3abc3ddc61c8c08fd84","665500ab8938657b03fbdba8","665792a415c43f13423efe2a","980","stimuli/0010001.jpg","0","","prediction_trial","0","","true","","0","true","true","true","true","true","true","[0]","010","001","1","","","","","","",""
"","","","","","image-keyboard-response","207","488846","0.0-182.0","63b9d3abc3ddc61c8c08fd84","665500ab8938657b03fbdba8","665792a415c43f13423efe2a","334","stimuli/00100010.jpg"," ","","feedback_trial","0","","","","","","","","","","","","","","","","","","","","",""
"","","","","","image-keyboard-response","208","490103","0.0-183.0","63b9d3abc3ddc61c8c08fd84","665500ab8938657b03fbdba8","665792a415c43f13423efe2a","1254","stimuli/2000100.jpg","2","","prediction_trial","2","","true","","2","true","true","true","true","true","true","[2]","000","100","1","","","","","","",""
"","","","","","image-keyboard-response","209","490459","0.0-184.0","63b9d3abc3ddc61c8c08fd84","665500ab8938657b03fbdba8","665792a415c43f13423efe2a","354","stimuli/20001002.jpg"," ","","feedback_trial","2","","","","","","","","","","","","","","","","","","","","",""
"","","","","","image-keyboard-response","210","491675","0.0-185.0","63b9d3abc3ddc61c8c08fd84","665500ab8938657b03fbdba8","665792a415c43f13423efe2a","1214","stimuli/1000010.jpg","1","","prediction_trial","1","","true","","1","false","true","true","true","false","true","[1]","000","010","1","","","","","","",""
"","","","","","image-keyboard-response","211","491981","0.0-186.0","63b9d3abc3ddc61c8c08fd84","665500ab8938657b03fbdba8","665792a415c43f13423efe2a","302","stimuli/10000101.jpg"," ","","feedback_trial","1","","","","","","","","","","","","","","","","","","","","",""
"","","","","","image-keyboard-response","212","492847","0.0-187.0","63b9d3abc3ddc61c8c08fd84","665500ab8938657b03fbdba8","665792a415c43f13423efe2a","863","stimuli/2101001.jpg","2","","prediction_trial","2","","true","","2","false","true","false","false","false","false","[0,2]","101","001","1","","","","","","",""
"","","","","","image-keyboard-response","213","493274","0.0-188.0","63b9d3abc3ddc61c8c08fd84","665500ab8938657b03fbdba8","665792a415c43f13423efe2a","425","stimuli/21010012.jpg"," ","","feedback_trial","0","","","","","","","","","","","","","","","","","","","","",""
"","","","","","image-keyboard-response","214","496053","0.0-189.0","63b9d3abc3ddc61c8c08fd84","665500ab8938657b03fbdba8","665792a415c43f13423efe2a","2775","stimuli/1100001.jpg","1","","prediction_trial","1","","true","","1","true","true","true","true","true","true","[1]","100","001","1","","","","","","",""
"","","","","","image-keyboard-response","215","496344","0.0-190.0","63b9d3abc3ddc61c8c08fd84","665500ab8938657b03fbdba8","665792a415c43f13423efe2a","289","stimuli/11000011.jpg"," ","","feedback_trial","1","","","","","","","","","","","","","","","","","","","","",""
"","","","","","image-keyboard-response","216","497442","0.0-191.0","63b9d3abc3ddc61c8c08fd84","665500ab8938657b03fbdba8","665792a415c43f13423efe2a","1095","stimuli/0001100.jpg","0","","prediction_trial","0","","true","","0","false","true","true","true","false","true","[0]","001","100","1","","","","","","",""
"","","","","","image-keyboard-response","217","497787","0.0-192.0","63b9d3abc3ddc61c8c08fd84","665500ab8938657b03fbdba8","665792a415c43f13423efe2a","342","stimuli/00011000.jpg"," ","","feedback_trial","0","","","","","","","","","","","","","","","","","","","","",""
"","","","","","image-keyboard-response","218","498697","0.0-193.0","63b9d3abc3ddc61c8c08fd84","665500ab8938657b03fbdba8","665792a415c43f13423efe2a","908","stimuli/2001110.jpg","2","","prediction_trial","2","","true","","2","true","true","false","true","false","true","[2]","001","110","1","","","","","","",""
"","","","","","image-keyboard-response","219","499029","0.0-194.0","63b9d3abc3ddc61c8c08fd84","665500ab8938657b03fbdba8","665792a415c43f13423efe2a","328","stimuli/20011102.jpg"," ","","feedback_trial","2","","","","","","","","","","","","","","","","","","","","",""
"","","","","","image-keyboard-response","220","500780","0.0-195.0","63b9d3abc3ddc61c8c08fd84","665500ab8938657b03fbdba8","665792a415c43f13423efe2a","1748","stimuli/1100010.jpg","1","","prediction_trial","1","","true","","1","false","true","true","true","false","true","[1]","100","010","1","","","","","","",""
"","","","","","image-keyboard-response","221","501116","0.0-196.0","63b9d3abc3ddc61c8c08fd84","665500ab8938657b03fbdba8","665792a415c43f13423efe2a","334","stimuli/11000101.jpg"," ","","feedback_trial","1","","","","","","","","","","","","","","","","","","","","",""
"","","","","","image-keyboard-response","222","501995","0.0-197.0","63b9d3abc3ddc61c8c08fd84","665500ab8938657b03fbdba8","665792a415c43f13423efe2a","876","stimuli/1000000.jpg","1","","prediction_trial","1","","true","","1","true","true","true","true","true","true","[1]","000","000","1","","","","","","",""
"","","","","","image-keyboard-response","223","502255","0.0-198.0","63b9d3abc3ddc61c8c08fd84","665500ab8938657b03fbdba8","665792a415c43f13423efe2a","258","stimuli/10000001.jpg"," ","","feedback_trial","1","","","","","","","","","","","","","","","","","","","","",""
"","","","","","image-keyboard-response","224","503190","0.0-199.0","63b9d3abc3ddc61c8c08fd84","665500ab8938657b03fbdba8","665792a415c43f13423efe2a","932","stimuli/0100010.jpg","0","","prediction_trial","0","","true","","0","true","true","false","true","false","true","[0]","100","010","1","","","","","","",""
"","","","","","image-keyboard-response","225","503592","0.0-200.0","63b9d3abc3ddc61c8c08fd84","665500ab8938657b03fbdba8","665792a415c43f13423efe2a","400","stimuli/01000100.jpg"," ","","feedback_trial","0","","","","","","","","","","","","","","","","","","","","",""
"","","","","","image-keyboard-response","226","504381","0.0-201.0","63b9d3abc3ddc61c8c08fd84","665500ab8938657b03fbdba8","665792a415c43f13423efe2a","785","stimuli/1010100.jpg","1","","prediction_trial","1","","true","","1","true","true","false","true","false","true","[1]","010","100","1","","","","","","",""
"","","","","","image-keyboard-response","227","504704","0.0-202.0","63b9d3abc3ddc61c8c08fd84","665500ab8938657b03fbdba8","665792a415c43f13423efe2a","321","stimuli/10101001.jpg"," ","","feedback_trial","1","","","","","","","","","","","","","","","","","","","","",""
"","","","","","image-keyboard-response","228","506951","0.0-203.0","63b9d3abc3ddc61c8c08fd84","665500ab8938657b03fbdba8","665792a415c43f13423efe2a","2243","stimuli/1111011.jpg","2","","prediction_trial","1","","false","","1","false","false","false","false","false","false","[2,1,0]","111","011","0","","","","","","",""
"","","","","","image-keyboard-response","229","507554","0.0-204.0","63b9d3abc3ddc61c8c08fd84","665500ab8938657b03fbdba8","665792a415c43f13423efe2a","598","stimuli/11110111.jpg"," ","","feedback_trial","2","","","","","","","","","","","","","","","","","","","","",""
"","","","","","image-keyboard-response","230","508413","0.0-205.0","63b9d3abc3ddc61c8c08fd84","665500ab8938657b03fbdba8","665792a415c43f13423efe2a","856","stimuli/2110000.jpg","2","","prediction_trial","2","","true","","2","true","true","true","true","true","true","[2]","110","000","1","","","","","","",""
"","","","","","image-keyboard-response","231","508754","0.0-206.0","63b9d3abc3ddc61c8c08fd84","665500ab8938657b03fbdba8","665792a415c43f13423efe2a","339","stimuli/21100002.jpg"," ","","feedback_trial","2","","","","","","","","","","","","","","","","","","","","",""
"","","","","","image-keyboard-response","232","510184","0.0-207.0","63b9d3abc3ddc61c8c08fd84","665500ab8938657b03fbdba8","665792a415c43f13423efe2a","1427","stimuli/0001000.jpg","0","","prediction_trial","0","","true","","0","true","true","true","true","true","true","[0]","001","000","1","","","","","","",""
"","","","","","image-keyboard-response","233","510494","0.0-208.0","63b9d3abc3ddc61c8c08fd84","665500ab8938657b03fbdba8","665792a415c43f13423efe2a","306","stimuli/00010000.jpg"," ","","feedback_trial","0","","","","","","","","","","","","","","","","","","","","",""
"","","","","","image-keyboard-response","234","511323","0.0-209.0","63b9d3abc3ddc61c8c08fd84","665500ab8938657b03fbdba8","665792a415c43f13423efe2a","828","stimuli/2101010.jpg","2","","prediction_trial","0","","false","","2","true","true","false","false","false","false","[0,2]","101","010","0","","","","","","",""
"","","","","","image-keyboard-response","235","511884","0.0-210.0","63b9d3abc3ddc61c8c08fd84","665500ab8938657b03fbdba8","665792a415c43f13423efe2a","558","stimuli/21010100.jpg"," ","","feedback_trial","0","","","","","","","","","","","","","","","","","","","","",""
"","","","","","image-keyboard-response","236","512735","0.0-211.0","63b9d3abc3ddc61c8c08fd84","665500ab8938657b03fbdba8","665792a415c43f13423efe2a","848","stimuli/1010001.jpg","1","","prediction_trial","1","","true","","1","true","true","false","true","false","true","[1]","010","001","1","","","","","","",""
"","","","","","image-keyboard-response","237","513039","0.0-212.0","63b9d3abc3ddc61c8c08fd84","665500ab8938657b03fbdba8","665792a415c43f13423efe2a","300","stimuli/10100011.jpg"," ","","feedback_trial","1","","","","","","","","","","","","","","","","","","","","",""
"","","","","","image-keyboard-response","238","514944","0.0-213.0","63b9d3abc3ddc61c8c08fd84","665500ab8938657b03fbdba8","665792a415c43f13423efe2a","1903","stimuli/2110100.jpg","2","","prediction_trial","2","","true","","2","true","true","true","true","true","true","[2]","110","100","1","","","","","","",""
"","","","","","image-keyboard-response","239","515305","0.0-214.0","63b9d3abc3ddc61c8c08fd84","665500ab8938657b03fbdba8","665792a415c43f13423efe2a","357","stimuli/21101002.jpg"," ","","feedback_trial","2","","","","","","","","","","","","","","","","","","","","",""
"","","","","","image-keyboard-response","240","516555","0.0-215.0","63b9d3abc3ddc61c8c08fd84","665500ab8938657b03fbdba8","665792a415c43f13423efe2a","1248","stimuli/0001010.jpg","0","","prediction_trial","0","","true","","0","true","true","true","true","true","true","[0]","001","010","1","","","","","","",""
"","","","","","image-keyboard-response","241","516791","0.0-216.0","63b9d3abc3ddc61c8c08fd84","665500ab8938657b03fbdba8","665792a415c43f13423efe2a","234","stimuli/00010100.jpg"," ","","feedback_trial","0","","","","","","","","","","","","","","","","","","","","",""
"","","","","","image-keyboard-response","242","517848","0.0-217.0","63b9d3abc3ddc61c8c08fd84","665500ab8938657b03fbdba8","665792a415c43f13423efe2a","1055","stimuli/2010100.jpg","2","","prediction_trial","2","","true","","2","true","true","true","true","true","true","[2]","010","100","1","","","","","","",""
"","","","","","image-keyboard-response","243","518069","0.0-218.0","63b9d3abc3ddc61c8c08fd84","665500ab8938657b03fbdba8","665792a415c43f13423efe2a","217","stimuli/20101002.jpg"," ","","feedback_trial","2","","","","","","","","","","","","","","","","","","","","",""
"","","","","","image-keyboard-response","244","521046","0.0-219.0","63b9d3abc3ddc61c8c08fd84","665500ab8938657b03fbdba8","665792a415c43f13423efe2a","2975","stimuli/0110111.jpg","1","","prediction_trial","0","","false","","0","false","false","false","false","false","false","[0,1]","110","111","0","","","","","","",""
"","","","","","image-keyboard-response","245","521679","0.0-220.0","63b9d3abc3ddc61c8c08fd84","665500ab8938657b03fbdba8","665792a415c43f13423efe2a","630","stimuli/01101110.jpg"," ","","feedback_trial","0","","","","","","","","","","","","","","","","","","","","",""
"","","","","","image-keyboard-response","246","522488","0.0-221.0","63b9d3abc3ddc61c8c08fd84","665500ab8938657b03fbdba8","665792a415c43f13423efe2a","806","stimuli/1110101.jpg","1","","prediction_trial","0","","false","","1","true","true","false","false","false","false","[1,0]","110","101","0","","","","","","",""
"","","","","","image-keyboard-response","247","522779","0.0-222.0","63b9d3abc3ddc61c8c08fd84","665500ab8938657b03fbdba8","665792a415c43f13423efe2a","287","stimuli/11101010.jpg"," ","","feedback_trial","1","","","","","","","","","","","","","","","","","","","","",""
"","","","","","image-keyboard-response","248","524203","0.0-223.0","63b9d3abc3ddc61c8c08fd84","665500ab8938657b03fbdba8","665792a415c43f13423efe2a","1419","stimuli/1111100.jpg","1","","prediction_trial","0","","false","","1","true","true","false","false","false","false","[2,0,1]","111","100","0","","","","","","",""
"","","","","","image-keyboard-response","249","524966","0.0-224.0","63b9d3abc3ddc61c8c08fd84","665500ab8938657b03fbdba8","665792a415c43f13423efe2a","760","stimuli/11111000.jpg"," ","","feedback_trial","2","","","","","","","","","","","","","","","","","","","","",""
"","","","","","image-keyboard-response","250","525801","0.0-225.0","63b9d3abc3ddc61c8c08fd84","665500ab8938657b03fbdba8","665792a415c43f13423efe2a","833","stimuli/1101001.jpg","1","","prediction_trial","1","","true","","1","true","true","true","true","true","true","[1]","101","001","1","","","","","","",""
"","","","","","image-keyboard-response","251","526004","0.0-226.0","63b9d3abc3ddc61c8c08fd84","665500ab8938657b03fbdba8","665792a415c43f13423efe2a","200","stimuli/11010011.jpg"," ","","feedback_trial","1","","","","","","","","","","","","","","","","","","","","",""
"","","","","","image-keyboard-response","252","527045","0.0-227.0","63b9d3abc3ddc61c8c08fd84","665500ab8938657b03fbdba8","665792a415c43f13423efe2a","1039","stimuli/2010001.jpg","2","","prediction_trial","2","","true","","2","false","true","true","true","false","true","[2]","010","001","1","","","","","","",""
"","","","","","image-keyboard-response","253","527337","0.0-228.0","63b9d3abc3ddc61c8c08fd84","665500ab8938657b03fbdba8","665792a415c43f13423efe2a","289","stimuli/20100012.jpg"," ","","feedback_trial","2","","","","","","","","","","","","","","","","","","","","",""
"","","","","","image-keyboard-response","254","529560","0.0-229.0","63b9d3abc3ddc61c8c08fd84","665500ab8938657b03fbdba8","665792a415c43f13423efe2a","2221","stimuli/1000110.jpg","1","","prediction_trial","1","","true","","1","false","false","true","true","false","false","[1]","000","110","1","","","","","","",""
"","","","","","image-keyboard-response","255","530207","0.0-230.0","63b9d3abc3ddc61c8c08fd84","665500ab8938657b03fbdba8","665792a415c43f13423efe2a","645","stimuli/10001101.jpg"," ","","feedback_trial","1","","","","","","","","","","","","","","","","","","","","",""
"","","","","","image-keyboard-response","256","531640","0.0-231.0","63b9d3abc3ddc61c8c08fd84","665500ab8938657b03fbdba8","665792a415c43f13423efe2a","1430","stimuli/2000101.jpg","0","","prediction_trial","2","","false","","2","false","false","true","true","false","false","[2]","000","101","0","","","","","","",""
"","","","","","image-keyboard-response","257","532303","0.0-232.0","63b9d3abc3ddc61c8c08fd84","665500ab8938657b03fbdba8","665792a415c43f13423efe2a","660","stimuli/20001012.jpg"," ","","feedback_trial","2","","","","","","","","","","","","","","","","","","","","",""
"","","","","","image-keyboard-response","258","533116","0.0-233.0","63b9d3abc3ddc61c8c08fd84","665500ab8938657b03fbdba8","665792a415c43f13423efe2a","811","stimuli/1110100.jpg","1","","prediction_trial","1","","true","","1","true","true","false","false","false","false","[1,0]","110","100","1","","","","","","",""
"","","","","","image-keyboard-response","259","533504","0.0-234.0","63b9d3abc3ddc61c8c08fd84","665500ab8938657b03fbdba8","665792a415c43f13423efe2a","385","stimuli/11101001.jpg"," ","","feedback_trial","1","","","","","","","","","","","","","","","","","","","","",""
"","","","","","image-keyboard-response","260","536221","0.0-235.0","63b9d3abc3ddc61c8c08fd84","665500ab8938657b03fbdba8","665792a415c43f13423efe2a","2714","stimuli/1011001.jpg","1","","prediction_trial","2","","false","","1","true","true","false","false","false","false","[1,2]","011","001","0","","","","","","",""
"","","","","","image-keyboard-response","261","536784","0.0-236.0","63b9d3abc3ddc61c8c08fd84","665500ab8938657b03fbdba8","665792a415c43f13423efe2a","559","stimuli/10110012.jpg"," ","","feedback_trial","1","","","","","","","","","","","","","","","","","","","","",""
"","","","","","image-keyboard-response","262","538246","0.0-237.0","63b9d3abc3ddc61c8c08fd84","665500ab8938657b03fbdba8","665792a415c43f13423efe2a","1460","stimuli/0101000.jpg","0","","prediction_trial","0","","true","","0","true","true","false","false","false","false","[0,2]","101","000","1","","","","","","",""
"","","","","","image-keyboard-response","263","538788","0.0-238.0","63b9d3abc3ddc61c8c08fd84","665500ab8938657b03fbdba8","665792a415c43f13423efe2a","540","stimuli/01010000.jpg"," ","","feedback_trial","0","","","","","","","","","","","","","","","","","","","","",""
"","","","","","image-keyboard-response","264","540013","0.0-239.0","63b9d3abc3ddc61c8c08fd84","665500ab8938657b03fbdba8","665792a415c43f13423efe2a","1222","stimuli/0111100.jpg","0","","prediction_trial","2","","false","","0","false","true","false","false","false","false","[2,1,0]","111","100","0","","","","","","",""
"","","","","","image-keyboard-response","265","540747","0.0-240.0","63b9d3abc3ddc61c8c08fd84","665500ab8938657b03fbdba8","665792a415c43f13423efe2a","730","stimuli/01111002.jpg"," ","","feedback_trial","2","","","","","","","","","","","","","","","","","","","","",""
"","","","","","image-keyboard-response","266","541983","0.0-241.0","63b9d3abc3ddc61c8c08fd84","665500ab8938657b03fbdba8","665792a415c43f13423efe2a","1234","stimuli/2011000.jpg","1","","prediction_trial","1","","true","","2","true","true","false","false","false","false","[1,2]","011","000","1","","","","","","",""
"","","","","","image-keyboard-response","267","543722","0.0-242.0","63b9d3abc3ddc61c8c08fd84","665500ab8938657b03fbdba8","665792a415c43f13423efe2a","1736","stimuli/20110001.jpg"," ","","feedback_trial","1","","","","","","","","","","","","","","","","","","","","",""
"","","","","","image-keyboard-response","268","545399","0.0-243.0","63b9d3abc3ddc61c8c08fd84","665500ab8938657b03fbdba8","665792a415c43f13423efe2a","1674","stimuli/0111101.jpg","2","","prediction_trial","1","","false","","0","false","false","false","false","false","false","[0,1,2]","111","101","0","","","","","","",""
"","","","","","image-keyboard-response","269","546177","0.0-244.0","63b9d3abc3ddc61c8c08fd84","665500ab8938657b03fbdba8","665792a415c43f13423efe2a","774","stimuli/01111011.jpg"," ","","feedback_trial","0","","","","","","","","","","","","","","","","","","","","",""
"","","","","","image-keyboard-response","270","547739","0.0-245.0","63b9d3abc3ddc61c8c08fd84","665500ab8938657b03fbdba8","665792a415c43f13423efe2a","1560","stimuli/0111001.jpg","0","","prediction_trial","2","","false","","0","true","true","false","false","false","false","[0,1,2]","111","001","0","","","","","","",""
"","","","","","image-keyboard-response","271","548388","0.0-246.0","63b9d3abc3ddc61c8c08fd84","665500ab8938657b03fbdba8","665792a415c43f13423efe2a","646","stimuli/01110012.jpg"," ","","feedback_trial","0","","","","","","","","","","","","","","","","","","","","",""
"","","","","","image-keyboard-response","272","549703","0.0-247.0","63b9d3abc3ddc61c8c08fd84","665500ab8938657b03fbdba8","665792a415c43f13423efe2a","1312","stimuli/0101101.jpg","0","","prediction_trial","2","","false","","0","false","false","false","false","false","false","[0,2]","101","101","0","","","","","","",""
"","","","","","image-keyboard-response","273","550892","0.0-248.0","63b9d3abc3ddc61c8c08fd84","665500ab8938657b03fbdba8","665792a415c43f13423efe2a","1185","stimuli/01011012.jpg"," ","","feedback_trial","0","","","","","","","","","","","","","","","","","","","","",""
"","","","","","image-keyboard-response","274","552007","0.0-249.0","63b9d3abc3ddc61c8c08fd84","665500ab8938657b03fbdba8","665792a415c43f13423efe2a","1114","stimuli/1011010.jpg","1","","prediction_trial","2","","false","","1","false","true","false","false","false","false","[1,2]","011","010","0","","","","","","",""
"","","","","","image-keyboard-response","275","552802","0.0-250.0","63b9d3abc3ddc61c8c08fd84","665500ab8938657b03fbdba8","665792a415c43f13423efe2a","792","stimuli/10110102.jpg"," ","","feedback_trial","1","","","","","","","","","","","","","","","","","","","","",""
"","","","","","image-keyboard-response","276","554162","0.0-251.0","63b9d3abc3ddc61c8c08fd84","665500ab8938657b03fbdba8","665792a415c43f13423efe2a","1357","stimuli/0110000.jpg","0","","prediction_trial","0","","true","","0","true","true","false","false","false","false","[1,0]","110","000","1","","","","","","",""
"","","","","","image-keyboard-response","277","554817","0.0-252.0","63b9d3abc3ddc61c8c08fd84","665500ab8938657b03fbdba8","665792a415c43f13423efe2a","651","stimuli/01100000.jpg"," ","","feedback_trial","1","","","","","","","","","","","","","","","","","","","","",""
"","","","","","image-keyboard-response","278","555891","0.0-253.0","63b9d3abc3ddc61c8c08fd84","665500ab8938657b03fbdba8","665792a415c43f13423efe2a","1071","stimuli/2100110.jpg","2","","prediction_trial","2","","true","","2","true","true","true","true","true","true","[2]","100","110","1","","","","","","",""
"","","","","","image-keyboard-response","279","556213","0.0-254.0","63b9d3abc3ddc61c8c08fd84","665500ab8938657b03fbdba8","665792a415c43f13423efe2a","320","stimuli/21001102.jpg"," ","","feedback_trial","2","","","","","","","","","","","","","","","","","","","","",""
"","","","","","image-keyboard-response","280","557661","0.0-255.0","63b9d3abc3ddc61c8c08fd84","665500ab8938657b03fbdba8","665792a415c43f13423efe2a","1445","stimuli/2010011.jpg","2","","prediction_trial","2","","true","","2","false","false","true","true","false","false","[2]","010","011","1","","","","","","",""
"","","","","","image-keyboard-response","281","557971","0.0-256.0","63b9d3abc3ddc61c8c08fd84","665500ab8938657b03fbdba8","665792a415c43f13423efe2a","308","stimuli/20100112.jpg"," ","","feedback_trial","2","","","","","","","","","","","","","","","","","","","","",""
"","","","","","image-keyboard-response","282","559059","0.0-257.0","63b9d3abc3ddc61c8c08fd84","665500ab8938657b03fbdba8","665792a415c43f13423efe2a","1086","stimuli/1110001.jpg","1","","prediction_trial","0","","false","","1","true","true","false","false","false","false","[0,1]","110","001","0","","","","","","",""
"","","","","","image-keyboard-response","283","559454","0.0-258.0","63b9d3abc3ddc61c8c08fd84","665500ab8938657b03fbdba8","665792a415c43f13423efe2a","392","stimuli/11100010.jpg"," ","","feedback_trial","0","","","","","","","","","","","","","","","","","","","","",""
"","","","","","image-keyboard-response","284","563339","0.0-259.0","63b9d3abc3ddc61c8c08fd84","665500ab8938657b03fbdba8","665792a415c43f13423efe2a","3883","stimuli/2011110.jpg","2","","prediction_trial","2","","true","","2","true","true","false","false","false","false","[1,2]","011","110","1","","","","","","",""
"","","","","","image-keyboard-response","285","563946","0.0-260.0","63b9d3abc3ddc61c8c08fd84","665500ab8938657b03fbdba8","665792a415c43f13423efe2a","604","stimuli/20111102.jpg"," ","","feedback_trial","1","","","","","","","","","","","","","","","","","","","","",""
"","","","","","image-keyboard-response","286","565512","0.0-261.0","63b9d3abc3ddc61c8c08fd84","665500ab8938657b03fbdba8","665792a415c43f13423efe2a","1564","stimuli/2110011.jpg","1","","prediction_trial","2","","false","","2","false","false","true","true","false","false","[2]","110","011","0","","","","","","",""
"","","","","","image-keyboard-response","287","566079","0.0-262.0","63b9d3abc3ddc61c8c08fd84","665500ab8938657b03fbdba8","665792a415c43f13423efe2a","564","stimuli/21100112.jpg"," ","","feedback_trial","2","","","","","","","","","","","","","","","","","","","","",""
"","","","","","image-keyboard-response","288","568730","0.0-263.0","63b9d3abc3ddc61c8c08fd84","665500ab8938657b03fbdba8","665792a415c43f13423efe2a","2647","stimuli/1100011.jpg","2","","prediction_trial","1","","false","","1","false","false","true","true","false","false","[1]","100","011","0","","","","","","",""
"","","","","","image-keyboard-response","289","569366","0.0-264.0","63b9d3abc3ddc61c8c08fd84","665500ab8938657b03fbdba8","665792a415c43f13423efe2a","634","stimuli/11000111.jpg"," ","","feedback_trial","1","","","","","","","","","","","","","","","","","","","","",""
"","","","","","image-keyboard-response","290","572513","0.0-265.0","63b9d3abc3ddc61c8c08fd84","665500ab8938657b03fbdba8","665792a415c43f13423efe2a","3144","stimuli/0010111.jpg","0","","prediction_trial","0","","true","","0","false","false","true","true","false","false","[0]","010","111","1","","","","","","",""
"","","","","","image-keyboard-response","291","573116","0.0-266.0","63b9d3abc3ddc61c8c08fd84","665500ab8938657b03fbdba8","665792a415c43f13423efe2a","599","stimuli/00101110.jpg"," ","","feedback_trial","0","","","","","","","","","","","","","","","","","","","","",""
"","","","","","image-keyboard-response","292","574727","0.0-267.0","63b9d3abc3ddc61c8c08fd84","665500ab8938657b03fbdba8","665792a415c43f13423efe2a","1608","stimuli/2011011.jpg","2","","prediction_trial","1","","false","","2","false","false","false","false","false","false","[1,2]","011","011","0","","","","","","",""
"","","","","","image-keyboard-response","293","575457","0.0-268.0","63b9d3abc3ddc61c8c08fd84","665500ab8938657b03fbdba8","665792a415c43f13423efe2a","727","stimuli/20110111.jpg"," ","","feedback_trial","1","","","","","","","","","","","","","","","","","","","","",""
"","","","","","image-keyboard-response","294","576549","0.0-269.0","63b9d3abc3ddc61c8c08fd84","665500ab8938657b03fbdba8","665792a415c43f13423efe2a","1089","stimuli/2111111.jpg","2","","prediction_trial","0","","false","","2","false","false","false","false","false","false","[1,2,0]","111","111","0","","","","","","",""
"","","","","","image-keyboard-response","295","577298","0.0-270.0","63b9d3abc3ddc61c8c08fd84","665500ab8938657b03fbdba8","665792a415c43f13423efe2a","746","stimuli/21111110.jpg"," ","","feedback_trial","1","","","","","","","","","","","","","","","","","","","","",""
"","","","","","image-keyboard-response","296","578262","0.0-271.0","63b9d3abc3ddc61c8c08fd84","665500ab8938657b03fbdba8","665792a415c43f13423efe2a","962","stimuli/1010010.jpg","1","","prediction_trial","1","","true","","1","false","true","false","true","false","true","[1]","010","010","1","","","","","","",""
"","","","","","image-keyboard-response","297","578548","0.0-272.0","63b9d3abc3ddc61c8c08fd84","665500ab8938657b03fbdba8","665792a415c43f13423efe2a","283","stimuli/10100101.jpg"," ","","feedback_trial","1","","","","","","","","","","","","","","","","","","","","",""
"","","","","","image-keyboard-response","298","582448","0.0-273.0","63b9d3abc3ddc61c8c08fd84","665500ab8938657b03fbdba8","665792a415c43f13423efe2a","3896","stimuli/1010110.jpg","0","","prediction_trial","1","","false","","1","false","false","false","true","false","false","[1]","010","110","0","","","","","","",""
"","","","","","image-keyboard-response","299","582895","0.0-274.0","63b9d3abc3ddc61c8c08fd84","665500ab8938657b03fbdba8","665792a415c43f13423efe2a","446","stimuli/10101101.jpg"," ","","feedback_trial","1","","","","","","","","","","","","","","","","","","","","",""
"","","","","","image-keyboard-response","300","585113","0.0-275.0","63b9d3abc3ddc61c8c08fd84","665500ab8938657b03fbdba8","665792a415c43f13423efe2a","2216","stimuli/0011110.jpg","0","","prediction_trial","0","","true","","0","false","false","true","true","false","false","[0]","011","110","1","","","","","","",""
"","","","","","image-keyboard-response","301","585579","0.0-276.0","63b9d3abc3ddc61c8c08fd84","665500ab8938657b03fbdba8","665792a415c43f13423efe2a","462","stimuli/00111100.jpg"," ","","feedback_trial","0","","","","","","","","","","","","","","","","","","","","",""
"","","","","","image-keyboard-response","302","587660","0.0-277.0","63b9d3abc3ddc61c8c08fd84","665500ab8938657b03fbdba8","665792a415c43f13423efe2a","2079","stimuli/0110101.jpg","2","","prediction_trial","0","","false","","0","false","false","false","false","false","false","[0,1]","110","101","0","","","","","","",""
"","","","","","image-keyboard-response","303","588474","0.0-278.0","63b9d3abc3ddc61c8c08fd84","665500ab8938657b03fbdba8","665792a415c43f13423efe2a","812","stimuli/01101010.jpg"," ","","feedback_trial","0","","","","","","","","","","","","","","","","","","","","",""
"","","","","","image-keyboard-response","304","591294","0.0-279.0","63b9d3abc3ddc61c8c08fd84","665500ab8938657b03fbdba8","665792a415c43f13423efe2a","2819","stimuli/2001111.jpg","1","","prediction_trial","2","","false","","2","false","false","false","true","false","false","[2]","001","111","0","","","","","","",""
"","","","","","image-keyboard-response","305","591793","0.0-280.0","63b9d3abc3ddc61c8c08fd84","665500ab8938657b03fbdba8","665792a415c43f13423efe2a","495","stimuli/20011112.jpg"," ","","feedback_trial","2","","","","","","","","","","","","","","","","","","","","",""
"","","","","","image-keyboard-response","306","592460","0.0-281.0","63b9d3abc3ddc61c8c08fd84","665500ab8938657b03fbdba8","665792a415c43f13423efe2a","665","stimuli/2011010.jpg","2","","prediction_trial","2","","true","","2","true","true","false","false","false","false","[2,1]","011","010","1","","","","","","",""
"","","","","","image-keyboard-response","307","592923","0.0-282.0","63b9d3abc3ddc61c8c08fd84","665500ab8938657b03fbdba8","665792a415c43f13423efe2a","461","stimuli/20110102.jpg"," ","","feedback_trial","2","","","","","","","","","","","","","","","","","","","","",""
"","","","","","image-keyboard-response","308","594185","0.0-283.0","63b9d3abc3ddc61c8c08fd84","665500ab8938657b03fbdba8","665792a415c43f13423efe2a","1260","stimuli/0100111.jpg","1","","prediction_trial","0","","false","","0","false","false","false","true","false","false","[0]","100","111","0","","","","","","",""
"","","","","","image-keyboard-response","309","594755","0.0-284.0","63b9d3abc3ddc61c8c08fd84","665500ab8938657b03fbdba8","665792a415c43f13423efe2a","567","stimuli/01001110.jpg"," ","","feedback_trial","0","","","","","","","","","","","","","","","","","","","","",""
"","","","","","image-keyboard-response","310","595461","0.0-285.0","63b9d3abc3ddc61c8c08fd84","665500ab8938657b03fbdba8","665792a415c43f13423efe2a","704","stimuli/0001111.jpg","2","","prediction_trial","0","","false","","0","false","false","true","true","false","false","[0]","001","111","0","","","","","","",""
"","","","","","image-keyboard-response","311","596266","0.0-286.0","63b9d3abc3ddc61c8c08fd84","665500ab8938657b03fbdba8","665792a415c43f13423efe2a","803","stimuli/00011110.jpg"," ","","feedback_trial","0","","","","","","","","","","","","","","","","","","","","",""
"","","","","","image-keyboard-response","312","597120","0.0-287.0","63b9d3abc3ddc61c8c08fd84","665500ab8938657b03fbdba8","665792a415c43f13423efe2a","852","stimuli/1010111.jpg","2","","prediction_trial","1","","false","","1","false","false","false","true","false","false","[1]","010","111","0","","","","","","",""
"","","","","","image-keyboard-response","313","597582","0.0-288.0","63b9d3abc3ddc61c8c08fd84","665500ab8938657b03fbdba8","665792a415c43f13423efe2a","459","stimuli/10101111.jpg"," ","","feedback_trial","1","","","","","","","","","","","","","","","","","","","","",""
"","","","","","image-keyboard-response","314","598313","0.0-289.0","63b9d3abc3ddc61c8c08fd84","665500ab8938657b03fbdba8","665792a415c43f13423efe2a","729","stimuli/1011110.jpg","0","","prediction_trial","1","","false","","1","false","false","false","false","false","false","[1,2]","011","110","0","","","","","","",""
"","","","","","image-keyboard-response","315","598596","0.0-290.0","63b9d3abc3ddc61c8c08fd84","665500ab8938657b03fbdba8","665792a415c43f13423efe2a","280","stimuli/10111101.jpg"," ","","feedback_trial","1","","","","","","","","","","","","","","","","","","","","",""
"","","","","","image-keyboard-response","316","600280","0.0-291.0","63b9d3abc3ddc61c8c08fd84","665500ab8938657b03fbdba8","665792a415c43f13423efe2a","1681","stimuli/1011111.jpg","1","","prediction_trial","1","","true","","1","false","false","false","false","false","false","[1,2]","011","111","1","","","","","","",""
"","","","","","image-keyboard-response","317","600703","0.0-292.0","63b9d3abc3ddc61c8c08fd84","665500ab8938657b03fbdba8","665792a415c43f13423efe2a","422","stimuli/10111111.jpg"," ","","feedback_trial","1","","","","","","","","","","","","","","","","","","","","",""
"","","","","","survey-html-form","318","638195","0.0-293.0","63b9d3abc3ddc61c8c08fd84","665500ab8938657b03fbdba8","665792a415c43f13423efe2a","37488","","{""feedback"":""It seemed to be in the middle more often than not in the beginning but then it seemed to switch."",""age"":""49"",""gender"":""Female"",""other_gender"":"""",""race"":""White"",""other_race"":"""",""ethnicity"":""Non-Hispanic""}","","exit_survey","","","","","","","","","","","","","","","","It seemed to be in the middle more often than not in the beginning but then it seemed to switch.","49","Non-Hispanic","Female","White","0.5972222222222222","0.5972222222222222"
