"success","timeout","failed_images","failed_audio","failed_video","trial_type","trial_index","time_elapsed","internal_node_id","prolific_id","prolific_study_id","prolific_session_id","rt","stimulus","response","view_history","trial","character_choice","stimulus_dict","accuracy","correct_response","ball_pos","ego_ball_visible","ego_can_infer","alter_ball_visible","alter_can_infer","collective_ball_visible","collective_can_infer","search_locations","alter_occluders","ego_occluders","accuracy_bool","feedback","age","ethnicity","gender","race","overall_accuracy","bonus"
"true","false","[]","[]","[]","preload","0","6898","0.0-0.0","63eb82da9758a485a67914a2","665500ab8938657b03fbdba8","6657812f95cc9ccd2b0b77e3","","","","","","","","","","","","","","","","","","","","","","","","","","",""
"true","","","","","fullscreen","1","31870","0.0-1.0","63eb82da9758a485a67914a2","665500ab8938657b03fbdba8","6657812f95cc9ccd2b0b77e3","","","","","","","","","","","","","","","","","","","","","","","","","","",""
"","","","","","html-button-response","2","77376","0.0-2.0","63eb82da9758a485a67914a2","665500ab8938657b03fbdba8","6657812f95cc9ccd2b0b77e3","45504","<p><b>Consent Form</b></p> <div style=""text-align:left;background-color:lightgrey; padding:20px; max-width:900px;""><p>Please consider this information carefully before deciding whether to participate in this research.</p> <p>The purpose of this research is to examine which factors influence social judgment and decision-making. You will be asked to make judgements about individuals and actions in social scenarios. We are simply interested in your judgement. The study will take less than 1 hour to complete, and you will receive less than $20 on Prolific. Your compensation and time commitment are specified in the study description. There are no anticipated risks associated with participating in this study. The effects of participating should be comparable to those you would ordinarily experience from viewing a computer monitor and using a mouse or keyboard for a similar amount of time. At the end of the study, we will provide an explanation of the questions that motivate this line of research and will describe the potential implications. </p><p> Your participation in this study is completely voluntary and you may refuse to participate or you may choose to withdraw at any time without penalty or loss of benefits to you which are otherwise entitled. Your participation in this study will remain confidential. No personally identifiable information will be associated with your data. Also, all analyses of the data will be averaged across all the participants, so your individual responses will never be specifically analyzed. </p><p> If you have questions or concerns about your participation or payment, or want to request a summary of research findings, please contact Dr. Jonathan Phillips at Jonathan.S.Phillips@dartmouth.edu. </p><p> Please save a copy of this form for your records. </p><p><b>Agreement: </b>The nature and purpose of this research have been sufficiently explained and I agree to participate in this study. I understand that I am free to withdraw at any time without incurring any penalty. Please consent by clicking the button below to continue. Otherwise, please exit the study at any time. </p>","0","","","","","","","","","","","","","","","","","","","","","","","",""
"","","","","","instructions","3","226216","0.0-3.0-0.0","63eb82da9758a485a67914a2","665500ab8938657b03fbdba8","6657812f95cc9ccd2b0b77e3","148839","","","[{""page_index"":0,""viewing_time"":2444},{""page_index"":1,""viewing_time"":16271},{""page_index"":2,""viewing_time"":6589},{""page_index"":3,""viewing_time"":11180},{""page_index"":4,""viewing_time"":9482},{""page_index"":5,""viewing_time"":7747},{""page_index"":6,""viewing_time"":9797},{""page_index"":7,""viewing_time"":8454},{""page_index"":8,""viewing_time"":11560},{""page_index"":9,""viewing_time"":8683},{""page_index"":10,""viewing_time"":13656},{""page_index"":11,""viewing_time"":29030},{""page_index"":12,""viewing_time"":11785},{""page_index"":13,""viewing_time"":2159}]","intro","","","","","","","","","","","","","","","","","","","","","",""
"","","","","","image-keyboard-response","4","228319","0.0-3.0-1.0","63eb82da9758a485a67914a2","665500ab8938657b03fbdba8","6657812f95cc9ccd2b0b77e3","2064","stimuli/2000110.jpg","2","","prediction_practice","2","{""filepath"":""stimuli/2000110.jpg"",""ball_pos"":2,""ego_ball_visible"":true,""ego_can_infer"":true,""alter_ball_visible"":true,""alter_can_infer"":true,""collective_ball_visible"":true,""collective_can_infer"":true,""search_locations"":[2],""alter_occluders"":""000"",""ego_occluders"":""110""}","true","","","","","","","","","","","","","","","","","","",""
"","","","","","image-keyboard-response","5","230239","0.0-3.0-2.0","63eb82da9758a485a67914a2","665500ab8938657b03fbdba8","6657812f95cc9ccd2b0b77e3","1919","stimuli/20001102.jpg"," ","","practrice_feedback","2","","","","","","","","","","","","","","","","","","","","",""
"","","","","","image-keyboard-response","6","233152","0.0-3.0-3.0","63eb82da9758a485a67914a2","665500ab8938657b03fbdba8","6657812f95cc9ccd2b0b77e3","2911","stimuli/1000111.jpg","0","","prediction_practice","1","{""filepath"":""stimuli/1000111.jpg"",""ball_pos"":1,""ego_ball_visible"":false,""ego_can_infer"":false,""alter_ball_visible"":true,""alter_can_infer"":true,""collective_ball_visible"":false,""collective_can_infer"":false,""search_locations"":[1],""alter_occluders"":""000"",""ego_occluders"":""111""}","false","","","","","","","","","","","","","","","","","","",""
"","","","","","image-keyboard-response","7","235424","0.0-3.0-4.0","63eb82da9758a485a67914a2","665500ab8938657b03fbdba8","6657812f95cc9ccd2b0b77e3","2270","stimuli/10001111.jpg"," ","","practrice_feedback","1","","","","","","","","","","","","","","","","","","","","",""
"","","","","","image-keyboard-response","8","238384","0.0-3.0-5.0","63eb82da9758a485a67914a2","665500ab8938657b03fbdba8","6657812f95cc9ccd2b0b77e3","2959","stimuli/1100100.jpg","1","","prediction_practice","1","{""filepath"":""stimuli/1100100.jpg"",""ball_pos"":1,""ego_ball_visible"":true,""ego_can_infer"":true,""alter_ball_visible"":true,""alter_can_infer"":true,""collective_ball_visible"":true,""collective_can_infer"":true,""search_locations"":[1],""alter_occluders"":""100"",""ego_occluders"":""100""}","true","","","","","","","","","","","","","","","","","","",""
"","","","","","image-keyboard-response","9","240128","0.0-3.0-6.0","63eb82da9758a485a67914a2","665500ab8938657b03fbdba8","6657812f95cc9ccd2b0b77e3","1743","stimuli/11001001.jpg"," ","","practrice_feedback","1","","","","","","","","","","","","","","","","","","","","",""
"","","","","","image-keyboard-response","10","243465","0.0-3.0-7.0","63eb82da9758a485a67914a2","665500ab8938657b03fbdba8","6657812f95cc9ccd2b0b77e3","3336","stimuli/2101101.jpg","0","","prediction_practice","0","{""filepath"":""stimuli/2101101.jpg"",""ball_pos"":2,""ego_ball_visible"":false,""ego_can_infer"":false,""alter_ball_visible"":false,""alter_can_infer"":false,""collective_ball_visible"":false,""collective_can_infer"":false,""search_locations"":[0,2],""alter_occluders"":""101"",""ego_occluders"":""101""}","true","","","","","","","","","","","","","","","","","","",""
"","","","","","image-keyboard-response","11","245233","0.0-3.0-8.0","63eb82da9758a485a67914a2","665500ab8938657b03fbdba8","6657812f95cc9ccd2b0b77e3","1767","stimuli/21011010.jpg"," ","","practrice_feedback","0","","","","","","","","","","","","","","","","","","","","",""
"","","","","","image-keyboard-response","12","251346","0.0-3.0-9.0","63eb82da9758a485a67914a2","665500ab8938657b03fbdba8","6657812f95cc9ccd2b0b77e3","6112","stimuli/2110111.jpg","1","","prediction_practice","2","{""filepath"":""stimuli/2110111.jpg"",""ball_pos"":2,""ego_ball_visible"":false,""ego_can_infer"":false,""alter_ball_visible"":true,""alter_can_infer"":true,""collective_ball_visible"":false,""collective_can_infer"":false,""search_locations"":[2],""alter_occluders"":""110"",""ego_occluders"":""111""}","false","","","","","","","","","","","","","","","","","","",""
"","","","","","image-keyboard-response","13","253226","0.0-3.0-10.0","63eb82da9758a485a67914a2","665500ab8938657b03fbdba8","6657812f95cc9ccd2b0b77e3","1879","stimuli/21101112.jpg"," ","","practrice_feedback","2","","","","","","","","","","","","","","","","","","","","",""
"","","","","","image-keyboard-response","14","256850","0.0-3.0-11.0","63eb82da9758a485a67914a2","665500ab8938657b03fbdba8","6657812f95cc9ccd2b0b77e3","3623","stimuli/2011010.jpg","2","","prediction_practice","2","{""filepath"":""stimuli/2011010.jpg"",""ball_pos"":2,""ego_ball_visible"":true,""ego_can_infer"":true,""alter_ball_visible"":false,""alter_can_infer"":false,""collective_ball_visible"":false,""collective_can_infer"":false,""search_locations"":[2,1],""alter_occluders"":""011"",""ego_occluders"":""010""}","true","","","","","","","","","","","","","","","","","","",""
"","","","","","image-keyboard-response","15","258483","0.0-3.0-12.0","63eb82da9758a485a67914a2","665500ab8938657b03fbdba8","6657812f95cc9ccd2b0b77e3","1631","stimuli/20110102.jpg"," ","","practrice_feedback","2","","","","","","","","","","","","","","","","","","","","",""
"","","","","","image-keyboard-response","16","261435","0.0-3.0-13.0","63eb82da9758a485a67914a2","665500ab8938657b03fbdba8","6657812f95cc9ccd2b0b77e3","2952","stimuli/0010000.jpg","0","","prediction_practice","0","{""filepath"":""stimuli/0010000.jpg"",""ball_pos"":0,""ego_ball_visible"":true,""ego_can_infer"":true,""alter_ball_visible"":true,""alter_can_infer"":true,""collective_ball_visible"":true,""collective_can_infer"":true,""search_locations"":[0],""alter_occluders"":""010"",""ego_occluders"":""000""}","true","","","","","","","","","","","","","","","","","","",""
"","","","","","image-keyboard-response","17","262732","0.0-3.0-14.0","63eb82da9758a485a67914a2","665500ab8938657b03fbdba8","6657812f95cc9ccd2b0b77e3","1295","stimuli/00100000.jpg"," ","","practrice_feedback","0","","","","","","","","","","","","","","","","","","","","",""
"","","","","","image-keyboard-response","18","264883","0.0-3.0-15.0","63eb82da9758a485a67914a2","665500ab8938657b03fbdba8","6657812f95cc9ccd2b0b77e3","2150","stimuli/2100100.jpg","2","","prediction_practice","2","{""filepath"":""stimuli/2100100.jpg"",""ball_pos"":2,""ego_ball_visible"":true,""ego_can_infer"":true,""alter_ball_visible"":true,""alter_can_infer"":true,""collective_ball_visible"":true,""collective_can_infer"":true,""search_locations"":[2],""alter_occluders"":""100"",""ego_occluders"":""100""}","true","","","","","","","","","","","","","","","","","","",""
"","","","","","image-keyboard-response","19","266003","0.0-3.0-16.0","63eb82da9758a485a67914a2","665500ab8938657b03fbdba8","6657812f95cc9ccd2b0b77e3","1119","stimuli/21001002.jpg"," ","","practrice_feedback","2","","","","","","","","","","","","","","","","","","","","",""
"","","","","","image-keyboard-response","20","268812","0.0-3.0-17.0","63eb82da9758a485a67914a2","665500ab8938657b03fbdba8","6657812f95cc9ccd2b0b77e3","2808","stimuli/1001110.jpg","1","","prediction_practice","1","{""filepath"":""stimuli/1001110.jpg"",""ball_pos"":1,""ego_ball_visible"":false,""ego_can_infer"":false,""alter_ball_visible"":true,""alter_can_infer"":true,""collective_ball_visible"":false,""collective_can_infer"":false,""search_locations"":[1],""alter_occluders"":""001"",""ego_occluders"":""110""}","true","","","","","","","","","","","","","","","","","","",""
"","","","","","image-keyboard-response","21","269964","0.0-3.0-18.0","63eb82da9758a485a67914a2","665500ab8938657b03fbdba8","6657812f95cc9ccd2b0b77e3","1150","stimuli/10011101.jpg"," ","","practrice_feedback","1","","","","","","","","","","","","","","","","","","","","",""
"","","","","","image-keyboard-response","22","273844","0.0-3.0-19.0","63eb82da9758a485a67914a2","665500ab8938657b03fbdba8","6657812f95cc9ccd2b0b77e3","3880","stimuli/1111101.jpg","1","","prediction_practice","2","{""filepath"":""stimuli/1111101.jpg"",""ball_pos"":1,""ego_ball_visible"":true,""ego_can_infer"":true,""alter_ball_visible"":false,""alter_can_infer"":false,""collective_ball_visible"":false,""collective_can_infer"":false,""search_locations"":[2,0,1],""alter_occluders"":""111"",""ego_occluders"":""101""}","false","","","","","","","","","","","","","","","","","","",""
"","","","","","image-keyboard-response","23","275469","0.0-3.0-20.0","63eb82da9758a485a67914a2","665500ab8938657b03fbdba8","6657812f95cc9ccd2b0b77e3","1623","stimuli/11111012.jpg"," ","","practrice_feedback","2","","","","","","","","","","","","","","","","","","","","",""
"","","","","","html-button-response","24","285788","0.0-3.0-21.0","63eb82da9758a485a67914a2","665500ab8938657b03fbdba8","6657812f95cc9ccd2b0b77e3","10318","Now that you've had some practice, you'll be tested with a couple of easy trials. If you correctly predict Sam's choice, you'll move on to complete the experiment!","0","","","","","","","","","","","","","","","","","","","","","","","",""
"","","","","","image-keyboard-response","25","287422","0.0-3.0-22.0-0.0","63eb82da9758a485a67914a2","665500ab8938657b03fbdba8","6657812f95cc9ccd2b0b77e3","1634","stimuli/0000011.jpg","arrowleft","","comprehension_quiz","","","true","arrowleft","","","","","","","","","","","","","","","","","",""
"","","","","","image-keyboard-response","26","289022","0.0-3.0-22.0-1.0","63eb82da9758a485a67914a2","665500ab8938657b03fbdba8","6657812f95cc9ccd2b0b77e3","1599","stimuli/00000110.jpg"," ","","comprehension_quiz","","","true"," ","","","","","","","","","","","","","","","","","",""
"","","","","","image-keyboard-response","27","292295","0.0-3.0-22.0-2.0","63eb82da9758a485a67914a2","665500ab8938657b03fbdba8","6657812f95cc9ccd2b0b77e3","3272","stimuli/1010010.jpg","arrowdown","","comprehension_quiz","","","true","arrowdown","","","","","","","","","","","","","","","","","",""
"","","","","","image-keyboard-response","28","293422","0.0-3.0-22.0-3.0","63eb82da9758a485a67914a2","665500ab8938657b03fbdba8","6657812f95cc9ccd2b0b77e3","1126","stimuli/10100101.jpg"," ","","comprehension_quiz","","","true"," ","","","","","","","","","","","","","","","","","",""
"","","","","","html-button-response","29","296002","0.0-4.0","63eb82da9758a485a67914a2","665500ab8938657b03fbdba8","6657812f95cc9ccd2b0b77e3","2578","The experiment will now begin.","0","","","","","","","","","","","","","","","","","","","","","","","",""
"","","","","","image-keyboard-response","30","298247","0.0-5.0","63eb82da9758a485a67914a2","665500ab8938657b03fbdba8","6657812f95cc9ccd2b0b77e3","2244","stimuli/1101010.jpg","1","","prediction_trial","1","","true","","1","false","true","true","true","false","true","[1]","101","010","1","","","","","","",""
"","","","","","image-keyboard-response","31","299384","0.0-6.0","63eb82da9758a485a67914a2","665500ab8938657b03fbdba8","6657812f95cc9ccd2b0b77e3","1135","stimuli/11010101.jpg"," ","","feedback_trial","1","","","","","","","","","","","","","","","","","","","","",""
"","","","","","image-keyboard-response","32","301863","0.0-7.0","63eb82da9758a485a67914a2","665500ab8938657b03fbdba8","6657812f95cc9ccd2b0b77e3","2479","stimuli/1100100.jpg","1","","prediction_trial","1","","true","","1","true","true","true","true","true","true","[1]","100","100","1","","","","","","",""
"","","","","","image-keyboard-response","33","302824","0.0-8.0","63eb82da9758a485a67914a2","665500ab8938657b03fbdba8","6657812f95cc9ccd2b0b77e3","960","stimuli/11001001.jpg"," ","","feedback_trial","1","","","","","","","","","","","","","","","","","","","","",""
"","","","","","image-keyboard-response","34","305072","0.0-9.0","63eb82da9758a485a67914a2","665500ab8938657b03fbdba8","6657812f95cc9ccd2b0b77e3","2247","stimuli/0001001.jpg","0","","prediction_trial","0","","true","","0","true","true","true","true","true","true","[0]","001","001","1","","","","","","",""
"","","","","","image-keyboard-response","35","305961","0.0-10.0","63eb82da9758a485a67914a2","665500ab8938657b03fbdba8","6657812f95cc9ccd2b0b77e3","887","stimuli/00010010.jpg"," ","","feedback_trial","0","","","","","","","","","","","","","","","","","","","","",""
"","","","","","image-keyboard-response","36","308889","0.0-11.0","63eb82da9758a485a67914a2","665500ab8938657b03fbdba8","6657812f95cc9ccd2b0b77e3","2927","stimuli/1000111.jpg","1","","prediction_trial","1","","true","","1","false","false","true","true","false","false","[1]","000","111","1","","","","","","",""
"","","","","","image-keyboard-response","37","309873","0.0-12.0","63eb82da9758a485a67914a2","665500ab8938657b03fbdba8","6657812f95cc9ccd2b0b77e3","983","stimuli/10001111.jpg"," ","","feedback_trial","1","","","","","","","","","","","","","","","","","","","","",""
"","","","","","image-keyboard-response","38","311921","0.0-13.0","63eb82da9758a485a67914a2","665500ab8938657b03fbdba8","6657812f95cc9ccd2b0b77e3","2047","stimuli/1000000.jpg","1","","prediction_trial","1","","true","","1","true","true","true","true","true","true","[1]","000","000","1","","","","","","",""
"","","","","","image-keyboard-response","39","312793","0.0-14.0","63eb82da9758a485a67914a2","665500ab8938657b03fbdba8","6657812f95cc9ccd2b0b77e3","871","stimuli/10000001.jpg"," ","","feedback_trial","1","","","","","","","","","","","","","","","","","","","","",""
"","","","","","image-keyboard-response","40","315009","0.0-15.0","63eb82da9758a485a67914a2","665500ab8938657b03fbdba8","6657812f95cc9ccd2b0b77e3","2215","stimuli/0110101.jpg","2","","prediction_trial","0","","false","","0","false","false","false","false","false","false","[0,1]","110","101","0","","","","","","",""
"","","","","","image-keyboard-response","41","316450","0.0-16.0","63eb82da9758a485a67914a2","665500ab8938657b03fbdba8","6657812f95cc9ccd2b0b77e3","1439","stimuli/01101010.jpg"," ","","feedback_trial","0","","","","","","","","","","","","","","","","","","","","",""
"","","","","","image-keyboard-response","42","319177","0.0-17.0","63eb82da9758a485a67914a2","665500ab8938657b03fbdba8","6657812f95cc9ccd2b0b77e3","2727","stimuli/0010001.jpg","0","","prediction_trial","0","","true","","0","true","true","true","true","true","true","[0]","010","001","1","","","","","","",""
"","","","","","image-keyboard-response","43","320059","0.0-18.0","63eb82da9758a485a67914a2","665500ab8938657b03fbdba8","6657812f95cc9ccd2b0b77e3","880","stimuli/00100010.jpg"," ","","feedback_trial","0","","","","","","","","","","","","","","","","","","","","",""
"","","","","","image-keyboard-response","44","321818","0.0-19.0","63eb82da9758a485a67914a2","665500ab8938657b03fbdba8","6657812f95cc9ccd2b0b77e3","1758","stimuli/2110001.jpg","2","","prediction_trial","2","","true","","2","false","true","true","true","false","true","[2]","110","001","1","","","","","","",""
"","","","","","image-keyboard-response","45","322658","0.0-20.0","63eb82da9758a485a67914a2","665500ab8938657b03fbdba8","6657812f95cc9ccd2b0b77e3","839","stimuli/21100012.jpg"," ","","feedback_trial","2","","","","","","","","","","","","","","","","","","","","",""
"","","","","","image-keyboard-response","46","325574","0.0-21.0","63eb82da9758a485a67914a2","665500ab8938657b03fbdba8","6657812f95cc9ccd2b0b77e3","2914","stimuli/2011111.jpg","0","","prediction_trial","2","","false","","2","false","false","false","false","false","false","[2,1]","011","111","0","","","","","","",""
"","","","","","image-keyboard-response","47","327163","0.0-22.0","63eb82da9758a485a67914a2","665500ab8938657b03fbdba8","6657812f95cc9ccd2b0b77e3","1588","stimuli/20111112.jpg"," ","","feedback_trial","2","","","","","","","","","","","","","","","","","","","","",""
"","","","","","image-keyboard-response","48","330251","0.0-23.0","63eb82da9758a485a67914a2","665500ab8938657b03fbdba8","6657812f95cc9ccd2b0b77e3","3088","stimuli/1101101.jpg","1","","prediction_trial","1","","true","","1","true","true","true","true","true","true","[1]","101","101","1","","","","","","",""
"","","","","","image-keyboard-response","49","330867","0.0-24.0","63eb82da9758a485a67914a2","665500ab8938657b03fbdba8","6657812f95cc9ccd2b0b77e3","615","stimuli/11011011.jpg"," ","","feedback_trial","1","","","","","","","","","","","","","","","","","","","","",""
"","","","","","image-keyboard-response","50","333403","0.0-25.0","63eb82da9758a485a67914a2","665500ab8938657b03fbdba8","6657812f95cc9ccd2b0b77e3","2536","stimuli/2001000.jpg","2","","prediction_trial","2","","true","","2","true","true","false","true","false","true","[2]","001","000","1","","","","","","",""
"","","","","","image-keyboard-response","51","334187","0.0-26.0","63eb82da9758a485a67914a2","665500ab8938657b03fbdba8","6657812f95cc9ccd2b0b77e3","783","stimuli/20010002.jpg"," ","","feedback_trial","2","","","","","","","","","","","","","","","","","","","","",""
"","","","","","image-keyboard-response","52","336164","0.0-27.0","63eb82da9758a485a67914a2","665500ab8938657b03fbdba8","6657812f95cc9ccd2b0b77e3","1976","stimuli/0100011.jpg","0","","prediction_trial","0","","true","","0","true","true","false","true","false","true","[0]","100","011","1","","","","","","",""
"","","","","","image-keyboard-response","53","336972","0.0-28.0","63eb82da9758a485a67914a2","665500ab8938657b03fbdba8","6657812f95cc9ccd2b0b77e3","806","stimuli/01000110.jpg"," ","","feedback_trial","0","","","","","","","","","","","","","","","","","","","","",""
"","","","","","image-keyboard-response","54","339068","0.0-29.0","63eb82da9758a485a67914a2","665500ab8938657b03fbdba8","6657812f95cc9ccd2b0b77e3","2096","stimuli/2100010.jpg","2","","prediction_trial","2","","true","","2","true","true","true","true","true","true","[2]","100","010","1","","","","","","",""
"","","","","","image-keyboard-response","55","339884","0.0-30.0","63eb82da9758a485a67914a2","665500ab8938657b03fbdba8","6657812f95cc9ccd2b0b77e3","815","stimuli/21000102.jpg"," ","","feedback_trial","2","","","","","","","","","","","","","","","","","","","","",""
"","","","","","image-keyboard-response","56","343797","0.0-31.0","63eb82da9758a485a67914a2","665500ab8938657b03fbdba8","6657812f95cc9ccd2b0b77e3","3911","stimuli/2000011.jpg","1","","prediction_trial","2","","false","","2","false","false","true","true","false","false","[2]","000","011","0","","","","","","",""
"","","","","","image-keyboard-response","57","345269","0.0-32.0","63eb82da9758a485a67914a2","665500ab8938657b03fbdba8","6657812f95cc9ccd2b0b77e3","1471","stimuli/20000112.jpg"," ","","feedback_trial","2","","","","","","","","","","","","","","","","","","","","",""
"","","","","","image-keyboard-response","58","347797","0.0-33.0","63eb82da9758a485a67914a2","665500ab8938657b03fbdba8","6657812f95cc9ccd2b0b77e3","2527","stimuli/1100101.jpg","1","","prediction_trial","1","","true","","1","true","true","true","true","true","true","[1]","100","101","1","","","","","","",""
"","","","","","image-keyboard-response","59","348757","0.0-34.0","63eb82da9758a485a67914a2","665500ab8938657b03fbdba8","6657812f95cc9ccd2b0b77e3","959","stimuli/11001011.jpg"," ","","feedback_trial","1","","","","","","","","","","","","","","","","","","","","",""
"","","","","","image-keyboard-response","60","351750","0.0-35.0","63eb82da9758a485a67914a2","665500ab8938657b03fbdba8","6657812f95cc9ccd2b0b77e3","2992","stimuli/0101111.jpg","2","","prediction_trial","2","","true","","0","false","false","false","false","false","false","[0,2]","101","111","1","","","","","","",""
"","","","","","image-keyboard-response","61","352742","0.0-36.0","63eb82da9758a485a67914a2","665500ab8938657b03fbdba8","6657812f95cc9ccd2b0b77e3","990","stimuli/01011112.jpg"," ","","feedback_trial","0","","","","","","","","","","","","","","","","","","","","",""
"","","","","","image-keyboard-response","62","355278","0.0-37.0","63eb82da9758a485a67914a2","665500ab8938657b03fbdba8","6657812f95cc9ccd2b0b77e3","2535","stimuli/0000001.jpg","0","","prediction_trial","0","","true","","0","true","true","true","true","true","true","[0]","000","001","1","","","","","","",""
"","","","","","image-keyboard-response","63","356086","0.0-38.0","63eb82da9758a485a67914a2","665500ab8938657b03fbdba8","6657812f95cc9ccd2b0b77e3","807","stimuli/00000010.jpg"," ","","feedback_trial","0","","","","","","","","","","","","","","","","","","","","",""
"","","","","","image-keyboard-response","64","360286","0.0-39.0","63eb82da9758a485a67914a2","665500ab8938657b03fbdba8","6657812f95cc9ccd2b0b77e3","4200","stimuli/1011000.jpg","1","","prediction_trial","1","","true","","1","true","true","false","false","false","false","[1,2]","011","000","1","","","","","","",""
"","","","","","image-keyboard-response","65","361247","0.0-40.0","63eb82da9758a485a67914a2","665500ab8938657b03fbdba8","6657812f95cc9ccd2b0b77e3","960","stimuli/10110001.jpg"," ","","feedback_trial","1","","","","","","","","","","","","","","","","","","","","",""
"","","","","","image-keyboard-response","66","363110","0.0-41.0","63eb82da9758a485a67914a2","665500ab8938657b03fbdba8","6657812f95cc9ccd2b0b77e3","1862","stimuli/0001011.jpg","0","","prediction_trial","0","","true","","0","true","true","true","true","true","true","[0]","001","011","1","","","","","","",""
"","","","","","image-keyboard-response","67","364070","0.0-42.0","63eb82da9758a485a67914a2","665500ab8938657b03fbdba8","6657812f95cc9ccd2b0b77e3","959","stimuli/00010110.jpg"," ","","feedback_trial","0","","","","","","","","","","","","","","","","","","","","",""
"","","","","","image-keyboard-response","68","368246","0.0-43.0","63eb82da9758a485a67914a2","665500ab8938657b03fbdba8","6657812f95cc9ccd2b0b77e3","4175","stimuli/2000111.jpg","0","","prediction_trial","2","","false","","2","false","false","true","true","false","false","[2]","000","111","0","","","","","","",""
"","","","","","image-keyboard-response","69","369663","0.0-44.0","63eb82da9758a485a67914a2","665500ab8938657b03fbdba8","6657812f95cc9ccd2b0b77e3","1415","stimuli/20001112.jpg"," ","","feedback_trial","2","","","","","","","","","","","","","","","","","","","","",""
"","","","","","image-keyboard-response","70","372615","0.0-45.0","63eb82da9758a485a67914a2","665500ab8938657b03fbdba8","6657812f95cc9ccd2b0b77e3","2951","stimuli/0010101.jpg","2","","prediction_trial","0","","false","","0","false","false","true","true","false","false","[0]","010","101","0","","","","","","",""
"","","","","","image-keyboard-response","71","373920","0.0-46.0","63eb82da9758a485a67914a2","665500ab8938657b03fbdba8","6657812f95cc9ccd2b0b77e3","1304","stimuli/00101010.jpg"," ","","feedback_trial","0","","","","","","","","","","","","","","","","","","","","",""
"","","","","","image-keyboard-response","72","376623","0.0-47.0","63eb82da9758a485a67914a2","665500ab8938657b03fbdba8","6657812f95cc9ccd2b0b77e3","2702","stimuli/1100001.jpg","1","","prediction_trial","1","","true","","1","true","true","true","true","true","true","[1]","100","001","1","","","","","","",""
"","","","","","image-keyboard-response","73","377007","0.0-48.0","63eb82da9758a485a67914a2","665500ab8938657b03fbdba8","6657812f95cc9ccd2b0b77e3","383","stimuli/11000011.jpg"," ","","feedback_trial","1","","","","","","","","","","","","","","","","","","","","",""
"","","","","","image-keyboard-response","74","380296","0.0-49.0","63eb82da9758a485a67914a2","665500ab8938657b03fbdba8","6657812f95cc9ccd2b0b77e3","3288","stimuli/0111010.jpg","0","","prediction_trial","2","","false","","0","true","true","false","false","false","false","[1,0,2]","111","010","0","","","","","","",""
"","","","","","image-keyboard-response","75","381528","0.0-50.0","63eb82da9758a485a67914a2","665500ab8938657b03fbdba8","6657812f95cc9ccd2b0b77e3","1231","stimuli/01110102.jpg"," ","","feedback_trial","1","","","","","","","","","","","","","","","","","","","","",""
"","","","","","image-keyboard-response","76","383552","0.0-51.0","63eb82da9758a485a67914a2","665500ab8938657b03fbdba8","6657812f95cc9ccd2b0b77e3","2022","stimuli/0100000.jpg","0","","prediction_trial","0","","true","","0","true","true","false","true","false","true","[0]","100","000","1","","","","","","",""
"","","","","","image-keyboard-response","77","384281","0.0-52.0","63eb82da9758a485a67914a2","665500ab8938657b03fbdba8","6657812f95cc9ccd2b0b77e3","728","stimuli/01000000.jpg"," ","","feedback_trial","0","","","","","","","","","","","","","","","","","","","","",""
"","","","","","image-keyboard-response","78","386321","0.0-53.0","63eb82da9758a485a67914a2","665500ab8938657b03fbdba8","6657812f95cc9ccd2b0b77e3","2039","stimuli/2000000.jpg","2","","prediction_trial","2","","true","","2","true","true","true","true","true","true","[2]","000","000","1","","","","","","",""
"","","","","","image-keyboard-response","79","387105","0.0-54.0","63eb82da9758a485a67914a2","665500ab8938657b03fbdba8","6657812f95cc9ccd2b0b77e3","783","stimuli/20000002.jpg"," ","","feedback_trial","2","","","","","","","","","","","","","","","","","","","","",""
"","","","","","image-keyboard-response","80","389905","0.0-55.0","63eb82da9758a485a67914a2","665500ab8938657b03fbdba8","6657812f95cc9ccd2b0b77e3","2799","stimuli/0111110.jpg","1","","prediction_trial","2","","false","","0","false","false","false","false","false","false","[1,0,2]","111","110","0","","","","","","",""
"","","","","","image-keyboard-response","81","391185","0.0-56.0","63eb82da9758a485a67914a2","665500ab8938657b03fbdba8","6657812f95cc9ccd2b0b77e3","1279","stimuli/01111102.jpg"," ","","feedback_trial","1","","","","","","","","","","","","","","","","","","","","",""
"","","","","","image-keyboard-response","82","393889","0.0-57.0","63eb82da9758a485a67914a2","665500ab8938657b03fbdba8","6657812f95cc9ccd2b0b77e3","2703","stimuli/2110010.jpg","2","","prediction_trial","2","","true","","2","true","true","true","true","true","true","[2]","110","010","1","","","","","","",""
"","","","","","image-keyboard-response","83","394666","0.0-58.0","63eb82da9758a485a67914a2","665500ab8938657b03fbdba8","6657812f95cc9ccd2b0b77e3","776","stimuli/21100102.jpg"," ","","feedback_trial","2","","","","","","","","","","","","","","","","","","","","",""
"","","","","","image-keyboard-response","84","397762","0.0-59.0","63eb82da9758a485a67914a2","665500ab8938657b03fbdba8","6657812f95cc9ccd2b0b77e3","3095","stimuli/0110010.jpg","0","","prediction_trial","0","","true","","0","true","true","false","false","false","false","[1,0]","110","010","1","","","","","","",""
"","","","","","image-keyboard-response","85","398762","0.0-60.0","63eb82da9758a485a67914a2","665500ab8938657b03fbdba8","6657812f95cc9ccd2b0b77e3","999","stimuli/01100100.jpg"," ","","feedback_trial","1","","","","","","","","","","","","","","","","","","","","",""
"","","","","","image-keyboard-response","86","401394","0.0-61.0","63eb82da9758a485a67914a2","665500ab8938657b03fbdba8","6657812f95cc9ccd2b0b77e3","2631","stimuli/2110110.jpg","2","","prediction_trial","2","","true","","2","true","true","true","true","true","true","[2]","110","110","1","","","","","","",""
"","","","","","image-keyboard-response","87","402203","0.0-62.0","63eb82da9758a485a67914a2","665500ab8938657b03fbdba8","6657812f95cc9ccd2b0b77e3","808","stimuli/21101102.jpg"," ","","feedback_trial","2","","","","","","","","","","","","","","","","","","","","",""
"","","","","","image-keyboard-response","88","404955","0.0-63.0","63eb82da9758a485a67914a2","665500ab8938657b03fbdba8","6657812f95cc9ccd2b0b77e3","2751","stimuli/0101101.jpg","0","","prediction_trial","0","","true","","0","false","false","false","false","false","false","[2,0]","101","101","1","","","","","","",""
"","","","","","image-keyboard-response","89","405859","0.0-64.0","63eb82da9758a485a67914a2","665500ab8938657b03fbdba8","6657812f95cc9ccd2b0b77e3","903","stimuli/01011010.jpg"," ","","feedback_trial","2","","","","","","","","","","","","","","","","","","","","",""
"","","","","","image-keyboard-response","90","408931","0.0-65.0","63eb82da9758a485a67914a2","665500ab8938657b03fbdba8","6657812f95cc9ccd2b0b77e3","3071","stimuli/0011000.jpg","0","","prediction_trial","0","","true","","0","true","true","true","true","true","true","[0]","011","000","1","","","","","","",""
"","","","","","image-keyboard-response","91","409443","0.0-66.0","63eb82da9758a485a67914a2","665500ab8938657b03fbdba8","6657812f95cc9ccd2b0b77e3","511","stimuli/00110000.jpg"," ","","feedback_trial","0","","","","","","","","","","","","","","","","","","","","",""
"","","","","","image-keyboard-response","92","411564","0.0-67.0","63eb82da9758a485a67914a2","665500ab8938657b03fbdba8","6657812f95cc9ccd2b0b77e3","2120","stimuli/2000010.jpg","2","","prediction_trial","2","","true","","2","true","true","true","true","true","true","[2]","000","010","1","","","","","","",""
"","","","","","image-keyboard-response","93","412204","0.0-68.0","63eb82da9758a485a67914a2","665500ab8938657b03fbdba8","6657812f95cc9ccd2b0b77e3","639","stimuli/20000102.jpg"," ","","feedback_trial","2","","","","","","","","","","","","","","","","","","","","",""
"","","","","","image-keyboard-response","94","415156","0.0-69.0","63eb82da9758a485a67914a2","665500ab8938657b03fbdba8","6657812f95cc9ccd2b0b77e3","2951","stimuli/0111001.jpg","1","","prediction_trial","1","","true","","0","true","true","false","false","false","false","[1,0,2]","111","001","1","","","","","","",""
"","","","","","image-keyboard-response","95","415908","0.0-70.0","63eb82da9758a485a67914a2","665500ab8938657b03fbdba8","6657812f95cc9ccd2b0b77e3","751","stimuli/01110011.jpg"," ","","feedback_trial","1","","","","","","","","","","","","","","","","","","","","",""
"","","","","","image-keyboard-response","96","418380","0.0-71.0","63eb82da9758a485a67914a2","665500ab8938657b03fbdba8","6657812f95cc9ccd2b0b77e3","2471","stimuli/2011110.jpg","2","","prediction_trial","2","","true","","2","true","true","false","false","false","false","[2,1]","011","110","1","","","","","","",""
"","","","","","image-keyboard-response","97","418916","0.0-72.0","63eb82da9758a485a67914a2","665500ab8938657b03fbdba8","6657812f95cc9ccd2b0b77e3","535","stimuli/20111102.jpg"," ","","feedback_trial","2","","","","","","","","","","","","","","","","","","","","",""
"","","","","","image-keyboard-response","98","421286","0.0-73.0","63eb82da9758a485a67914a2","665500ab8938657b03fbdba8","6657812f95cc9ccd2b0b77e3","2367","stimuli/2110000.jpg","2","","prediction_trial","2","","true","","2","true","true","true","true","true","true","[2]","110","000","1","","","","","","",""
"","","","","","image-keyboard-response","99","421702","0.0-74.0","63eb82da9758a485a67914a2","665500ab8938657b03fbdba8","6657812f95cc9ccd2b0b77e3","415","stimuli/21100002.jpg"," ","","feedback_trial","2","","","","","","","","","","","","","","","","","","","","",""
"","","","","","image-keyboard-response","100","424670","0.0-75.0","63eb82da9758a485a67914a2","665500ab8938657b03fbdba8","6657812f95cc9ccd2b0b77e3","2966","stimuli/2011001.jpg","2","","prediction_trial","1","","false","","2","false","true","false","false","false","false","[2,1]","011","001","0","","","","","","",""
"","","","","","image-keyboard-response","101","426471","0.0-76.0","63eb82da9758a485a67914a2","665500ab8938657b03fbdba8","6657812f95cc9ccd2b0b77e3","1800","stimuli/20110011.jpg"," ","","feedback_trial","2","","","","","","","","","","","","","","","","","","","","",""
"","","","","","image-keyboard-response","102","431935","0.0-77.0","63eb82da9758a485a67914a2","665500ab8938657b03fbdba8","6657812f95cc9ccd2b0b77e3","5462","stimuli/1011100.jpg","1","","prediction_trial","2","","false","","1","true","true","false","false","false","false","[2,1]","011","100","0","","","","","","",""
"","","","","","image-keyboard-response","103","433007","0.0-78.0","63eb82da9758a485a67914a2","665500ab8938657b03fbdba8","6657812f95cc9ccd2b0b77e3","1071","stimuli/10111002.jpg"," ","","feedback_trial","2","","","","","","","","","","","","","","","","","","","","",""
"","","","","","image-keyboard-response","104","435080","0.0-79.0","63eb82da9758a485a67914a2","665500ab8938657b03fbdba8","6657812f95cc9ccd2b0b77e3","2071","stimuli/0010010.jpg","0","","prediction_trial","0","","true","","0","true","true","true","true","true","true","[0]","010","010","1","","","","","","",""
"","","","","","image-keyboard-response","105","435631","0.0-80.0","63eb82da9758a485a67914a2","665500ab8938657b03fbdba8","6657812f95cc9ccd2b0b77e3","551","stimuli/00100100.jpg"," ","","feedback_trial","0","","","","","","","","","","","","","","","","","","","","",""
"","","","","","image-keyboard-response","106","439840","0.0-81.0","63eb82da9758a485a67914a2","665500ab8938657b03fbdba8","6657812f95cc9ccd2b0b77e3","4208","stimuli/1001111.jpg","1","","prediction_trial","1","","true","","1","false","false","true","true","false","false","[1]","001","111","1","","","","","","",""
"","","","","","image-keyboard-response","107","440776","0.0-82.0","63eb82da9758a485a67914a2","665500ab8938657b03fbdba8","6657812f95cc9ccd2b0b77e3","935","stimuli/10011111.jpg"," ","","feedback_trial","1","","","","","","","","","","","","","","","","","","","","",""
"","","","","","image-keyboard-response","108","444505","0.0-83.0","63eb82da9758a485a67914a2","665500ab8938657b03fbdba8","6657812f95cc9ccd2b0b77e3","3728","stimuli/0111100.jpg","0","","prediction_trial","2","","false","","0","false","true","false","false","false","false","[0,2,1]","111","100","0","","","","","","",""
"","","","","","image-keyboard-response","109","446014","0.0-84.0","63eb82da9758a485a67914a2","665500ab8938657b03fbdba8","6657812f95cc9ccd2b0b77e3","1506","stimuli/01111002.jpg"," ","","feedback_trial","0","","","","","","","","","","","","","","","","","","","","",""
"","","","","","image-keyboard-response","110","448033","0.0-85.0","63eb82da9758a485a67914a2","665500ab8938657b03fbdba8","6657812f95cc9ccd2b0b77e3","2018","stimuli/2101010.jpg","2","","prediction_trial","2","","true","","2","true","true","false","false","false","false","[0,2]","101","010","1","","","","","","",""
"","","","","","image-keyboard-response","111","449033","0.0-86.0","63eb82da9758a485a67914a2","665500ab8938657b03fbdba8","6657812f95cc9ccd2b0b77e3","999","stimuli/21010102.jpg"," ","","feedback_trial","0","","","","","","","","","","","","","","","","","","","","",""
"","","","","","image-keyboard-response","112","451458","0.0-87.0","63eb82da9758a485a67914a2","665500ab8938657b03fbdba8","6657812f95cc9ccd2b0b77e3","2423","stimuli/2011101.jpg","2","","prediction_trial","1","","false","","2","false","false","false","false","false","false","[2,1]","011","101","0","","","","","","",""
"","","","","","image-keyboard-response","113","452753","0.0-88.0","63eb82da9758a485a67914a2","665500ab8938657b03fbdba8","6657812f95cc9ccd2b0b77e3","1294","stimuli/20111011.jpg"," ","","feedback_trial","2","","","","","","","","","","","","","","","","","","","","",""
"","","","","","image-keyboard-response","114","455298","0.0-89.0","63eb82da9758a485a67914a2","665500ab8938657b03fbdba8","6657812f95cc9ccd2b0b77e3","2544","stimuli/0111111.jpg","2","","prediction_trial","2","","true","","0","false","false","false","false","false","false","[0,2,1]","111","111","1","","","","","","",""
"","","","","","image-keyboard-response","115","456418","0.0-90.0","63eb82da9758a485a67914a2","665500ab8938657b03fbdba8","6657812f95cc9ccd2b0b77e3","1119","stimuli/01111112.jpg"," ","","feedback_trial","0","","","","","","","","","","","","","","","","","","","","",""
"","","","","","image-keyboard-response","116","458915","0.0-91.0","63eb82da9758a485a67914a2","665500ab8938657b03fbdba8","6657812f95cc9ccd2b0b77e3","2496","stimuli/1101111.jpg","1","","prediction_trial","1","","true","","1","false","false","true","true","false","false","[1]","101","111","1","","","","","","",""
"","","","","","image-keyboard-response","117","459858","0.0-92.0","63eb82da9758a485a67914a2","665500ab8938657b03fbdba8","6657812f95cc9ccd2b0b77e3","943","stimuli/11011111.jpg"," ","","feedback_trial","1","","","","","","","","","","","","","","","","","","","","",""
"","","","","","image-keyboard-response","118","463339","0.0-93.0","63eb82da9758a485a67914a2","665500ab8938657b03fbdba8","6657812f95cc9ccd2b0b77e3","3479","stimuli/1011011.jpg","2","","prediction_trial","2","","true","","1","false","false","false","false","false","false","[1,2]","011","011","1","","","","","","",""
"","","","","","image-keyboard-response","119","464123","0.0-94.0","63eb82da9758a485a67914a2","665500ab8938657b03fbdba8","6657812f95cc9ccd2b0b77e3","783","stimuli/10110112.jpg"," ","","feedback_trial","1","","","","","","","","","","","","","","","","","","","","",""
"","","","","","image-keyboard-response","120","466779","0.0-95.0","63eb82da9758a485a67914a2","665500ab8938657b03fbdba8","6657812f95cc9ccd2b0b77e3","2655","stimuli/2100001.jpg","2","","prediction_trial","2","","true","","2","false","true","true","true","false","true","[2]","100","001","1","","","","","","",""
"","","","","","image-keyboard-response","121","467475","0.0-96.0","63eb82da9758a485a67914a2","665500ab8938657b03fbdba8","6657812f95cc9ccd2b0b77e3","695","stimuli/21000012.jpg"," ","","feedback_trial","2","","","","","","","","","","","","","","","","","","","","",""
"","","","","","image-keyboard-response","122","469828","0.0-97.0","63eb82da9758a485a67914a2","665500ab8938657b03fbdba8","6657812f95cc9ccd2b0b77e3","2351","stimuli/0111101.jpg","0","","prediction_trial","2","","false","","0","false","false","false","false","false","false","[2,1,0]","111","101","0","","","","","","",""
"","","","","","image-keyboard-response","123","470851","0.0-98.0","63eb82da9758a485a67914a2","665500ab8938657b03fbdba8","6657812f95cc9ccd2b0b77e3","1022","stimuli/01111012.jpg"," ","","feedback_trial","2","","","","","","","","","","","","","","","","","","","","",""
"","","","","","image-keyboard-response","124","473092","0.0-99.0","63eb82da9758a485a67914a2","665500ab8938657b03fbdba8","6657812f95cc9ccd2b0b77e3","2240","stimuli/1010001.jpg","1","","prediction_trial","1","","true","","1","true","true","false","true","false","true","[1]","010","001","1","","","","","","",""
"","","","","","image-keyboard-response","125","473676","0.0-100.0","63eb82da9758a485a67914a2","665500ab8938657b03fbdba8","6657812f95cc9ccd2b0b77e3","583","stimuli/10100011.jpg"," ","","feedback_trial","1","","","","","","","","","","","","","","","","","","","","",""
"","","","","","image-keyboard-response","126","475820","0.0-101.0","63eb82da9758a485a67914a2","665500ab8938657b03fbdba8","6657812f95cc9ccd2b0b77e3","2143","stimuli/2010000.jpg","2","","prediction_trial","2","","true","","2","true","true","true","true","true","true","[2]","010","000","1","","","","","","",""
"","","","","","image-keyboard-response","127","476268","0.0-102.0","63eb82da9758a485a67914a2","665500ab8938657b03fbdba8","6657812f95cc9ccd2b0b77e3","446","stimuli/20100002.jpg"," ","","feedback_trial","2","","","","","","","","","","","","","","","","","","","","",""
"","","","","","image-keyboard-response","128","478565","0.0-103.0","63eb82da9758a485a67914a2","665500ab8938657b03fbdba8","6657812f95cc9ccd2b0b77e3","2296","stimuli/0011110.jpg","0","","prediction_trial","0","","true","","0","false","false","true","true","false","false","[0]","011","110","1","","","","","","",""
"","","","","","image-keyboard-response","129","479404","0.0-104.0","63eb82da9758a485a67914a2","665500ab8938657b03fbdba8","6657812f95cc9ccd2b0b77e3","839","stimuli/00111100.jpg"," ","","feedback_trial","0","","","","","","","","","","","","","","","","","","","","",""
"","","","","","image-keyboard-response","130","481996","0.0-105.0","63eb82da9758a485a67914a2","665500ab8938657b03fbdba8","6657812f95cc9ccd2b0b77e3","2591","stimuli/1110110.jpg","1","","prediction_trial","0","","false","","1","false","false","false","false","false","false","[0,1]","110","110","0","","","","","","",""
"","","","","","image-keyboard-response","131","482988","0.0-106.0","63eb82da9758a485a67914a2","665500ab8938657b03fbdba8","6657812f95cc9ccd2b0b77e3","991","stimuli/11101100.jpg"," ","","feedback_trial","0","","","","","","","","","","","","","","","","","","","","",""
"","","","","","image-keyboard-response","132","486869","0.0-107.0","63eb82da9758a485a67914a2","665500ab8938657b03fbdba8","6657812f95cc9ccd2b0b77e3","3879","stimuli/2001101.jpg","2","","prediction_trial","2","","true","","2","false","false","false","true","false","false","[2]","001","101","1","","","","","","",""
"","","","","","image-keyboard-response","133","487621","0.0-108.0","63eb82da9758a485a67914a2","665500ab8938657b03fbdba8","6657812f95cc9ccd2b0b77e3","751","stimuli/20011012.jpg"," ","","feedback_trial","2","","","","","","","","","","","","","","","","","","","","",""
"","","","","","image-keyboard-response","134","489773","0.0-109.0","63eb82da9758a485a67914a2","665500ab8938657b03fbdba8","6657812f95cc9ccd2b0b77e3","2151","stimuli/2001100.jpg","2","","prediction_trial","2","","true","","2","true","true","false","true","false","true","[2]","001","100","1","","","","","","",""
"","","","","","image-keyboard-response","135","490365","0.0-110.0","63eb82da9758a485a67914a2","665500ab8938657b03fbdba8","6657812f95cc9ccd2b0b77e3","591","stimuli/20011002.jpg"," ","","feedback_trial","2","","","","","","","","","","","","","","","","","","","","",""
"","","","","","image-keyboard-response","136","493941","0.0-111.0","63eb82da9758a485a67914a2","665500ab8938657b03fbdba8","6657812f95cc9ccd2b0b77e3","3575","stimuli/1110011.jpg","1","","prediction_trial","1","","true","","1","false","false","false","false","false","false","[1,0]","110","011","1","","","","","","",""
"","","","","","image-keyboard-response","137","494654","0.0-112.0","63eb82da9758a485a67914a2","665500ab8938657b03fbdba8","6657812f95cc9ccd2b0b77e3","712","stimuli/11100111.jpg"," ","","feedback_trial","1","","","","","","","","","","","","","","","","","","","","",""
"","","","","","image-keyboard-response","138","498286","0.0-113.0","63eb82da9758a485a67914a2","665500ab8938657b03fbdba8","6657812f95cc9ccd2b0b77e3","3631","stimuli/1101110.jpg","1","","prediction_trial","1","","true","","1","false","false","true","true","false","false","[1]","101","110","1","","","","","","",""
"","","","","","image-keyboard-response","139","498974","0.0-114.0","63eb82da9758a485a67914a2","665500ab8938657b03fbdba8","6657812f95cc9ccd2b0b77e3","687","stimuli/11011101.jpg"," ","","feedback_trial","1","","","","","","","","","","","","","","","","","","","","",""
"","","","","","image-keyboard-response","140","501655","0.0-115.0","63eb82da9758a485a67914a2","665500ab8938657b03fbdba8","6657812f95cc9ccd2b0b77e3","2680","stimuli/1001100.jpg","1","","prediction_trial","1","","true","","1","true","true","true","true","true","true","[1]","001","100","1","","","","","","",""
"","","","","","image-keyboard-response","141","502358","0.0-116.0","63eb82da9758a485a67914a2","665500ab8938657b03fbdba8","6657812f95cc9ccd2b0b77e3","703","stimuli/10011001.jpg"," ","","feedback_trial","1","","","","","","","","","","","","","","","","","","","","",""
"","","","","","image-keyboard-response","142","504607","0.0-117.0","63eb82da9758a485a67914a2","665500ab8938657b03fbdba8","6657812f95cc9ccd2b0b77e3","2247","stimuli/2010111.jpg","0","","prediction_trial","2","","false","","2","false","false","true","true","false","false","[2]","010","111","0","","","","","","",""
"","","","","","image-keyboard-response","143","505695","0.0-118.0","63eb82da9758a485a67914a2","665500ab8938657b03fbdba8","6657812f95cc9ccd2b0b77e3","1088","stimuli/20101112.jpg"," ","","feedback_trial","2","","","","","","","","","","","","","","","","","","","","",""
"","","","","","image-keyboard-response","144","508488","0.0-119.0","63eb82da9758a485a67914a2","665500ab8938657b03fbdba8","6657812f95cc9ccd2b0b77e3","2791","stimuli/2110111.jpg","2","","prediction_trial","2","","true","","2","false","false","true","true","false","false","[2]","110","111","1","","","","","","",""
"","","","","","image-keyboard-response","145","509240","0.0-120.0","63eb82da9758a485a67914a2","665500ab8938657b03fbdba8","6657812f95cc9ccd2b0b77e3","751","stimuli/21101112.jpg"," ","","feedback_trial","2","","","","","","","","","","","","","","","","","","","","",""
"","","","","","image-keyboard-response","146","511968","0.0-121.0","63eb82da9758a485a67914a2","665500ab8938657b03fbdba8","6657812f95cc9ccd2b0b77e3","2727","stimuli/2111001.jpg","2","","prediction_trial","0","","false","","2","false","true","false","false","false","false","[0,1,2]","111","001","0","","","","","","",""
"","","","","","image-keyboard-response","147","512839","0.0-122.0","63eb82da9758a485a67914a2","665500ab8938657b03fbdba8","6657812f95cc9ccd2b0b77e3","871","stimuli/21110010.jpg"," ","","feedback_trial","0","","","","","","","","","","","","","","","","","","","","",""
"","","","","","image-keyboard-response","148","514992","0.0-123.0","63eb82da9758a485a67914a2","665500ab8938657b03fbdba8","6657812f95cc9ccd2b0b77e3","2151","stimuli/2001111.jpg","1","","prediction_trial","2","","false","","2","false","false","false","true","false","false","[2]","001","111","0","","","","","","",""
"","","","","","image-keyboard-response","149","516064","0.0-124.0","63eb82da9758a485a67914a2","665500ab8938657b03fbdba8","6657812f95cc9ccd2b0b77e3","1071","stimuli/20011112.jpg"," ","","feedback_trial","2","","","","","","","","","","","","","","","","","","","","",""
"","","","","","image-keyboard-response","150","519561","0.0-125.0","63eb82da9758a485a67914a2","665500ab8938657b03fbdba8","6657812f95cc9ccd2b0b77e3","3496","stimuli/1111111.jpg","0","","prediction_trial","2","","false","","1","false","false","false","false","false","false","[1,2,0]","111","111","0","","","","","","",""
"","","","","","image-keyboard-response","151","520401","0.0-126.0","63eb82da9758a485a67914a2","665500ab8938657b03fbdba8","6657812f95cc9ccd2b0b77e3","839","stimuli/11111112.jpg"," ","","feedback_trial","1","","","","","","","","","","","","","","","","","","","","",""
"","","","","","image-keyboard-response","152","522337","0.0-127.0","63eb82da9758a485a67914a2","665500ab8938657b03fbdba8","6657812f95cc9ccd2b0b77e3","1935","stimuli/0001010.jpg","0","","prediction_trial","0","","true","","0","true","true","true","true","true","true","[0]","001","010","1","","","","","","",""
"","","","","","image-keyboard-response","153","522825","0.0-128.0","63eb82da9758a485a67914a2","665500ab8938657b03fbdba8","6657812f95cc9ccd2b0b77e3","487","stimuli/00010100.jpg"," ","","feedback_trial","0","","","","","","","","","","","","","","","","","","","","",""
"","","","","","image-keyboard-response","154","525489","0.0-129.0","63eb82da9758a485a67914a2","665500ab8938657b03fbdba8","6657812f95cc9ccd2b0b77e3","2663","stimuli/2100110.jpg","2","","prediction_trial","2","","true","","2","true","true","true","true","true","true","[2]","100","110","1","","","","","","",""
"","","","","","image-keyboard-response","155","526105","0.0-130.0","63eb82da9758a485a67914a2","665500ab8938657b03fbdba8","6657812f95cc9ccd2b0b77e3","615","stimuli/21001102.jpg"," ","","feedback_trial","2","","","","","","","","","","","","","","","","","","","","",""
"","","","","","image-keyboard-response","156","528473","0.0-131.0","63eb82da9758a485a67914a2","665500ab8938657b03fbdba8","6657812f95cc9ccd2b0b77e3","2367","stimuli/0101000.jpg","0","","prediction_trial","2","","false","","0","true","true","false","false","false","false","[0,2]","101","000","0","","","","","","",""
"","","","","","image-keyboard-response","157","529554","0.0-132.0","63eb82da9758a485a67914a2","665500ab8938657b03fbdba8","6657812f95cc9ccd2b0b77e3","1079","stimuli/01010002.jpg"," ","","feedback_trial","0","","","","","","","","","","","","","","","","","","","","",""
"","","","","","image-keyboard-response","158","533658","0.0-133.0","63eb82da9758a485a67914a2","665500ab8938657b03fbdba8","6657812f95cc9ccd2b0b77e3","4103","stimuli/0101001.jpg","0","","prediction_trial","2","","false","","0","true","true","false","false","false","false","[2,0]","101","001","0","","","","","","",""
"","","","","","image-keyboard-response","159","534714","0.0-134.0","63eb82da9758a485a67914a2","665500ab8938657b03fbdba8","6657812f95cc9ccd2b0b77e3","1055","stimuli/01010012.jpg"," ","","feedback_trial","2","","","","","","","","","","","","","","","","","","","","",""
"","","","","","image-keyboard-response","160","537699","0.0-135.0","63eb82da9758a485a67914a2","665500ab8938657b03fbdba8","6657812f95cc9ccd2b0b77e3","2984","stimuli/0000101.jpg","0","","prediction_trial","0","","true","","0","false","false","true","true","false","false","[0]","000","101","1","","","","","","",""
"","","","","","image-keyboard-response","161","538651","0.0-136.0","63eb82da9758a485a67914a2","665500ab8938657b03fbdba8","6657812f95cc9ccd2b0b77e3","951","stimuli/00001010.jpg"," ","","feedback_trial","0","","","","","","","","","","","","","","","","","","","","",""
"","","","","","image-keyboard-response","162","540475","0.0-137.0","63eb82da9758a485a67914a2","665500ab8938657b03fbdba8","6657812f95cc9ccd2b0b77e3","1823","stimuli/1000001.jpg","1","","prediction_trial","1","","true","","1","true","true","true","true","true","true","[1]","000","001","1","","","","","","",""
"","","","","","image-keyboard-response","163","541347","0.0-138.0","63eb82da9758a485a67914a2","665500ab8938657b03fbdba8","6657812f95cc9ccd2b0b77e3","871","stimuli/10000011.jpg"," ","","feedback_trial","1","","","","","","","","","","","","","","","","","","","","",""
"","","","","","image-keyboard-response","164","543748","0.0-139.0","63eb82da9758a485a67914a2","665500ab8938657b03fbdba8","6657812f95cc9ccd2b0b77e3","2400","stimuli/1010010.jpg","1","","prediction_trial","1","","true","","1","false","true","false","true","false","true","[1]","010","010","1","","","","","","",""
"","","","","","image-keyboard-response","165","544220","0.0-140.0","63eb82da9758a485a67914a2","665500ab8938657b03fbdba8","6657812f95cc9ccd2b0b77e3","471","stimuli/10100101.jpg"," ","","feedback_trial","1","","","","","","","","","","","","","","","","","","","","",""
"","","","","","image-keyboard-response","166","546725","0.0-141.0","63eb82da9758a485a67914a2","665500ab8938657b03fbdba8","6657812f95cc9ccd2b0b77e3","2503","stimuli/0000111.jpg","0","","prediction_trial","0","","true","","0","false","false","true","true","false","false","[0]","000","111","1","","","","","","",""
"","","","","","image-keyboard-response","167","547501","0.0-142.0","63eb82da9758a485a67914a2","665500ab8938657b03fbdba8","6657812f95cc9ccd2b0b77e3","775","stimuli/00001110.jpg"," ","","feedback_trial","0","","","","","","","","","","","","","","","","","","","","",""
"","","","","","image-keyboard-response","168","550661","0.0-143.0","63eb82da9758a485a67914a2","665500ab8938657b03fbdba8","6657812f95cc9ccd2b0b77e3","3160","stimuli/0110110.jpg","0","","prediction_trial","0","","true","","0","false","false","false","false","false","false","[0,1]","110","110","1","","","","","","",""
"","","","","","image-keyboard-response","169","551477","0.0-144.0","63eb82da9758a485a67914a2","665500ab8938657b03fbdba8","6657812f95cc9ccd2b0b77e3","815","stimuli/01101100.jpg"," ","","feedback_trial","0","","","","","","","","","","","","","","","","","","","","",""
"","","","","","image-keyboard-response","170","554118","0.0-145.0","63eb82da9758a485a67914a2","665500ab8938657b03fbdba8","6657812f95cc9ccd2b0b77e3","2640","stimuli/1100110.jpg","1","","prediction_trial","1","","true","","1","false","false","true","true","false","false","[1]","100","110","1","","","","","","",""
"","","","","","image-keyboard-response","171","554991","0.0-146.0","63eb82da9758a485a67914a2","665500ab8938657b03fbdba8","6657812f95cc9ccd2b0b77e3","872","stimuli/11001101.jpg"," ","","feedback_trial","1","","","","","","","","","","","","","","","","","","","","",""
"","","","","","image-keyboard-response","172","557806","0.0-147.0","63eb82da9758a485a67914a2","665500ab8938657b03fbdba8","6657812f95cc9ccd2b0b77e3","2815","stimuli/1111010.jpg","1","","prediction_trial","2","","false","","1","false","true","false","false","false","false","[1,0,2]","111","010","0","","","","","","",""
"","","","","","image-keyboard-response","173","559174","0.0-148.0","63eb82da9758a485a67914a2","665500ab8938657b03fbdba8","6657812f95cc9ccd2b0b77e3","1368","stimuli/11110102.jpg"," ","","feedback_trial","1","","","","","","","","","","","","","","","","","","","","",""
"","","","","","image-keyboard-response","174","561150","0.0-149.0","63eb82da9758a485a67914a2","665500ab8938657b03fbdba8","6657812f95cc9ccd2b0b77e3","1975","stimuli/1010000.jpg","1","","prediction_trial","1","","true","","1","true","true","false","true","false","true","[1]","010","000","1","","","","","","",""
"","","","","","image-keyboard-response","175","561742","0.0-150.0","63eb82da9758a485a67914a2","665500ab8938657b03fbdba8","6657812f95cc9ccd2b0b77e3","591","stimuli/10100001.jpg"," ","","feedback_trial","1","","","","","","","","","","","","","","","","","","","","",""
"","","","","","image-keyboard-response","176","564359","0.0-151.0","63eb82da9758a485a67914a2","665500ab8938657b03fbdba8","6657812f95cc9ccd2b0b77e3","2616","stimuli/1111000.jpg","1","","prediction_trial","2","","false","","1","true","true","false","false","false","false","[0,1,2]","111","000","0","","","","","","",""
"","","","","","image-keyboard-response","177","565559","0.0-152.0","63eb82da9758a485a67914a2","665500ab8938657b03fbdba8","6657812f95cc9ccd2b0b77e3","1200","stimuli/11110002.jpg"," ","","feedback_trial","0","","","","","","","","","","","","","","","","","","","","",""
"","","","","","image-keyboard-response","178","567919","0.0-153.0","63eb82da9758a485a67914a2","665500ab8938657b03fbdba8","6657812f95cc9ccd2b0b77e3","2359","stimuli/0000010.jpg","0","","prediction_trial","0","","true","","0","true","true","true","true","true","true","[0]","000","010","1","","","","","","",""
"","","","","","image-keyboard-response","179","568439","0.0-154.0","63eb82da9758a485a67914a2","665500ab8938657b03fbdba8","6657812f95cc9ccd2b0b77e3","520","stimuli/00000100.jpg"," ","","feedback_trial","0","","","","","","","","","","","","","","","","","","","","",""
"","","","","","image-keyboard-response","180","571656","0.0-155.0","63eb82da9758a485a67914a2","665500ab8938657b03fbdba8","6657812f95cc9ccd2b0b77e3","3216","stimuli/1001011.jpg","2","","prediction_trial","1","","false","","1","false","false","true","true","false","false","[1]","001","011","0","","","","","","",""
"","","","","","image-keyboard-response","181","572769","0.0-156.0","63eb82da9758a485a67914a2","665500ab8938657b03fbdba8","6657812f95cc9ccd2b0b77e3","1112","stimuli/10010111.jpg"," ","","feedback_trial","1","","","","","","","","","","","","","","","","","","","","",""
"","","","","","image-keyboard-response","182","576792","0.0-157.0","63eb82da9758a485a67914a2","665500ab8938657b03fbdba8","6657812f95cc9ccd2b0b77e3","4023","stimuli/1010011.jpg","2","","prediction_trial","1","","false","","1","false","false","false","true","false","false","[1]","010","011","0","","","","","","",""
"","","","","","image-keyboard-response","183","577968","0.0-158.0","63eb82da9758a485a67914a2","665500ab8938657b03fbdba8","6657812f95cc9ccd2b0b77e3","1175","stimuli/10100111.jpg"," ","","feedback_trial","1","","","","","","","","","","","","","","","","","","","","",""
"","","","","","image-keyboard-response","184","580449","0.0-159.0","63eb82da9758a485a67914a2","665500ab8938657b03fbdba8","6657812f95cc9ccd2b0b77e3","2480","stimuli/1001101.jpg","1","","prediction_trial","1","","true","","1","true","true","true","true","true","true","[1]","001","101","1","","","","","","",""
"","","","","","image-keyboard-response","185","581264","0.0-160.0","63eb82da9758a485a67914a2","665500ab8938657b03fbdba8","6657812f95cc9ccd2b0b77e3","815","stimuli/10011011.jpg"," ","","feedback_trial","1","","","","","","","","","","","","","","","","","","","","",""
"","","","","","image-keyboard-response","186","583401","0.0-161.0","63eb82da9758a485a67914a2","665500ab8938657b03fbdba8","6657812f95cc9ccd2b0b77e3","2136","stimuli/0001000.jpg","0","","prediction_trial","0","","true","","0","true","true","true","true","true","true","[0]","001","000","1","","","","","","",""
"","","","","","image-keyboard-response","187","584345","0.0-162.0","63eb82da9758a485a67914a2","665500ab8938657b03fbdba8","6657812f95cc9ccd2b0b77e3","944","stimuli/00010000.jpg"," ","","feedback_trial","0","","","","","","","","","","","","","","","","","","","","",""
"","","","","","image-keyboard-response","188","587610","0.0-163.0","63eb82da9758a485a67914a2","665500ab8938657b03fbdba8","6657812f95cc9ccd2b0b77e3","3265","stimuli/0101010.jpg","0","","prediction_trial","2","","false","","0","true","true","false","false","false","false","[0,2]","101","010","0","","","","","","",""
"","","","","","image-keyboard-response","189","593314","0.0-164.0","63eb82da9758a485a67914a2","665500ab8938657b03fbdba8","6657812f95cc9ccd2b0b77e3","5703","stimuli/01010102.jpg"," ","","feedback_trial","0","","","","","","","","","","","","","","","","","","","","",""
"","","","","","image-keyboard-response","190","594938","0.0-165.0","63eb82da9758a485a67914a2","665500ab8938657b03fbdba8","6657812f95cc9ccd2b0b77e3","1624","stimuli/0010011.jpg","0","","prediction_trial","0","","true","","0","true","true","true","true","true","true","[0]","010","011","1","","","","","","",""
"","","","","","image-keyboard-response","191","596114","0.0-166.0","63eb82da9758a485a67914a2","665500ab8938657b03fbdba8","6657812f95cc9ccd2b0b77e3","1176","stimuli/00100110.jpg"," ","","feedback_trial","0","","","","","","","","","","","","","","","","","","","","",""
"","","","","","image-keyboard-response","192","599451","0.0-167.0","63eb82da9758a485a67914a2","665500ab8938657b03fbdba8","6657812f95cc9ccd2b0b77e3","3336","stimuli/1110010.jpg","1","","prediction_trial","1","","true","","1","false","true","false","false","false","false","[0,1]","110","010","1","","","","","","",""
"","","","","","image-keyboard-response","193","600507","0.0-168.0","63eb82da9758a485a67914a2","665500ab8938657b03fbdba8","6657812f95cc9ccd2b0b77e3","1055","stimuli/11100101.jpg"," ","","feedback_trial","0","","","","","","","","","","","","","","","","","","","","",""
"","","","","","image-keyboard-response","194","603876","0.0-169.0","63eb82da9758a485a67914a2","665500ab8938657b03fbdba8","6657812f95cc9ccd2b0b77e3","3368","stimuli/1011101.jpg","1","","prediction_trial","2","","false","","1","true","true","false","false","false","false","[2,1]","011","101","0","","","","","","",""
"","","","","","image-keyboard-response","195","604980","0.0-170.0","63eb82da9758a485a67914a2","665500ab8938657b03fbdba8","6657812f95cc9ccd2b0b77e3","1103","stimuli/10111012.jpg"," ","","feedback_trial","2","","","","","","","","","","","","","","","","","","","","",""
"","","","","","image-keyboard-response","196","607556","0.0-171.0","63eb82da9758a485a67914a2","665500ab8938657b03fbdba8","6657812f95cc9ccd2b0b77e3","2575","stimuli/2001001.jpg","2","","prediction_trial","2","","true","","2","false","true","false","true","false","true","[2]","001","001","1","","","","","","",""
"","","","","","image-keyboard-response","197","608588","0.0-172.0","63eb82da9758a485a67914a2","665500ab8938657b03fbdba8","6657812f95cc9ccd2b0b77e3","1031","stimuli/20010012.jpg"," ","","feedback_trial","2","","","","","","","","","","","","","","","","","","","","",""
"","","","","","image-keyboard-response","198","610877","0.0-173.0","63eb82da9758a485a67914a2","665500ab8938657b03fbdba8","6657812f95cc9ccd2b0b77e3","2288","stimuli/2010001.jpg","2","","prediction_trial","2","","true","","2","false","true","true","true","false","true","[2]","010","001","1","","","","","","",""
"","","","","","image-keyboard-response","199","611949","0.0-174.0","63eb82da9758a485a67914a2","665500ab8938657b03fbdba8","6657812f95cc9ccd2b0b77e3","1071","stimuli/20100012.jpg"," ","","feedback_trial","2","","","","","","","","","","","","","","","","","","","","",""
"","","","","","image-keyboard-response","200","614212","0.0-175.0","63eb82da9758a485a67914a2","665500ab8938657b03fbdba8","6657812f95cc9ccd2b0b77e3","2262","stimuli/0010000.jpg","0","","prediction_trial","0","","true","","0","true","true","true","true","true","true","[0]","010","000","1","","","","","","",""
"","","","","","image-keyboard-response","201","614725","0.0-176.0","63eb82da9758a485a67914a2","665500ab8938657b03fbdba8","6657812f95cc9ccd2b0b77e3","512","stimuli/00100000.jpg"," ","","feedback_trial","0","","","","","","","","","","","","","","","","","","","","",""
"","","","","","image-keyboard-response","202","617293","0.0-177.0","63eb82da9758a485a67914a2","665500ab8938657b03fbdba8","6657812f95cc9ccd2b0b77e3","2567","stimuli/1110100.jpg","1","","prediction_trial","0","","false","","1","true","true","false","false","false","false","[0,1]","110","100","0","","","","","","",""
"","","","","","image-keyboard-response","203","619998","0.0-178.0","63eb82da9758a485a67914a2","665500ab8938657b03fbdba8","6657812f95cc9ccd2b0b77e3","2704","stimuli/11101000.jpg"," ","","feedback_trial","0","","","","","","","","","","","","","","","","","","","","",""
"","","","","","image-keyboard-response","204","622374","0.0-179.0","63eb82da9758a485a67914a2","665500ab8938657b03fbdba8","6657812f95cc9ccd2b0b77e3","2375","stimuli/1001000.jpg","1","","prediction_trial","1","","true","","1","true","true","true","true","true","true","[1]","001","000","1","","","","","","",""
"","","","","","image-keyboard-response","205","622869","0.0-180.0","63eb82da9758a485a67914a2","665500ab8938657b03fbdba8","6657812f95cc9ccd2b0b77e3","495","stimuli/10010001.jpg"," ","","feedback_trial","1","","","","","","","","","","","","","","","","","","","","",""
"","","","","","image-keyboard-response","206","625606","0.0-181.0","63eb82da9758a485a67914a2","665500ab8938657b03fbdba8","6657812f95cc9ccd2b0b77e3","2736","stimuli/2011100.jpg","1","","prediction_trial","2","","false","","2","true","true","false","false","false","false","[1,2]","011","100","0","","","","","","",""
"","","","","","image-keyboard-response","207","627102","0.0-182.0","63eb82da9758a485a67914a2","665500ab8938657b03fbdba8","6657812f95cc9ccd2b0b77e3","1495","stimuli/20111002.jpg"," ","","feedback_trial","1","","","","","","","","","","","","","","","","","","","","",""
"","","","","","image-keyboard-response","208","633559","0.0-183.0","63eb82da9758a485a67914a2","665500ab8938657b03fbdba8","6657812f95cc9ccd2b0b77e3","6456","stimuli/2101110.jpg","0","","prediction_trial","0","","true","","2","true","true","false","false","false","false","[2,0]","101","110","1","","","","","","",""
"","","","","","image-keyboard-response","209","634439","0.0-184.0","63eb82da9758a485a67914a2","665500ab8938657b03fbdba8","6657812f95cc9ccd2b0b77e3","879","stimuli/21011100.jpg"," ","","feedback_trial","2","","","","","","","","","","","","","","","","","","","","",""
"","","","","","image-keyboard-response","210","637752","0.0-185.0","63eb82da9758a485a67914a2","665500ab8938657b03fbdba8","6657812f95cc9ccd2b0b77e3","3312","stimuli/0011111.jpg","0","","prediction_trial","0","","true","","0","false","false","true","true","false","false","[0]","011","111","1","","","","","","",""
"","","","","","image-keyboard-response","211","639264","0.0-186.0","63eb82da9758a485a67914a2","665500ab8938657b03fbdba8","6657812f95cc9ccd2b0b77e3","1511","stimuli/00111110.jpg"," ","","feedback_trial","0","","","","","","","","","","","","","","","","","","","","",""
"","","","","","image-keyboard-response","212","642144","0.0-187.0","63eb82da9758a485a67914a2","665500ab8938657b03fbdba8","6657812f95cc9ccd2b0b77e3","2880","stimuli/2101011.jpg","1","","prediction_trial","2","","false","","2","false","false","false","false","false","false","[2,0]","101","011","0","","","","","","",""
"","","","","","image-keyboard-response","213","643328","0.0-188.0","63eb82da9758a485a67914a2","665500ab8938657b03fbdba8","6657812f95cc9ccd2b0b77e3","1183","stimuli/21010112.jpg"," ","","feedback_trial","2","","","","","","","","","","","","","","","","","","","","",""
"","","","","","image-keyboard-response","214","646616","0.0-189.0","63eb82da9758a485a67914a2","665500ab8938657b03fbdba8","6657812f95cc9ccd2b0b77e3","3288","stimuli/2010010.jpg","2","","prediction_trial","2","","true","","2","true","true","true","true","true","true","[2]","010","010","1","","","","","","",""
"","","","","","image-keyboard-response","215","647305","0.0-190.0","63eb82da9758a485a67914a2","665500ab8938657b03fbdba8","6657812f95cc9ccd2b0b77e3","687","stimuli/20100102.jpg"," ","","feedback_trial","2","","","","","","","","","","","","","","","","","","","","",""
"","","","","","image-keyboard-response","216","650297","0.0-191.0","63eb82da9758a485a67914a2","665500ab8938657b03fbdba8","6657812f95cc9ccd2b0b77e3","2992","stimuli/2100011.jpg","2","","prediction_trial","2","","true","","2","false","false","true","true","false","false","[2]","100","011","1","","","","","","",""
"","","","","","image-keyboard-response","217","651425","0.0-192.0","63eb82da9758a485a67914a2","665500ab8938657b03fbdba8","6657812f95cc9ccd2b0b77e3","1127","stimuli/21000112.jpg"," ","","feedback_trial","2","","","","","","","","","","","","","","","","","","","","",""
"","","","","","image-keyboard-response","218","654177","0.0-193.0","63eb82da9758a485a67914a2","665500ab8938657b03fbdba8","6657812f95cc9ccd2b0b77e3","2752","stimuli/2001010.jpg","2","","prediction_trial","2","","true","","2","true","true","false","true","false","true","[2]","001","010","1","","","","","","",""
"","","","","","image-keyboard-response","219","654850","0.0-194.0","63eb82da9758a485a67914a2","665500ab8938657b03fbdba8","6657812f95cc9ccd2b0b77e3","672","stimuli/20010102.jpg"," ","","feedback_trial","2","","","","","","","","","","","","","","","","","","","","",""
"","","","","","image-keyboard-response","220","657154","0.0-195.0","63eb82da9758a485a67914a2","665500ab8938657b03fbdba8","6657812f95cc9ccd2b0b77e3","2304","stimuli/1101001.jpg","1","","prediction_trial","1","","true","","1","true","true","true","true","true","true","[1]","101","001","1","","","","","","",""
"","","","","","image-keyboard-response","221","657737","0.0-196.0","63eb82da9758a485a67914a2","665500ab8938657b03fbdba8","6657812f95cc9ccd2b0b77e3","583","stimuli/11010011.jpg"," ","","feedback_trial","1","","","","","","","","","","","","","","","","","","","","",""
"","","","","","image-keyboard-response","222","660474","0.0-197.0","63eb82da9758a485a67914a2","665500ab8938657b03fbdba8","6657812f95cc9ccd2b0b77e3","2736","stimuli/0111011.jpg","1","","prediction_trial","0","","false","","0","true","true","false","false","false","false","[0,1,2]","111","011","0","","","","","","",""
"","","","","","image-keyboard-response","223","661754","0.0-198.0","63eb82da9758a485a67914a2","665500ab8938657b03fbdba8","6657812f95cc9ccd2b0b77e3","1280","stimuli/01110110.jpg"," ","","feedback_trial","0","","","","","","","","","","","","","","","","","","","","",""
"","","","","","image-keyboard-response","224","666571","0.0-199.0","63eb82da9758a485a67914a2","665500ab8938657b03fbdba8","6657812f95cc9ccd2b0b77e3","4815","stimuli/1110101.jpg","1","","prediction_trial","0","","false","","1","true","true","false","false","false","false","[1,0]","110","101","0","","","","","","",""
"","","","","","image-keyboard-response","225","667875","0.0-200.0","63eb82da9758a485a67914a2","665500ab8938657b03fbdba8","6657812f95cc9ccd2b0b77e3","1304","stimuli/11101010.jpg"," ","","feedback_trial","1","","","","","","","","","","","","","","","","","","","","",""
"","","","","","image-keyboard-response","226","672956","0.0-201.0","63eb82da9758a485a67914a2","665500ab8938657b03fbdba8","6657812f95cc9ccd2b0b77e3","5079","stimuli/0010111.jpg","1","","prediction_trial","0","","false","","0","false","false","true","true","false","false","[0]","010","111","0","","","","","","",""
"","","","","","image-keyboard-response","227","673932","0.0-202.0","63eb82da9758a485a67914a2","665500ab8938657b03fbdba8","6657812f95cc9ccd2b0b77e3","976","stimuli/00101110.jpg"," ","","feedback_trial","0","","","","","","","","","","","","","","","","","","","","",""
"","","","","","image-keyboard-response","228","677036","0.0-203.0","63eb82da9758a485a67914a2","665500ab8938657b03fbdba8","6657812f95cc9ccd2b0b77e3","3104","stimuli/2110101.jpg","2","","prediction_trial","2","","true","","2","false","false","true","true","false","false","[2]","110","101","1","","","","","","",""
"","","","","","image-keyboard-response","229","677916","0.0-204.0","63eb82da9758a485a67914a2","665500ab8938657b03fbdba8","6657812f95cc9ccd2b0b77e3","879","stimuli/21101012.jpg"," ","","feedback_trial","2","","","","","","","","","","","","","","","","","","","","",""
"","","","","","image-keyboard-response","230","679988","0.0-205.0","63eb82da9758a485a67914a2","665500ab8938657b03fbdba8","6657812f95cc9ccd2b0b77e3","2071","stimuli/0001100.jpg","0","","prediction_trial","0","","true","","0","false","true","true","true","false","true","[0]","001","100","1","","","","","","",""
"","","","","","image-keyboard-response","231","680645","0.0-206.0","63eb82da9758a485a67914a2","665500ab8938657b03fbdba8","6657812f95cc9ccd2b0b77e3","656","stimuli/00011000.jpg"," ","","feedback_trial","0","","","","","","","","","","","","","","","","","","","","",""
"","","","","","image-keyboard-response","232","683149","0.0-207.0","63eb82da9758a485a67914a2","665500ab8938657b03fbdba8","6657812f95cc9ccd2b0b77e3","2503","stimuli/0100101.jpg","2","","prediction_trial","0","","false","","0","false","false","false","true","false","false","[0]","100","101","0","","","","","","",""
"","","","","","image-keyboard-response","233","684077","0.0-208.0","63eb82da9758a485a67914a2","665500ab8938657b03fbdba8","6657812f95cc9ccd2b0b77e3","927","stimuli/01001010.jpg"," ","","feedback_trial","0","","","","","","","","","","","","","","","","","","","","",""
"","","","","","image-keyboard-response","234","686573","0.0-209.0","63eb82da9758a485a67914a2","665500ab8938657b03fbdba8","6657812f95cc9ccd2b0b77e3","2495","stimuli/2101001.jpg","2","","prediction_trial","0","","false","","2","false","true","false","false","false","false","[0,2]","101","001","0","","","","","","",""
"","","","","","image-keyboard-response","235","687598","0.0-210.0","63eb82da9758a485a67914a2","665500ab8938657b03fbdba8","6657812f95cc9ccd2b0b77e3","1024","stimuli/21010010.jpg"," ","","feedback_trial","0","","","","","","","","","","","","","","","","","","","","",""
"","","","","","image-keyboard-response","236","689446","0.0-211.0","63eb82da9758a485a67914a2","665500ab8938657b03fbdba8","6657812f95cc9ccd2b0b77e3","1847","stimuli/1000100.jpg","1","","prediction_trial","1","","true","","1","true","true","true","true","true","true","[1]","000","100","1","","","","","","",""
"","","","","","image-keyboard-response","237","690101","0.0-212.0","63eb82da9758a485a67914a2","665500ab8938657b03fbdba8","6657812f95cc9ccd2b0b77e3","655","stimuli/10001001.jpg"," ","","feedback_trial","1","","","","","","","","","","","","","","","","","","","","",""
"","","","","","image-keyboard-response","238","695126","0.0-213.0","63eb82da9758a485a67914a2","665500ab8938657b03fbdba8","6657812f95cc9ccd2b0b77e3","5024","stimuli/0110001.jpg","0","","prediction_trial","1","","false","","0","true","true","false","false","false","false","[1,0]","110","001","0","","","","","","",""
"","","","","","image-keyboard-response","239","696390","0.0-214.0","63eb82da9758a485a67914a2","665500ab8938657b03fbdba8","6657812f95cc9ccd2b0b77e3","1263","stimuli/01100011.jpg"," ","","feedback_trial","1","","","","","","","","","","","","","","","","","","","","",""
"","","","","","image-keyboard-response","240","700479","0.0-215.0","63eb82da9758a485a67914a2","665500ab8938657b03fbdba8","6657812f95cc9ccd2b0b77e3","4088","stimuli/0000110.jpg","1","","prediction_trial","0","","false","","0","false","false","true","true","false","false","[0]","000","110","0","","","","","","",""
"","","","","","image-keyboard-response","241","701487","0.0-216.0","63eb82da9758a485a67914a2","665500ab8938657b03fbdba8","6657812f95cc9ccd2b0b77e3","1007","stimuli/00001100.jpg"," ","","feedback_trial","0","","","","","","","","","","","","","","","","","","","","",""
"","","","","","image-keyboard-response","242","705144","0.0-217.0","63eb82da9758a485a67914a2","665500ab8938657b03fbdba8","6657812f95cc9ccd2b0b77e3","3656","stimuli/1111001.jpg","2","","prediction_trial","0","","false","","1","true","true","false","false","false","false","[1,2,0]","111","001","0","","","","","","",""
"","","","","","image-keyboard-response","243","706071","0.0-218.0","63eb82da9758a485a67914a2","665500ab8938657b03fbdba8","6657812f95cc9ccd2b0b77e3","927","stimuli/11110010.jpg"," ","","feedback_trial","1","","","","","","","","","","","","","","","","","","","","",""
"","","","","","image-keyboard-response","244","708368","0.0-219.0","63eb82da9758a485a67914a2","665500ab8938657b03fbdba8","6657812f95cc9ccd2b0b77e3","2296","stimuli/1101100.jpg","1","","prediction_trial","1","","true","","1","true","true","true","true","true","true","[1]","101","100","1","","","","","","",""
"","","","","","image-keyboard-response","245","709240","0.0-220.0","63eb82da9758a485a67914a2","665500ab8938657b03fbdba8","6657812f95cc9ccd2b0b77e3","871","stimuli/11011001.jpg"," ","","feedback_trial","1","","","","","","","","","","","","","","","","","","","","",""
"","","","","","image-keyboard-response","246","711593","0.0-221.0","63eb82da9758a485a67914a2","665500ab8938657b03fbdba8","6657812f95cc9ccd2b0b77e3","2352","stimuli/1000010.jpg","1","","prediction_trial","1","","true","","1","false","true","true","true","false","true","[1]","000","010","1","","","","","","",""
"","","","","","image-keyboard-response","247","712280","0.0-222.0","63eb82da9758a485a67914a2","665500ab8938657b03fbdba8","6657812f95cc9ccd2b0b77e3","686","stimuli/10000101.jpg"," ","","feedback_trial","1","","","","","","","","","","","","","","","","","","","","",""
"","","","","","image-keyboard-response","248","715937","0.0-223.0","63eb82da9758a485a67914a2","665500ab8938657b03fbdba8","6657812f95cc9ccd2b0b77e3","3656","stimuli/1011110.jpg","1","","prediction_trial","1","","true","","1","false","false","false","false","false","false","[1,2]","011","110","1","","","","","","",""
"","","","","","image-keyboard-response","249","717449","0.0-224.0","63eb82da9758a485a67914a2","665500ab8938657b03fbdba8","6657812f95cc9ccd2b0b77e3","1510","stimuli/10111101.jpg"," ","","feedback_trial","1","","","","","","","","","","","","","","","","","","","","",""
"","","","","","image-keyboard-response","250","720569","0.0-225.0","63eb82da9758a485a67914a2","665500ab8938657b03fbdba8","6657812f95cc9ccd2b0b77e3","3120","stimuli/0001101.jpg","0","","prediction_trial","0","","true","","0","false","false","true","true","false","false","[0]","001","101","1","","","","","","",""
"","","","","","image-keyboard-response","251","721610","0.0-226.0","63eb82da9758a485a67914a2","665500ab8938657b03fbdba8","6657812f95cc9ccd2b0b77e3","1039","stimuli/00011010.jpg"," ","","feedback_trial","0","","","","","","","","","","","","","","","","","","","","",""
"","","","","","image-keyboard-response","252","725618","0.0-227.0","63eb82da9758a485a67914a2","665500ab8938657b03fbdba8","6657812f95cc9ccd2b0b77e3","4008","stimuli/1000011.jpg","2","","prediction_trial","1","","false","","1","false","false","true","true","false","false","[1]","000","011","0","","","","","","",""
"","","","","","image-keyboard-response","253","726682","0.0-228.0","63eb82da9758a485a67914a2","665500ab8938657b03fbdba8","6657812f95cc9ccd2b0b77e3","1064","stimuli/10000111.jpg"," ","","feedback_trial","1","","","","","","","","","","","","","","","","","","","","",""
"","","","","","image-keyboard-response","254","729506","0.0-229.0","63eb82da9758a485a67914a2","665500ab8938657b03fbdba8","6657812f95cc9ccd2b0b77e3","2823","stimuli/0101100.jpg","2","","prediction_trial","2","","true","","0","false","true","false","false","false","false","[2,0]","101","100","1","","","","","","",""
"","","","","","image-keyboard-response","255","730563","0.0-230.0","63eb82da9758a485a67914a2","665500ab8938657b03fbdba8","6657812f95cc9ccd2b0b77e3","1056","stimuli/01011002.jpg"," ","","feedback_trial","2","","","","","","","","","","","","","","","","","","","","",""
"","","","","","image-keyboard-response","256","733114","0.0-231.0","63eb82da9758a485a67914a2","665500ab8938657b03fbdba8","6657812f95cc9ccd2b0b77e3","2551","stimuli/2010011.jpg","1","","prediction_trial","2","","false","","2","false","false","true","true","false","false","[2]","010","011","0","","","","","","",""
"","","","","","image-keyboard-response","257","734515","0.0-232.0","63eb82da9758a485a67914a2","665500ab8938657b03fbdba8","6657812f95cc9ccd2b0b77e3","1400","stimuli/20100112.jpg"," ","","feedback_trial","2","","","","","","","","","","","","","","","","","","","","",""
"","","","","","image-keyboard-response","258","738243","0.0-233.0","63eb82da9758a485a67914a2","665500ab8938657b03fbdba8","6657812f95cc9ccd2b0b77e3","3727","stimuli/2011011.jpg","2","","prediction_trial","1","","false","","2","false","false","false","false","false","false","[1,2]","011","011","0","","","","","","",""
"","","","","","image-keyboard-response","259","739468","0.0-234.0","63eb82da9758a485a67914a2","665500ab8938657b03fbdba8","6657812f95cc9ccd2b0b77e3","1224","stimuli/20110111.jpg"," ","","feedback_trial","1","","","","","","","","","","","","","","","","","","","","",""
"","","","","","image-keyboard-response","260","743132","0.0-235.0","63eb82da9758a485a67914a2","665500ab8938657b03fbdba8","6657812f95cc9ccd2b0b77e3","3663","stimuli/0010100.jpg","0","","prediction_trial","0","","true","","0","false","true","true","true","false","true","[0]","010","100","1","","","","","","",""
"","","","","","image-keyboard-response","261","743948","0.0-236.0","63eb82da9758a485a67914a2","665500ab8938657b03fbdba8","6657812f95cc9ccd2b0b77e3","816","stimuli/00101000.jpg"," ","","feedback_trial","0","","","","","","","","","","","","","","","","","","","","",""
"","","","","","image-keyboard-response","262","747532","0.0-237.0","63eb82da9758a485a67914a2","665500ab8938657b03fbdba8","6657812f95cc9ccd2b0b77e3","3583","stimuli/2111100.jpg","0","","prediction_trial","1","","false","","2","true","true","false","false","false","false","[1,2,0]","111","100","0","","","","","","",""
"","","","","","image-keyboard-response","263","748637","0.0-238.0","63eb82da9758a485a67914a2","665500ab8938657b03fbdba8","6657812f95cc9ccd2b0b77e3","1104","stimuli/21111001.jpg"," ","","feedback_trial","1","","","","","","","","","","","","","","","","","","","","",""
"","","","","","image-keyboard-response","264","751709","0.0-239.0","63eb82da9758a485a67914a2","665500ab8938657b03fbdba8","6657812f95cc9ccd2b0b77e3","3071","stimuli/2100000.jpg","2","","prediction_trial","2","","true","","2","true","true","true","true","true","true","[2]","100","000","1","","","","","","",""
"","","","","","image-keyboard-response","265","752221","0.0-240.0","63eb82da9758a485a67914a2","665500ab8938657b03fbdba8","6657812f95cc9ccd2b0b77e3","511","stimuli/21000002.jpg"," ","","feedback_trial","2","","","","","","","","","","","","","","","","","","","","",""
"","","","","","image-keyboard-response","266","755549","0.0-241.0","63eb82da9758a485a67914a2","665500ab8938657b03fbdba8","6657812f95cc9ccd2b0b77e3","3328","stimuli/2101111.jpg","2","","prediction_trial","2","","true","","2","false","false","false","false","false","false","[2,0]","101","111","1","","","","","","",""
"","","","","","image-keyboard-response","267","756925","0.0-242.0","63eb82da9758a485a67914a2","665500ab8938657b03fbdba8","6657812f95cc9ccd2b0b77e3","1375","stimuli/21011112.jpg"," ","","feedback_trial","2","","","","","","","","","","","","","","","","","","","","",""
"","","","","","image-keyboard-response","268","759974","0.0-243.0","63eb82da9758a485a67914a2","665500ab8938657b03fbdba8","6657812f95cc9ccd2b0b77e3","3047","stimuli/1110001.jpg","0","","prediction_trial","0","","true","","1","true","true","false","false","false","false","[0,1]","110","001","1","","","","","","",""
"","","","","","image-keyboard-response","269","761142","0.0-244.0","63eb82da9758a485a67914a2","665500ab8938657b03fbdba8","6657812f95cc9ccd2b0b77e3","1168","stimuli/11100010.jpg"," ","","feedback_trial","0","","","","","","","","","","","","","","","","","","","","",""
"","","","","","image-keyboard-response","270","764854","0.0-245.0","63eb82da9758a485a67914a2","665500ab8938657b03fbdba8","6657812f95cc9ccd2b0b77e3","3711","stimuli/2101100.jpg","0","","prediction_trial","0","","true","","2","true","true","false","false","false","false","[0,2]","101","100","1","","","","","","",""
"","","","","","image-keyboard-response","271","766471","0.0-246.0","63eb82da9758a485a67914a2","665500ab8938657b03fbdba8","6657812f95cc9ccd2b0b77e3","1616","stimuli/21011000.jpg"," ","","feedback_trial","0","","","","","","","","","","","","","","","","","","","","",""
"","","","","","image-keyboard-response","272","768790","0.0-247.0","63eb82da9758a485a67914a2","665500ab8938657b03fbdba8","6657812f95cc9ccd2b0b77e3","2319","stimuli/1101000.jpg","1","","prediction_trial","1","","true","","1","true","true","true","true","true","true","[1]","101","000","1","","","","","","",""
"","","","","","image-keyboard-response","273","769271","0.0-248.0","63eb82da9758a485a67914a2","665500ab8938657b03fbdba8","6657812f95cc9ccd2b0b77e3","480","stimuli/11010001.jpg"," ","","feedback_trial","1","","","","","","","","","","","","","","","","","","","","",""
"","","","","","image-keyboard-response","274","771655","0.0-249.0","63eb82da9758a485a67914a2","665500ab8938657b03fbdba8","6657812f95cc9ccd2b0b77e3","2384","stimuli/0011100.jpg","0","","prediction_trial","0","","true","","0","false","true","true","true","false","true","[0]","011","100","1","","","","","","",""
"","","","","","image-keyboard-response","275","772167","0.0-250.0","63eb82da9758a485a67914a2","665500ab8938657b03fbdba8","6657812f95cc9ccd2b0b77e3","511","stimuli/00111000.jpg"," ","","feedback_trial","0","","","","","","","","","","","","","","","","","","","","",""
"","","","","","image-keyboard-response","276","775608","0.0-251.0","63eb82da9758a485a67914a2","665500ab8938657b03fbdba8","6657812f95cc9ccd2b0b77e3","3440","stimuli/0110011.jpg","1","","prediction_trial","1","","true","","0","true","true","false","false","false","false","[0,1]","110","011","1","","","","","","",""
"","","","","","image-keyboard-response","277","776295","0.0-252.0","63eb82da9758a485a67914a2","665500ab8938657b03fbdba8","6657812f95cc9ccd2b0b77e3","686","stimuli/01100111.jpg"," ","","feedback_trial","0","","","","","","","","","","","","","","","","","","","","",""
"","","","","","image-keyboard-response","278","779216","0.0-253.0","63eb82da9758a485a67914a2","665500ab8938657b03fbdba8","6657812f95cc9ccd2b0b77e3","2919","stimuli/0011010.jpg","0","","prediction_trial","0","","true","","0","true","true","true","true","true","true","[0]","011","010","1","","","","","","",""
"","","","","","image-keyboard-response","279","779744","0.0-254.0","63eb82da9758a485a67914a2","665500ab8938657b03fbdba8","6657812f95cc9ccd2b0b77e3","527","stimuli/00110100.jpg"," ","","feedback_trial","0","","","","","","","","","","","","","","","","","","","","",""
"","","","","","image-keyboard-response","280","782648","0.0-255.0","63eb82da9758a485a67914a2","665500ab8938657b03fbdba8","6657812f95cc9ccd2b0b77e3","2904","stimuli/1010111.jpg","2","","prediction_trial","1","","false","","1","false","false","false","true","false","false","[1]","010","111","0","","","","","","",""
"","","","","","image-keyboard-response","281","784041","0.0-256.0","63eb82da9758a485a67914a2","665500ab8938657b03fbdba8","6657812f95cc9ccd2b0b77e3","1392","stimuli/10101111.jpg"," ","","feedback_trial","1","","","","","","","","","","","","","","","","","","","","",""
"","","","","","image-keyboard-response","282","787969","0.0-257.0","63eb82da9758a485a67914a2","665500ab8938657b03fbdba8","6657812f95cc9ccd2b0b77e3","3927","stimuli/2111101.jpg","2","","prediction_trial","1","","false","","2","false","false","false","false","false","false","[1,2,0]","111","101","0","","","","","","",""
"","","","","","image-keyboard-response","283","788890","0.0-258.0","63eb82da9758a485a67914a2","665500ab8938657b03fbdba8","6657812f95cc9ccd2b0b77e3","920","stimuli/21111011.jpg"," ","","feedback_trial","1","","","","","","","","","","","","","","","","","","","","",""
"","","","","","image-keyboard-response","284","792154","0.0-259.0","63eb82da9758a485a67914a2","665500ab8938657b03fbdba8","6657812f95cc9ccd2b0b77e3","3263","stimuli/0111000.jpg","2","","prediction_trial","1","","false","","0","true","true","false","false","false","false","[1,0,2]","111","000","0","","","","","","",""
"","","","","","image-keyboard-response","285","793514","0.0-260.0","63eb82da9758a485a67914a2","665500ab8938657b03fbdba8","6657812f95cc9ccd2b0b77e3","1360","stimuli/01110001.jpg"," ","","feedback_trial","1","","","","","","","","","","","","","","","","","","","","",""
"","","","","","image-keyboard-response","286","797011","0.0-261.0","63eb82da9758a485a67914a2","665500ab8938657b03fbdba8","6657812f95cc9ccd2b0b77e3","3496","stimuli/1100011.jpg","1","","prediction_trial","1","","true","","1","false","false","true","true","false","false","[1]","100","011","1","","","","","","",""
"","","","","","image-keyboard-response","287","798242","0.0-262.0","63eb82da9758a485a67914a2","665500ab8938657b03fbdba8","6657812f95cc9ccd2b0b77e3","1231","stimuli/11000111.jpg"," ","","feedback_trial","1","","","","","","","","","","","","","","","","","","","","",""
"","","","","","image-keyboard-response","288","800275","0.0-263.0","63eb82da9758a485a67914a2","665500ab8938657b03fbdba8","6657812f95cc9ccd2b0b77e3","2032","stimuli/1001110.jpg","0","","prediction_trial","1","","false","","1","false","false","true","true","false","false","[1]","001","110","0","","","","","","",""
"","","","","","image-keyboard-response","289","801747","0.0-264.0","63eb82da9758a485a67914a2","665500ab8938657b03fbdba8","6657812f95cc9ccd2b0b77e3","1471","stimuli/10011101.jpg"," ","","feedback_trial","1","","","","","","","","","","","","","","","","","","","","",""
"","","","","","image-keyboard-response","290","804659","0.0-265.0","63eb82da9758a485a67914a2","665500ab8938657b03fbdba8","6657812f95cc9ccd2b0b77e3","2912","stimuli/2111011.jpg","0","","prediction_trial","2","","false","","2","false","false","false","false","false","false","[0,2,1]","111","011","0","","","","","","",""
"","","","","","image-keyboard-response","291","805788","0.0-266.0","63eb82da9758a485a67914a2","665500ab8938657b03fbdba8","6657812f95cc9ccd2b0b77e3","1128","stimuli/21110112.jpg"," ","","feedback_trial","0","","","","","","","","","","","","","","","","","","","","",""
"","","","","","image-keyboard-response","292","808732","0.0-267.0","63eb82da9758a485a67914a2","665500ab8938657b03fbdba8","6657812f95cc9ccd2b0b77e3","2943","stimuli/0000100.jpg","0","","prediction_trial","0","","true","","0","false","true","true","true","false","true","[0]","000","100","1","","","","","","",""
"","","","","","image-keyboard-response","293","809348","0.0-268.0","63eb82da9758a485a67914a2","665500ab8938657b03fbdba8","6657812f95cc9ccd2b0b77e3","616","stimuli/00001000.jpg"," ","","feedback_trial","0","","","","","","","","","","","","","","","","","","","","",""
"","","","","","image-keyboard-response","294","812980","0.0-269.0","63eb82da9758a485a67914a2","665500ab8938657b03fbdba8","6657812f95cc9ccd2b0b77e3","3631","stimuli/1010110.jpg","1","","prediction_trial","1","","true","","1","false","false","false","true","false","false","[1]","010","110","1","","","","","","",""
"","","","","","image-keyboard-response","295","813868","0.0-270.0","63eb82da9758a485a67914a2","665500ab8938657b03fbdba8","6657812f95cc9ccd2b0b77e3","887","stimuli/10101101.jpg"," ","","feedback_trial","1","","","","","","","","","","","","","","","","","","","","",""
"","","","","","image-keyboard-response","296","816541","0.0-271.0","63eb82da9758a485a67914a2","665500ab8938657b03fbdba8","6657812f95cc9ccd2b0b77e3","2672","stimuli/1100010.jpg","1","","prediction_trial","1","","true","","1","false","true","true","true","false","true","[1]","100","010","1","","","","","","",""
"","","","","","image-keyboard-response","297","817316","0.0-272.0","63eb82da9758a485a67914a2","665500ab8938657b03fbdba8","6657812f95cc9ccd2b0b77e3","775","stimuli/11000101.jpg"," ","","feedback_trial","1","","","","","","","","","","","","","","","","","","","","",""
"","","","","","image-keyboard-response","298","820173","0.0-273.0","63eb82da9758a485a67914a2","665500ab8938657b03fbdba8","6657812f95cc9ccd2b0b77e3","2856","stimuli/2000101.jpg","0","","prediction_trial","2","","false","","2","false","false","true","true","false","false","[2]","000","101","0","","","","","","",""
"","","","","","image-keyboard-response","299","821269","0.0-274.0","63eb82da9758a485a67914a2","665500ab8938657b03fbdba8","6657812f95cc9ccd2b0b77e3","1095","stimuli/20001012.jpg"," ","","feedback_trial","2","","","","","","","","","","","","","","","","","","","","",""
"","","","","","image-keyboard-response","300","824662","0.0-275.0","63eb82da9758a485a67914a2","665500ab8938657b03fbdba8","6657812f95cc9ccd2b0b77e3","3391","stimuli/1011001.jpg","1","","prediction_trial","2","","false","","1","true","true","false","false","false","false","[2,1]","011","001","0","","","","","","",""
"","","","","","image-keyboard-response","301","825550","0.0-276.0","63eb82da9758a485a67914a2","665500ab8938657b03fbdba8","6657812f95cc9ccd2b0b77e3","887","stimuli/10110012.jpg"," ","","feedback_trial","2","","","","","","","","","","","","","","","","","","","","",""
"","","","","","image-keyboard-response","302","831558","0.0-277.0","63eb82da9758a485a67914a2","665500ab8938657b03fbdba8","6657812f95cc9ccd2b0b77e3","6008","stimuli/1111011.jpg","0","","prediction_trial","2","","false","","1","false","false","false","false","false","false","[0,2,1]","111","011","0","","","","","","",""
"","","","","","image-keyboard-response","303","832558","0.0-278.0","63eb82da9758a485a67914a2","665500ab8938657b03fbdba8","6657812f95cc9ccd2b0b77e3","999","stimuli/11110112.jpg"," ","","feedback_trial","0","","","","","","","","","","","","","","","","","","","","",""
"","","","","","image-keyboard-response","304","836119","0.0-279.0","63eb82da9758a485a67914a2","665500ab8938657b03fbdba8","6657812f95cc9ccd2b0b77e3","3560","stimuli/2111110.jpg","2","","prediction_trial","0","","false","","2","true","true","false","false","false","false","[0,1,2]","111","110","0","","","","","","",""
"","","","","","image-keyboard-response","305","837384","0.0-280.0","63eb82da9758a485a67914a2","665500ab8938657b03fbdba8","6657812f95cc9ccd2b0b77e3","1264","stimuli/21111100.jpg"," ","","feedback_trial","0","","","","","","","","","","","","","","","","","","","","",""
"","","","","","image-keyboard-response","306","845296","0.0-281.0","63eb82da9758a485a67914a2","665500ab8938657b03fbdba8","6657812f95cc9ccd2b0b77e3","7911","stimuli/2110011.jpg","2","","prediction_trial","2","","true","","2","false","false","true","true","false","false","[2]","110","011","1","","","","","","",""
"","","","","","image-keyboard-response","307","846281","0.0-282.0","63eb82da9758a485a67914a2","665500ab8938657b03fbdba8","6657812f95cc9ccd2b0b77e3","984","stimuli/21100112.jpg"," ","","feedback_trial","2","","","","","","","","","","","","","","","","","","","","",""
"","","","","","image-keyboard-response","308","850456","0.0-283.0","63eb82da9758a485a67914a2","665500ab8938657b03fbdba8","6657812f95cc9ccd2b0b77e3","4175","stimuli/0110100.jpg","1","","prediction_trial","0","","false","","0","false","true","false","false","false","false","[1,0]","110","100","0","","","","","","",""
"","","","","","image-keyboard-response","309","851329","0.0-284.0","63eb82da9758a485a67914a2","665500ab8938657b03fbdba8","6657812f95cc9ccd2b0b77e3","872","stimuli/01101000.jpg"," ","","feedback_trial","1","","","","","","","","","","","","","","","","","","","","",""
"","","","","","image-keyboard-response","310","855441","0.0-285.0","63eb82da9758a485a67914a2","665500ab8938657b03fbdba8","6657812f95cc9ccd2b0b77e3","4112","stimuli/1111100.jpg","1","","prediction_trial","1","","true","","1","true","true","false","false","false","false","[2,0,1]","111","100","1","","","","","","",""
"","","","","","image-keyboard-response","311","856753","0.0-286.0","63eb82da9758a485a67914a2","665500ab8938657b03fbdba8","6657812f95cc9ccd2b0b77e3","1311","stimuli/11111001.jpg"," ","","feedback_trial","2","","","","","","","","","","","","","","","","","","","","",""
"","","","","","image-keyboard-response","312","859954","0.0-287.0","63eb82da9758a485a67914a2","665500ab8938657b03fbdba8","6657812f95cc9ccd2b0b77e3","3200","stimuli/1111110.jpg","2","","prediction_trial","2","","true","","1","false","false","false","false","false","false","[2,1,0]","111","110","1","","","","","","",""
"","","","","","image-keyboard-response","313","861090","0.0-288.0","63eb82da9758a485a67914a2","665500ab8938657b03fbdba8","6657812f95cc9ccd2b0b77e3","1135","stimuli/11111102.jpg"," ","","feedback_trial","2","","","","","","","","","","","","","","","","","","","","",""
"","","","","","image-keyboard-response","314","865003","0.0-289.0","63eb82da9758a485a67914a2","665500ab8938657b03fbdba8","6657812f95cc9ccd2b0b77e3","3912","stimuli/2001011.jpg","2","","prediction_trial","2","","true","","2","false","false","false","true","false","false","[2]","001","011","1","","","","","","",""
"","","","","","image-keyboard-response","315","866018","0.0-290.0","63eb82da9758a485a67914a2","665500ab8938657b03fbdba8","6657812f95cc9ccd2b0b77e3","1015","stimuli/20010112.jpg"," ","","feedback_trial","2","","","","","","","","","","","","","","","","","","","","",""
"","","","","","image-keyboard-response","316","868643","0.0-291.0","63eb82da9758a485a67914a2","665500ab8938657b03fbdba8","6657812f95cc9ccd2b0b77e3","2624","stimuli/0000000.jpg","0","","prediction_trial","0","","true","","0","true","true","true","true","true","true","[0]","000","000","1","","","","","","",""
"","","","","","image-keyboard-response","317","869379","0.0-292.0","63eb82da9758a485a67914a2","665500ab8938657b03fbdba8","6657812f95cc9ccd2b0b77e3","735","stimuli/00000000.jpg"," ","","feedback_trial","0","","","","","","","","","","","","","","","","","","","","",""
"","","","","","survey-html-form","318","1134766","0.0-293.0","63eb82da9758a485a67914a2","665500ab8938657b03fbdba8","6657812f95cc9ccd2b0b77e3","265385","","{""feedback"":""Whenever possible, I would rule out baskets based on whether he (and I) could see if they were empty. If I could see the baskets were and he couldn't, then it was mostly guessing. Sometimes it seemed to have a pattern or repeat same basket choices. so I assumed the same choice would repeat a couple times."",""age"":""40"",""gender"":""Male"",""other_gender"":"""",""race"":""White"",""other_race"":"""",""ethnicity"":""Non-Hispanic""}","","exit_survey","","","","","","","","","","","","","","","","Whenever possible, I would rule out baskets based on whether he (and I) could see if they were empty. If I could see the baskets were and he couldn't, then it was mostly guessing. Sometimes it seemed to have a pattern or repeat same basket choices. so I assumed the same choice would repeat a couple times.","40","Non-Hispanic","Male","White","0.6527777777777778","0.6527777777777778"
