"success","timeout","failed_images","failed_audio","failed_video","trial_type","trial_index","time_elapsed","internal_node_id","prolific_id","prolific_study_id","prolific_session_id","rt","stimulus","response","view_history","trial","character_choice","stimulus_dict","accuracy","correct_response","ball_pos","ego_ball_visible","ego_can_infer","alter_ball_visible","alter_can_infer","collective_ball_visible","collective_can_infer","search_locations","alter_occluders","ego_occluders","accuracy_bool","feedback","age","ethnicity","gender","race","overall_accuracy","bonus"
"true","false","[]","[]","[]","preload","0","3043","0.0-0.0","6405feae7d6321bfaaf793e8","665500ab8938657b03fbdba8","665797524d8acc7211fce1d4","","","","","","","","","","","","","","","","","","","","","","","","","","",""
"true","","","","","fullscreen","1","5837","0.0-1.0","6405feae7d6321bfaaf793e8","665500ab8938657b03fbdba8","665797524d8acc7211fce1d4","","","","","","","","","","","","","","","","","","","","","","","","","","",""
"","","","","","html-button-response","2","8209","0.0-2.0","6405feae7d6321bfaaf793e8","665500ab8938657b03fbdba8","665797524d8acc7211fce1d4","2369","<p><b>Consent Form</b></p> <div style=""text-align:left;background-color:lightgrey; padding:20px; max-width:900px;""><p>Please consider this information carefully before deciding whether to participate in this research.</p> <p>The purpose of this research is to examine which factors influence social judgment and decision-making. You will be asked to make judgements about individuals and actions in social scenarios. We are simply interested in your judgement. The study will take less than 1 hour to complete, and you will receive less than $20 on Prolific. Your compensation and time commitment are specified in the study description. There are no anticipated risks associated with participating in this study. The effects of participating should be comparable to those you would ordinarily experience from viewing a computer monitor and using a mouse or keyboard for a similar amount of time. At the end of the study, we will provide an explanation of the questions that motivate this line of research and will describe the potential implications. </p><p> Your participation in this study is completely voluntary and you may refuse to participate or you may choose to withdraw at any time without penalty or loss of benefits to you which are otherwise entitled. Your participation in this study will remain confidential. No personally identifiable information will be associated with your data. Also, all analyses of the data will be averaged across all the participants, so your individual responses will never be specifically analyzed. </p><p> If you have questions or concerns about your participation or payment, or want to request a summary of research findings, please contact Dr. Jonathan Phillips at Jonathan.S.Phillips@dartmouth.edu. </p><p> Please save a copy of this form for your records. </p><p><b>Agreement: </b>The nature and purpose of this research have been sufficiently explained and I agree to participate in this study. I understand that I am free to withdraw at any time without incurring any penalty. Please consent by clicking the button below to continue. Otherwise, please exit the study at any time. </p>","0","","","","","","","","","","","","","","","","","","","","","","","",""
"","","","","","instructions","3","57214","0.0-3.0-0.0","6405feae7d6321bfaaf793e8","665500ab8938657b03fbdba8","665797524d8acc7211fce1d4","49005","","","[{""page_index"":0,""viewing_time"":1318},{""page_index"":1,""viewing_time"":2022},{""page_index"":2,""viewing_time"":1909},{""page_index"":3,""viewing_time"":3839},{""page_index"":4,""viewing_time"":2462},{""page_index"":5,""viewing_time"":1582},{""page_index"":6,""viewing_time"":4073},{""page_index"":7,""viewing_time"":2260},{""page_index"":8,""viewing_time"":1749},{""page_index"":9,""viewing_time"":1636},{""page_index"":10,""viewing_time"":9920},{""page_index"":11,""viewing_time"":5677},{""page_index"":12,""viewing_time"":9667},{""page_index"":13,""viewing_time"":891}]","intro","","","","","","","","","","","","","","","","","","","","","",""
"","","","","","image-keyboard-response","4","60768","0.0-3.0-1.0","6405feae7d6321bfaaf793e8","665500ab8938657b03fbdba8","665797524d8acc7211fce1d4","3550","stimuli/0100110.jpg","1","","prediction_practice","0","{""filepath"":""stimuli/0100110.jpg"",""ball_pos"":0,""ego_ball_visible"":false,""ego_can_infer"":false,""alter_ball_visible"":false,""alter_can_infer"":true,""collective_ball_visible"":false,""collective_can_infer"":false,""search_locations"":[0],""alter_occluders"":""100"",""ego_occluders"":""110""}","false","","","","","","","","","","","","","","","","","","",""
"","","","","","image-keyboard-response","5","62730","0.0-3.0-2.0","6405feae7d6321bfaaf793e8","665500ab8938657b03fbdba8","665797524d8acc7211fce1d4","1960","stimuli/01001100.jpg"," ","","practrice_feedback","0","","","","","","","","","","","","","","","","","","","","",""
"","","","","","image-keyboard-response","6","64120","0.0-3.0-3.0","6405feae7d6321bfaaf793e8","665500ab8938657b03fbdba8","665797524d8acc7211fce1d4","1388","stimuli/1001001.jpg","1","","prediction_practice","1","{""filepath"":""stimuli/1001001.jpg"",""ball_pos"":1,""ego_ball_visible"":true,""ego_can_infer"":true,""alter_ball_visible"":true,""alter_can_infer"":true,""collective_ball_visible"":true,""collective_can_infer"":true,""search_locations"":[1],""alter_occluders"":""001"",""ego_occluders"":""001""}","true","","","","","","","","","","","","","","","","","","",""
"","","","","","image-keyboard-response","7","64979","0.0-3.0-4.0","6405feae7d6321bfaaf793e8","665500ab8938657b03fbdba8","665797524d8acc7211fce1d4","858","stimuli/10010011.jpg"," ","","practrice_feedback","1","","","","","","","","","","","","","","","","","","","","",""
"","","","","","image-keyboard-response","8","68787","0.0-3.0-5.0","6405feae7d6321bfaaf793e8","665500ab8938657b03fbdba8","665797524d8acc7211fce1d4","3806","stimuli/2010101.jpg","0","","prediction_practice","2","{""filepath"":""stimuli/2010101.jpg"",""ball_pos"":2,""ego_ball_visible"":false,""ego_can_infer"":false,""alter_ball_visible"":true,""alter_can_infer"":true,""collective_ball_visible"":false,""collective_can_infer"":false,""search_locations"":[2],""alter_occluders"":""010"",""ego_occluders"":""101""}","false","","","","","","","","","","","","","","","","","","",""
"","","","","","image-keyboard-response","9","69862","0.0-3.0-6.0","6405feae7d6321bfaaf793e8","665500ab8938657b03fbdba8","665797524d8acc7211fce1d4","1073","stimuli/20101012.jpg"," ","","practrice_feedback","2","","","","","","","","","","","","","","","","","","","","",""
"","","","","","image-keyboard-response","10","71537","0.0-3.0-7.0","6405feae7d6321bfaaf793e8","665500ab8938657b03fbdba8","665797524d8acc7211fce1d4","1673","stimuli/0001010.jpg","0","","prediction_practice","0","{""filepath"":""stimuli/0001010.jpg"",""ball_pos"":0,""ego_ball_visible"":true,""ego_can_infer"":true,""alter_ball_visible"":true,""alter_can_infer"":true,""collective_ball_visible"":true,""collective_can_infer"":true,""search_locations"":[0],""alter_occluders"":""001"",""ego_occluders"":""010""}","true","","","","","","","","","","","","","","","","","","",""
"","","","","","image-keyboard-response","11","72287","0.0-3.0-8.0","6405feae7d6321bfaaf793e8","665500ab8938657b03fbdba8","665797524d8acc7211fce1d4","748","stimuli/00010100.jpg"," ","","practrice_feedback","0","","","","","","","","","","","","","","","","","","","","",""
"","","","","","image-keyboard-response","12","74466","0.0-3.0-9.0","6405feae7d6321bfaaf793e8","665500ab8938657b03fbdba8","665797524d8acc7211fce1d4","2177","stimuli/2001010.jpg","2","","prediction_practice","2","{""filepath"":""stimuli/2001010.jpg"",""ball_pos"":2,""ego_ball_visible"":true,""ego_can_infer"":true,""alter_ball_visible"":false,""alter_can_infer"":true,""collective_ball_visible"":false,""collective_can_infer"":true,""search_locations"":[2],""alter_occluders"":""001"",""ego_occluders"":""010""}","true","","","","","","","","","","","","","","","","","","",""
"","","","","","image-keyboard-response","13","75166","0.0-3.0-10.0","6405feae7d6321bfaaf793e8","665500ab8938657b03fbdba8","665797524d8acc7211fce1d4","699","stimuli/20010102.jpg"," ","","practrice_feedback","2","","","","","","","","","","","","","","","","","","","","",""
"","","","","","image-keyboard-response","14","76508","0.0-3.0-11.0","6405feae7d6321bfaaf793e8","665500ab8938657b03fbdba8","665797524d8acc7211fce1d4","1340","stimuli/2010010.jpg","2","","prediction_practice","2","{""filepath"":""stimuli/2010010.jpg"",""ball_pos"":2,""ego_ball_visible"":true,""ego_can_infer"":true,""alter_ball_visible"":true,""alter_can_infer"":true,""collective_ball_visible"":true,""collective_can_infer"":true,""search_locations"":[2],""alter_occluders"":""010"",""ego_occluders"":""010""}","true","","","","","","","","","","","","","","","","","","",""
"","","","","","image-keyboard-response","15","77169","0.0-3.0-12.0","6405feae7d6321bfaaf793e8","665500ab8938657b03fbdba8","665797524d8acc7211fce1d4","660","stimuli/20100102.jpg"," ","","practrice_feedback","2","","","","","","","","","","","","","","","","","","","","",""
"","","","","","image-keyboard-response","16","78114","0.0-3.0-13.0","6405feae7d6321bfaaf793e8","665500ab8938657b03fbdba8","665797524d8acc7211fce1d4","943","stimuli/0000000.jpg","0","","prediction_practice","0","{""filepath"":""stimuli/0000000.jpg"",""ball_pos"":0,""ego_ball_visible"":true,""ego_can_infer"":true,""alter_ball_visible"":true,""alter_can_infer"":true,""collective_ball_visible"":true,""collective_can_infer"":true,""search_locations"":[0],""alter_occluders"":""000"",""ego_occluders"":""000""}","true","","","","","","","","","","","","","","","","","","",""
"","","","","","image-keyboard-response","17","78487","0.0-3.0-14.0","6405feae7d6321bfaaf793e8","665500ab8938657b03fbdba8","665797524d8acc7211fce1d4","372","stimuli/00000000.jpg"," ","","practrice_feedback","0","","","","","","","","","","","","","","","","","","","","",""
"","","","","","image-keyboard-response","18","80082","0.0-3.0-15.0","6405feae7d6321bfaaf793e8","665500ab8938657b03fbdba8","665797524d8acc7211fce1d4","1594","stimuli/2000101.jpg","2","","prediction_practice","2","{""filepath"":""stimuli/2000101.jpg"",""ball_pos"":2,""ego_ball_visible"":false,""ego_can_infer"":false,""alter_ball_visible"":true,""alter_can_infer"":true,""collective_ball_visible"":false,""collective_can_infer"":false,""search_locations"":[2],""alter_occluders"":""000"",""ego_occluders"":""101""}","true","","","","","","","","","","","","","","","","","","",""
"","","","","","image-keyboard-response","19","80876","0.0-3.0-16.0","6405feae7d6321bfaaf793e8","665500ab8938657b03fbdba8","665797524d8acc7211fce1d4","792","stimuli/20001012.jpg"," ","","practrice_feedback","2","","","","","","","","","","","","","","","","","","","","",""
"","","","","","image-keyboard-response","20","83346","0.0-3.0-17.0","6405feae7d6321bfaaf793e8","665500ab8938657b03fbdba8","665797524d8acc7211fce1d4","2468","stimuli/2100111.jpg","0","","prediction_practice","2","{""filepath"":""stimuli/2100111.jpg"",""ball_pos"":2,""ego_ball_visible"":false,""ego_can_infer"":false,""alter_ball_visible"":true,""alter_can_infer"":true,""collective_ball_visible"":false,""collective_can_infer"":false,""search_locations"":[2],""alter_occluders"":""100"",""ego_occluders"":""111""}","false","","","","","","","","","","","","","","","","","","",""
"","","","","","image-keyboard-response","21","84421","0.0-3.0-18.0","6405feae7d6321bfaaf793e8","665500ab8938657b03fbdba8","665797524d8acc7211fce1d4","1073","stimuli/21001112.jpg"," ","","practrice_feedback","2","","","","","","","","","","","","","","","","","","","","",""
"","","","","","image-keyboard-response","22","85845","0.0-3.0-19.0","6405feae7d6321bfaaf793e8","665500ab8938657b03fbdba8","665797524d8acc7211fce1d4","1422","stimuli/1100111.jpg","2","","prediction_practice","1","{""filepath"":""stimuli/1100111.jpg"",""ball_pos"":1,""ego_ball_visible"":false,""ego_can_infer"":false,""alter_ball_visible"":true,""alter_can_infer"":true,""collective_ball_visible"":false,""collective_can_infer"":false,""search_locations"":[1],""alter_occluders"":""100"",""ego_occluders"":""111""}","false","","","","","","","","","","","","","","","","","","",""
"","","","","","image-keyboard-response","23","86679","0.0-3.0-20.0","6405feae7d6321bfaaf793e8","665500ab8938657b03fbdba8","665797524d8acc7211fce1d4","832","stimuli/11001111.jpg"," ","","practrice_feedback","1","","","","","","","","","","","","","","","","","","","","",""
"","","","","","html-button-response","24","89413","0.0-3.0-21.0","6405feae7d6321bfaaf793e8","665500ab8938657b03fbdba8","665797524d8acc7211fce1d4","2733","Now that you've had some practice, you'll be tested with a couple of easy trials. If you correctly predict Sam's choice, you'll move on to complete the experiment!","0","","","","","","","","","","","","","","","","","","","","","","","",""
"","","","","","image-keyboard-response","25","90679","0.0-3.0-22.0-0.0","6405feae7d6321bfaaf793e8","665500ab8938657b03fbdba8","665797524d8acc7211fce1d4","1264","stimuli/0000011.jpg","arrowleft","","comprehension_quiz","","","true","arrowleft","","","","","","","","","","","","","","","","","",""
"","","","","","image-keyboard-response","26","91478","0.0-3.0-22.0-1.0","6405feae7d6321bfaaf793e8","665500ab8938657b03fbdba8","665797524d8acc7211fce1d4","797","stimuli/00000110.jpg"," ","","comprehension_quiz","","","true"," ","","","","","","","","","","","","","","","","","",""
"","","","","","image-keyboard-response","27","93118","0.0-3.0-22.0-2.0","6405feae7d6321bfaaf793e8","665500ab8938657b03fbdba8","665797524d8acc7211fce1d4","1639","stimuli/1010010.jpg","arrowdown","","comprehension_quiz","","","true","arrowdown","","","","","","","","","","","","","","","","","",""
"","","","","","image-keyboard-response","28","93453","0.0-3.0-22.0-3.0","6405feae7d6321bfaaf793e8","665500ab8938657b03fbdba8","665797524d8acc7211fce1d4","333","stimuli/10100101.jpg"," ","","comprehension_quiz","","","true"," ","","","","","","","","","","","","","","","","","",""
"","","","","","html-button-response","29","95021","0.0-4.0","6405feae7d6321bfaaf793e8","665500ab8938657b03fbdba8","665797524d8acc7211fce1d4","1566","The experiment will now begin.","0","","","","","","","","","","","","","","","","","","","","","","","",""
"","","","","","image-keyboard-response","30","97097","0.0-5.0","6405feae7d6321bfaaf793e8","665500ab8938657b03fbdba8","665797524d8acc7211fce1d4","2075","stimuli/0011110.jpg","2","","prediction_trial","0","","false","","0","false","false","true","true","false","false","[0]","011","110","0","","","","","","",""
"","","","","","image-keyboard-response","31","97881","0.0-6.0","6405feae7d6321bfaaf793e8","665500ab8938657b03fbdba8","665797524d8acc7211fce1d4","782","stimuli/00111100.jpg"," ","","feedback_trial","0","","","","","","","","","","","","","","","","","","","","",""
"","","","","","image-keyboard-response","32","101301","0.0-7.0","6405feae7d6321bfaaf793e8","665500ab8938657b03fbdba8","665797524d8acc7211fce1d4","3419","stimuli/2010111.jpg","2","","prediction_trial","2","","true","","2","false","false","true","true","false","false","[2]","010","111","1","","","","","","",""
"","","","","","image-keyboard-response","33","101955","0.0-8.0","6405feae7d6321bfaaf793e8","665500ab8938657b03fbdba8","665797524d8acc7211fce1d4","652","stimuli/20101112.jpg"," ","","feedback_trial","2","","","","","","","","","","","","","","","","","","","","",""
"","","","","","image-keyboard-response","34","103697","0.0-9.0","6405feae7d6321bfaaf793e8","665500ab8938657b03fbdba8","665797524d8acc7211fce1d4","1740","stimuli/2011000.jpg","2","","prediction_trial","2","","true","","2","true","true","false","false","false","false","[2,1]","011","000","1","","","","","","",""
"","","","","","image-keyboard-response","35","104474","0.0-10.0","6405feae7d6321bfaaf793e8","665500ab8938657b03fbdba8","665797524d8acc7211fce1d4","776","stimuli/20110002.jpg"," ","","feedback_trial","2","","","","","","","","","","","","","","","","","","","","",""
"","","","","","image-keyboard-response","36","105373","0.0-11.0","6405feae7d6321bfaaf793e8","665500ab8938657b03fbdba8","665797524d8acc7211fce1d4","898","stimuli/2110110.jpg","2","","prediction_trial","2","","true","","2","true","true","true","true","true","true","[2]","110","110","1","","","","","","",""
"","","","","","image-keyboard-response","37","105865","0.0-12.0","6405feae7d6321bfaaf793e8","665500ab8938657b03fbdba8","665797524d8acc7211fce1d4","490","stimuli/21101102.jpg"," ","","feedback_trial","2","","","","","","","","","","","","","","","","","","","","",""
"","","","","","image-keyboard-response","38","107275","0.0-13.0","6405feae7d6321bfaaf793e8","665500ab8938657b03fbdba8","665797524d8acc7211fce1d4","1407","stimuli/2101111.jpg","2","","prediction_trial","0","","false","","2","false","false","false","false","false","false","[2,0]","101","111","0","","","","","","",""
"","","","","","image-keyboard-response","39","108180","0.0-14.0","6405feae7d6321bfaaf793e8","665500ab8938657b03fbdba8","665797524d8acc7211fce1d4","903","stimuli/21011110.jpg"," ","","feedback_trial","2","","","","","","","","","","","","","","","","","","","","",""
"","","","","","image-keyboard-response","40","109673","0.0-15.0","6405feae7d6321bfaaf793e8","665500ab8938657b03fbdba8","665797524d8acc7211fce1d4","1492","stimuli/0111000.jpg","1","","prediction_trial","0","","false","","0","true","true","false","false","false","false","[1,2,0]","111","000","0","","","","","","",""
"","","","","","image-keyboard-response","41","110398","0.0-16.0","6405feae7d6321bfaaf793e8","665500ab8938657b03fbdba8","665797524d8acc7211fce1d4","722","stimuli/01110000.jpg"," ","","feedback_trial","1","","","","","","","","","","","","","","","","","","","","",""
"","","","","","image-keyboard-response","42","111524","0.0-17.0","6405feae7d6321bfaaf793e8","665500ab8938657b03fbdba8","665797524d8acc7211fce1d4","1125","stimuli/0111100.jpg","0","","prediction_trial","0","","true","","0","false","true","false","false","false","false","[1,2,0]","111","100","1","","","","","","",""
"","","","","","image-keyboard-response","43","113027","0.0-18.0","6405feae7d6321bfaaf793e8","665500ab8938657b03fbdba8","665797524d8acc7211fce1d4","1500","stimuli/01111000.jpg"," ","","feedback_trial","1","","","","","","","","","","","","","","","","","","","","",""
"","","","","","image-keyboard-response","44","115207","0.0-19.0","6405feae7d6321bfaaf793e8","665500ab8938657b03fbdba8","665797524d8acc7211fce1d4","2179","stimuli/1010001.jpg","1","","prediction_trial","1","","true","","1","true","true","false","true","false","true","[1]","010","001","1","","","","","","",""
"","","","","","image-keyboard-response","45","115583","0.0-20.0","6405feae7d6321bfaaf793e8","665500ab8938657b03fbdba8","665797524d8acc7211fce1d4","374","stimuli/10100011.jpg"," ","","feedback_trial","1","","","","","","","","","","","","","","","","","","","","",""
"","","","","","image-keyboard-response","46","116985","0.0-21.0","6405feae7d6321bfaaf793e8","665500ab8938657b03fbdba8","665797524d8acc7211fce1d4","1400","stimuli/2001001.jpg","2","","prediction_trial","2","","true","","2","false","true","false","true","false","true","[2]","001","001","1","","","","","","",""
"","","","","","image-keyboard-response","47","117396","0.0-22.0","6405feae7d6321bfaaf793e8","665500ab8938657b03fbdba8","665797524d8acc7211fce1d4","410","stimuli/20010012.jpg"," ","","feedback_trial","2","","","","","","","","","","","","","","","","","","","","",""
"","","","","","image-keyboard-response","48","118236","0.0-23.0","6405feae7d6321bfaaf793e8","665500ab8938657b03fbdba8","665797524d8acc7211fce1d4","838","stimuli/1100100.jpg","1","","prediction_trial","1","","true","","1","true","true","true","true","true","true","[1]","100","100","1","","","","","","",""
"","","","","","image-keyboard-response","49","118546","0.0-24.0","6405feae7d6321bfaaf793e8","665500ab8938657b03fbdba8","665797524d8acc7211fce1d4","309","stimuli/11001001.jpg"," ","","feedback_trial","1","","","","","","","","","","","","","","","","","","","","",""
"","","","","","image-keyboard-response","50","120110","0.0-25.0","6405feae7d6321bfaaf793e8","665500ab8938657b03fbdba8","665797524d8acc7211fce1d4","1563","stimuli/1101010.jpg","1","","prediction_trial","1","","true","","1","false","true","true","true","false","true","[1]","101","010","1","","","","","","",""
"","","","","","image-keyboard-response","51","120440","0.0-26.0","6405feae7d6321bfaaf793e8","665500ab8938657b03fbdba8","665797524d8acc7211fce1d4","328","stimuli/11010101.jpg"," ","","feedback_trial","1","","","","","","","","","","","","","","","","","","","","",""
"","","","","","image-keyboard-response","52","121089","0.0-27.0","6405feae7d6321bfaaf793e8","665500ab8938657b03fbdba8","665797524d8acc7211fce1d4","648","stimuli/2100010.jpg","2","","prediction_trial","2","","true","","2","true","true","true","true","true","true","[2]","100","010","1","","","","","","",""
"","","","","","image-keyboard-response","53","121345","0.0-28.0","6405feae7d6321bfaaf793e8","665500ab8938657b03fbdba8","665797524d8acc7211fce1d4","254","stimuli/21000102.jpg"," ","","feedback_trial","2","","","","","","","","","","","","","","","","","","","","",""
"","","","","","image-keyboard-response","54","122405","0.0-29.0","6405feae7d6321bfaaf793e8","665500ab8938657b03fbdba8","665797524d8acc7211fce1d4","1058","stimuli/0100100.jpg","0","","prediction_trial","0","","true","","0","false","true","false","true","false","true","[0]","100","100","1","","","","","","",""
"","","","","","image-keyboard-response","55","122739","0.0-30.0","6405feae7d6321bfaaf793e8","665500ab8938657b03fbdba8","665797524d8acc7211fce1d4","332","stimuli/01001000.jpg"," ","","feedback_trial","0","","","","","","","","","","","","","","","","","","","","",""
"","","","","","image-keyboard-response","56","124369","0.0-31.0","6405feae7d6321bfaaf793e8","665500ab8938657b03fbdba8","665797524d8acc7211fce1d4","1629","stimuli/0100010.jpg","0","","prediction_trial","0","","true","","0","true","true","false","true","false","true","[0]","100","010","1","","","","","","",""
"","","","","","image-keyboard-response","57","124788","0.0-32.0","6405feae7d6321bfaaf793e8","665500ab8938657b03fbdba8","665797524d8acc7211fce1d4","418","stimuli/01000100.jpg"," ","","feedback_trial","0","","","","","","","","","","","","","","","","","","","","",""
"","","","","","image-keyboard-response","58","126093","0.0-33.0","6405feae7d6321bfaaf793e8","665500ab8938657b03fbdba8","665797524d8acc7211fce1d4","1304","stimuli/0110001.jpg","0","","prediction_trial","0","","true","","0","true","true","false","false","false","false","[1,0]","110","001","1","","","","","","",""
"","","","","","image-keyboard-response","59","126548","0.0-34.0","6405feae7d6321bfaaf793e8","665500ab8938657b03fbdba8","665797524d8acc7211fce1d4","452","stimuli/01100010.jpg"," ","","feedback_trial","1","","","","","","","","","","","","","","","","","","","","",""
"","","","","","image-keyboard-response","60","127617","0.0-35.0","6405feae7d6321bfaaf793e8","665500ab8938657b03fbdba8","665797524d8acc7211fce1d4","1068","stimuli/0001001.jpg","0","","prediction_trial","0","","true","","0","true","true","true","true","true","true","[0]","001","001","1","","","","","","",""
"","","","","","image-keyboard-response","61","127867","0.0-36.0","6405feae7d6321bfaaf793e8","665500ab8938657b03fbdba8","665797524d8acc7211fce1d4","249","stimuli/00010010.jpg"," ","","feedback_trial","0","","","","","","","","","","","","","","","","","","","","",""
"","","","","","image-keyboard-response","62","128833","0.0-37.0","6405feae7d6321bfaaf793e8","665500ab8938657b03fbdba8","665797524d8acc7211fce1d4","964","stimuli/2010001.jpg","2","","prediction_trial","2","","true","","2","false","true","true","true","false","true","[2]","010","001","1","","","","","","",""
"","","","","","image-keyboard-response","63","129317","0.0-38.0","6405feae7d6321bfaaf793e8","665500ab8938657b03fbdba8","665797524d8acc7211fce1d4","482","stimuli/20100012.jpg"," ","","feedback_trial","2","","","","","","","","","","","","","","","","","","","","",""
"","","","","","image-keyboard-response","64","130017","0.0-39.0","6405feae7d6321bfaaf793e8","665500ab8938657b03fbdba8","665797524d8acc7211fce1d4","699","stimuli/0001011.jpg","0","","prediction_trial","0","","true","","0","true","true","true","true","true","true","[0]","001","011","1","","","","","","",""
"","","","","","image-keyboard-response","65","130291","0.0-40.0","6405feae7d6321bfaaf793e8","665500ab8938657b03fbdba8","665797524d8acc7211fce1d4","273","stimuli/00010110.jpg"," ","","feedback_trial","0","","","","","","","","","","","","","","","","","","","","",""
"","","","","","image-keyboard-response","66","132613","0.0-41.0","6405feae7d6321bfaaf793e8","665500ab8938657b03fbdba8","665797524d8acc7211fce1d4","2320","stimuli/1111010.jpg","1","","prediction_trial","1","","true","","1","false","true","false","false","false","false","[2,1,0]","111","010","1","","","","","","",""
"","","","","","image-keyboard-response","67","133226","0.0-42.0","6405feae7d6321bfaaf793e8","665500ab8938657b03fbdba8","665797524d8acc7211fce1d4","612","stimuli/11110101.jpg"," ","","feedback_trial","2","","","","","","","","","","","","","","","","","","","","",""
"","","","","","image-keyboard-response","68","135301","0.0-43.0","6405feae7d6321bfaaf793e8","665500ab8938657b03fbdba8","665797524d8acc7211fce1d4","2074","stimuli/0100110.jpg","1","","prediction_trial","0","","false","","0","false","false","false","true","false","false","[0]","100","110","0","","","","","","",""
"","","","","","image-keyboard-response","69","135921","0.0-44.0","6405feae7d6321bfaaf793e8","665500ab8938657b03fbdba8","665797524d8acc7211fce1d4","618","stimuli/01001100.jpg"," ","","feedback_trial","0","","","","","","","","","","","","","","","","","","","","",""
"","","","","","image-keyboard-response","70","136846","0.0-45.0","6405feae7d6321bfaaf793e8","665500ab8938657b03fbdba8","665797524d8acc7211fce1d4","923","stimuli/1001000.jpg","1","","prediction_trial","1","","true","","1","true","true","true","true","true","true","[1]","001","000","1","","","","","","",""
"","","","","","image-keyboard-response","71","137182","0.0-46.0","6405feae7d6321bfaaf793e8","665500ab8938657b03fbdba8","665797524d8acc7211fce1d4","334","stimuli/10010001.jpg"," ","","feedback_trial","1","","","","","","","","","","","","","","","","","","","","",""
"","","","","","image-keyboard-response","72","137965","0.0-47.0","6405feae7d6321bfaaf793e8","665500ab8938657b03fbdba8","665797524d8acc7211fce1d4","781","stimuli/1101100.jpg","1","","prediction_trial","1","","true","","1","true","true","true","true","true","true","[1]","101","100","1","","","","","","",""
"","","","","","image-keyboard-response","73","138195","0.0-48.0","6405feae7d6321bfaaf793e8","665500ab8938657b03fbdba8","665797524d8acc7211fce1d4","229","stimuli/11011001.jpg"," ","","feedback_trial","1","","","","","","","","","","","","","","","","","","","","",""
"","","","","","image-keyboard-response","74","139855","0.0-49.0","6405feae7d6321bfaaf793e8","665500ab8938657b03fbdba8","665797524d8acc7211fce1d4","1659","stimuli/1000011.jpg","1","","prediction_trial","1","","true","","1","false","false","true","true","false","false","[1]","000","011","1","","","","","","",""
"","","","","","image-keyboard-response","75","140399","0.0-50.0","6405feae7d6321bfaaf793e8","665500ab8938657b03fbdba8","665797524d8acc7211fce1d4","543","stimuli/10000111.jpg"," ","","feedback_trial","1","","","","","","","","","","","","","","","","","","","","",""
"","","","","","image-keyboard-response","76","141161","0.0-51.0","6405feae7d6321bfaaf793e8","665500ab8938657b03fbdba8","665797524d8acc7211fce1d4","760","stimuli/0000000.jpg","0","","prediction_trial","0","","true","","0","true","true","true","true","true","true","[0]","000","000","1","","","","","","",""
"","","","","","image-keyboard-response","77","141670","0.0-52.0","6405feae7d6321bfaaf793e8","665500ab8938657b03fbdba8","665797524d8acc7211fce1d4","507","stimuli/00000000.jpg"," ","","feedback_trial","0","","","","","","","","","","","","","","","","","","","","",""
"","","","","","image-keyboard-response","78","142916","0.0-53.0","6405feae7d6321bfaaf793e8","665500ab8938657b03fbdba8","665797524d8acc7211fce1d4","1243","stimuli/1111101.jpg","1","","prediction_trial","1","","true","","1","true","true","false","false","false","false","[2,0,1]","111","101","1","","","","","","",""
"","","","","","image-keyboard-response","79","143439","0.0-54.0","6405feae7d6321bfaaf793e8","665500ab8938657b03fbdba8","665797524d8acc7211fce1d4","522","stimuli/11111011.jpg"," ","","feedback_trial","2","","","","","","","","","","","","","","","","","","","","",""
"","","","","","image-keyboard-response","80","144089","0.0-55.0","6405feae7d6321bfaaf793e8","665500ab8938657b03fbdba8","665797524d8acc7211fce1d4","648","stimuli/2011100.jpg","2","","prediction_trial","2","","true","","2","true","true","false","false","false","false","[2,1]","011","100","1","","","","","","",""
"","","","","","image-keyboard-response","81","144629","0.0-56.0","6405feae7d6321bfaaf793e8","665500ab8938657b03fbdba8","665797524d8acc7211fce1d4","539","stimuli/20111002.jpg"," ","","feedback_trial","2","","","","","","","","","","","","","","","","","","","","",""
"","","","","","image-keyboard-response","82","147347","0.0-57.0","6405feae7d6321bfaaf793e8","665500ab8938657b03fbdba8","665797524d8acc7211fce1d4","2717","stimuli/2001101.jpg","2","","prediction_trial","2","","true","","2","false","false","false","true","false","false","[2]","001","101","1","","","","","","",""
"","","","","","image-keyboard-response","83","147903","0.0-58.0","6405feae7d6321bfaaf793e8","665500ab8938657b03fbdba8","665797524d8acc7211fce1d4","554","stimuli/20011012.jpg"," ","","feedback_trial","2","","","","","","","","","","","","","","","","","","","","",""
"","","","","","image-keyboard-response","84","148813","0.0-59.0","6405feae7d6321bfaaf793e8","665500ab8938657b03fbdba8","665797524d8acc7211fce1d4","908","stimuli/2111010.jpg","2","","prediction_trial","0","","false","","2","true","true","false","false","false","false","[0,2,1]","111","010","0","","","","","","",""
"","","","","","image-keyboard-response","85","149936","0.0-60.0","6405feae7d6321bfaaf793e8","665500ab8938657b03fbdba8","665797524d8acc7211fce1d4","1121","stimuli/21110100.jpg"," ","","feedback_trial","0","","","","","","","","","","","","","","","","","","","","",""
"","","","","","image-keyboard-response","86","150817","0.0-61.0","6405feae7d6321bfaaf793e8","665500ab8938657b03fbdba8","665797524d8acc7211fce1d4","879","stimuli/1011011.jpg","2","","prediction_trial","2","","true","","1","false","false","false","false","false","false","[2,1]","011","011","1","","","","","","",""
"","","","","","image-keyboard-response","87","151296","0.0-62.0","6405feae7d6321bfaaf793e8","665500ab8938657b03fbdba8","665797524d8acc7211fce1d4","479","stimuli/10110112.jpg"," ","","feedback_trial","2","","","","","","","","","","","","","","","","","","","","",""
"","","","","","image-keyboard-response","88","152536","0.0-63.0","6405feae7d6321bfaaf793e8","665500ab8938657b03fbdba8","665797524d8acc7211fce1d4","1238","stimuli/0101000.jpg","0","","prediction_trial","2","","false","","0","true","true","false","false","false","false","[0,2]","101","000","0","","","","","","",""
"","","","","","image-keyboard-response","89","153383","0.0-64.0","6405feae7d6321bfaaf793e8","665500ab8938657b03fbdba8","665797524d8acc7211fce1d4","844","stimuli/01010002.jpg"," ","","feedback_trial","0","","","","","","","","","","","","","","","","","","","","",""
"","","","","","image-keyboard-response","90","154625","0.0-65.0","6405feae7d6321bfaaf793e8","665500ab8938657b03fbdba8","665797524d8acc7211fce1d4","1241","stimuli/1011110.jpg","1","","prediction_trial","1","","true","","1","false","false","false","false","false","false","[2,1]","011","110","1","","","","","","",""
"","","","","","image-keyboard-response","91","155420","0.0-66.0","6405feae7d6321bfaaf793e8","665500ab8938657b03fbdba8","665797524d8acc7211fce1d4","794","stimuli/10111101.jpg"," ","","feedback_trial","2","","","","","","","","","","","","","","","","","","","","",""
"","","","","","image-keyboard-response","92","157897","0.0-67.0","6405feae7d6321bfaaf793e8","665500ab8938657b03fbdba8","665797524d8acc7211fce1d4","2475","stimuli/2101001.jpg","2","","prediction_trial","0","","false","","2","false","true","false","false","false","false","[0,2]","101","001","0","","","","","","",""
"","","","","","image-keyboard-response","93","158445","0.0-68.0","6405feae7d6321bfaaf793e8","665500ab8938657b03fbdba8","665797524d8acc7211fce1d4","547","stimuli/21010010.jpg"," ","","feedback_trial","0","","","","","","","","","","","","","","","","","","","","",""
"","","","","","image-keyboard-response","94","159456","0.0-69.0","6405feae7d6321bfaaf793e8","665500ab8938657b03fbdba8","665797524d8acc7211fce1d4","1009","stimuli/1011111.jpg","2","","prediction_trial","1","","false","","1","false","false","false","false","false","false","[1,2]","011","111","0","","","","","","",""
"","","","","","image-keyboard-response","95","159850","0.0-70.0","6405feae7d6321bfaaf793e8","665500ab8938657b03fbdba8","665797524d8acc7211fce1d4","392","stimuli/10111111.jpg"," ","","feedback_trial","1","","","","","","","","","","","","","","","","","","","","",""
"","","","","","image-keyboard-response","96","160589","0.0-71.0","6405feae7d6321bfaaf793e8","665500ab8938657b03fbdba8","665797524d8acc7211fce1d4","738","stimuli/0111001.jpg","0","","prediction_trial","1","","false","","0","true","true","false","false","false","false","[2,0,1]","111","001","0","","","","","","",""
"","","","","","image-keyboard-response","97","161040","0.0-72.0","6405feae7d6321bfaaf793e8","665500ab8938657b03fbdba8","665797524d8acc7211fce1d4","449","stimuli/01110011.jpg"," ","","feedback_trial","2","","","","","","","","","","","","","","","","","","","","",""
"","","","","","image-keyboard-response","98","162207","0.0-73.0","6405feae7d6321bfaaf793e8","665500ab8938657b03fbdba8","665797524d8acc7211fce1d4","1166","stimuli/2101101.jpg","2","","prediction_trial","2","","true","","2","false","false","false","false","false","false","[0,2]","101","101","1","","","","","","",""
"","","","","","image-keyboard-response","99","162879","0.0-74.0","6405feae7d6321bfaaf793e8","665500ab8938657b03fbdba8","665797524d8acc7211fce1d4","671","stimuli/21011012.jpg"," ","","feedback_trial","0","","","","","","","","","","","","","","","","","","","","",""
"","","","","","image-keyboard-response","100","164296","0.0-75.0","6405feae7d6321bfaaf793e8","665500ab8938657b03fbdba8","665797524d8acc7211fce1d4","1415","stimuli/2001111.jpg","1","","prediction_trial","2","","false","","2","false","false","false","true","false","false","[2]","001","111","0","","","","","","",""
"","","","","","image-keyboard-response","101","164706","0.0-76.0","6405feae7d6321bfaaf793e8","665500ab8938657b03fbdba8","665797524d8acc7211fce1d4","407","stimuli/20011112.jpg"," ","","feedback_trial","2","","","","","","","","","","","","","","","","","","","","",""
"","","","","","image-keyboard-response","102","165539","0.0-77.0","6405feae7d6321bfaaf793e8","665500ab8938657b03fbdba8","665797524d8acc7211fce1d4","831","stimuli/2111111.jpg","2","","prediction_trial","2","","true","","2","false","false","false","false","false","false","[1,2,0]","111","111","1","","","","","","",""
"","","","","","image-keyboard-response","103","166140","0.0-78.0","6405feae7d6321bfaaf793e8","665500ab8938657b03fbdba8","665797524d8acc7211fce1d4","600","stimuli/21111112.jpg"," ","","feedback_trial","1","","","","","","","","","","","","","","","","","","","","",""
"","","","","","image-keyboard-response","104","167313","0.0-79.0","6405feae7d6321bfaaf793e8","665500ab8938657b03fbdba8","665797524d8acc7211fce1d4","1171","stimuli/1111011.jpg","2","","prediction_trial","0","","false","","1","false","false","false","false","false","false","[1,0,2]","111","011","0","","","","","","",""
"","","","","","image-keyboard-response","105","167805","0.0-80.0","6405feae7d6321bfaaf793e8","665500ab8938657b03fbdba8","665797524d8acc7211fce1d4","490","stimuli/11110110.jpg"," ","","feedback_trial","1","","","","","","","","","","","","","","","","","","","","",""
"","","","","","image-keyboard-response","106","169368","0.0-81.0","6405feae7d6321bfaaf793e8","665500ab8938657b03fbdba8","665797524d8acc7211fce1d4","1553","stimuli/0100111.jpg","1","","prediction_trial","0","","false","","0","false","false","false","true","false","false","[0]","100","111","0","","","","","","",""
"","","","","","image-keyboard-response","107","169784","0.0-82.0","6405feae7d6321bfaaf793e8","665500ab8938657b03fbdba8","665797524d8acc7211fce1d4","413","stimuli/01001110.jpg"," ","","feedback_trial","0","","","","","","","","","","","","","","","","","","","","",""
"","","","","","image-keyboard-response","108","170453","0.0-83.0","6405feae7d6321bfaaf793e8","665500ab8938657b03fbdba8","665797524d8acc7211fce1d4","668","stimuli/2010100.jpg","2","","prediction_trial","2","","true","","2","true","true","true","true","true","true","[2]","010","100","1","","","","","","",""
"","","","","","image-keyboard-response","109","170884","0.0-84.0","6405feae7d6321bfaaf793e8","665500ab8938657b03fbdba8","665797524d8acc7211fce1d4","429","stimuli/20101002.jpg"," ","","feedback_trial","2","","","","","","","","","","","","","","","","","","","","",""
"","","","","","image-keyboard-response","110","171708","0.0-85.0","6405feae7d6321bfaaf793e8","665500ab8938657b03fbdba8","665797524d8acc7211fce1d4","823","stimuli/2010010.jpg","2","","prediction_trial","2","","true","","2","true","true","true","true","true","true","[2]","010","010","1","","","","","","",""
"","","","","","image-keyboard-response","111","171923","0.0-86.0","6405feae7d6321bfaaf793e8","665500ab8938657b03fbdba8","665797524d8acc7211fce1d4","213","stimuli/20100102.jpg"," ","","feedback_trial","2","","","","","","","","","","","","","","","","","","","","",""
"","","","","","image-keyboard-response","112","173178","0.0-87.0","6405feae7d6321bfaaf793e8","665500ab8938657b03fbdba8","665797524d8acc7211fce1d4","1245","stimuli/1010011.jpg","1","","prediction_trial","1","","true","","1","false","false","false","true","false","false","[1]","010","011","1","","","","","","",""
"","","","","","image-keyboard-response","113","173573","0.0-88.0","6405feae7d6321bfaaf793e8","665500ab8938657b03fbdba8","665797524d8acc7211fce1d4","393","stimuli/10100111.jpg"," ","","feedback_trial","1","","","","","","","","","","","","","","","","","","","","",""
"","","","","","image-keyboard-response","114","174163","0.0-89.0","6405feae7d6321bfaaf793e8","665500ab8938657b03fbdba8","665797524d8acc7211fce1d4","589","stimuli/2000010.jpg","2","","prediction_trial","2","","true","","2","true","true","true","true","true","true","[2]","000","010","1","","","","","","",""
"","","","","","image-keyboard-response","115","174443","0.0-90.0","6405feae7d6321bfaaf793e8","665500ab8938657b03fbdba8","665797524d8acc7211fce1d4","278","stimuli/20000102.jpg"," ","","feedback_trial","2","","","","","","","","","","","","","","","","","","","","",""
"","","","","","image-keyboard-response","116","175627","0.0-91.0","6405feae7d6321bfaaf793e8","665500ab8938657b03fbdba8","665797524d8acc7211fce1d4","1183","stimuli/2101010.jpg","2","","prediction_trial","2","","true","","2","true","true","false","false","false","false","[0,2]","101","010","1","","","","","","",""
"","","","","","image-keyboard-response","117","176002","0.0-92.0","6405feae7d6321bfaaf793e8","665500ab8938657b03fbdba8","665797524d8acc7211fce1d4","374","stimuli/21010102.jpg"," ","","feedback_trial","0","","","","","","","","","","","","","","","","","","","","",""
"","","","","","image-keyboard-response","118","176777","0.0-93.0","6405feae7d6321bfaaf793e8","665500ab8938657b03fbdba8","665797524d8acc7211fce1d4","773","stimuli/1100101.jpg","1","","prediction_trial","1","","true","","1","true","true","true","true","true","true","[1]","100","101","1","","","","","","",""
"","","","","","image-keyboard-response","119","177056","0.0-94.0","6405feae7d6321bfaaf793e8","665500ab8938657b03fbdba8","665797524d8acc7211fce1d4","278","stimuli/11001011.jpg"," ","","feedback_trial","1","","","","","","","","","","","","","","","","","","","","",""
"","","","","","image-keyboard-response","120","177812","0.0-95.0","6405feae7d6321bfaaf793e8","665500ab8938657b03fbdba8","665797524d8acc7211fce1d4","754","stimuli/0001010.jpg","0","","prediction_trial","0","","true","","0","true","true","true","true","true","true","[0]","001","010","1","","","","","","",""
"","","","","","image-keyboard-response","121","178282","0.0-96.0","6405feae7d6321bfaaf793e8","665500ab8938657b03fbdba8","665797524d8acc7211fce1d4","468","stimuli/00010100.jpg"," ","","feedback_trial","0","","","","","","","","","","","","","","","","","","","","",""
"","","","","","image-keyboard-response","122","178976","0.0-97.0","6405feae7d6321bfaaf793e8","665500ab8938657b03fbdba8","665797524d8acc7211fce1d4","691","stimuli/2111000.jpg","2","","prediction_trial","1","","false","","2","true","true","false","false","false","false","[1,2,0]","111","000","0","","","","","","",""
"","","","","","image-keyboard-response","123","179501","0.0-98.0","6405feae7d6321bfaaf793e8","665500ab8938657b03fbdba8","665797524d8acc7211fce1d4","523","stimuli/21110001.jpg"," ","","feedback_trial","1","","","","","","","","","","","","","","","","","","","","",""
"","","","","","image-keyboard-response","124","180367","0.0-99.0","6405feae7d6321bfaaf793e8","665500ab8938657b03fbdba8","665797524d8acc7211fce1d4","864","stimuli/0011100.jpg","0","","prediction_trial","0","","true","","0","false","true","true","true","false","true","[0]","011","100","1","","","","","","",""
"","","","","","image-keyboard-response","125","180811","0.0-100.0","6405feae7d6321bfaaf793e8","665500ab8938657b03fbdba8","665797524d8acc7211fce1d4","443","stimuli/00111000.jpg"," ","","feedback_trial","0","","","","","","","","","","","","","","","","","","","","",""
"","","","","","image-keyboard-response","126","182160","0.0-101.0","6405feae7d6321bfaaf793e8","665500ab8938657b03fbdba8","665797524d8acc7211fce1d4","1349","stimuli/2111110.jpg","1","","prediction_trial","0","","false","","2","true","true","false","false","false","false","[0,1,2]","111","110","0","","","","","","",""
"","","","","","image-keyboard-response","127","183698","0.0-102.0","6405feae7d6321bfaaf793e8","665500ab8938657b03fbdba8","665797524d8acc7211fce1d4","1537","stimuli/21111100.jpg"," ","","feedback_trial","0","","","","","","","","","","","","","","","","","","","","",""
"","","","","","image-keyboard-response","128","184513","0.0-103.0","6405feae7d6321bfaaf793e8","665500ab8938657b03fbdba8","665797524d8acc7211fce1d4","813","stimuli/0111010.jpg","0","","prediction_trial","1","","false","","0","true","true","false","false","false","false","[0,2,1]","111","010","0","","","","","","",""
"","","","","","image-keyboard-response","129","184939","0.0-104.0","6405feae7d6321bfaaf793e8","665500ab8938657b03fbdba8","665797524d8acc7211fce1d4","424","stimuli/01110101.jpg"," ","","feedback_trial","0","","","","","","","","","","","","","","","","","","","","",""
"","","","","","image-keyboard-response","130","185598","0.0-105.0","6405feae7d6321bfaaf793e8","665500ab8938657b03fbdba8","665797524d8acc7211fce1d4","637","stimuli/0011000.jpg","0","","prediction_trial","0","","true","","0","true","true","true","true","true","true","[0]","011","000","1","","","","","","",""
"","","","","","image-keyboard-response","131","185844","0.0-106.0","6405feae7d6321bfaaf793e8","665500ab8938657b03fbdba8","665797524d8acc7211fce1d4","245","stimuli/00110000.jpg"," ","","feedback_trial","0","","","","","","","","","","","","","","","","","","","","",""
"","","","","","image-keyboard-response","132","186557","0.0-107.0","6405feae7d6321bfaaf793e8","665500ab8938657b03fbdba8","665797524d8acc7211fce1d4","712","stimuli/2000111.jpg","1","","prediction_trial","2","","false","","2","false","false","true","true","false","false","[2]","000","111","0","","","","","","",""
"","","","","","image-keyboard-response","133","187084","0.0-108.0","6405feae7d6321bfaaf793e8","665500ab8938657b03fbdba8","665797524d8acc7211fce1d4","525","stimuli/20001112.jpg"," ","","feedback_trial","2","","","","","","","","","","","","","","","","","","","","",""
"","","","","","image-keyboard-response","134","187733","0.0-109.0","6405feae7d6321bfaaf793e8","665500ab8938657b03fbdba8","665797524d8acc7211fce1d4","647","stimuli/1101101.jpg","1","","prediction_trial","1","","true","","1","true","true","true","true","true","true","[1]","101","101","1","","","","","","",""
"","","","","","image-keyboard-response","135","188017","0.0-110.0","6405feae7d6321bfaaf793e8","665500ab8938657b03fbdba8","665797524d8acc7211fce1d4","282","stimuli/11011011.jpg"," ","","feedback_trial","1","","","","","","","","","","","","","","","","","","","","",""
"","","","","","image-keyboard-response","136","188968","0.0-111.0","6405feae7d6321bfaaf793e8","665500ab8938657b03fbdba8","665797524d8acc7211fce1d4","950","stimuli/0110101.jpg","2","","prediction_trial","1","","false","","0","false","false","false","false","false","false","[0,1]","110","101","0","","","","","","",""
"","","","","","image-keyboard-response","137","189352","0.0-112.0","6405feae7d6321bfaaf793e8","665500ab8938657b03fbdba8","665797524d8acc7211fce1d4","382","stimuli/01101011.jpg"," ","","feedback_trial","0","","","","","","","","","","","","","","","","","","","","",""
"","","","","","image-keyboard-response","138","190118","0.0-113.0","6405feae7d6321bfaaf793e8","665500ab8938657b03fbdba8","665797524d8acc7211fce1d4","764","stimuli/1111111.jpg","2","","prediction_trial","0","","false","","1","false","false","false","false","false","false","[1,0,2]","111","111","0","","","","","","",""
"","","","","","image-keyboard-response","139","190612","0.0-114.0","6405feae7d6321bfaaf793e8","665500ab8938657b03fbdba8","665797524d8acc7211fce1d4","493","stimuli/11111110.jpg"," ","","feedback_trial","1","","","","","","","","","","","","","","","","","","","","",""
"","","","","","image-keyboard-response","140","192324","0.0-115.0","6405feae7d6321bfaaf793e8","665500ab8938657b03fbdba8","665797524d8acc7211fce1d4","1710","stimuli/2011111.jpg","1","","prediction_trial","1","","true","","2","false","false","false","false","false","false","[2,1]","011","111","1","","","","","","",""
"","","","","","image-keyboard-response","141","192833","0.0-116.0","6405feae7d6321bfaaf793e8","665500ab8938657b03fbdba8","665797524d8acc7211fce1d4","507","stimuli/20111111.jpg"," ","","feedback_trial","2","","","","","","","","","","","","","","","","","","","","",""
"","","","","","image-keyboard-response","142","193512","0.0-117.0","6405feae7d6321bfaaf793e8","665500ab8938657b03fbdba8","665797524d8acc7211fce1d4","666","stimuli/1100001.jpg","1","","prediction_trial","1","","true","","1","true","true","true","true","true","true","[1]","100","001","1","","","","","","",""
"","","","","","image-keyboard-response","143","193762","0.0-118.0","6405feae7d6321bfaaf793e8","665500ab8938657b03fbdba8","665797524d8acc7211fce1d4","248","stimuli/11000011.jpg"," ","","feedback_trial","1","","","","","","","","","","","","","","","","","","","","",""
"","","","","","image-keyboard-response","144","194537","0.0-119.0","6405feae7d6321bfaaf793e8","665500ab8938657b03fbdba8","665797524d8acc7211fce1d4","774","stimuli/1110001.jpg","1","","prediction_trial","1","","true","","1","true","true","false","false","false","false","[0,1]","110","001","1","","","","","","",""
"","","","","","image-keyboard-response","145","195017","0.0-120.0","6405feae7d6321bfaaf793e8","665500ab8938657b03fbdba8","665797524d8acc7211fce1d4","478","stimuli/11100011.jpg"," ","","feedback_trial","0","","","","","","","","","","","","","","","","","","","","",""
"","","","","","image-keyboard-response","146","195926","0.0-121.0","6405feae7d6321bfaaf793e8","665500ab8938657b03fbdba8","665797524d8acc7211fce1d4","908","stimuli/0110000.jpg","0","","prediction_trial","0","","true","","0","true","true","false","false","false","false","[1,0]","110","000","1","","","","","","",""
"","","","","","image-keyboard-response","147","196527","0.0-122.0","6405feae7d6321bfaaf793e8","665500ab8938657b03fbdba8","665797524d8acc7211fce1d4","600","stimuli/01100000.jpg"," ","","feedback_trial","1","","","","","","","","","","","","","","","","","","","","",""
"","","","","","image-keyboard-response","148","197356","0.0-123.0","6405feae7d6321bfaaf793e8","665500ab8938657b03fbdba8","665797524d8acc7211fce1d4","827","stimuli/0111101.jpg","2","","prediction_trial","0","","false","","0","false","false","false","false","false","false","[2,0,1]","111","101","0","","","","","","",""
"","","","","","image-keyboard-response","149","198206","0.0-124.0","6405feae7d6321bfaaf793e8","665500ab8938657b03fbdba8","665797524d8acc7211fce1d4","849","stimuli/01111010.jpg"," ","","feedback_trial","2","","","","","","","","","","","","","","","","","","","","",""
"","","","","","image-keyboard-response","150","199132","0.0-125.0","6405feae7d6321bfaaf793e8","665500ab8938657b03fbdba8","665797524d8acc7211fce1d4","925","stimuli/1110101.jpg","1","","prediction_trial","1","","true","","1","true","true","false","false","false","false","[1,0]","110","101","1","","","","","","",""
"","","","","","image-keyboard-response","151","199660","0.0-126.0","6405feae7d6321bfaaf793e8","665500ab8938657b03fbdba8","665797524d8acc7211fce1d4","526","stimuli/11101011.jpg"," ","","feedback_trial","1","","","","","","","","","","","","","","","","","","","","",""
"","","","","","image-keyboard-response","152","200691","0.0-127.0","6405feae7d6321bfaaf793e8","665500ab8938657b03fbdba8","665797524d8acc7211fce1d4","1029","stimuli/0101101.jpg","2","","prediction_trial","0","","false","","0","false","false","false","false","false","false","[2,0]","101","101","0","","","","","","",""
"","","","","","image-keyboard-response","153","201537","0.0-128.0","6405feae7d6321bfaaf793e8","665500ab8938657b03fbdba8","665797524d8acc7211fce1d4","843","stimuli/01011010.jpg"," ","","feedback_trial","2","","","","","","","","","","","","","","","","","","","","",""
"","","","","","image-keyboard-response","154","202280","0.0-129.0","6405feae7d6321bfaaf793e8","665500ab8938657b03fbdba8","665797524d8acc7211fce1d4","741","stimuli/0010001.jpg","0","","prediction_trial","0","","true","","0","true","true","true","true","true","true","[0]","010","001","1","","","","","","",""
"","","","","","image-keyboard-response","155","202665","0.0-130.0","6405feae7d6321bfaaf793e8","665500ab8938657b03fbdba8","665797524d8acc7211fce1d4","383","stimuli/00100010.jpg"," ","","feedback_trial","0","","","","","","","","","","","","","","","","","","","","",""
"","","","","","image-keyboard-response","156","203260","0.0-131.0","6405feae7d6321bfaaf793e8","665500ab8938657b03fbdba8","665797524d8acc7211fce1d4","594","stimuli/0011010.jpg","0","","prediction_trial","0","","true","","0","true","true","true","true","true","true","[0]","011","010","1","","","","","","",""
"","","","","","image-keyboard-response","157","203560","0.0-132.0","6405feae7d6321bfaaf793e8","665500ab8938657b03fbdba8","665797524d8acc7211fce1d4","298","stimuli/00110100.jpg"," ","","feedback_trial","0","","","","","","","","","","","","","","","","","","","","",""
"","","","","","image-keyboard-response","158","204185","0.0-133.0","6405feae7d6321bfaaf793e8","665500ab8938657b03fbdba8","665797524d8acc7211fce1d4","624","stimuli/2001011.jpg","0","","prediction_trial","2","","false","","2","false","false","false","true","false","false","[2]","001","011","0","","","","","","",""
"","","","","","image-keyboard-response","159","205225","0.0-134.0","6405feae7d6321bfaaf793e8","665500ab8938657b03fbdba8","665797524d8acc7211fce1d4","1039","stimuli/20010112.jpg"," ","","feedback_trial","2","","","","","","","","","","","","","","","","","","","","",""
"","","","","","image-keyboard-response","160","206360","0.0-135.0","6405feae7d6321bfaaf793e8","665500ab8938657b03fbdba8","665797524d8acc7211fce1d4","1124","stimuli/2010101.jpg","2","","prediction_trial","2","","true","","2","false","false","true","true","false","false","[2]","010","101","1","","","","","","",""
"","","","","","image-keyboard-response","161","206805","0.0-136.0","6405feae7d6321bfaaf793e8","665500ab8938657b03fbdba8","665797524d8acc7211fce1d4","444","stimuli/20101012.jpg"," ","","feedback_trial","2","","","","","","","","","","","","","","","","","","","","",""
"","","","","","image-keyboard-response","162","207750","0.0-137.0","6405feae7d6321bfaaf793e8","665500ab8938657b03fbdba8","665797524d8acc7211fce1d4","943","stimuli/0110010.jpg","0","","prediction_trial","0","","true","","0","true","true","false","false","false","false","[0,1]","110","010","1","","","","","","",""
"","","","","","image-keyboard-response","163","208155","0.0-138.0","6405feae7d6321bfaaf793e8","665500ab8938657b03fbdba8","665797524d8acc7211fce1d4","404","stimuli/01100100.jpg"," ","","feedback_trial","0","","","","","","","","","","","","","","","","","","","","",""
"","","","","","image-keyboard-response","164","209115","0.0-139.0","6405feae7d6321bfaaf793e8","665500ab8938657b03fbdba8","665797524d8acc7211fce1d4","959","stimuli/0110011.jpg","0","","prediction_trial","1","","false","","0","true","true","false","false","false","false","[0,1]","110","011","0","","","","","","",""
"","","","","","image-keyboard-response","165","209721","0.0-140.0","6405feae7d6321bfaaf793e8","665500ab8938657b03fbdba8","665797524d8acc7211fce1d4","604","stimuli/01100111.jpg"," ","","feedback_trial","0","","","","","","","","","","","","","","","","","","","","",""
"","","","","","image-keyboard-response","166","211709","0.0-141.0","6405feae7d6321bfaaf793e8","665500ab8938657b03fbdba8","665797524d8acc7211fce1d4","1986","stimuli/0010100.jpg","0","","prediction_trial","0","","true","","0","false","true","true","true","false","true","[0]","010","100","1","","","","","","",""
"","","","","","image-keyboard-response","167","212130","0.0-142.0","6405feae7d6321bfaaf793e8","665500ab8938657b03fbdba8","665797524d8acc7211fce1d4","420","stimuli/00101000.jpg"," ","","feedback_trial","0","","","","","","","","","","","","","","","","","","","","",""
"","","","","","image-keyboard-response","168","213770","0.0-143.0","6405feae7d6321bfaaf793e8","665500ab8938657b03fbdba8","665797524d8acc7211fce1d4","1637","stimuli/2101100.jpg","2","","prediction_trial","2","","true","","2","true","true","false","false","false","false","[2,0]","101","100","1","","","","","","",""
"","","","","","image-keyboard-response","169","214218","0.0-144.0","6405feae7d6321bfaaf793e8","665500ab8938657b03fbdba8","665797524d8acc7211fce1d4","447","stimuli/21011002.jpg"," ","","feedback_trial","2","","","","","","","","","","","","","","","","","","","","",""
"","","","","","image-keyboard-response","170","214923","0.0-145.0","6405feae7d6321bfaaf793e8","665500ab8938657b03fbdba8","665797524d8acc7211fce1d4","703","stimuli/0000010.jpg","0","","prediction_trial","0","","true","","0","true","true","true","true","true","true","[0]","000","010","1","","","","","","",""
"","","","","","image-keyboard-response","171","215199","0.0-146.0","6405feae7d6321bfaaf793e8","665500ab8938657b03fbdba8","665797524d8acc7211fce1d4","275","stimuli/00000100.jpg"," ","","feedback_trial","0","","","","","","","","","","","","","","","","","","","","",""
"","","","","","image-keyboard-response","172","215934","0.0-147.0","6405feae7d6321bfaaf793e8","665500ab8938657b03fbdba8","665797524d8acc7211fce1d4","733","stimuli/1101001.jpg","1","","prediction_trial","1","","true","","1","true","true","true","true","true","true","[1]","101","001","1","","","","","","",""
"","","","","","image-keyboard-response","173","216279","0.0-148.0","6405feae7d6321bfaaf793e8","665500ab8938657b03fbdba8","665797524d8acc7211fce1d4","343","stimuli/11010011.jpg"," ","","feedback_trial","1","","","","","","","","","","","","","","","","","","","","",""
"","","","","","image-keyboard-response","174","217778","0.0-149.0","6405feae7d6321bfaaf793e8","665500ab8938657b03fbdba8","665797524d8acc7211fce1d4","1497","stimuli/2101110.jpg","2","","prediction_trial","2","","true","","2","true","true","false","false","false","false","[0,2]","101","110","1","","","","","","",""
"","","","","","image-keyboard-response","175","218208","0.0-150.0","6405feae7d6321bfaaf793e8","665500ab8938657b03fbdba8","665797524d8acc7211fce1d4","428","stimuli/21011102.jpg"," ","","feedback_trial","0","","","","","","","","","","","","","","","","","","","","",""
"","","","","","image-keyboard-response","176","219083","0.0-151.0","6405feae7d6321bfaaf793e8","665500ab8938657b03fbdba8","665797524d8acc7211fce1d4","874","stimuli/2110100.jpg","2","","prediction_trial","2","","true","","2","true","true","true","true","true","true","[2]","110","100","1","","","","","","",""
"","","","","","image-keyboard-response","177","219413","0.0-152.0","6405feae7d6321bfaaf793e8","665500ab8938657b03fbdba8","665797524d8acc7211fce1d4","329","stimuli/21101002.jpg"," ","","feedback_trial","2","","","","","","","","","","","","","","","","","","","","",""
"","","","","","image-keyboard-response","178","221027","0.0-153.0","6405feae7d6321bfaaf793e8","665500ab8938657b03fbdba8","665797524d8acc7211fce1d4","1600","stimuli/2111011.jpg","2","","prediction_trial","1","","false","","2","false","false","false","false","false","false","[2,1,0]","111","011","0","","","","","","",""
"","","","","","image-keyboard-response","179","221608","0.0-154.0","6405feae7d6321bfaaf793e8","665500ab8938657b03fbdba8","665797524d8acc7211fce1d4","580","stimuli/21110111.jpg"," ","","feedback_trial","2","","","","","","","","","","","","","","","","","","","","",""
"","","","","","image-keyboard-response","180","222864","0.0-155.0","6405feae7d6321bfaaf793e8","665500ab8938657b03fbdba8","665797524d8acc7211fce1d4","1253","stimuli/2111101.jpg","2","","prediction_trial","0","","false","","2","false","false","false","false","false","false","[2,1,0]","111","101","0","","","","","","",""
"","","","","","image-keyboard-response","181","223318","0.0-156.0","6405feae7d6321bfaaf793e8","665500ab8938657b03fbdba8","665797524d8acc7211fce1d4","452","stimuli/21111010.jpg"," ","","feedback_trial","2","","","","","","","","","","","","","","","","","","","","",""
"","","","","","image-keyboard-response","182","223958","0.0-157.0","6405feae7d6321bfaaf793e8","665500ab8938657b03fbdba8","665797524d8acc7211fce1d4","638","stimuli/2100000.jpg","2","","prediction_trial","2","","true","","2","true","true","true","true","true","true","[2]","100","000","1","","","","","","",""
"","","","","","image-keyboard-response","183","224277","0.0-158.0","6405feae7d6321bfaaf793e8","665500ab8938657b03fbdba8","665797524d8acc7211fce1d4","318","stimuli/21000002.jpg"," ","","feedback_trial","2","","","","","","","","","","","","","","","","","","","","",""
"","","","","","image-keyboard-response","184","225212","0.0-159.0","6405feae7d6321bfaaf793e8","665500ab8938657b03fbdba8","665797524d8acc7211fce1d4","934","stimuli/0000101.jpg","2","","prediction_trial","0","","false","","0","false","false","true","true","false","false","[0]","000","101","0","","","","","","",""
"","","","","","image-keyboard-response","185","225787","0.0-160.0","6405feae7d6321bfaaf793e8","665500ab8938657b03fbdba8","665797524d8acc7211fce1d4","573","stimuli/00001010.jpg"," ","","feedback_trial","0","","","","","","","","","","","","","","","","","","","","",""
"","","","","","image-keyboard-response","186","226507","0.0-161.0","6405feae7d6321bfaaf793e8","665500ab8938657b03fbdba8","665797524d8acc7211fce1d4","719","stimuli/0011111.jpg","2","","prediction_trial","0","","false","","0","false","false","true","true","false","false","[0]","011","111","0","","","","","","",""
"","","","","","image-keyboard-response","187","226962","0.0-162.0","6405feae7d6321bfaaf793e8","665500ab8938657b03fbdba8","665797524d8acc7211fce1d4","454","stimuli/00111110.jpg"," ","","feedback_trial","0","","","","","","","","","","","","","","","","","","","","",""
"","","","","","image-keyboard-response","188","228596","0.0-163.0","6405feae7d6321bfaaf793e8","665500ab8938657b03fbdba8","665797524d8acc7211fce1d4","1633","stimuli/0101100.jpg","0","","prediction_trial","0","","true","","0","false","true","false","false","false","false","[2,0]","101","100","1","","","","","","",""
"","","","","","image-keyboard-response","189","229231","0.0-164.0","6405feae7d6321bfaaf793e8","665500ab8938657b03fbdba8","665797524d8acc7211fce1d4","634","stimuli/01011000.jpg"," ","","feedback_trial","2","","","","","","","","","","","","","","","","","","","","",""
"","","","","","image-keyboard-response","190","230617","0.0-165.0","6405feae7d6321bfaaf793e8","665500ab8938657b03fbdba8","665797524d8acc7211fce1d4","1385","stimuli/2100001.jpg","2","","prediction_trial","2","","true","","2","false","true","true","true","false","true","[2]","100","001","1","","","","","","",""
"","","","","","image-keyboard-response","191","231102","0.0-166.0","6405feae7d6321bfaaf793e8","665500ab8938657b03fbdba8","665797524d8acc7211fce1d4","484","stimuli/21000012.jpg"," ","","feedback_trial","2","","","","","","","","","","","","","","","","","","","","",""
"","","","","","image-keyboard-response","192","232492","0.0-167.0","6405feae7d6321bfaaf793e8","665500ab8938657b03fbdba8","665797524d8acc7211fce1d4","1389","stimuli/0101110.jpg","1","","prediction_trial","2","","false","","0","false","false","false","false","false","false","[0,2]","101","110","0","","","","","","",""
"","","","","","image-keyboard-response","193","232986","0.0-168.0","6405feae7d6321bfaaf793e8","665500ab8938657b03fbdba8","665797524d8acc7211fce1d4","493","stimuli/01011102.jpg"," ","","feedback_trial","0","","","","","","","","","","","","","","","","","","","","",""
"","","","","","image-keyboard-response","194","234656","0.0-169.0","6405feae7d6321bfaaf793e8","665500ab8938657b03fbdba8","665797524d8acc7211fce1d4","1668","stimuli/1010110.jpg","1","","prediction_trial","1","","true","","1","false","false","false","true","false","false","[1]","010","110","1","","","","","","",""
"","","","","","image-keyboard-response","195","235061","0.0-170.0","6405feae7d6321bfaaf793e8","665500ab8938657b03fbdba8","665797524d8acc7211fce1d4","404","stimuli/10101101.jpg"," ","","feedback_trial","1","","","","","","","","","","","","","","","","","","","","",""
"","","","","","image-keyboard-response","196","235830","0.0-171.0","6405feae7d6321bfaaf793e8","665500ab8938657b03fbdba8","665797524d8acc7211fce1d4","767","stimuli/2000110.jpg","2","","prediction_trial","2","","true","","2","true","true","true","true","true","true","[2]","000","110","1","","","","","","",""
"","","","","","image-keyboard-response","197","236071","0.0-172.0","6405feae7d6321bfaaf793e8","665500ab8938657b03fbdba8","665797524d8acc7211fce1d4","239","stimuli/20001102.jpg"," ","","feedback_trial","2","","","","","","","","","","","","","","","","","","","","",""
"","","","","","image-keyboard-response","198","237156","0.0-173.0","6405feae7d6321bfaaf793e8","665500ab8938657b03fbdba8","665797524d8acc7211fce1d4","1083","stimuli/0100011.jpg","0","","prediction_trial","0","","true","","0","true","true","false","true","false","true","[0]","100","011","1","","","","","","",""
"","","","","","image-keyboard-response","199","237525","0.0-174.0","6405feae7d6321bfaaf793e8","665500ab8938657b03fbdba8","665797524d8acc7211fce1d4","367","stimuli/01000110.jpg"," ","","feedback_trial","0","","","","","","","","","","","","","","","","","","","","",""
"","","","","","image-keyboard-response","200","240177","0.0-175.0","6405feae7d6321bfaaf793e8","665500ab8938657b03fbdba8","665797524d8acc7211fce1d4","2650","stimuli/1001011.jpg","1","","prediction_trial","1","","true","","1","false","false","true","true","false","false","[1]","001","011","1","","","","","","",""
"","","","","","image-keyboard-response","201","240605","0.0-176.0","6405feae7d6321bfaaf793e8","665500ab8938657b03fbdba8","665797524d8acc7211fce1d4","427","stimuli/10010111.jpg"," ","","feedback_trial","1","","","","","","","","","","","","","","","","","","","","",""
"","","","","","image-keyboard-response","202","241265","0.0-177.0","6405feae7d6321bfaaf793e8","665500ab8938657b03fbdba8","665797524d8acc7211fce1d4","648","stimuli/0001000.jpg","0","","prediction_trial","0","","true","","0","true","true","true","true","true","true","[0]","001","000","1","","","","","","",""
"","","","","","image-keyboard-response","203","241491","0.0-178.0","6405feae7d6321bfaaf793e8","665500ab8938657b03fbdba8","665797524d8acc7211fce1d4","226","stimuli/00010000.jpg"," ","","feedback_trial","0","","","","","","","","","","","","","","","","","","","","",""
"","","","","","image-keyboard-response","204","242695","0.0-179.0","6405feae7d6321bfaaf793e8","665500ab8938657b03fbdba8","665797524d8acc7211fce1d4","1198","stimuli/0110110.jpg","1","","prediction_trial","1","","true","","0","false","false","false","false","false","false","[0,1]","110","110","1","","","","","","",""
"","","","","","image-keyboard-response","205","243105","0.0-180.0","6405feae7d6321bfaaf793e8","665500ab8938657b03fbdba8","665797524d8acc7211fce1d4","409","stimuli/01101101.jpg"," ","","feedback_trial","0","","","","","","","","","","","","","","","","","","","","",""
"","","","","","image-keyboard-response","206","243879","0.0-181.0","6405feae7d6321bfaaf793e8","665500ab8938657b03fbdba8","665797524d8acc7211fce1d4","772","stimuli/0000111.jpg","2","","prediction_trial","0","","false","","0","false","false","true","true","false","false","[0]","000","111","0","","","","","","",""
"","","","","","image-keyboard-response","207","244314","0.0-182.0","6405feae7d6321bfaaf793e8","665500ab8938657b03fbdba8","665797524d8acc7211fce1d4","434","stimuli/00001110.jpg"," ","","feedback_trial","0","","","","","","","","","","","","","","","","","","","","",""
"","","","","","image-keyboard-response","208","245320","0.0-183.0","6405feae7d6321bfaaf793e8","665500ab8938657b03fbdba8","665797524d8acc7211fce1d4","1003","stimuli/0111111.jpg","1","","prediction_trial","1","","true","","0","false","false","false","false","false","false","[1,0,2]","111","111","1","","","","","","",""
"","","","","","image-keyboard-response","209","245979","0.0-184.0","6405feae7d6321bfaaf793e8","665500ab8938657b03fbdba8","665797524d8acc7211fce1d4","657","stimuli/01111111.jpg"," ","","feedback_trial","1","","","","","","","","","","","","","","","","","","","","",""
"","","","","","image-keyboard-response","210","247004","0.0-185.0","6405feae7d6321bfaaf793e8","665500ab8938657b03fbdba8","665797524d8acc7211fce1d4","1024","stimuli/1011000.jpg","1","","prediction_trial","2","","false","","1","true","true","false","false","false","false","[1,2]","011","000","0","","","","","","",""
"","","","","","image-keyboard-response","211","247674","0.0-186.0","6405feae7d6321bfaaf793e8","665500ab8938657b03fbdba8","665797524d8acc7211fce1d4","669","stimuli/10110002.jpg"," ","","feedback_trial","1","","","","","","","","","","","","","","","","","","","","",""
"","","","","","image-keyboard-response","212","248579","0.0-187.0","6405feae7d6321bfaaf793e8","665500ab8938657b03fbdba8","665797524d8acc7211fce1d4","903","stimuli/0111011.jpg","0","","prediction_trial","0","","true","","0","true","true","false","false","false","false","[2,1,0]","111","011","1","","","","","","",""
"","","","","","image-keyboard-response","213","248934","0.0-188.0","6405feae7d6321bfaaf793e8","665500ab8938657b03fbdba8","665797524d8acc7211fce1d4","354","stimuli/01110110.jpg"," ","","feedback_trial","2","","","","","","","","","","","","","","","","","","","","",""
"","","","","","image-keyboard-response","214","250109","0.0-189.0","6405feae7d6321bfaaf793e8","665500ab8938657b03fbdba8","665797524d8acc7211fce1d4","1158","stimuli/2100011.jpg","2","","prediction_trial","2","","true","","2","false","false","true","true","false","false","[2]","100","011","1","","","","","","",""
"","","","","","image-keyboard-response","215","250668","0.0-190.0","6405feae7d6321bfaaf793e8","665500ab8938657b03fbdba8","665797524d8acc7211fce1d4","557","stimuli/21000112.jpg"," ","","feedback_trial","2","","","","","","","","","","","","","","","","","","","","",""
"","","","","","image-keyboard-response","216","252338","0.0-191.0","6405feae7d6321bfaaf793e8","665500ab8938657b03fbdba8","665797524d8acc7211fce1d4","1670","stimuli/0011101.jpg","2","","prediction_trial","0","","false","","0","false","false","true","true","false","false","[0]","011","101","0","","","","","","",""
"","","","","","image-keyboard-response","217","252937","0.0-192.0","6405feae7d6321bfaaf793e8","665500ab8938657b03fbdba8","665797524d8acc7211fce1d4","597","stimuli/00111010.jpg"," ","","feedback_trial","0","","","","","","","","","","","","","","","","","","","","",""
"","","","","","image-keyboard-response","218","253752","0.0-193.0","6405feae7d6321bfaaf793e8","665500ab8938657b03fbdba8","665797524d8acc7211fce1d4","814","stimuli/2000011.jpg","1","","prediction_trial","2","","false","","2","false","false","true","true","false","false","[2]","000","011","0","","","","","","",""
"","","","","","image-keyboard-response","219","254437","0.0-194.0","6405feae7d6321bfaaf793e8","665500ab8938657b03fbdba8","665797524d8acc7211fce1d4","684","stimuli/20000112.jpg"," ","","feedback_trial","2","","","","","","","","","","","","","","","","","","","","",""
"","","","","","image-keyboard-response","220","255308","0.0-195.0","6405feae7d6321bfaaf793e8","665500ab8938657b03fbdba8","665797524d8acc7211fce1d4","869","stimuli/0000001.jpg","0","","prediction_trial","0","","true","","0","true","true","true","true","true","true","[0]","000","001","1","","","","","","",""
"","","","","","image-keyboard-response","221","255632","0.0-196.0","6405feae7d6321bfaaf793e8","665500ab8938657b03fbdba8","665797524d8acc7211fce1d4","322","stimuli/00000010.jpg"," ","","feedback_trial","0","","","","","","","","","","","","","","","","","","","","",""
"","","","","","image-keyboard-response","222","257197","0.0-197.0","6405feae7d6321bfaaf793e8","665500ab8938657b03fbdba8","665797524d8acc7211fce1d4","1564","stimuli/0100001.jpg","0","","prediction_trial","0","","true","","0","true","true","false","true","false","true","[0]","100","001","1","","","","","","",""
"","","","","","image-keyboard-response","223","257552","0.0-198.0","6405feae7d6321bfaaf793e8","665500ab8938657b03fbdba8","665797524d8acc7211fce1d4","354","stimuli/01000010.jpg"," ","","feedback_trial","0","","","","","","","","","","","","","","","","","","","","",""
"","","","","","image-keyboard-response","224","258697","0.0-199.0","6405feae7d6321bfaaf793e8","665500ab8938657b03fbdba8","665797524d8acc7211fce1d4","1143","stimuli/1001001.jpg","1","","prediction_trial","1","","true","","1","true","true","true","true","true","true","[1]","001","001","1","","","","","","",""
"","","","","","image-keyboard-response","225","258907","0.0-200.0","6405feae7d6321bfaaf793e8","665500ab8938657b03fbdba8","665797524d8acc7211fce1d4","203","stimuli/10010011.jpg"," ","","feedback_trial","1","","","","","","","","","","","","","","","","","","","","",""
"","","","","","image-keyboard-response","226","260196","0.0-201.0","6405feae7d6321bfaaf793e8","665500ab8938657b03fbdba8","665797524d8acc7211fce1d4","1288","stimuli/1011010.jpg","1","","prediction_trial","2","","false","","1","false","true","false","false","false","false","[1,2]","011","010","0","","","","","","",""
"","","","","","image-keyboard-response","227","260902","0.0-202.0","6405feae7d6321bfaaf793e8","665500ab8938657b03fbdba8","665797524d8acc7211fce1d4","704","stimuli/10110102.jpg"," ","","feedback_trial","1","","","","","","","","","","","","","","","","","","","","",""
"","","","","","image-keyboard-response","228","261771","0.0-203.0","6405feae7d6321bfaaf793e8","665500ab8938657b03fbdba8","665797524d8acc7211fce1d4","868","stimuli/2110101.jpg","2","","prediction_trial","2","","true","","2","false","false","true","true","false","false","[2]","110","101","1","","","","","","",""
"","","","","","image-keyboard-response","229","262172","0.0-204.0","6405feae7d6321bfaaf793e8","665500ab8938657b03fbdba8","665797524d8acc7211fce1d4","400","stimuli/21101012.jpg"," ","","feedback_trial","2","","","","","","","","","","","","","","","","","","","","",""
"","","","","","image-keyboard-response","230","263002","0.0-205.0","6405feae7d6321bfaaf793e8","665500ab8938657b03fbdba8","665797524d8acc7211fce1d4","829","stimuli/1010010.jpg","1","","prediction_trial","1","","true","","1","false","true","false","true","false","true","[1]","010","010","1","","","","","","",""
"","","","","","image-keyboard-response","231","263372","0.0-206.0","6405feae7d6321bfaaf793e8","665500ab8938657b03fbdba8","665797524d8acc7211fce1d4","369","stimuli/10100101.jpg"," ","","feedback_trial","1","","","","","","","","","","","","","","","","","","","","",""
"","","","","","image-keyboard-response","232","264617","0.0-207.0","6405feae7d6321bfaaf793e8","665500ab8938657b03fbdba8","665797524d8acc7211fce1d4","1243","stimuli/2011110.jpg","1","","prediction_trial","1","","true","","2","true","true","false","false","false","false","[1,2]","011","110","1","","","","","","",""
"","","","","","image-keyboard-response","233","265067","0.0-208.0","6405feae7d6321bfaaf793e8","665500ab8938657b03fbdba8","665797524d8acc7211fce1d4","448","stimuli/20111101.jpg"," ","","feedback_trial","1","","","","","","","","","","","","","","","","","","","","",""
"","","","","","image-keyboard-response","234","266493","0.0-209.0","6405feae7d6321bfaaf793e8","665500ab8938657b03fbdba8","665797524d8acc7211fce1d4","1423","stimuli/2011101.jpg","2","","prediction_trial","1","","false","","2","false","false","false","false","false","false","[2,1]","011","101","0","","","","","","",""
"","","","","","image-keyboard-response","235","266942","0.0-210.0","6405feae7d6321bfaaf793e8","665500ab8938657b03fbdba8","665797524d8acc7211fce1d4","448","stimuli/20111011.jpg"," ","","feedback_trial","2","","","","","","","","","","","","","","","","","","","","",""
"","","","","","image-keyboard-response","236","267821","0.0-211.0","6405feae7d6321bfaaf793e8","665500ab8938657b03fbdba8","665797524d8acc7211fce1d4","878","stimuli/0101011.jpg","0","","prediction_trial","2","","false","","0","true","true","false","false","false","false","[0,2]","101","011","0","","","","","","",""
"","","","","","image-keyboard-response","237","268956","0.0-212.0","6405feae7d6321bfaaf793e8","665500ab8938657b03fbdba8","665797524d8acc7211fce1d4","1132","stimuli/01010112.jpg"," ","","feedback_trial","0","","","","","","","","","","","","","","","","","","","","",""
"","","","","","image-keyboard-response","238","270470","0.0-213.0","6405feae7d6321bfaaf793e8","665500ab8938657b03fbdba8","665797524d8acc7211fce1d4","1513","stimuli/2010011.jpg","2","","prediction_trial","2","","true","","2","false","false","true","true","false","false","[2]","010","011","1","","","","","","",""
"","","","","","image-keyboard-response","239","270956","0.0-214.0","6405feae7d6321bfaaf793e8","665500ab8938657b03fbdba8","665797524d8acc7211fce1d4","485","stimuli/20100112.jpg"," ","","feedback_trial","2","","","","","","","","","","","","","","","","","","","","",""
"","","","","","image-keyboard-response","240","271636","0.0-215.0","6405feae7d6321bfaaf793e8","665500ab8938657b03fbdba8","665797524d8acc7211fce1d4","678","stimuli/0010011.jpg","0","","prediction_trial","0","","true","","0","true","true","true","true","true","true","[0]","010","011","1","","","","","","",""
"","","","","","image-keyboard-response","241","271856","0.0-216.0","6405feae7d6321bfaaf793e8","665500ab8938657b03fbdba8","665797524d8acc7211fce1d4","218","stimuli/00100110.jpg"," ","","feedback_trial","0","","","","","","","","","","","","","","","","","","","","",""
"","","","","","image-keyboard-response","242","272816","0.0-217.0","6405feae7d6321bfaaf793e8","665500ab8938657b03fbdba8","665797524d8acc7211fce1d4","959","stimuli/1110010.jpg","1","","prediction_trial","1","","true","","1","false","true","false","false","false","false","[1,0]","110","010","1","","","","","","",""
"","","","","","image-keyboard-response","243","273356","0.0-218.0","6405feae7d6321bfaaf793e8","665500ab8938657b03fbdba8","665797524d8acc7211fce1d4","538","stimuli/11100101.jpg"," ","","feedback_trial","1","","","","","","","","","","","","","","","","","","","","",""
"","","","","","image-keyboard-response","244","274031","0.0-219.0","6405feae7d6321bfaaf793e8","665500ab8938657b03fbdba8","665797524d8acc7211fce1d4","662","stimuli/1000000.jpg","1","","prediction_trial","1","","true","","1","true","true","true","true","true","true","[1]","000","000","1","","","","","","",""
"","","","","","image-keyboard-response","245","274351","0.0-220.0","6405feae7d6321bfaaf793e8","665500ab8938657b03fbdba8","665797524d8acc7211fce1d4","319","stimuli/10000001.jpg"," ","","feedback_trial","1","","","","","","","","","","","","","","","","","","","","",""
"","","","","","image-keyboard-response","246","274950","0.0-221.0","6405feae7d6321bfaaf793e8","665500ab8938657b03fbdba8","665797524d8acc7211fce1d4","598","stimuli/1101000.jpg","1","","prediction_trial","1","","true","","1","true","true","true","true","true","true","[1]","101","000","1","","","","","","",""
"","","","","","image-keyboard-response","247","275240","0.0-222.0","6405feae7d6321bfaaf793e8","665500ab8938657b03fbdba8","665797524d8acc7211fce1d4","289","stimuli/11010001.jpg"," ","","feedback_trial","1","","","","","","","","","","","","","","","","","","","","",""
"","","","","","image-keyboard-response","248","275911","0.0-223.0","6405feae7d6321bfaaf793e8","665500ab8938657b03fbdba8","665797524d8acc7211fce1d4","669","stimuli/2100100.jpg","2","","prediction_trial","2","","true","","2","true","true","true","true","true","true","[2]","100","100","1","","","","","","",""
"","","","","","image-keyboard-response","249","276167","0.0-224.0","6405feae7d6321bfaaf793e8","665500ab8938657b03fbdba8","665797524d8acc7211fce1d4","254","stimuli/21001002.jpg"," ","","feedback_trial","2","","","","","","","","","","","","","","","","","","","","",""
"","","","","","image-keyboard-response","250","277166","0.0-225.0","6405feae7d6321bfaaf793e8","665500ab8938657b03fbdba8","665797524d8acc7211fce1d4","997","stimuli/1011001.jpg","1","","prediction_trial","2","","false","","1","true","true","false","false","false","false","[2,1]","011","001","0","","","","","","",""
"","","","","","image-keyboard-response","251","277639","0.0-226.0","6405feae7d6321bfaaf793e8","665500ab8938657b03fbdba8","665797524d8acc7211fce1d4","472","stimuli/10110012.jpg"," ","","feedback_trial","2","","","","","","","","","","","","","","","","","","","","",""
"","","","","","image-keyboard-response","252","278193","0.0-227.0","6405feae7d6321bfaaf793e8","665500ab8938657b03fbdba8","665797524d8acc7211fce1d4","552","stimuli/2001110.jpg","2","","prediction_trial","2","","true","","2","true","true","false","true","false","true","[2]","001","110","1","","","","","","",""
"","","","","","image-keyboard-response","253","278691","0.0-228.0","6405feae7d6321bfaaf793e8","665500ab8938657b03fbdba8","665797524d8acc7211fce1d4","497","stimuli/20011102.jpg"," ","","feedback_trial","2","","","","","","","","","","","","","","","","","","","","",""
"","","","","","image-keyboard-response","254","279916","0.0-229.0","6405feae7d6321bfaaf793e8","665500ab8938657b03fbdba8","665797524d8acc7211fce1d4","1223","stimuli/0110100.jpg","0","","prediction_trial","1","","false","","0","false","true","false","false","false","false","[1,0]","110","100","0","","","","","","",""
"","","","","","image-keyboard-response","255","280335","0.0-230.0","6405feae7d6321bfaaf793e8","665500ab8938657b03fbdba8","665797524d8acc7211fce1d4","418","stimuli/01101001.jpg"," ","","feedback_trial","1","","","","","","","","","","","","","","","","","","","","",""
"","","","","","image-keyboard-response","256","281289","0.0-231.0","6405feae7d6321bfaaf793e8","665500ab8938657b03fbdba8","665797524d8acc7211fce1d4","943","stimuli/0001110.jpg","1","","prediction_trial","0","","false","","0","false","false","true","true","false","false","[0]","001","110","0","","","","","","",""
"","","","","","image-keyboard-response","257","281709","0.0-232.0","6405feae7d6321bfaaf793e8","665500ab8938657b03fbdba8","665797524d8acc7211fce1d4","419","stimuli/00011100.jpg"," ","","feedback_trial","0","","","","","","","","","","","","","","","","","","","","",""
"","","","","","image-keyboard-response","258","282309","0.0-233.0","6405feae7d6321bfaaf793e8","665500ab8938657b03fbdba8","665797524d8acc7211fce1d4","598","stimuli/1001100.jpg","1","","prediction_trial","1","","true","","1","true","true","true","true","true","true","[1]","001","100","1","","","","","","",""
"","","","","","image-keyboard-response","259","282610","0.0-234.0","6405feae7d6321bfaaf793e8","665500ab8938657b03fbdba8","665797524d8acc7211fce1d4","299","stimuli/10011001.jpg"," ","","feedback_trial","1","","","","","","","","","","","","","","","","","","","","",""
"","","","","","image-keyboard-response","260","283334","0.0-235.0","6405feae7d6321bfaaf793e8","665500ab8938657b03fbdba8","665797524d8acc7211fce1d4","722","stimuli/0010101.jpg","2","","prediction_trial","0","","false","","0","false","false","true","true","false","false","[0]","010","101","0","","","","","","",""
"","","","","","image-keyboard-response","261","283840","0.0-236.0","6405feae7d6321bfaaf793e8","665500ab8938657b03fbdba8","665797524d8acc7211fce1d4","504","stimuli/00101010.jpg"," ","","feedback_trial","0","","","","","","","","","","","","","","","","","","","","",""
"","","","","","image-keyboard-response","262","284444","0.0-237.0","6405feae7d6321bfaaf793e8","665500ab8938657b03fbdba8","665797524d8acc7211fce1d4","602","stimuli/1000001.jpg","1","","prediction_trial","1","","true","","1","true","true","true","true","true","true","[1]","000","001","1","","","","","","",""
"","","","","","image-keyboard-response","263","284757","0.0-238.0","6405feae7d6321bfaaf793e8","665500ab8938657b03fbdba8","665797524d8acc7211fce1d4","311","stimuli/10000011.jpg"," ","","feedback_trial","1","","","","","","","","","","","","","","","","","","","","",""
"","","","","","image-keyboard-response","264","286009","0.0-239.0","6405feae7d6321bfaaf793e8","665500ab8938657b03fbdba8","665797524d8acc7211fce1d4","1251","stimuli/2001010.jpg","2","","prediction_trial","2","","true","","2","true","true","false","true","false","true","[2]","001","010","1","","","","","","",""
"","","","","","image-keyboard-response","265","286335","0.0-240.0","6405feae7d6321bfaaf793e8","665500ab8938657b03fbdba8","665797524d8acc7211fce1d4","324","stimuli/20010102.jpg"," ","","feedback_trial","2","","","","","","","","","","","","","","","","","","","","",""
"","","","","","image-keyboard-response","266","287120","0.0-241.0","6405feae7d6321bfaaf793e8","665500ab8938657b03fbdba8","665797524d8acc7211fce1d4","783","stimuli/2000001.jpg","2","","prediction_trial","2","","true","","2","false","true","true","true","false","true","[2]","000","001","1","","","","","","",""
"","","","","","image-keyboard-response","267","287548","0.0-242.0","6405feae7d6321bfaaf793e8","665500ab8938657b03fbdba8","665797524d8acc7211fce1d4","427","stimuli/20000012.jpg"," ","","feedback_trial","2","","","","","","","","","","","","","","","","","","","","",""
"","","","","","image-keyboard-response","268","288709","0.0-243.0","6405feae7d6321bfaaf793e8","665500ab8938657b03fbdba8","665797524d8acc7211fce1d4","1159","stimuli/1111001.jpg","0","","prediction_trial","0","","true","","1","true","true","false","false","false","false","[0,2,1]","111","001","1","","","","","","",""
"","","","","","image-keyboard-response","269","289228","0.0-244.0","6405feae7d6321bfaaf793e8","665500ab8938657b03fbdba8","665797524d8acc7211fce1d4","518","stimuli/11110010.jpg"," ","","feedback_trial","0","","","","","","","","","","","","","","","","","","","","",""
"","","","","","image-keyboard-response","270","290083","0.0-245.0","6405feae7d6321bfaaf793e8","665500ab8938657b03fbdba8","665797524d8acc7211fce1d4","854","stimuli/1001010.jpg","1","","prediction_trial","1","","true","","1","false","true","true","true","false","true","[1]","001","010","1","","","","","","",""
"","","","","","image-keyboard-response","271","290519","0.0-246.0","6405feae7d6321bfaaf793e8","665500ab8938657b03fbdba8","665797524d8acc7211fce1d4","434","stimuli/10010101.jpg"," ","","feedback_trial","1","","","","","","","","","","","","","","","","","","","","",""
"","","","","","image-keyboard-response","272","292718","0.0-247.0","6405feae7d6321bfaaf793e8","665500ab8938657b03fbdba8","665797524d8acc7211fce1d4","2198","stimuli/2100101.jpg","2","","prediction_trial","2","","true","","2","false","false","true","true","false","false","[2]","100","101","1","","","","","","",""
"","","","","","image-keyboard-response","273","293369","0.0-248.0","6405feae7d6321bfaaf793e8","665500ab8938657b03fbdba8","665797524d8acc7211fce1d4","649","stimuli/21001012.jpg"," ","","feedback_trial","2","","","","","","","","","","","","","","","","","","","","",""
"","","","","","image-keyboard-response","274","294339","0.0-249.0","6405feae7d6321bfaaf793e8","665500ab8938657b03fbdba8","665797524d8acc7211fce1d4","969","stimuli/1011100.jpg","1","","prediction_trial","2","","false","","1","true","true","false","false","false","false","[2,1]","011","100","0","","","","","","",""
"","","","","","image-keyboard-response","275","294739","0.0-250.0","6405feae7d6321bfaaf793e8","665500ab8938657b03fbdba8","665797524d8acc7211fce1d4","399","stimuli/10111002.jpg"," ","","feedback_trial","2","","","","","","","","","","","","","","","","","","","","",""
"","","","","","image-keyboard-response","276","295468","0.0-251.0","6405feae7d6321bfaaf793e8","665500ab8938657b03fbdba8","665797524d8acc7211fce1d4","727","stimuli/0000100.jpg","0","","prediction_trial","0","","true","","0","false","true","true","true","false","true","[0]","000","100","1","","","","","","",""
"","","","","","image-keyboard-response","277","295929","0.0-252.0","6405feae7d6321bfaaf793e8","665500ab8938657b03fbdba8","665797524d8acc7211fce1d4","459","stimuli/00001000.jpg"," ","","feedback_trial","0","","","","","","","","","","","","","","","","","","","","",""
"","","","","","image-keyboard-response","278","297058","0.0-253.0","6405feae7d6321bfaaf793e8","665500ab8938657b03fbdba8","665797524d8acc7211fce1d4","1127","stimuli/1100110.jpg","1","","prediction_trial","1","","true","","1","false","false","true","true","false","false","[1]","100","110","1","","","","","","",""
"","","","","","image-keyboard-response","279","297523","0.0-254.0","6405feae7d6321bfaaf793e8","665500ab8938657b03fbdba8","665797524d8acc7211fce1d4","464","stimuli/11001101.jpg"," ","","feedback_trial","1","","","","","","","","","","","","","","","","","","","","",""
"","","","","","image-keyboard-response","280","298578","0.0-255.0","6405feae7d6321bfaaf793e8","665500ab8938657b03fbdba8","665797524d8acc7211fce1d4","1053","stimuli/1101111.jpg","1","","prediction_trial","1","","true","","1","false","false","true","true","false","false","[1]","101","111","1","","","","","","",""
"","","","","","image-keyboard-response","281","299130","0.0-256.0","6405feae7d6321bfaaf793e8","665500ab8938657b03fbdba8","665797524d8acc7211fce1d4","550","stimuli/11011111.jpg"," ","","feedback_trial","1","","","","","","","","","","","","","","","","","","","","",""
"","","","","","image-keyboard-response","282","300083","0.0-257.0","6405feae7d6321bfaaf793e8","665500ab8938657b03fbdba8","665797524d8acc7211fce1d4","952","stimuli/1111100.jpg","1","","prediction_trial","1","","true","","1","true","true","false","false","false","false","[2,1,0]","111","100","1","","","","","","",""
"","","","","","image-keyboard-response","283","300554","0.0-258.0","6405feae7d6321bfaaf793e8","665500ab8938657b03fbdba8","665797524d8acc7211fce1d4","469","stimuli/11111001.jpg"," ","","feedback_trial","2","","","","","","","","","","","","","","","","","","","","",""
"","","","","","image-keyboard-response","284","301394","0.0-259.0","6405feae7d6321bfaaf793e8","665500ab8938657b03fbdba8","665797524d8acc7211fce1d4","838","stimuli/2000000.jpg","2","","prediction_trial","2","","true","","2","true","true","true","true","true","true","[2]","000","000","1","","","","","","",""
"","","","","","image-keyboard-response","285","301699","0.0-260.0","6405feae7d6321bfaaf793e8","665500ab8938657b03fbdba8","665797524d8acc7211fce1d4","302","stimuli/20000002.jpg"," ","","feedback_trial","2","","","","","","","","","","","","","","","","","","","","",""
"","","","","","image-keyboard-response","286","302303","0.0-261.0","6405feae7d6321bfaaf793e8","665500ab8938657b03fbdba8","665797524d8acc7211fce1d4","602","stimuli/2010000.jpg","2","","prediction_trial","2","","true","","2","true","true","true","true","true","true","[2]","010","000","1","","","","","","",""
"","","","","","image-keyboard-response","287","302577","0.0-262.0","6405feae7d6321bfaaf793e8","665500ab8938657b03fbdba8","665797524d8acc7211fce1d4","274","stimuli/20100002.jpg"," ","","feedback_trial","2","","","","","","","","","","","","","","","","","","","","",""
"","","","","","image-keyboard-response","288","303259","0.0-263.0","6405feae7d6321bfaaf793e8","665500ab8938657b03fbdba8","665797524d8acc7211fce1d4","684","stimuli/0000011.jpg","0","","prediction_trial","0","","true","","0","true","true","true","true","true","true","[0]","000","011","1","","","","","","",""
"","","","","","image-keyboard-response","289","303514","0.0-264.0","6405feae7d6321bfaaf793e8","665500ab8938657b03fbdba8","665797524d8acc7211fce1d4","253","stimuli/00000110.jpg"," ","","feedback_trial","0","","","","","","","","","","","","","","","","","","","","",""
"","","","","","image-keyboard-response","290","304310","0.0-265.0","6405feae7d6321bfaaf793e8","665500ab8938657b03fbdba8","665797524d8acc7211fce1d4","795","stimuli/1110110.jpg","1","","prediction_trial","0","","false","","1","false","false","false","false","false","false","[0,1]","110","110","0","","","","","","",""
"","","","","","image-keyboard-response","291","304803","0.0-266.0","6405feae7d6321bfaaf793e8","665500ab8938657b03fbdba8","665797524d8acc7211fce1d4","490","stimuli/11101100.jpg"," ","","feedback_trial","0","","","","","","","","","","","","","","","","","","","","",""
"","","","","","image-keyboard-response","292","305515","0.0-267.0","6405feae7d6321bfaaf793e8","665500ab8938657b03fbdba8","665797524d8acc7211fce1d4","711","stimuli/1001111.jpg","1","","prediction_trial","1","","true","","1","false","false","true","true","false","false","[1]","001","111","1","","","","","","",""
"","","","","","image-keyboard-response","293","305990","0.0-268.0","6405feae7d6321bfaaf793e8","665500ab8938657b03fbdba8","665797524d8acc7211fce1d4","473","stimuli/10011111.jpg"," ","","feedback_trial","1","","","","","","","","","","","","","","","","","","","","",""
"","","","","","image-keyboard-response","294","306660","0.0-269.0","6405feae7d6321bfaaf793e8","665500ab8938657b03fbdba8","665797524d8acc7211fce1d4","668","stimuli/0101001.jpg","0","","prediction_trial","2","","false","","0","true","true","false","false","false","false","[2,0]","101","001","0","","","","","","",""
"","","","","","image-keyboard-response","295","307574","0.0-270.0","6405feae7d6321bfaaf793e8","665500ab8938657b03fbdba8","665797524d8acc7211fce1d4","911","stimuli/01010012.jpg"," ","","feedback_trial","2","","","","","","","","","","","","","","","","","","","","",""
"","","","","","image-keyboard-response","296","308624","0.0-271.0","6405feae7d6321bfaaf793e8","665500ab8938657b03fbdba8","665797524d8acc7211fce1d4","1048","stimuli/0000110.jpg","1","","prediction_trial","0","","false","","0","false","false","true","true","false","false","[0]","000","110","0","","","","","","",""
"","","","","","image-keyboard-response","297","309424","0.0-272.0","6405feae7d6321bfaaf793e8","665500ab8938657b03fbdba8","665797524d8acc7211fce1d4","799","stimuli/00001100.jpg"," ","","feedback_trial","0","","","","","","","","","","","","","","","","","","","","",""
"","","","","","image-keyboard-response","298","310186","0.0-273.0","6405feae7d6321bfaaf793e8","665500ab8938657b03fbdba8","665797524d8acc7211fce1d4","750","stimuli/2110000.jpg","2","","prediction_trial","2","","true","","2","true","true","true","true","true","true","[2]","110","000","1","","","","","","",""
"","","","","","image-keyboard-response","299","310459","0.0-274.0","6405feae7d6321bfaaf793e8","665500ab8938657b03fbdba8","665797524d8acc7211fce1d4","272","stimuli/21100002.jpg"," ","","feedback_trial","2","","","","","","","","","","","","","","","","","","","","",""
"","","","","","image-keyboard-response","300","311529","0.0-275.0","6405feae7d6321bfaaf793e8","665500ab8938657b03fbdba8","665797524d8acc7211fce1d4","1069","stimuli/1110011.jpg","2","","prediction_trial","0","","false","","1","false","false","false","false","false","false","[0,1]","110","011","0","","","","","","",""
"","","","","","image-keyboard-response","301","312008","0.0-276.0","6405feae7d6321bfaaf793e8","665500ab8938657b03fbdba8","665797524d8acc7211fce1d4","478","stimuli/11100110.jpg"," ","","feedback_trial","0","","","","","","","","","","","","","","","","","","","","",""
"","","","","","image-keyboard-response","302","312829","0.0-277.0","6405feae7d6321bfaaf793e8","665500ab8938657b03fbdba8","665797524d8acc7211fce1d4","819","stimuli/1100010.jpg","1","","prediction_trial","1","","true","","1","false","true","true","true","false","true","[1]","100","010","1","","","","","","",""
"","","","","","image-keyboard-response","303","313424","0.0-278.0","6405feae7d6321bfaaf793e8","665500ab8938657b03fbdba8","665797524d8acc7211fce1d4","594","stimuli/11000101.jpg"," ","","feedback_trial","1","","","","","","","","","","","","","","","","","","","","",""
"","","","","","image-keyboard-response","304","314534","0.0-279.0","6405feae7d6321bfaaf793e8","665500ab8938657b03fbdba8","665797524d8acc7211fce1d4","1108","stimuli/1010100.jpg","1","","prediction_trial","1","","true","","1","true","true","false","true","false","true","[1]","010","100","1","","","","","","",""
"","","","","","image-keyboard-response","305","314865","0.0-280.0","6405feae7d6321bfaaf793e8","665500ab8938657b03fbdba8","665797524d8acc7211fce1d4","330","stimuli/10101001.jpg"," ","","feedback_trial","1","","","","","","","","","","","","","","","","","","","","",""
"","","","","","image-keyboard-response","306","316350","0.0-281.0","6405feae7d6321bfaaf793e8","665500ab8938657b03fbdba8","665797524d8acc7211fce1d4","1483","stimuli/0001100.jpg","0","","prediction_trial","0","","true","","0","false","true","true","true","false","true","[0]","001","100","1","","","","","","",""
"","","","","","image-keyboard-response","307","316834","0.0-282.0","6405feae7d6321bfaaf793e8","665500ab8938657b03fbdba8","665797524d8acc7211fce1d4","482","stimuli/00011000.jpg"," ","","feedback_trial","0","","","","","","","","","","","","","","","","","","","","",""
"","","","","","image-keyboard-response","308","318199","0.0-283.0","6405feae7d6321bfaaf793e8","665500ab8938657b03fbdba8","665797524d8acc7211fce1d4","1364","stimuli/0101010.jpg","0","","prediction_trial","2","","false","","0","true","true","false","false","false","false","[0,2]","101","010","0","","","","","","",""
"","","","","","image-keyboard-response","309","318634","0.0-284.0","6405feae7d6321bfaaf793e8","665500ab8938657b03fbdba8","665797524d8acc7211fce1d4","433","stimuli/01010102.jpg"," ","","feedback_trial","0","","","","","","","","","","","","","","","","","","","","",""
"","","","","","image-keyboard-response","310","320043","0.0-285.0","6405feae7d6321bfaaf793e8","665500ab8938657b03fbdba8","665797524d8acc7211fce1d4","1408","stimuli/1010111.jpg","2","","prediction_trial","1","","false","","1","false","false","false","true","false","false","[1]","010","111","0","","","","","","",""
"","","","","","image-keyboard-response","311","320423","0.0-286.0","6405feae7d6321bfaaf793e8","665500ab8938657b03fbdba8","665797524d8acc7211fce1d4","378","stimuli/10101111.jpg"," ","","feedback_trial","1","","","","","","","","","","","","","","","","","","","","",""
"","","","","","image-keyboard-response","312","321404","0.0-287.0","6405feae7d6321bfaaf793e8","665500ab8938657b03fbdba8","665797524d8acc7211fce1d4","979","stimuli/2110011.jpg","1","","prediction_trial","2","","false","","2","false","false","true","true","false","false","[2]","110","011","0","","","","","","",""
"","","","","","image-keyboard-response","313","322023","0.0-288.0","6405feae7d6321bfaaf793e8","665500ab8938657b03fbdba8","665797524d8acc7211fce1d4","618","stimuli/21100112.jpg"," ","","feedback_trial","2","","","","","","","","","","","","","","","","","","","","",""
"","","","","","image-keyboard-response","314","323100","0.0-289.0","6405feae7d6321bfaaf793e8","665500ab8938657b03fbdba8","665797524d8acc7211fce1d4","1075","stimuli/0100101.jpg","2","","prediction_trial","0","","false","","0","false","false","false","true","false","false","[0]","100","101","0","","","","","","",""
"","","","","","image-keyboard-response","315","323578","0.0-290.0","6405feae7d6321bfaaf793e8","665500ab8938657b03fbdba8","665797524d8acc7211fce1d4","477","stimuli/01001010.jpg"," ","","feedback_trial","0","","","","","","","","","","","","","","","","","","","","",""
"","","","","","image-keyboard-response","316","324258","0.0-291.0","6405feae7d6321bfaaf793e8","665500ab8938657b03fbdba8","665797524d8acc7211fce1d4","679","stimuli/0111110.jpg","1","","prediction_trial","1","","true","","0","false","false","false","false","false","false","[2,0,1]","111","110","1","","","","","","",""
"","","","","","image-keyboard-response","317","324829","0.0-292.0","6405feae7d6321bfaaf793e8","665500ab8938657b03fbdba8","665797524d8acc7211fce1d4","569","stimuli/01111101.jpg"," ","","feedback_trial","2","","","","","","","","","","","","","","","","","","","","",""
"","","","","","survey-html-form","318","350636","0.0-293.0","6405feae7d6321bfaaf793e8","665500ab8938657b03fbdba8","665797524d8acc7211fce1d4","25804","","{""feedback"":""I just determined whether he could see the ball or not. Otherwise I just had to guess. "",""age"":""35"",""gender"":""Female"",""other_gender"":"""",""race"":""White"",""other_race"":"""",""ethnicity"":""Non-Hispanic""}","","exit_survey","","","","","","","","","","","","","","","","I just determined whether he could see the ball or not. Otherwise I just had to guess. ","35","Non-Hispanic","Female","White","0.6736111111111112","0.6736111111111112"
