"success","timeout","failed_images","failed_audio","failed_video","trial_type","trial_index","time_elapsed","internal_node_id","prolific_id","prolific_study_id","prolific_session_id","rt","stimulus","response","view_history","trial","character_choice","stimulus_dict","accuracy","correct_response","ball_pos","ego_ball_visible","ego_can_infer","alter_ball_visible","alter_can_infer","collective_ball_visible","collective_can_infer","search_locations","alter_occluders","ego_occluders","accuracy_bool","feedback","age","ethnicity","gender","race","overall_accuracy","bonus"
"true","false","[]","[]","[]","preload","0","3646","0.0-0.0","611994820071da2beee434ea","665500ab8938657b03fbdba8","6657783451cf2402886e5d7e","","","","","","","","","","","","","","","","","","","","","","","","","","",""
"true","","","","","fullscreen","1","6148","0.0-1.0","611994820071da2beee434ea","665500ab8938657b03fbdba8","6657783451cf2402886e5d7e","","","","","","","","","","","","","","","","","","","","","","","","","","",""
"","","","","","html-button-response","2","10221","0.0-2.0","611994820071da2beee434ea","665500ab8938657b03fbdba8","6657783451cf2402886e5d7e","4070","<p><b>Consent Form</b></p> <div style=""text-align:left;background-color:lightgrey; padding:20px; max-width:900px;""><p>Please consider this information carefully before deciding whether to participate in this research.</p> <p>The purpose of this research is to examine which factors influence social judgment and decision-making. You will be asked to make judgements about individuals and actions in social scenarios. We are simply interested in your judgement. The study will take less than 1 hour to complete, and you will receive less than $20 on Prolific. Your compensation and time commitment are specified in the study description. There are no anticipated risks associated with participating in this study. The effects of participating should be comparable to those you would ordinarily experience from viewing a computer monitor and using a mouse or keyboard for a similar amount of time. At the end of the study, we will provide an explanation of the questions that motivate this line of research and will describe the potential implications. </p><p> Your participation in this study is completely voluntary and you may refuse to participate or you may choose to withdraw at any time without penalty or loss of benefits to you which are otherwise entitled. Your participation in this study will remain confidential. No personally identifiable information will be associated with your data. Also, all analyses of the data will be averaged across all the participants, so your individual responses will never be specifically analyzed. </p><p> If you have questions or concerns about your participation or payment, or want to request a summary of research findings, please contact Dr. Jonathan Phillips at Jonathan.S.Phillips@dartmouth.edu. </p><p> Please save a copy of this form for your records. </p><p><b>Agreement: </b>The nature and purpose of this research have been sufficiently explained and I agree to participate in this study. I understand that I am free to withdraw at any time without incurring any penalty. Please consent by clicking the button below to continue. Otherwise, please exit the study at any time. </p>","0","","","","","","","","","","","","","","","","","","","","","","","",""
"","","","","","instructions","3","62395","0.0-3.0-0.0","611994820071da2beee434ea","665500ab8938657b03fbdba8","6657783451cf2402886e5d7e","52167","","","[{""page_index"":0,""viewing_time"":1799},{""page_index"":1,""viewing_time"":2617},{""page_index"":2,""viewing_time"":1625},{""page_index"":3,""viewing_time"":4861},{""page_index"":4,""viewing_time"":3081},{""page_index"":5,""viewing_time"":2040},{""page_index"":6,""viewing_time"":4002},{""page_index"":7,""viewing_time"":2234},{""page_index"":8,""viewing_time"":4063},{""page_index"":9,""viewing_time"":2039},{""page_index"":10,""viewing_time"":8103},{""page_index"":11,""viewing_time"":8293},{""page_index"":12,""viewing_time"":5601},{""page_index"":13,""viewing_time"":1808}]","intro","","","","","","","","","","","","","","","","","","","","","",""
"","","","","","image-keyboard-response","4","65717","0.0-3.0-1.0","611994820071da2beee434ea","665500ab8938657b03fbdba8","6657783451cf2402886e5d7e","3316","stimuli/0101111.jpg","2","","prediction_practice","2","{""filepath"":""stimuli/0101111.jpg"",""ball_pos"":0,""ego_ball_visible"":false,""ego_can_infer"":false,""alter_ball_visible"":false,""alter_can_infer"":false,""collective_ball_visible"":false,""collective_can_infer"":false,""search_locations"":[2,0],""alter_occluders"":""101"",""ego_occluders"":""111""}","true","","","","","","","","","","","","","","","","","","",""
"","","","","","image-keyboard-response","5","73108","0.0-3.0-2.0","611994820071da2beee434ea","665500ab8938657b03fbdba8","6657783451cf2402886e5d7e","7389","stimuli/01011112.jpg"," ","","practrice_feedback","2","","","","","","","","","","","","","","","","","","","","",""
"","","","","","image-keyboard-response","6","74456","0.0-3.0-3.0","611994820071da2beee434ea","665500ab8938657b03fbdba8","6657783451cf2402886e5d7e","1346","stimuli/2110010.jpg","2","","prediction_practice","2","{""filepath"":""stimuli/2110010.jpg"",""ball_pos"":2,""ego_ball_visible"":true,""ego_can_infer"":true,""alter_ball_visible"":true,""alter_can_infer"":true,""collective_ball_visible"":true,""collective_can_infer"":true,""search_locations"":[2],""alter_occluders"":""110"",""ego_occluders"":""010""}","true","","","","","","","","","","","","","","","","","","",""
"","","","","","image-keyboard-response","7","75894","0.0-3.0-4.0","611994820071da2beee434ea","665500ab8938657b03fbdba8","6657783451cf2402886e5d7e","1437","stimuli/21100102.jpg"," ","","practrice_feedback","2","","","","","","","","","","","","","","","","","","","","",""
"","","","","","image-keyboard-response","8","77875","0.0-3.0-5.0","611994820071da2beee434ea","665500ab8938657b03fbdba8","6657783451cf2402886e5d7e","1979","stimuli/1001000.jpg","1","","prediction_practice","1","{""filepath"":""stimuli/1001000.jpg"",""ball_pos"":1,""ego_ball_visible"":true,""ego_can_infer"":true,""alter_ball_visible"":true,""alter_can_infer"":true,""collective_ball_visible"":true,""collective_can_infer"":true,""search_locations"":[1],""alter_occluders"":""001"",""ego_occluders"":""000""}","true","","","","","","","","","","","","","","","","","","",""
"","","","","","image-keyboard-response","9","79255","0.0-3.0-6.0","611994820071da2beee434ea","665500ab8938657b03fbdba8","6657783451cf2402886e5d7e","1378","stimuli/10010001.jpg"," ","","practrice_feedback","1","","","","","","","","","","","","","","","","","","","","",""
"","","","","","image-keyboard-response","10","85147","0.0-3.0-7.0","611994820071da2beee434ea","665500ab8938657b03fbdba8","6657783451cf2402886e5d7e","5890","stimuli/0100101.jpg","2","","prediction_practice","0","{""filepath"":""stimuli/0100101.jpg"",""ball_pos"":0,""ego_ball_visible"":false,""ego_can_infer"":false,""alter_ball_visible"":false,""alter_can_infer"":true,""collective_ball_visible"":false,""collective_can_infer"":false,""search_locations"":[0],""alter_occluders"":""100"",""ego_occluders"":""101""}","false","","","","","","","","","","","","","","","","","","",""
"","","","","","image-keyboard-response","11","87928","0.0-3.0-8.0","611994820071da2beee434ea","665500ab8938657b03fbdba8","6657783451cf2402886e5d7e","2779","stimuli/01001010.jpg"," ","","practrice_feedback","0","","","","","","","","","","","","","","","","","","","","",""
"","","","","","image-keyboard-response","12","91005","0.0-3.0-9.0","611994820071da2beee434ea","665500ab8938657b03fbdba8","6657783451cf2402886e5d7e","3075","stimuli/1001010.jpg","1","","prediction_practice","1","{""filepath"":""stimuli/1001010.jpg"",""ball_pos"":1,""ego_ball_visible"":false,""ego_can_infer"":true,""alter_ball_visible"":true,""alter_can_infer"":true,""collective_ball_visible"":false,""collective_can_infer"":true,""search_locations"":[1],""alter_occluders"":""001"",""ego_occluders"":""010""}","true","","","","","","","","","","","","","","","","","","",""
"","","","","","image-keyboard-response","13","91755","0.0-3.0-10.0","611994820071da2beee434ea","665500ab8938657b03fbdba8","6657783451cf2402886e5d7e","748","stimuli/10010101.jpg"," ","","practrice_feedback","1","","","","","","","","","","","","","","","","","","","","",""
"","","","","","image-keyboard-response","14","93889","0.0-3.0-11.0","611994820071da2beee434ea","665500ab8938657b03fbdba8","6657783451cf2402886e5d7e","2132","stimuli/2001000.jpg","2","","prediction_practice","2","{""filepath"":""stimuli/2001000.jpg"",""ball_pos"":2,""ego_ball_visible"":true,""ego_can_infer"":true,""alter_ball_visible"":false,""alter_can_infer"":true,""collective_ball_visible"":false,""collective_can_infer"":true,""search_locations"":[2],""alter_occluders"":""001"",""ego_occluders"":""000""}","true","","","","","","","","","","","","","","","","","","",""
"","","","","","image-keyboard-response","15","94703","0.0-3.0-12.0","611994820071da2beee434ea","665500ab8938657b03fbdba8","6657783451cf2402886e5d7e","813","stimuli/20010002.jpg"," ","","practrice_feedback","2","","","","","","","","","","","","","","","","","","","","",""
"","","","","","image-keyboard-response","16","96561","0.0-3.0-13.0","611994820071da2beee434ea","665500ab8938657b03fbdba8","6657783451cf2402886e5d7e","1857","stimuli/0100010.jpg","0","","prediction_practice","0","{""filepath"":""stimuli/0100010.jpg"",""ball_pos"":0,""ego_ball_visible"":true,""ego_can_infer"":true,""alter_ball_visible"":false,""alter_can_infer"":true,""collective_ball_visible"":false,""collective_can_infer"":true,""search_locations"":[0],""alter_occluders"":""100"",""ego_occluders"":""010""}","true","","","","","","","","","","","","","","","","","","",""
"","","","","","image-keyboard-response","17","97215","0.0-3.0-14.0","611994820071da2beee434ea","665500ab8938657b03fbdba8","6657783451cf2402886e5d7e","652","stimuli/01000100.jpg"," ","","practrice_feedback","0","","","","","","","","","","","","","","","","","","","","",""
"","","","","","image-keyboard-response","18","98481","0.0-3.0-15.0","611994820071da2beee434ea","665500ab8938657b03fbdba8","6657783451cf2402886e5d7e","1265","stimuli/2110001.jpg","2","","prediction_practice","2","{""filepath"":""stimuli/2110001.jpg"",""ball_pos"":2,""ego_ball_visible"":false,""ego_can_infer"":true,""alter_ball_visible"":true,""alter_can_infer"":true,""collective_ball_visible"":false,""collective_can_infer"":true,""search_locations"":[2],""alter_occluders"":""110"",""ego_occluders"":""001""}","true","","","","","","","","","","","","","","","","","","",""
"","","","","","image-keyboard-response","19","99105","0.0-3.0-16.0","611994820071da2beee434ea","665500ab8938657b03fbdba8","6657783451cf2402886e5d7e","622","stimuli/21100012.jpg"," ","","practrice_feedback","2","","","","","","","","","","","","","","","","","","","","",""
"","","","","","image-keyboard-response","20","102552","0.0-3.0-17.0","611994820071da2beee434ea","665500ab8938657b03fbdba8","6657783451cf2402886e5d7e","3446","stimuli/0111110.jpg","1","","prediction_practice","2","{""filepath"":""stimuli/0111110.jpg"",""ball_pos"":0,""ego_ball_visible"":false,""ego_can_infer"":false,""alter_ball_visible"":false,""alter_can_infer"":false,""collective_ball_visible"":false,""collective_can_infer"":false,""search_locations"":[1,0,2],""alter_occluders"":""111"",""ego_occluders"":""110""}","false","","","","","","","","","","","","","","","","","","",""
"","","","","","image-keyboard-response","21","106805","0.0-3.0-18.0","611994820071da2beee434ea","665500ab8938657b03fbdba8","6657783451cf2402886e5d7e","4233","stimuli/01111102.jpg"," ","","practrice_feedback","1","","","","","","","","","","","","","","","","","","","","",""
"","","","","","image-keyboard-response","22","110301","0.0-3.0-19.0","611994820071da2beee434ea","665500ab8938657b03fbdba8","6657783451cf2402886e5d7e","3494","stimuli/1110011.jpg","0","","prediction_practice","1","{""filepath"":""stimuli/1110011.jpg"",""ball_pos"":1,""ego_ball_visible"":false,""ego_can_infer"":false,""alter_ball_visible"":false,""alter_can_infer"":false,""collective_ball_visible"":false,""collective_can_infer"":false,""search_locations"":[0,1],""alter_occluders"":""110"",""ego_occluders"":""011""}","false","","","","","","","","","","","","","","","","","","",""
"","","","","","image-keyboard-response","23","111465","0.0-3.0-20.0","611994820071da2beee434ea","665500ab8938657b03fbdba8","6657783451cf2402886e5d7e","1162","stimuli/11100111.jpg"," ","","practrice_feedback","0","","","","","","","","","","","","","","","","","","","","",""
"","","","","","html-button-response","24","114829","0.0-3.0-21.0","611994820071da2beee434ea","665500ab8938657b03fbdba8","6657783451cf2402886e5d7e","3363","Now that you've had some practice, you'll be tested with a couple of easy trials. If you correctly predict Sam's choice, you'll move on to complete the experiment!","0","","","","","","","","","","","","","","","","","","","","","","","",""
"","","","","","image-keyboard-response","25","116603","0.0-3.0-22.0-0.0","611994820071da2beee434ea","665500ab8938657b03fbdba8","6657783451cf2402886e5d7e","1772","stimuli/0000011.jpg","arrowleft","","comprehension_quiz","","","true","arrowleft","","","","","","","","","","","","","","","","","",""
"","","","","","image-keyboard-response","26","117300","0.0-3.0-22.0-1.0","611994820071da2beee434ea","665500ab8938657b03fbdba8","6657783451cf2402886e5d7e","695","stimuli/00000110.jpg"," ","","comprehension_quiz","","","true"," ","","","","","","","","","","","","","","","","","",""
"","","","","","image-keyboard-response","27","118957","0.0-3.0-22.0-2.0","611994820071da2beee434ea","665500ab8938657b03fbdba8","6657783451cf2402886e5d7e","1656","stimuli/1010010.jpg","arrowdown","","comprehension_quiz","","","true","arrowdown","","","","","","","","","","","","","","","","","",""
"","","","","","image-keyboard-response","28","119441","0.0-3.0-22.0-3.0","611994820071da2beee434ea","665500ab8938657b03fbdba8","6657783451cf2402886e5d7e","495","stimuli/10100101.jpg"," ","","comprehension_quiz","","","true"," ","","","","","","","","","","","","","","","","","",""
"","","","","","html-button-response","29","122388","0.0-4.0","611994820071da2beee434ea","665500ab8938657b03fbdba8","6657783451cf2402886e5d7e","2944","The experiment will now begin.","0","","","","","","","","","","","","","","","","","","","","","","","",""
"","","","","","image-keyboard-response","30","123794","0.0-5.0","611994820071da2beee434ea","665500ab8938657b03fbdba8","6657783451cf2402886e5d7e","1403","stimuli/1100001.jpg","1","","prediction_trial","1","","true","","1","true","true","true","true","true","true","[1]","100","001","1","","","","","","",""
"","","","","","image-keyboard-response","31","124585","0.0-6.0","611994820071da2beee434ea","665500ab8938657b03fbdba8","6657783451cf2402886e5d7e","789","stimuli/11000011.jpg"," ","","feedback_trial","1","","","","","","","","","","","","","","","","","","","","",""
"","","","","","image-keyboard-response","32","126784","0.0-7.0","611994820071da2beee434ea","665500ab8938657b03fbdba8","6657783451cf2402886e5d7e","2174","stimuli/0111100.jpg","0","","prediction_trial","2","","false","","0","false","true","false","false","false","false","[0,1,2]","111","100","0","","","","","","",""
"","","","","","image-keyboard-response","33","127568","0.0-8.0","611994820071da2beee434ea","665500ab8938657b03fbdba8","6657783451cf2402886e5d7e","783","stimuli/01111002.jpg"," ","","feedback_trial","0","","","","","","","","","","","","","","","","","","","","",""
"","","","","","image-keyboard-response","34","130635","0.0-9.0","611994820071da2beee434ea","665500ab8938657b03fbdba8","6657783451cf2402886e5d7e","3066","stimuli/2101110.jpg","2","","prediction_trial","0","","false","","2","true","true","false","false","false","false","[2,0]","101","110","0","","","","","","",""
"","","","","","image-keyboard-response","35","131561","0.0-10.0","611994820071da2beee434ea","665500ab8938657b03fbdba8","6657783451cf2402886e5d7e","924","stimuli/21011100.jpg"," ","","feedback_trial","2","","","","","","","","","","","","","","","","","","","","",""
"","","","","","image-keyboard-response","36","135139","0.0-11.0","611994820071da2beee434ea","665500ab8938657b03fbdba8","6657783451cf2402886e5d7e","3576","stimuli/2100001.jpg","2","","prediction_trial","2","","true","","2","false","true","true","true","false","true","[2]","100","001","1","","","","","","",""
"","","","","","image-keyboard-response","37","135763","0.0-12.0","611994820071da2beee434ea","665500ab8938657b03fbdba8","6657783451cf2402886e5d7e","622","stimuli/21000012.jpg"," ","","feedback_trial","2","","","","","","","","","","","","","","","","","","","","",""
"","","","","","image-keyboard-response","38","136925","0.0-13.0","611994820071da2beee434ea","665500ab8938657b03fbdba8","6657783451cf2402886e5d7e","1161","stimuli/1000101.jpg","1","","prediction_trial","1","","true","","1","true","true","true","true","true","true","[1]","000","101","1","","","","","","",""
"","","","","","image-keyboard-response","39","137207","0.0-14.0","611994820071da2beee434ea","665500ab8938657b03fbdba8","6657783451cf2402886e5d7e","281","stimuli/10001011.jpg"," ","","feedback_trial","1","","","","","","","","","","","","","","","","","","","","",""
"","","","","","image-keyboard-response","40","140014","0.0-15.0","611994820071da2beee434ea","665500ab8938657b03fbdba8","6657783451cf2402886e5d7e","2806","stimuli/2011110.jpg","2","","prediction_trial","1","","false","","2","true","true","false","false","false","false","[1,2]","011","110","0","","","","","","",""
"","","","","","image-keyboard-response","41","140763","0.0-16.0","611994820071da2beee434ea","665500ab8938657b03fbdba8","6657783451cf2402886e5d7e","746","stimuli/20111101.jpg"," ","","feedback_trial","1","","","","","","","","","","","","","","","","","","","","",""
"","","","","","image-keyboard-response","42","144865","0.0-17.0","611994820071da2beee434ea","665500ab8938657b03fbdba8","6657783451cf2402886e5d7e","4101","stimuli/1101110.jpg","1","","prediction_trial","1","","true","","1","false","false","true","true","false","false","[1]","101","110","1","","","","","","",""
"","","","","","image-keyboard-response","43","145478","0.0-18.0","611994820071da2beee434ea","665500ab8938657b03fbdba8","6657783451cf2402886e5d7e","612","stimuli/11011101.jpg"," ","","feedback_trial","1","","","","","","","","","","","","","","","","","","","","",""
"","","","","","image-keyboard-response","44","148586","0.0-19.0","611994820071da2beee434ea","665500ab8938657b03fbdba8","6657783451cf2402886e5d7e","3106","stimuli/2001101.jpg","2","","prediction_trial","2","","true","","2","false","false","false","true","false","false","[2]","001","101","1","","","","","","",""
"","","","","","image-keyboard-response","45","149478","0.0-20.0","611994820071da2beee434ea","665500ab8938657b03fbdba8","6657783451cf2402886e5d7e","890","stimuli/20011012.jpg"," ","","feedback_trial","2","","","","","","","","","","","","","","","","","","","","",""
"","","","","","image-keyboard-response","46","151709","0.0-21.0","611994820071da2beee434ea","665500ab8938657b03fbdba8","6657783451cf2402886e5d7e","2230","stimuli/0111111.jpg","2","","prediction_trial","2","","true","","0","false","false","false","false","false","false","[1,2,0]","111","111","1","","","","","","",""
"","","","","","image-keyboard-response","47","152693","0.0-22.0","611994820071da2beee434ea","665500ab8938657b03fbdba8","6657783451cf2402886e5d7e","981","stimuli/01111112.jpg"," ","","feedback_trial","1","","","","","","","","","","","","","","","","","","","","",""
"","","","","","image-keyboard-response","48","156476","0.0-23.0","611994820071da2beee434ea","665500ab8938657b03fbdba8","6657783451cf2402886e5d7e","3782","stimuli/2010011.jpg","1","","prediction_trial","2","","false","","2","false","false","true","true","false","false","[2]","010","011","0","","","","","","",""
"","","","","","image-keyboard-response","49","160128","0.0-24.0","611994820071da2beee434ea","665500ab8938657b03fbdba8","6657783451cf2402886e5d7e","3650","stimuli/20100112.jpg"," ","","feedback_trial","2","","","","","","","","","","","","","","","","","","","","",""
"","","","","","image-keyboard-response","50","162579","0.0-25.0","611994820071da2beee434ea","665500ab8938657b03fbdba8","6657783451cf2402886e5d7e","2449","stimuli/2011011.jpg","2","","prediction_trial","1","","false","","2","false","false","false","false","false","false","[2,1]","011","011","0","","","","","","",""
"","","","","","image-keyboard-response","51","163913","0.0-26.0","611994820071da2beee434ea","665500ab8938657b03fbdba8","6657783451cf2402886e5d7e","1333","stimuli/20110111.jpg"," ","","feedback_trial","2","","","","","","","","","","","","","","","","","","","","",""
"","","","","","image-keyboard-response","52","166157","0.0-27.0","611994820071da2beee434ea","665500ab8938657b03fbdba8","6657783451cf2402886e5d7e","2242","stimuli/1110000.jpg","1","","prediction_trial","1","","true","","1","true","true","false","false","false","false","[0,1]","110","000","1","","","","","","",""
"","","","","","image-keyboard-response","53","166772","0.0-28.0","611994820071da2beee434ea","665500ab8938657b03fbdba8","6657783451cf2402886e5d7e","614","stimuli/11100001.jpg"," ","","feedback_trial","0","","","","","","","","","","","","","","","","","","","","",""
"","","","","","image-keyboard-response","54","168869","0.0-29.0","611994820071da2beee434ea","665500ab8938657b03fbdba8","6657783451cf2402886e5d7e","2096","stimuli/1011001.jpg","1","","prediction_trial","2","","false","","1","true","true","false","false","false","false","[1,2]","011","001","0","","","","","","",""
"","","","","","image-keyboard-response","55","169478","0.0-30.0","611994820071da2beee434ea","665500ab8938657b03fbdba8","6657783451cf2402886e5d7e","607","stimuli/10110012.jpg"," ","","feedback_trial","1","","","","","","","","","","","","","","","","","","","","",""
"","","","","","image-keyboard-response","56","172415","0.0-31.0","611994820071da2beee434ea","665500ab8938657b03fbdba8","6657783451cf2402886e5d7e","2936","stimuli/2011100.jpg","2","","prediction_trial","1","","false","","2","true","true","false","false","false","false","[1,2]","011","100","0","","","","","","",""
"","","","","","image-keyboard-response","57","173133","0.0-32.0","611994820071da2beee434ea","665500ab8938657b03fbdba8","6657783451cf2402886e5d7e","716","stimuli/20111001.jpg"," ","","feedback_trial","1","","","","","","","","","","","","","","","","","","","","",""
"","","","","","image-keyboard-response","58","174026","0.0-33.0","611994820071da2beee434ea","665500ab8938657b03fbdba8","6657783451cf2402886e5d7e","892","stimuli/1001100.jpg","1","","prediction_trial","1","","true","","1","true","true","true","true","true","true","[1]","001","100","1","","","","","","",""
"","","","","","image-keyboard-response","59","174443","0.0-34.0","611994820071da2beee434ea","665500ab8938657b03fbdba8","6657783451cf2402886e5d7e","415","stimuli/10011001.jpg"," ","","feedback_trial","1","","","","","","","","","","","","","","","","","","","","",""
"","","","","","image-keyboard-response","60","177847","0.0-35.0","611994820071da2beee434ea","665500ab8938657b03fbdba8","6657783451cf2402886e5d7e","3402","stimuli/0010111.jpg","2","","prediction_trial","0","","false","","0","false","false","true","true","false","false","[0]","010","111","0","","","","","","",""
"","","","","","image-keyboard-response","61","178994","0.0-36.0","611994820071da2beee434ea","665500ab8938657b03fbdba8","6657783451cf2402886e5d7e","1146","stimuli/00101110.jpg"," ","","feedback_trial","0","","","","","","","","","","","","","","","","","","","","",""
"","","","","","image-keyboard-response","62","181602","0.0-37.0","611994820071da2beee434ea","665500ab8938657b03fbdba8","6657783451cf2402886e5d7e","2596","stimuli/1110101.jpg","1","","prediction_trial","0","","false","","1","true","true","false","false","false","false","[1,0]","110","101","0","","","","","","",""
"","","","","","image-keyboard-response","63","182035","0.0-38.0","611994820071da2beee434ea","665500ab8938657b03fbdba8","6657783451cf2402886e5d7e","431","stimuli/11101010.jpg"," ","","feedback_trial","1","","","","","","","","","","","","","","","","","","","","",""
"","","","","","image-keyboard-response","64","186158","0.0-39.0","611994820071da2beee434ea","665500ab8938657b03fbdba8","6657783451cf2402886e5d7e","4122","stimuli/1011110.jpg","0","","prediction_trial","1","","false","","1","false","false","false","false","false","false","[1,2]","011","110","0","","","","","","",""
"","","","","","image-keyboard-response","65","186871","0.0-40.0","611994820071da2beee434ea","665500ab8938657b03fbdba8","6657783451cf2402886e5d7e","711","stimuli/10111101.jpg"," ","","feedback_trial","1","","","","","","","","","","","","","","","","","","","","",""
"","","","","","image-keyboard-response","66","188551","0.0-41.0","611994820071da2beee434ea","665500ab8938657b03fbdba8","6657783451cf2402886e5d7e","1679","stimuli/0000111.jpg","1","","prediction_trial","0","","false","","0","false","false","true","true","false","false","[0]","000","111","0","","","","","","",""
"","","","","","image-keyboard-response","67","189095","0.0-42.0","611994820071da2beee434ea","665500ab8938657b03fbdba8","6657783451cf2402886e5d7e","542","stimuli/00001110.jpg"," ","","feedback_trial","0","","","","","","","","","","","","","","","","","","","","",""
"","","","","","image-keyboard-response","68","190180","0.0-43.0","611994820071da2beee434ea","665500ab8938657b03fbdba8","6657783451cf2402886e5d7e","1084","stimuli/2110010.jpg","2","","prediction_trial","2","","true","","2","true","true","true","true","true","true","[2]","110","010","1","","","","","","",""
"","","","","","image-keyboard-response","69","190510","0.0-44.0","611994820071da2beee434ea","665500ab8938657b03fbdba8","6657783451cf2402886e5d7e","329","stimuli/21100102.jpg"," ","","feedback_trial","2","","","","","","","","","","","","","","","","","","","","",""
"","","","","","image-keyboard-response","70","194352","0.0-45.0","611994820071da2beee434ea","665500ab8938657b03fbdba8","6657783451cf2402886e5d7e","3840","stimuli/1000011.jpg","1","","prediction_trial","1","","true","","1","false","false","true","true","false","false","[1]","000","011","1","","","","","","",""
"","","","","","image-keyboard-response","71","194918","0.0-46.0","611994820071da2beee434ea","665500ab8938657b03fbdba8","6657783451cf2402886e5d7e","565","stimuli/10000111.jpg"," ","","feedback_trial","1","","","","","","","","","","","","","","","","","","","","",""
"","","","","","image-keyboard-response","72","196382","0.0-47.0","611994820071da2beee434ea","665500ab8938657b03fbdba8","6657783451cf2402886e5d7e","1461","stimuli/0110111.jpg","2","","prediction_trial","1","","false","","0","false","false","false","false","false","false","[0,1]","110","111","0","","","","","","",""
"","","","","","image-keyboard-response","73","197035","0.0-48.0","611994820071da2beee434ea","665500ab8938657b03fbdba8","6657783451cf2402886e5d7e","651","stimuli/01101111.jpg"," ","","feedback_trial","0","","","","","","","","","","","","","","","","","","","","",""
"","","","","","image-keyboard-response","74","199230","0.0-49.0","611994820071da2beee434ea","665500ab8938657b03fbdba8","6657783451cf2402886e5d7e","2194","stimuli/0100001.jpg","0","","prediction_trial","0","","true","","0","true","true","false","true","false","true","[0]","100","001","1","","","","","","",""
"","","","","","image-keyboard-response","75","199567","0.0-50.0","611994820071da2beee434ea","665500ab8938657b03fbdba8","6657783451cf2402886e5d7e","336","stimuli/01000010.jpg"," ","","feedback_trial","0","","","","","","","","","","","","","","","","","","","","",""
"","","","","","image-keyboard-response","76","203572","0.0-51.0","611994820071da2beee434ea","665500ab8938657b03fbdba8","6657783451cf2402886e5d7e","4004","stimuli/2111101.jpg","2","","prediction_trial","0","","false","","2","false","false","false","false","false","false","[0,1,2]","111","101","0","","","","","","",""
"","","","","","image-keyboard-response","77","204248","0.0-52.0","611994820071da2beee434ea","665500ab8938657b03fbdba8","6657783451cf2402886e5d7e","675","stimuli/21111010.jpg"," ","","feedback_trial","0","","","","","","","","","","","","","","","","","","","","",""
"","","","","","image-keyboard-response","78","206362","0.0-53.0","611994820071da2beee434ea","665500ab8938657b03fbdba8","6657783451cf2402886e5d7e","2112","stimuli/0101000.jpg","0","","prediction_trial","2","","false","","0","true","true","false","false","false","false","[2,0]","101","000","0","","","","","","",""
"","","","","","image-keyboard-response","79","206954","0.0-54.0","611994820071da2beee434ea","665500ab8938657b03fbdba8","6657783451cf2402886e5d7e","590","stimuli/01010002.jpg"," ","","feedback_trial","2","","","","","","","","","","","","","","","","","","","","",""
"","","","","","image-keyboard-response","80","211260","0.0-55.0","611994820071da2beee434ea","665500ab8938657b03fbdba8","6657783451cf2402886e5d7e","4305","stimuli/2010101.jpg","2","","prediction_trial","2","","true","","2","false","false","true","true","false","false","[2]","010","101","1","","","","","","",""
"","","","","","image-keyboard-response","81","211910","0.0-56.0","611994820071da2beee434ea","665500ab8938657b03fbdba8","6657783451cf2402886e5d7e","648","stimuli/20101012.jpg"," ","","feedback_trial","2","","","","","","","","","","","","","","","","","","","","",""
"","","","","","image-keyboard-response","82","214787","0.0-57.0","611994820071da2beee434ea","665500ab8938657b03fbdba8","6657783451cf2402886e5d7e","2875","stimuli/1001010.jpg","1","","prediction_trial","1","","true","","1","false","true","true","true","false","true","[1]","001","010","1","","","","","","",""
"","","","","","image-keyboard-response","83","215274","0.0-58.0","611994820071da2beee434ea","665500ab8938657b03fbdba8","6657783451cf2402886e5d7e","485","stimuli/10010101.jpg"," ","","feedback_trial","1","","","","","","","","","","","","","","","","","","","","",""
"","","","","","image-keyboard-response","84","216646","0.0-59.0","611994820071da2beee434ea","665500ab8938657b03fbdba8","6657783451cf2402886e5d7e","1370","stimuli/0001001.jpg","0","","prediction_trial","0","","true","","0","true","true","true","true","true","true","[0]","001","001","1","","","","","","",""
"","","","","","image-keyboard-response","85","216999","0.0-60.0","611994820071da2beee434ea","665500ab8938657b03fbdba8","6657783451cf2402886e5d7e","351","stimuli/00010010.jpg"," ","","feedback_trial","0","","","","","","","","","","","","","","","","","","","","",""
"","","","","","image-keyboard-response","86","218526","0.0-61.0","611994820071da2beee434ea","665500ab8938657b03fbdba8","6657783451cf2402886e5d7e","1526","stimuli/2100011.jpg","1","","prediction_trial","2","","false","","2","false","false","true","true","false","false","[2]","100","011","0","","","","","","",""
"","","","","","image-keyboard-response","87","219179","0.0-62.0","611994820071da2beee434ea","665500ab8938657b03fbdba8","6657783451cf2402886e5d7e","651","stimuli/21000112.jpg"," ","","feedback_trial","2","","","","","","","","","","","","","","","","","","","","",""
"","","","","","image-keyboard-response","88","220782","0.0-63.0","611994820071da2beee434ea","665500ab8938657b03fbdba8","6657783451cf2402886e5d7e","1603","stimuli/0100000.jpg","0","","prediction_trial","0","","true","","0","true","true","false","true","false","true","[0]","100","000","1","","","","","","",""
"","","","","","image-keyboard-response","89","221125","0.0-64.0","611994820071da2beee434ea","665500ab8938657b03fbdba8","6657783451cf2402886e5d7e","341","stimuli/01000000.jpg"," ","","feedback_trial","0","","","","","","","","","","","","","","","","","","","","",""
"","","","","","image-keyboard-response","90","222192","0.0-65.0","611994820071da2beee434ea","665500ab8938657b03fbdba8","6657783451cf2402886e5d7e","1065","stimuli/0010000.jpg","0","","prediction_trial","0","","true","","0","true","true","true","true","true","true","[0]","010","000","1","","","","","","",""
"","","","","","image-keyboard-response","91","222537","0.0-66.0","611994820071da2beee434ea","665500ab8938657b03fbdba8","6657783451cf2402886e5d7e","344","stimuli/00100000.jpg"," ","","feedback_trial","0","","","","","","","","","","","","","","","","","","","","",""
"","","","","","image-keyboard-response","92","223498","0.0-67.0","611994820071da2beee434ea","665500ab8938657b03fbdba8","6657783451cf2402886e5d7e","959","stimuli/2010000.jpg","2","","prediction_trial","2","","true","","2","true","true","true","true","true","true","[2]","010","000","1","","","","","","",""
"","","","","","image-keyboard-response","93","223763","0.0-68.0","611994820071da2beee434ea","665500ab8938657b03fbdba8","6657783451cf2402886e5d7e","264","stimuli/20100002.jpg"," ","","feedback_trial","2","","","","","","","","","","","","","","","","","","","","",""
"","","","","","image-keyboard-response","94","224501","0.0-69.0","611994820071da2beee434ea","665500ab8938657b03fbdba8","6657783451cf2402886e5d7e","736","stimuli/1100101.jpg","1","","prediction_trial","1","","true","","1","true","true","true","true","true","true","[1]","100","101","1","","","","","","",""
"","","","","","image-keyboard-response","95","224769","0.0-70.0","611994820071da2beee434ea","665500ab8938657b03fbdba8","6657783451cf2402886e5d7e","266","stimuli/11001011.jpg"," ","","feedback_trial","1","","","","","","","","","","","","","","","","","","","","",""
"","","","","","image-keyboard-response","96","226198","0.0-71.0","611994820071da2beee434ea","665500ab8938657b03fbdba8","6657783451cf2402886e5d7e","1427","stimuli/2101011.jpg","1","","prediction_trial","2","","false","","2","false","false","false","false","false","false","[2,0]","101","011","0","","","","","","",""
"","","","","","image-keyboard-response","97","226994","0.0-72.0","611994820071da2beee434ea","665500ab8938657b03fbdba8","6657783451cf2402886e5d7e","795","stimuli/21010112.jpg"," ","","feedback_trial","2","","","","","","","","","","","","","","","","","","","","",""
"","","","","","image-keyboard-response","98","228236","0.0-73.0","611994820071da2beee434ea","665500ab8938657b03fbdba8","6657783451cf2402886e5d7e","1241","stimuli/0100111.jpg","2","","prediction_trial","0","","false","","0","false","false","false","true","false","false","[0]","100","111","0","","","","","","",""
"","","","","","image-keyboard-response","99","228684","0.0-74.0","611994820071da2beee434ea","665500ab8938657b03fbdba8","6657783451cf2402886e5d7e","446","stimuli/01001110.jpg"," ","","feedback_trial","0","","","","","","","","","","","","","","","","","","","","",""
"","","","","","image-keyboard-response","100","232337","0.0-75.0","611994820071da2beee434ea","665500ab8938657b03fbdba8","6657783451cf2402886e5d7e","3652","stimuli/1110011.jpg","0","","prediction_trial","1","","false","","1","false","false","false","false","false","false","[0,1]","110","011","0","","","","","","",""
"","","","","","image-keyboard-response","101","232907","0.0-76.0","611994820071da2beee434ea","665500ab8938657b03fbdba8","6657783451cf2402886e5d7e","568","stimuli/11100111.jpg"," ","","feedback_trial","0","","","","","","","","","","","","","","","","","","","","",""
"","","","","","image-keyboard-response","102","235170","0.0-77.0","611994820071da2beee434ea","665500ab8938657b03fbdba8","6657783451cf2402886e5d7e","2262","stimuli/0001101.jpg","2","","prediction_trial","0","","false","","0","false","false","true","true","false","false","[0]","001","101","0","","","","","","",""
"","","","","","image-keyboard-response","103","235699","0.0-78.0","611994820071da2beee434ea","665500ab8938657b03fbdba8","6657783451cf2402886e5d7e","527","stimuli/00011010.jpg"," ","","feedback_trial","0","","","","","","","","","","","","","","","","","","","","",""
"","","","","","image-keyboard-response","104","236435","0.0-79.0","611994820071da2beee434ea","665500ab8938657b03fbdba8","6657783451cf2402886e5d7e","734","stimuli/1000001.jpg","1","","prediction_trial","1","","true","","1","true","true","true","true","true","true","[1]","000","001","1","","","","","","",""
"","","","","","image-keyboard-response","105","236765","0.0-80.0","611994820071da2beee434ea","665500ab8938657b03fbdba8","6657783451cf2402886e5d7e","328","stimuli/10000011.jpg"," ","","feedback_trial","1","","","","","","","","","","","","","","","","","","","","",""
"","","","","","image-keyboard-response","106","237410","0.0-81.0","611994820071da2beee434ea","665500ab8938657b03fbdba8","6657783451cf2402886e5d7e","644","stimuli/0000011.jpg","0","","prediction_trial","0","","true","","0","true","true","true","true","true","true","[0]","000","011","1","","","","","","",""
"","","","","","image-keyboard-response","107","237709","0.0-82.0","611994820071da2beee434ea","665500ab8938657b03fbdba8","6657783451cf2402886e5d7e","297","stimuli/00000110.jpg"," ","","feedback_trial","0","","","","","","","","","","","","","","","","","","","","",""
"","","","","","image-keyboard-response","108","240267","0.0-83.0","611994820071da2beee434ea","665500ab8938657b03fbdba8","6657783451cf2402886e5d7e","2557","stimuli/0000101.jpg","2","","prediction_trial","0","","false","","0","false","false","true","true","false","false","[0]","000","101","0","","","","","","",""
"","","","","","image-keyboard-response","109","240823","0.0-84.0","611994820071da2beee434ea","665500ab8938657b03fbdba8","6657783451cf2402886e5d7e","555","stimuli/00001010.jpg"," ","","feedback_trial","0","","","","","","","","","","","","","","","","","","","","",""
"","","","","","image-keyboard-response","110","242686","0.0-85.0","611994820071da2beee434ea","665500ab8938657b03fbdba8","6657783451cf2402886e5d7e","1865","stimuli/2001010.jpg","1","","prediction_trial","2","","false","","2","true","true","false","true","false","true","[2]","001","010","0","","","","","","",""
"","","","","","image-keyboard-response","111","244569","0.0-86.0","611994820071da2beee434ea","665500ab8938657b03fbdba8","6657783451cf2402886e5d7e","1881","stimuli/20010102.jpg"," ","","feedback_trial","2","","","","","","","","","","","","","","","","","","","","",""
"","","","","","image-keyboard-response","112","249856","0.0-87.0","611994820071da2beee434ea","665500ab8938657b03fbdba8","6657783451cf2402886e5d7e","5285","stimuli/1111001.jpg","1","","prediction_trial","0","","false","","1","true","true","false","false","false","false","[0,1,2]","111","001","0","","","","","","",""
"","","","","","image-keyboard-response","113","250480","0.0-88.0","611994820071da2beee434ea","665500ab8938657b03fbdba8","6657783451cf2402886e5d7e","622","stimuli/11110010.jpg"," ","","feedback_trial","0","","","","","","","","","","","","","","","","","","","","",""
"","","","","","image-keyboard-response","114","253416","0.0-89.0","611994820071da2beee434ea","665500ab8938657b03fbdba8","6657783451cf2402886e5d7e","2934","stimuli/2110001.jpg","2","","prediction_trial","2","","true","","2","false","true","true","true","false","true","[2]","110","001","1","","","","","","",""
"","","","","","image-keyboard-response","115","253909","0.0-90.0","611994820071da2beee434ea","665500ab8938657b03fbdba8","6657783451cf2402886e5d7e","491","stimuli/21100012.jpg"," ","","feedback_trial","2","","","","","","","","","","","","","","","","","","","","",""
"","","","","","image-keyboard-response","116","254991","0.0-91.0","611994820071da2beee434ea","665500ab8938657b03fbdba8","6657783451cf2402886e5d7e","1081","stimuli/1100000.jpg","1","","prediction_trial","1","","true","","1","true","true","true","true","true","true","[1]","100","000","1","","","","","","",""
"","","","","","image-keyboard-response","117","255283","0.0-92.0","611994820071da2beee434ea","665500ab8938657b03fbdba8","6657783451cf2402886e5d7e","291","stimuli/11000001.jpg"," ","","feedback_trial","1","","","","","","","","","","","","","","","","","","","","",""
"","","","","","image-keyboard-response","118","260181","0.0-93.0","611994820071da2beee434ea","665500ab8938657b03fbdba8","6657783451cf2402886e5d7e","4897","stimuli/1001110.jpg","1","","prediction_trial","1","","true","","1","false","false","true","true","false","false","[1]","001","110","1","","","","","","",""
"","","","","","image-keyboard-response","119","260849","0.0-94.0","611994820071da2beee434ea","665500ab8938657b03fbdba8","6657783451cf2402886e5d7e","666","stimuli/10011101.jpg"," ","","feedback_trial","1","","","","","","","","","","","","","","","","","","","","",""
"","","","","","image-keyboard-response","120","263872","0.0-95.0","611994820071da2beee434ea","665500ab8938657b03fbdba8","6657783451cf2402886e5d7e","3022","stimuli/1011010.jpg","1","","prediction_trial","1","","true","","1","false","true","false","false","false","false","[2,1]","011","010","1","","","","","","",""
"","","","","","image-keyboard-response","121","264443","0.0-96.0","611994820071da2beee434ea","665500ab8938657b03fbdba8","6657783451cf2402886e5d7e","569","stimuli/10110101.jpg"," ","","feedback_trial","2","","","","","","","","","","","","","","","","","","","","",""
"","","","","","image-keyboard-response","122","265714","0.0-97.0","611994820071da2beee434ea","665500ab8938657b03fbdba8","6657783451cf2402886e5d7e","1269","stimuli/0000000.jpg","0","","prediction_trial","0","","true","","0","true","true","true","true","true","true","[0]","000","000","1","","","","","","",""
"","","","","","image-keyboard-response","123","266037","0.0-98.0","611994820071da2beee434ea","665500ab8938657b03fbdba8","6657783451cf2402886e5d7e","321","stimuli/00000000.jpg"," ","","feedback_trial","0","","","","","","","","","","","","","","","","","","","","",""
"","","","","","image-keyboard-response","124","269991","0.0-99.0","611994820071da2beee434ea","665500ab8938657b03fbdba8","6657783451cf2402886e5d7e","3953","stimuli/2101100.jpg","2","","prediction_trial","0","","false","","2","true","true","false","false","false","false","[0,2]","101","100","0","","","","","","",""
"","","","","","image-keyboard-response","125","270619","0.0-100.0","611994820071da2beee434ea","665500ab8938657b03fbdba8","6657783451cf2402886e5d7e","626","stimuli/21011000.jpg"," ","","feedback_trial","0","","","","","","","","","","","","","","","","","","","","",""
"","","","","","image-keyboard-response","126","272361","0.0-101.0","611994820071da2beee434ea","665500ab8938657b03fbdba8","6657783451cf2402886e5d7e","1741","stimuli/0001111.jpg","1","","prediction_trial","0","","false","","0","false","false","true","true","false","false","[0]","001","111","0","","","","","","",""
"","","","","","image-keyboard-response","127","272925","0.0-102.0","611994820071da2beee434ea","665500ab8938657b03fbdba8","6657783451cf2402886e5d7e","562","stimuli/00011110.jpg"," ","","feedback_trial","0","","","","","","","","","","","","","","","","","","","","",""
"","","","","","image-keyboard-response","128","273675","0.0-103.0","611994820071da2beee434ea","665500ab8938657b03fbdba8","6657783451cf2402886e5d7e","749","stimuli/0011011.jpg","0","","prediction_trial","0","","true","","0","true","true","true","true","true","true","[0]","011","011","1","","","","","","",""
"","","","","","image-keyboard-response","129","274028","0.0-104.0","611994820071da2beee434ea","665500ab8938657b03fbdba8","6657783451cf2402886e5d7e","352","stimuli/00110110.jpg"," ","","feedback_trial","0","","","","","","","","","","","","","","","","","","","","",""
"","","","","","image-keyboard-response","130","276049","0.0-105.0","611994820071da2beee434ea","665500ab8938657b03fbdba8","6657783451cf2402886e5d7e","2020","stimuli/0011100.jpg","0","","prediction_trial","0","","true","","0","false","true","true","true","false","true","[0]","011","100","1","","","","","","",""
"","","","","","image-keyboard-response","131","276759","0.0-106.0","611994820071da2beee434ea","665500ab8938657b03fbdba8","6657783451cf2402886e5d7e","707","stimuli/00111000.jpg"," ","","feedback_trial","0","","","","","","","","","","","","","","","","","","","","",""
"","","","","","image-keyboard-response","132","277674","0.0-107.0","611994820071da2beee434ea","665500ab8938657b03fbdba8","6657783451cf2402886e5d7e","914","stimuli/1001111.jpg","1","","prediction_trial","1","","true","","1","false","false","true","true","false","false","[1]","001","111","1","","","","","","",""
"","","","","","image-keyboard-response","133","278502","0.0-108.0","611994820071da2beee434ea","665500ab8938657b03fbdba8","6657783451cf2402886e5d7e","826","stimuli/10011111.jpg"," ","","feedback_trial","1","","","","","","","","","","","","","","","","","","","","",""
"","","","","","image-keyboard-response","134","280019","0.0-109.0","611994820071da2beee434ea","665500ab8938657b03fbdba8","6657783451cf2402886e5d7e","1516","stimuli/0111001.jpg","0","","prediction_trial","1","","false","","0","true","true","false","false","false","false","[1,2,0]","111","001","0","","","","","","",""
"","","","","","image-keyboard-response","135","280788","0.0-110.0","611994820071da2beee434ea","665500ab8938657b03fbdba8","6657783451cf2402886e5d7e","767","stimuli/01110011.jpg"," ","","feedback_trial","1","","","","","","","","","","","","","","","","","","","","",""
"","","","","","image-keyboard-response","136","284182","0.0-111.0","611994820071da2beee434ea","665500ab8938657b03fbdba8","6657783451cf2402886e5d7e","3392","stimuli/0001100.jpg","0","","prediction_trial","0","","true","","0","false","true","true","true","false","true","[0]","001","100","1","","","","","","",""
"","","","","","image-keyboard-response","137","284933","0.0-112.0","611994820071da2beee434ea","665500ab8938657b03fbdba8","6657783451cf2402886e5d7e","749","stimuli/00011000.jpg"," ","","feedback_trial","0","","","","","","","","","","","","","","","","","","","","",""
"","","","","","image-keyboard-response","138","287499","0.0-113.0","611994820071da2beee434ea","665500ab8938657b03fbdba8","6657783451cf2402886e5d7e","2565","stimuli/2101000.jpg","2","","prediction_trial","2","","true","","2","true","true","false","false","false","false","[2,0]","101","000","1","","","","","","",""
"","","","","","image-keyboard-response","139","287978","0.0-114.0","611994820071da2beee434ea","665500ab8938657b03fbdba8","6657783451cf2402886e5d7e","478","stimuli/21010002.jpg"," ","","feedback_trial","2","","","","","","","","","","","","","","","","","","","","",""
"","","","","","image-keyboard-response","140","288801","0.0-115.0","611994820071da2beee434ea","665500ab8938657b03fbdba8","6657783451cf2402886e5d7e","821","stimuli/1000100.jpg","1","","prediction_trial","1","","true","","1","true","true","true","true","true","true","[1]","000","100","1","","","","","","",""
"","","","","","image-keyboard-response","141","289433","0.0-116.0","611994820071da2beee434ea","665500ab8938657b03fbdba8","6657783451cf2402886e5d7e","630","stimuli/10001001.jpg"," ","","feedback_trial","1","","","","","","","","","","","","","","","","","","","","",""
"","","","","","image-keyboard-response","142","290406","0.0-117.0","611994820071da2beee434ea","665500ab8938657b03fbdba8","6657783451cf2402886e5d7e","972","stimuli/2100010.jpg","2","","prediction_trial","2","","true","","2","true","true","true","true","true","true","[2]","100","010","1","","","","","","",""
"","","","","","image-keyboard-response","143","290793","0.0-118.0","611994820071da2beee434ea","665500ab8938657b03fbdba8","6657783451cf2402886e5d7e","386","stimuli/21000102.jpg"," ","","feedback_trial","2","","","","","","","","","","","","","","","","","","","","",""
"","","","","","image-keyboard-response","144","291401","0.0-119.0","611994820071da2beee434ea","665500ab8938657b03fbdba8","6657783451cf2402886e5d7e","606","stimuli/2000000.jpg","2","","prediction_trial","2","","true","","2","true","true","true","true","true","true","[2]","000","000","1","","","","","","",""
"","","","","","image-keyboard-response","145","291789","0.0-120.0","611994820071da2beee434ea","665500ab8938657b03fbdba8","6657783451cf2402886e5d7e","387","stimuli/20000002.jpg"," ","","feedback_trial","2","","","","","","","","","","","","","","","","","","","","",""
"","","","","","image-keyboard-response","146","292440","0.0-121.0","611994820071da2beee434ea","665500ab8938657b03fbdba8","6657783451cf2402886e5d7e","650","stimuli/1100100.jpg","1","","prediction_trial","1","","true","","1","true","true","true","true","true","true","[1]","100","100","1","","","","","","",""
"","","","","","image-keyboard-response","147","292834","0.0-122.0","611994820071da2beee434ea","665500ab8938657b03fbdba8","6657783451cf2402886e5d7e","392","stimuli/11001001.jpg"," ","","feedback_trial","1","","","","","","","","","","","","","","","","","","","","",""
"","","","","","image-keyboard-response","148","294956","0.0-123.0","611994820071da2beee434ea","665500ab8938657b03fbdba8","6657783451cf2402886e5d7e","2121","stimuli/1000010.jpg","1","","prediction_trial","1","","true","","1","false","true","true","true","false","true","[1]","000","010","1","","","","","","",""
"","","","","","image-keyboard-response","149","295504","0.0-124.0","611994820071da2beee434ea","665500ab8938657b03fbdba8","6657783451cf2402886e5d7e","546","stimuli/10000101.jpg"," ","","feedback_trial","1","","","","","","","","","","","","","","","","","","","","",""
"","","","","","image-keyboard-response","150","296601","0.0-125.0","611994820071da2beee434ea","665500ab8938657b03fbdba8","6657783451cf2402886e5d7e","1096","stimuli/0010011.jpg","0","","prediction_trial","0","","true","","0","true","true","true","true","true","true","[0]","010","011","1","","","","","","",""
"","","","","","image-keyboard-response","151","296928","0.0-126.0","611994820071da2beee434ea","665500ab8938657b03fbdba8","6657783451cf2402886e5d7e","326","stimuli/00100110.jpg"," ","","feedback_trial","0","","","","","","","","","","","","","","","","","","","","",""
"","","","","","image-keyboard-response","152","297951","0.0-127.0","611994820071da2beee434ea","665500ab8938657b03fbdba8","6657783451cf2402886e5d7e","1021","stimuli/2100110.jpg","2","","prediction_trial","2","","true","","2","true","true","true","true","true","true","[2]","100","110","1","","","","","","",""
"","","","","","image-keyboard-response","153","298189","0.0-128.0","611994820071da2beee434ea","665500ab8938657b03fbdba8","6657783451cf2402886e5d7e","237","stimuli/21001102.jpg"," ","","feedback_trial","2","","","","","","","","","","","","","","","","","","","","",""
"","","","","","image-keyboard-response","154","299871","0.0-129.0","611994820071da2beee434ea","665500ab8938657b03fbdba8","6657783451cf2402886e5d7e","1681","stimuli/0000100.jpg","0","","prediction_trial","0","","true","","0","false","true","true","true","false","true","[0]","000","100","1","","","","","","",""
"","","","","","image-keyboard-response","155","300384","0.0-130.0","611994820071da2beee434ea","665500ab8938657b03fbdba8","6657783451cf2402886e5d7e","512","stimuli/00001000.jpg"," ","","feedback_trial","0","","","","","","","","","","","","","","","","","","","","",""
"","","","","","image-keyboard-response","156","301210","0.0-131.0","611994820071da2beee434ea","665500ab8938657b03fbdba8","6657783451cf2402886e5d7e","824","stimuli/0000010.jpg","0","","prediction_trial","0","","true","","0","true","true","true","true","true","true","[0]","000","010","1","","","","","","",""
"","","","","","image-keyboard-response","157","301493","0.0-132.0","611994820071da2beee434ea","665500ab8938657b03fbdba8","6657783451cf2402886e5d7e","281","stimuli/00000100.jpg"," ","","feedback_trial","0","","","","","","","","","","","","","","","","","","","","",""
"","","","","","image-keyboard-response","158","302854","0.0-133.0","611994820071da2beee434ea","665500ab8938657b03fbdba8","6657783451cf2402886e5d7e","1355","stimuli/1111111.jpg","1","","prediction_trial","1","","true","","1","false","false","false","false","false","false","[2,0,1]","111","111","1","","","","","","",""
"","","","","","image-keyboard-response","159","303407","0.0-134.0","611994820071da2beee434ea","665500ab8938657b03fbdba8","6657783451cf2402886e5d7e","552","stimuli/11111111.jpg"," ","","feedback_trial","2","","","","","","","","","","","","","","","","","","","","",""
"","","","","","image-keyboard-response","160","305975","0.0-135.0","611994820071da2beee434ea","665500ab8938657b03fbdba8","6657783451cf2402886e5d7e","2566","stimuli/1110001.jpg","1","","prediction_trial","0","","false","","1","true","true","false","false","false","false","[0,1]","110","001","0","","","","","","",""
"","","","","","image-keyboard-response","161","306468","0.0-136.0","611994820071da2beee434ea","665500ab8938657b03fbdba8","6657783451cf2402886e5d7e","492","stimuli/11100010.jpg"," ","","feedback_trial","0","","","","","","","","","","","","","","","","","","","","",""
"","","","","","image-keyboard-response","162","308810","0.0-137.0","611994820071da2beee434ea","665500ab8938657b03fbdba8","6657783451cf2402886e5d7e","2340","stimuli/0001110.jpg","1","","prediction_trial","0","","false","","0","false","false","true","true","false","false","[0]","001","110","0","","","","","","",""
"","","","","","image-keyboard-response","163","309354","0.0-138.0","611994820071da2beee434ea","665500ab8938657b03fbdba8","6657783451cf2402886e5d7e","542","stimuli/00011100.jpg"," ","","feedback_trial","0","","","","","","","","","","","","","","","","","","","","",""
"","","","","","image-keyboard-response","164","310591","0.0-139.0","611994820071da2beee434ea","665500ab8938657b03fbdba8","6657783451cf2402886e5d7e","1235","stimuli/2111000.jpg","2","","prediction_trial","2","","true","","2","true","true","false","false","false","false","[1,2,0]","111","000","1","","","","","","",""
"","","","","","image-keyboard-response","165","311043","0.0-140.0","611994820071da2beee434ea","665500ab8938657b03fbdba8","6657783451cf2402886e5d7e","451","stimuli/21110002.jpg"," ","","feedback_trial","1","","","","","","","","","","","","","","","","","","","","",""
"","","","","","image-keyboard-response","166","313030","0.0-141.0","611994820071da2beee434ea","665500ab8938657b03fbdba8","6657783451cf2402886e5d7e","1985","stimuli/1100010.jpg","1","","prediction_trial","1","","true","","1","false","true","true","true","false","true","[1]","100","010","1","","","","","","",""
"","","","","","image-keyboard-response","167","313444","0.0-142.0","611994820071da2beee434ea","665500ab8938657b03fbdba8","6657783451cf2402886e5d7e","412","stimuli/11000101.jpg"," ","","feedback_trial","1","","","","","","","","","","","","","","","","","","","","",""
"","","","","","image-keyboard-response","168","315296","0.0-143.0","611994820071da2beee434ea","665500ab8938657b03fbdba8","6657783451cf2402886e5d7e","1851","stimuli/0110000.jpg","0","","prediction_trial","1","","false","","0","true","true","false","false","false","false","[1,0]","110","000","0","","","","","","",""
"","","","","","image-keyboard-response","169","315717","0.0-144.0","611994820071da2beee434ea","665500ab8938657b03fbdba8","6657783451cf2402886e5d7e","419","stimuli/01100001.jpg"," ","","feedback_trial","1","","","","","","","","","","","","","","","","","","","","",""
"","","","","","image-keyboard-response","170","316660","0.0-145.0","611994820071da2beee434ea","665500ab8938657b03fbdba8","6657783451cf2402886e5d7e","942","stimuli/1101000.jpg","1","","prediction_trial","1","","true","","1","true","true","true","true","true","true","[1]","101","000","1","","","","","","",""
"","","","","","image-keyboard-response","171","317048","0.0-146.0","611994820071da2beee434ea","665500ab8938657b03fbdba8","6657783451cf2402886e5d7e","386","stimuli/11010001.jpg"," ","","feedback_trial","1","","","","","","","","","","","","","","","","","","","","",""
"","","","","","image-keyboard-response","172","318228","0.0-147.0","611994820071da2beee434ea","665500ab8938657b03fbdba8","6657783451cf2402886e5d7e","1179","stimuli/1010000.jpg","1","","prediction_trial","1","","true","","1","true","true","false","true","false","true","[1]","010","000","1","","","","","","",""
"","","","","","image-keyboard-response","173","318556","0.0-148.0","611994820071da2beee434ea","665500ab8938657b03fbdba8","6657783451cf2402886e5d7e","327","stimuli/10100001.jpg"," ","","feedback_trial","1","","","","","","","","","","","","","","","","","","","","",""
"","","","","","image-keyboard-response","174","319699","0.0-149.0","611994820071da2beee434ea","665500ab8938657b03fbdba8","6657783451cf2402886e5d7e","1142","stimuli/0010100.jpg","0","","prediction_trial","0","","true","","0","false","true","true","true","false","true","[0]","010","100","1","","","","","","",""
"","","","","","image-keyboard-response","175","320016","0.0-150.0","611994820071da2beee434ea","665500ab8938657b03fbdba8","6657783451cf2402886e5d7e","315","stimuli/00101000.jpg"," ","","feedback_trial","0","","","","","","","","","","","","","","","","","","","","",""
"","","","","","image-keyboard-response","176","323793","0.0-151.0","611994820071da2beee434ea","665500ab8938657b03fbdba8","6657783451cf2402886e5d7e","3775","stimuli/0100110.jpg","1","","prediction_trial","0","","false","","0","false","false","false","true","false","false","[0]","100","110","0","","","","","","",""
"","","","","","image-keyboard-response","177","324440","0.0-152.0","611994820071da2beee434ea","665500ab8938657b03fbdba8","6657783451cf2402886e5d7e","645","stimuli/01001100.jpg"," ","","feedback_trial","0","","","","","","","","","","","","","","","","","","","","",""
"","","","","","image-keyboard-response","178","326983","0.0-153.0","611994820071da2beee434ea","665500ab8938657b03fbdba8","6657783451cf2402886e5d7e","2543","stimuli/1111011.jpg","1","","prediction_trial","1","","true","","1","false","false","false","false","false","false","[0,2,1]","111","011","1","","","","","","",""
"","","","","","image-keyboard-response","179","327386","0.0-154.0","611994820071da2beee434ea","665500ab8938657b03fbdba8","6657783451cf2402886e5d7e","401","stimuli/11110111.jpg"," ","","feedback_trial","0","","","","","","","","","","","","","","","","","","","","",""
"","","","","","image-keyboard-response","180","328362","0.0-155.0","611994820071da2beee434ea","665500ab8938657b03fbdba8","6657783451cf2402886e5d7e","975","stimuli/0001011.jpg","0","","prediction_trial","0","","true","","0","true","true","true","true","true","true","[0]","001","011","1","","","","","","",""
"","","","","","image-keyboard-response","181","328667","0.0-156.0","611994820071da2beee434ea","665500ab8938657b03fbdba8","6657783451cf2402886e5d7e","303","stimuli/00010110.jpg"," ","","feedback_trial","0","","","","","","","","","","","","","","","","","","","","",""
"","","","","","image-keyboard-response","182","330499","0.0-157.0","611994820071da2beee434ea","665500ab8938657b03fbdba8","6657783451cf2402886e5d7e","1831","stimuli/2111110.jpg","2","","prediction_trial","2","","true","","2","true","true","false","false","false","false","[1,2,0]","111","110","1","","","","","","",""
"","","","","","image-keyboard-response","183","330906","0.0-158.0","611994820071da2beee434ea","665500ab8938657b03fbdba8","6657783451cf2402886e5d7e","405","stimuli/21111102.jpg"," ","","feedback_trial","1","","","","","","","","","","","","","","","","","","","","",""
"","","","","","image-keyboard-response","184","333469","0.0-159.0","611994820071da2beee434ea","665500ab8938657b03fbdba8","6657783451cf2402886e5d7e","2562","stimuli/1100111.jpg","1","","prediction_trial","1","","true","","1","false","false","true","true","false","false","[1]","100","111","1","","","","","","",""
"","","","","","image-keyboard-response","185","333977","0.0-160.0","611994820071da2beee434ea","665500ab8938657b03fbdba8","6657783451cf2402886e5d7e","506","stimuli/11001111.jpg"," ","","feedback_trial","1","","","","","","","","","","","","","","","","","","","","",""
"","","","","","image-keyboard-response","186","334940","0.0-161.0","611994820071da2beee434ea","665500ab8938657b03fbdba8","6657783451cf2402886e5d7e","962","stimuli/1001001.jpg","1","","prediction_trial","1","","true","","1","true","true","true","true","true","true","[1]","001","001","1","","","","","","",""
"","","","","","image-keyboard-response","187","335213","0.0-162.0","611994820071da2beee434ea","665500ab8938657b03fbdba8","6657783451cf2402886e5d7e","271","stimuli/10010011.jpg"," ","","feedback_trial","1","","","","","","","","","","","","","","","","","","","","",""
"","","","","","image-keyboard-response","188","336403","0.0-163.0","611994820071da2beee434ea","665500ab8938657b03fbdba8","6657783451cf2402886e5d7e","1189","stimuli/1010010.jpg","1","","prediction_trial","1","","true","","1","false","true","false","true","false","true","[1]","010","010","1","","","","","","",""
"","","","","","image-keyboard-response","189","336671","0.0-164.0","611994820071da2beee434ea","665500ab8938657b03fbdba8","6657783451cf2402886e5d7e","266","stimuli/10100101.jpg"," ","","feedback_trial","1","","","","","","","","","","","","","","","","","","","","",""
"","","","","","image-keyboard-response","190","338390","0.0-165.0","611994820071da2beee434ea","665500ab8938657b03fbdba8","6657783451cf2402886e5d7e","1718","stimuli/2001111.jpg","1","","prediction_trial","2","","false","","2","false","false","false","true","false","false","[2]","001","111","0","","","","","","",""
"","","","","","image-keyboard-response","191","339003","0.0-166.0","611994820071da2beee434ea","665500ab8938657b03fbdba8","6657783451cf2402886e5d7e","611","stimuli/20011112.jpg"," ","","feedback_trial","2","","","","","","","","","","","","","","","","","","","","",""
"","","","","","image-keyboard-response","192","340139","0.0-167.0","611994820071da2beee434ea","665500ab8938657b03fbdba8","6657783451cf2402886e5d7e","1135","stimuli/2111111.jpg","1","","prediction_trial","0","","false","","2","false","false","false","false","false","false","[2,1,0]","111","111","0","","","","","","",""
"","","","","","image-keyboard-response","193","340658","0.0-168.0","611994820071da2beee434ea","665500ab8938657b03fbdba8","6657783451cf2402886e5d7e","517","stimuli/21111110.jpg"," ","","feedback_trial","2","","","","","","","","","","","","","","","","","","","","",""
"","","","","","image-keyboard-response","194","342583","0.0-169.0","611994820071da2beee434ea","665500ab8938657b03fbdba8","6657783451cf2402886e5d7e","1918","stimuli/2101101.jpg","0","","prediction_trial","2","","false","","2","false","false","false","false","false","false","[2,0]","101","101","0","","","","","","",""
"","","","","","image-keyboard-response","195","343208","0.0-170.0","611994820071da2beee434ea","665500ab8938657b03fbdba8","6657783451cf2402886e5d7e","623","stimuli/21011012.jpg"," ","","feedback_trial","2","","","","","","","","","","","","","","","","","","","","",""
"","","","","","image-keyboard-response","196","344789","0.0-171.0","611994820071da2beee434ea","665500ab8938657b03fbdba8","6657783451cf2402886e5d7e","1579","stimuli/1110010.jpg","1","","prediction_trial","1","","true","","1","false","true","false","false","false","false","[0,1]","110","010","1","","","","","","",""
"","","","","","image-keyboard-response","197","345136","0.0-172.0","611994820071da2beee434ea","665500ab8938657b03fbdba8","6657783451cf2402886e5d7e","346","stimuli/11100101.jpg"," ","","feedback_trial","0","","","","","","","","","","","","","","","","","","","","",""
"","","","","","image-keyboard-response","198","347313","0.0-173.0","611994820071da2beee434ea","665500ab8938657b03fbdba8","6657783451cf2402886e5d7e","2176","stimuli/1010001.jpg","1","","prediction_trial","1","","true","","1","true","true","false","true","false","true","[1]","010","001","1","","","","","","",""
"","","","","","image-keyboard-response","199","347701","0.0-174.0","611994820071da2beee434ea","665500ab8938657b03fbdba8","6657783451cf2402886e5d7e","386","stimuli/10100011.jpg"," ","","feedback_trial","1","","","","","","","","","","","","","","","","","","","","",""
"","","","","","image-keyboard-response","200","349119","0.0-175.0","611994820071da2beee434ea","665500ab8938657b03fbdba8","6657783451cf2402886e5d7e","1417","stimuli/1011000.jpg","1","","prediction_trial","2","","false","","1","true","true","false","false","false","false","[1,2]","011","000","0","","","","","","",""
"","","","","","image-keyboard-response","201","349661","0.0-176.0","611994820071da2beee434ea","665500ab8938657b03fbdba8","6657783451cf2402886e5d7e","540","stimuli/10110002.jpg"," ","","feedback_trial","1","","","","","","","","","","","","","","","","","","","","",""
"","","","","","image-keyboard-response","202","350612","0.0-177.0","611994820071da2beee434ea","665500ab8938657b03fbdba8","6657783451cf2402886e5d7e","950","stimuli/0011010.jpg","0","","prediction_trial","0","","true","","0","true","true","true","true","true","true","[0]","011","010","1","","","","","","",""
"","","","","","image-keyboard-response","203","350897","0.0-178.0","611994820071da2beee434ea","665500ab8938657b03fbdba8","6657783451cf2402886e5d7e","282","stimuli/00110100.jpg"," ","","feedback_trial","0","","","","","","","","","","","","","","","","","","","","",""
"","","","","","image-keyboard-response","204","354164","0.0-179.0","611994820071da2beee434ea","665500ab8938657b03fbdba8","6657783451cf2402886e5d7e","3266","stimuli/2101001.jpg","2","","prediction_trial","2","","true","","2","false","true","false","false","false","false","[2,0]","101","001","1","","","","","","",""
"","","","","","image-keyboard-response","205","354731","0.0-180.0","611994820071da2beee434ea","665500ab8938657b03fbdba8","6657783451cf2402886e5d7e","565","stimuli/21010012.jpg"," ","","feedback_trial","2","","","","","","","","","","","","","","","","","","","","",""
"","","","","","image-keyboard-response","206","355819","0.0-181.0","611994820071da2beee434ea","665500ab8938657b03fbdba8","6657783451cf2402886e5d7e","1087","stimuli/0000001.jpg","0","","prediction_trial","0","","true","","0","true","true","true","true","true","true","[0]","000","001","1","","","","","","",""
"","","","","","image-keyboard-response","207","356141","0.0-182.0","611994820071da2beee434ea","665500ab8938657b03fbdba8","6657783451cf2402886e5d7e","321","stimuli/00000010.jpg"," ","","feedback_trial","0","","","","","","","","","","","","","","","","","","","","",""
"","","","","","image-keyboard-response","208","361640","0.0-183.0","611994820071da2beee434ea","665500ab8938657b03fbdba8","6657783451cf2402886e5d7e","5498","stimuli/0011110.jpg","1","","prediction_trial","0","","false","","0","false","false","true","true","false","false","[0]","011","110","0","","","","","","",""
"","","","","","image-keyboard-response","209","362217","0.0-184.0","611994820071da2beee434ea","665500ab8938657b03fbdba8","6657783451cf2402886e5d7e","574","stimuli/00111100.jpg"," ","","feedback_trial","0","","","","","","","","","","","","","","","","","","","","",""
"","","","","","image-keyboard-response","210","365971","0.0-185.0","611994820071da2beee434ea","665500ab8938657b03fbdba8","6657783451cf2402886e5d7e","3760","stimuli/0101011.jpg","0","","prediction_trial","2","","false","","0","true","true","false","false","false","false","[0,2]","101","011","0","","","","","","",""
"","","","","","image-keyboard-response","211","366379","0.0-186.0","611994820071da2beee434ea","665500ab8938657b03fbdba8","6657783451cf2402886e5d7e","407","stimuli/01010112.jpg"," ","","feedback_trial","0","","","","","","","","","","","","","","","","","","","","",""
"","","","","","image-keyboard-response","212","367661","0.0-187.0","611994820071da2beee434ea","665500ab8938657b03fbdba8","6657783451cf2402886e5d7e","1281","stimuli/2011001.jpg","2","","prediction_trial","1","","false","","2","false","true","false","false","false","false","[1,2]","011","001","0","","","","","","",""
"","","","","","image-keyboard-response","213","368354","0.0-188.0","611994820071da2beee434ea","665500ab8938657b03fbdba8","6657783451cf2402886e5d7e","691","stimuli/20110011.jpg"," ","","feedback_trial","1","","","","","","","","","","","","","","","","","","","","",""
"","","","","","image-keyboard-response","214","375452","0.0-189.0","611994820071da2beee434ea","665500ab8938657b03fbdba8","6657783451cf2402886e5d7e","7097","stimuli/0000110.jpg","1","","prediction_trial","0","","false","","0","false","false","true","true","false","false","[0]","000","110","0","","","","","","",""
"","","","","","image-keyboard-response","215","376043","0.0-190.0","611994820071da2beee434ea","665500ab8938657b03fbdba8","6657783451cf2402886e5d7e","589","stimuli/00001100.jpg"," ","","feedback_trial","0","","","","","","","","","","","","","","","","","","","","",""
"","","","","","image-keyboard-response","216","377201","0.0-191.0","611994820071da2beee434ea","665500ab8938657b03fbdba8","6657783451cf2402886e5d7e","1157","stimuli/0111010.jpg","0","","prediction_trial","0","","true","","0","true","true","false","false","false","false","[0,1,2]","111","010","1","","","","","","",""
"","","","","","image-keyboard-response","217","377560","0.0-192.0","611994820071da2beee434ea","665500ab8938657b03fbdba8","6657783451cf2402886e5d7e","357","stimuli/01110100.jpg"," ","","feedback_trial","0","","","","","","","","","","","","","","","","","","","","",""
"","","","","","image-keyboard-response","218","378433","0.0-193.0","611994820071da2beee434ea","665500ab8938657b03fbdba8","6657783451cf2402886e5d7e","871","stimuli/1001101.jpg","1","","prediction_trial","1","","true","","1","true","true","true","true","true","true","[1]","001","101","1","","","","","","",""
"","","","","","image-keyboard-response","219","378719","0.0-194.0","611994820071da2beee434ea","665500ab8938657b03fbdba8","6657783451cf2402886e5d7e","284","stimuli/10011011.jpg"," ","","feedback_trial","1","","","","","","","","","","","","","","","","","","","","",""
"","","","","","image-keyboard-response","220","379742","0.0-195.0","611994820071da2beee434ea","665500ab8938657b03fbdba8","6657783451cf2402886e5d7e","1022","stimuli/2000100.jpg","2","","prediction_trial","2","","true","","2","true","true","true","true","true","true","[2]","000","100","1","","","","","","",""
"","","","","","image-keyboard-response","221","379986","0.0-196.0","611994820071da2beee434ea","665500ab8938657b03fbdba8","6657783451cf2402886e5d7e","241","stimuli/20001002.jpg"," ","","feedback_trial","2","","","","","","","","","","","","","","","","","","","","",""
"","","","","","image-keyboard-response","222","381801","0.0-197.0","611994820071da2beee434ea","665500ab8938657b03fbdba8","6657783451cf2402886e5d7e","1814","stimuli/2111011.jpg","1","","prediction_trial","0","","false","","2","false","false","false","false","false","false","[1,2,0]","111","011","0","","","","","","",""
"","","","","","image-keyboard-response","223","382265","0.0-198.0","611994820071da2beee434ea","665500ab8938657b03fbdba8","6657783451cf2402886e5d7e","462","stimuli/21110110.jpg"," ","","feedback_trial","1","","","","","","","","","","","","","","","","","","","","",""
"","","","","","image-keyboard-response","224","385374","0.0-199.0","611994820071da2beee434ea","665500ab8938657b03fbdba8","6657783451cf2402886e5d7e","3108","stimuli/2110011.jpg","1","","prediction_trial","2","","false","","2","false","false","true","true","false","false","[2]","110","011","0","","","","","","",""
"","","","","","image-keyboard-response","225","387560","0.0-200.0","611994820071da2beee434ea","665500ab8938657b03fbdba8","6657783451cf2402886e5d7e","2183","stimuli/21100112.jpg"," ","","feedback_trial","2","","","","","","","","","","","","","","","","","","","","",""
"","","","","","image-keyboard-response","226","390235","0.0-201.0","611994820071da2beee434ea","665500ab8938657b03fbdba8","6657783451cf2402886e5d7e","2674","stimuli/1011011.jpg","1","","prediction_trial","2","","false","","1","false","false","false","false","false","false","[1,2]","011","011","0","","","","","","",""
"","","","","","image-keyboard-response","227","390668","0.0-202.0","611994820071da2beee434ea","665500ab8938657b03fbdba8","6657783451cf2402886e5d7e","431","stimuli/10110112.jpg"," ","","feedback_trial","1","","","","","","","","","","","","","","","","","","","","",""
"","","","","","image-keyboard-response","228","392680","0.0-203.0","611994820071da2beee434ea","665500ab8938657b03fbdba8","6657783451cf2402886e5d7e","2010","stimuli/1101010.jpg","1","","prediction_trial","1","","true","","1","false","true","true","true","false","true","[1]","101","010","1","","","","","","",""
"","","","","","image-keyboard-response","229","393024","0.0-204.0","611994820071da2beee434ea","665500ab8938657b03fbdba8","6657783451cf2402886e5d7e","343","stimuli/11010101.jpg"," ","","feedback_trial","1","","","","","","","","","","","","","","","","","","","","",""
"","","","","","image-keyboard-response","230","394235","0.0-205.0","611994820071da2beee434ea","665500ab8938657b03fbdba8","6657783451cf2402886e5d7e","1209","stimuli/0111000.jpg","0","","prediction_trial","1","","false","","0","true","true","false","false","false","false","[0,2,1]","111","000","0","","","","","","",""
"","","","","","image-keyboard-response","231","394657","0.0-206.0","611994820071da2beee434ea","665500ab8938657b03fbdba8","6657783451cf2402886e5d7e","421","stimuli/01110001.jpg"," ","","feedback_trial","0","","","","","","","","","","","","","","","","","","","","",""
"","","","","","image-keyboard-response","232","396821","0.0-207.0","611994820071da2beee434ea","665500ab8938657b03fbdba8","6657783451cf2402886e5d7e","2162","stimuli/2000111.jpg","1","","prediction_trial","2","","false","","2","false","false","true","true","false","false","[2]","000","111","0","","","","","","",""
"","","","","","image-keyboard-response","233","397307","0.0-208.0","611994820071da2beee434ea","665500ab8938657b03fbdba8","6657783451cf2402886e5d7e","485","stimuli/20001112.jpg"," ","","feedback_trial","2","","","","","","","","","","","","","","","","","","","","",""
"","","","","","image-keyboard-response","234","400917","0.0-209.0","611994820071da2beee434ea","665500ab8938657b03fbdba8","6657783451cf2402886e5d7e","3608","stimuli/0111101.jpg","2","","prediction_trial","1","","false","","0","false","false","false","false","false","false","[0,1,2]","111","101","0","","","","","","",""
"","","","","","image-keyboard-response","235","401298","0.0-210.0","611994820071da2beee434ea","665500ab8938657b03fbdba8","6657783451cf2402886e5d7e","380","stimuli/01111011.jpg"," ","","feedback_trial","0","","","","","","","","","","","","","","","","","","","","",""
"","","","","","image-keyboard-response","236","402244","0.0-211.0","611994820071da2beee434ea","665500ab8938657b03fbdba8","6657783451cf2402886e5d7e","945","stimuli/1001000.jpg","1","","prediction_trial","1","","true","","1","true","true","true","true","true","true","[1]","001","000","1","","","","","","",""
"","","","","","image-keyboard-response","237","402685","0.0-212.0","611994820071da2beee434ea","665500ab8938657b03fbdba8","6657783451cf2402886e5d7e","439","stimuli/10010001.jpg"," ","","feedback_trial","1","","","","","","","","","","","","","","","","","","","","",""
"","","","","","image-keyboard-response","238","406357","0.0-213.0","611994820071da2beee434ea","665500ab8938657b03fbdba8","6657783451cf2402886e5d7e","3670","stimuli/1010111.jpg","1","","prediction_trial","1","","true","","1","false","false","false","true","false","false","[1]","010","111","1","","","","","","",""
"","","","","","image-keyboard-response","239","406678","0.0-214.0","611994820071da2beee434ea","665500ab8938657b03fbdba8","6657783451cf2402886e5d7e","319","stimuli/10101111.jpg"," ","","feedback_trial","1","","","","","","","","","","","","","","","","","","","","",""
"","","","","","image-keyboard-response","240","407711","0.0-215.0","611994820071da2beee434ea","665500ab8938657b03fbdba8","6657783451cf2402886e5d7e","1031","stimuli/0110110.jpg","1","","prediction_trial","0","","false","","0","false","false","false","false","false","false","[0,1]","110","110","0","","","","","","",""
"","","","","","image-keyboard-response","241","408209","0.0-216.0","611994820071da2beee434ea","665500ab8938657b03fbdba8","6657783451cf2402886e5d7e","496","stimuli/01101100.jpg"," ","","feedback_trial","0","","","","","","","","","","","","","","","","","","","","",""
"","","","","","image-keyboard-response","242","411481","0.0-217.0","611994820071da2beee434ea","665500ab8938657b03fbdba8","6657783451cf2402886e5d7e","3271","stimuli/2100101.jpg","2","","prediction_trial","2","","true","","2","false","false","true","true","false","false","[2]","100","101","1","","","","","","",""
"","","","","","image-keyboard-response","243","411925","0.0-218.0","611994820071da2beee434ea","665500ab8938657b03fbdba8","6657783451cf2402886e5d7e","442","stimuli/21001012.jpg"," ","","feedback_trial","2","","","","","","","","","","","","","","","","","","","","",""
"","","","","","image-keyboard-response","244","413418","0.0-219.0","611994820071da2beee434ea","665500ab8938657b03fbdba8","6657783451cf2402886e5d7e","1492","stimuli/2110100.jpg","2","","prediction_trial","2","","true","","2","true","true","true","true","true","true","[2]","110","100","1","","","","","","",""
"","","","","","image-keyboard-response","245","413740","0.0-220.0","611994820071da2beee434ea","665500ab8938657b03fbdba8","6657783451cf2402886e5d7e","320","stimuli/21101002.jpg"," ","","feedback_trial","2","","","","","","","","","","","","","","","","","","","","",""
"","","","","","image-keyboard-response","246","417238","0.0-221.0","611994820071da2beee434ea","665500ab8938657b03fbdba8","6657783451cf2402886e5d7e","3497","stimuli/0101111.jpg","1","","prediction_trial","0","","false","","0","false","false","false","false","false","false","[2,0]","101","111","0","","","","","","",""
"","","","","","image-keyboard-response","247","417791","0.0-222.0","611994820071da2beee434ea","665500ab8938657b03fbdba8","6657783451cf2402886e5d7e","552","stimuli/01011110.jpg"," ","","feedback_trial","2","","","","","","","","","","","","","","","","","","","","",""
"","","","","","image-keyboard-response","248","420458","0.0-223.0","611994820071da2beee434ea","665500ab8938657b03fbdba8","6657783451cf2402886e5d7e","2665","stimuli/1111100.jpg","1","","prediction_trial","2","","false","","1","true","true","false","false","false","false","[2,0,1]","111","100","0","","","","","","",""
"","","","","","image-keyboard-response","249","420957","0.0-224.0","611994820071da2beee434ea","665500ab8938657b03fbdba8","6657783451cf2402886e5d7e","497","stimuli/11111002.jpg"," ","","feedback_trial","2","","","","","","","","","","","","","","","","","","","","",""
"","","","","","image-keyboard-response","250","424338","0.0-225.0","611994820071da2beee434ea","665500ab8938657b03fbdba8","6657783451cf2402886e5d7e","3380","stimuli/1100011.jpg","1","","prediction_trial","1","","true","","1","false","false","true","true","false","false","[1]","100","011","1","","","","","","",""
"","","","","","image-keyboard-response","251","424885","0.0-226.0","611994820071da2beee434ea","665500ab8938657b03fbdba8","6657783451cf2402886e5d7e","545","stimuli/11000111.jpg"," ","","feedback_trial","1","","","","","","","","","","","","","","","","","","","","",""
"","","","","","image-keyboard-response","252","429995","0.0-227.0","611994820071da2beee434ea","665500ab8938657b03fbdba8","6657783451cf2402886e5d7e","5102","stimuli/0110101.jpg","2","","prediction_trial","1","","false","","0","false","false","false","false","false","false","[0,1]","110","101","0","","","","","","",""
"","","","","","image-keyboard-response","253","430612","0.0-228.0","611994820071da2beee434ea","665500ab8938657b03fbdba8","6657783451cf2402886e5d7e","616","stimuli/01101011.jpg"," ","","feedback_trial","0","","","","","","","","","","","","","","","","","","","","",""
"","","","","","image-keyboard-response","254","432832","0.0-229.0","611994820071da2beee434ea","665500ab8938657b03fbdba8","6657783451cf2402886e5d7e","2219","stimuli/0011101.jpg","0","","prediction_trial","0","","true","","0","false","false","true","true","false","false","[0]","011","101","1","","","","","","",""
"","","","","","image-keyboard-response","255","433298","0.0-230.0","611994820071da2beee434ea","665500ab8938657b03fbdba8","6657783451cf2402886e5d7e","464","stimuli/00111010.jpg"," ","","feedback_trial","0","","","","","","","","","","","","","","","","","","","","",""
"","","","","","image-keyboard-response","256","434025","0.0-231.0","611994820071da2beee434ea","665500ab8938657b03fbdba8","6657783451cf2402886e5d7e","725","stimuli/1101101.jpg","1","","prediction_trial","1","","true","","1","true","true","true","true","true","true","[1]","101","101","1","","","","","","",""
"","","","","","image-keyboard-response","257","434358","0.0-232.0","611994820071da2beee434ea","665500ab8938657b03fbdba8","6657783451cf2402886e5d7e","331","stimuli/11011011.jpg"," ","","feedback_trial","1","","","","","","","","","","","","","","","","","","","","",""
"","","","","","image-keyboard-response","258","435823","0.0-233.0","611994820071da2beee434ea","665500ab8938657b03fbdba8","6657783451cf2402886e5d7e","1464","stimuli/1100110.jpg","1","","prediction_trial","1","","true","","1","false","false","true","true","false","false","[1]","100","110","1","","","","","","",""
"","","","","","image-keyboard-response","259","436342","0.0-234.0","611994820071da2beee434ea","665500ab8938657b03fbdba8","6657783451cf2402886e5d7e","517","stimuli/11001101.jpg"," ","","feedback_trial","1","","","","","","","","","","","","","","","","","","","","",""
"","","","","","image-keyboard-response","260","439649","0.0-235.0","611994820071da2beee434ea","665500ab8938657b03fbdba8","6657783451cf2402886e5d7e","3305","stimuli/2111100.jpg","1","","prediction_trial","0","","false","","2","true","true","false","false","false","false","[0,2,1]","111","100","0","","","","","","",""
"","","","","","image-keyboard-response","261","440341","0.0-236.0","611994820071da2beee434ea","665500ab8938657b03fbdba8","6657783451cf2402886e5d7e","691","stimuli/21111000.jpg"," ","","feedback_trial","0","","","","","","","","","","","","","","","","","","","","",""
"","","","","","image-keyboard-response","262","441573","0.0-237.0","611994820071da2beee434ea","665500ab8938657b03fbdba8","6657783451cf2402886e5d7e","1230","stimuli/0001010.jpg","0","","prediction_trial","0","","true","","0","true","true","true","true","true","true","[0]","001","010","1","","","","","","",""
"","","","","","image-keyboard-response","263","441840","0.0-238.0","611994820071da2beee434ea","665500ab8938657b03fbdba8","6657783451cf2402886e5d7e","266","stimuli/00010100.jpg"," ","","feedback_trial","0","","","","","","","","","","","","","","","","","","","","",""
"","","","","","image-keyboard-response","264","445147","0.0-239.0","611994820071da2beee434ea","665500ab8938657b03fbdba8","6657783451cf2402886e5d7e","3305","stimuli/0110010.jpg","1","","prediction_trial","0","","false","","0","true","true","false","false","false","false","[1,0]","110","010","0","","","","","","",""
"","","","","","image-keyboard-response","265","445607","0.0-240.0","611994820071da2beee434ea","665500ab8938657b03fbdba8","6657783451cf2402886e5d7e","458","stimuli/01100100.jpg"," ","","feedback_trial","1","","","","","","","","","","","","","","","","","","","","",""
"","","","","","image-keyboard-response","266","446404","0.0-241.0","611994820071da2beee434ea","665500ab8938657b03fbdba8","6657783451cf2402886e5d7e","796","stimuli/0011000.jpg","0","","prediction_trial","0","","true","","0","true","true","true","true","true","true","[0]","011","000","1","","","","","","",""
"","","","","","image-keyboard-response","267","446702","0.0-242.0","611994820071da2beee434ea","665500ab8938657b03fbdba8","6657783451cf2402886e5d7e","296","stimuli/00110000.jpg"," ","","feedback_trial","0","","","","","","","","","","","","","","","","","","","","",""
"","","","","","image-keyboard-response","268","447903","0.0-243.0","611994820071da2beee434ea","665500ab8938657b03fbdba8","6657783451cf2402886e5d7e","1200","stimuli/2010010.jpg","2","","prediction_trial","2","","true","","2","true","true","true","true","true","true","[2]","010","010","1","","","","","","",""
"","","","","","image-keyboard-response","269","448112","0.0-244.0","611994820071da2beee434ea","665500ab8938657b03fbdba8","6657783451cf2402886e5d7e","207","stimuli/20100102.jpg"," ","","feedback_trial","2","","","","","","","","","","","","","","","","","","","","",""
"","","","","","image-keyboard-response","270","450238","0.0-245.0","611994820071da2beee434ea","665500ab8938657b03fbdba8","6657783451cf2402886e5d7e","2125","stimuli/0100101.jpg","2","","prediction_trial","0","","false","","0","false","false","false","true","false","false","[0]","100","101","0","","","","","","",""
"","","","","","image-keyboard-response","271","450706","0.0-246.0","611994820071da2beee434ea","665500ab8938657b03fbdba8","6657783451cf2402886e5d7e","467","stimuli/01001010.jpg"," ","","feedback_trial","0","","","","","","","","","","","","","","","","","","","","",""
"","","","","","image-keyboard-response","272","453628","0.0-247.0","611994820071da2beee434ea","665500ab8938657b03fbdba8","6657783451cf2402886e5d7e","2921","stimuli/1111010.jpg","2","","prediction_trial","1","","false","","1","false","true","false","false","false","false","[2,0,1]","111","010","0","","","","","","",""
"","","","","","image-keyboard-response","273","454281","0.0-248.0","611994820071da2beee434ea","665500ab8938657b03fbdba8","6657783451cf2402886e5d7e","651","stimuli/11110101.jpg"," ","","feedback_trial","2","","","","","","","","","","","","","","","","","","","","",""
"","","","","","image-keyboard-response","274","456142","0.0-249.0","611994820071da2beee434ea","665500ab8938657b03fbdba8","6657783451cf2402886e5d7e","1860","stimuli/1011100.jpg","1","","prediction_trial","1","","true","","1","true","true","false","false","false","false","[2,1]","011","100","1","","","","","","",""
"","","","","","image-keyboard-response","275","456552","0.0-250.0","611994820071da2beee434ea","665500ab8938657b03fbdba8","6657783451cf2402886e5d7e","408","stimuli/10111001.jpg"," ","","feedback_trial","2","","","","","","","","","","","","","","","","","","","","",""
"","","","","","image-keyboard-response","276","458758","0.0-251.0","611994820071da2beee434ea","665500ab8938657b03fbdba8","6657783451cf2402886e5d7e","2204","stimuli/2001000.jpg","2","","prediction_trial","2","","true","","2","true","true","false","true","false","true","[2]","001","000","1","","","","","","",""
"","","","","","image-keyboard-response","277","459319","0.0-252.0","611994820071da2beee434ea","665500ab8938657b03fbdba8","6657783451cf2402886e5d7e","559","stimuli/20010002.jpg"," ","","feedback_trial","2","","","","","","","","","","","","","","","","","","","","",""
"","","","","","image-keyboard-response","278","459947","0.0-253.0","611994820071da2beee434ea","665500ab8938657b03fbdba8","6657783451cf2402886e5d7e","626","stimuli/2000110.jpg","2","","prediction_trial","2","","true","","2","true","true","true","true","true","true","[2]","000","110","1","","","","","","",""
"","","","","","image-keyboard-response","279","460264","0.0-254.0","611994820071da2beee434ea","665500ab8938657b03fbdba8","6657783451cf2402886e5d7e","316","stimuli/20001102.jpg"," ","","feedback_trial","2","","","","","","","","","","","","","","","","","","","","",""
"","","","","","image-keyboard-response","280","461258","0.0-255.0","611994820071da2beee434ea","665500ab8938657b03fbdba8","6657783451cf2402886e5d7e","992","stimuli/0001000.jpg","0","","prediction_trial","0","","true","","0","true","true","true","true","true","true","[0]","001","000","1","","","","","","",""
"","","","","","image-keyboard-response","281","461484","0.0-256.0","611994820071da2beee434ea","665500ab8938657b03fbdba8","6657783451cf2402886e5d7e","224","stimuli/00010000.jpg"," ","","feedback_trial","0","","","","","","","","","","","","","","","","","","","","",""
"","","","","","image-keyboard-response","282","463104","0.0-257.0","611994820071da2beee434ea","665500ab8938657b03fbdba8","6657783451cf2402886e5d7e","1619","stimuli/0101110.jpg","1","","prediction_trial","0","","false","","0","false","false","false","false","false","false","[0,2]","101","110","0","","","","","","",""
"","","","","","image-keyboard-response","283","463649","0.0-258.0","611994820071da2beee434ea","665500ab8938657b03fbdba8","6657783451cf2402886e5d7e","543","stimuli/01011100.jpg"," ","","feedback_trial","0","","","","","","","","","","","","","","","","","","","","",""
"","","","","","image-keyboard-response","284","465356","0.0-259.0","611994820071da2beee434ea","665500ab8938657b03fbdba8","6657783451cf2402886e5d7e","1706","stimuli/2011111.jpg","0","","prediction_trial","1","","false","","2","false","false","false","false","false","false","[2,1]","011","111","0","","","","","","",""
"","","","","","image-keyboard-response","285","466045","0.0-260.0","611994820071da2beee434ea","665500ab8938657b03fbdba8","6657783451cf2402886e5d7e","687","stimuli/20111111.jpg"," ","","feedback_trial","2","","","","","","","","","","","","","","","","","","","","",""
"","","","","","image-keyboard-response","286","467013","0.0-261.0","611994820071da2beee434ea","665500ab8938657b03fbdba8","6657783451cf2402886e5d7e","966","stimuli/2100000.jpg","2","","prediction_trial","2","","true","","2","true","true","true","true","true","true","[2]","100","000","1","","","","","","",""
"","","","","","image-keyboard-response","287","467359","0.0-262.0","611994820071da2beee434ea","665500ab8938657b03fbdba8","6657783451cf2402886e5d7e","345","stimuli/21000002.jpg"," ","","feedback_trial","2","","","","","","","","","","","","","","","","","","","","",""
"","","","","","image-keyboard-response","288","468991","0.0-263.0","611994820071da2beee434ea","665500ab8938657b03fbdba8","6657783451cf2402886e5d7e","1631","stimuli/1000111.jpg","1","","prediction_trial","1","","true","","1","false","false","true","true","false","false","[1]","000","111","1","","","","","","",""
"","","","","","image-keyboard-response","289","469458","0.0-264.0","611994820071da2beee434ea","665500ab8938657b03fbdba8","6657783451cf2402886e5d7e","465","stimuli/10001111.jpg"," ","","feedback_trial","1","","","","","","","","","","","","","","","","","","","","",""
"","","","","","image-keyboard-response","290","470836","0.0-265.0","611994820071da2beee434ea","665500ab8938657b03fbdba8","6657783451cf2402886e5d7e","1377","stimuli/0011111.jpg","0","","prediction_trial","0","","true","","0","false","false","true","true","false","false","[0]","011","111","1","","","","","","",""
"","","","","","image-keyboard-response","291","471359","0.0-266.0","611994820071da2beee434ea","665500ab8938657b03fbdba8","6657783451cf2402886e5d7e","521","stimuli/00111110.jpg"," ","","feedback_trial","0","","","","","","","","","","","","","","","","","","","","",""
"","","","","","image-keyboard-response","292","472367","0.0-267.0","611994820071da2beee434ea","665500ab8938657b03fbdba8","6657783451cf2402886e5d7e","1007","stimuli/2110110.jpg","2","","prediction_trial","2","","true","","2","true","true","true","true","true","true","[2]","110","110","1","","","","","","",""
"","","","","","image-keyboard-response","293","472649","0.0-268.0","611994820071da2beee434ea","665500ab8938657b03fbdba8","6657783451cf2402886e5d7e","280","stimuli/21101102.jpg"," ","","feedback_trial","2","","","","","","","","","","","","","","","","","","","","",""
"","","","","","image-keyboard-response","294","473603","0.0-269.0","611994820071da2beee434ea","665500ab8938657b03fbdba8","6657783451cf2402886e5d7e","953","stimuli/1011111.jpg","0","","prediction_trial","2","","false","","1","false","false","false","false","false","false","[2,1]","011","111","0","","","","","","",""
"","","","","","image-keyboard-response","295","474050","0.0-270.0","611994820071da2beee434ea","665500ab8938657b03fbdba8","6657783451cf2402886e5d7e","445","stimuli/10111112.jpg"," ","","feedback_trial","2","","","","","","","","","","","","","","","","","","","","",""
"","","","","","image-keyboard-response","296","475216","0.0-271.0","611994820071da2beee434ea","665500ab8938657b03fbdba8","6657783451cf2402886e5d7e","1165","stimuli/1111000.jpg","1","","prediction_trial","0","","false","","1","true","true","false","false","false","false","[1,2,0]","111","000","0","","","","","","",""
"","","","","","image-keyboard-response","297","476059","0.0-272.0","611994820071da2beee434ea","665500ab8938657b03fbdba8","6657783451cf2402886e5d7e","841","stimuli/11110000.jpg"," ","","feedback_trial","1","","","","","","","","","","","","","","","","","","","","",""
"","","","","","image-keyboard-response","298","476817","0.0-273.0","611994820071da2beee434ea","665500ab8938657b03fbdba8","6657783451cf2402886e5d7e","756","stimuli/2100100.jpg","2","","prediction_trial","2","","true","","2","true","true","true","true","true","true","[2]","100","100","1","","","","","","",""
"","","","","","image-keyboard-response","299","477078","0.0-274.0","611994820071da2beee434ea","665500ab8938657b03fbdba8","6657783451cf2402886e5d7e","260","stimuli/21001002.jpg"," ","","feedback_trial","2","","","","","","","","","","","","","","","","","","","","",""
"","","","","","image-keyboard-response","300","478473","0.0-275.0","611994820071da2beee434ea","665500ab8938657b03fbdba8","6657783451cf2402886e5d7e","1393","stimuli/2110101.jpg","2","","prediction_trial","2","","true","","2","false","false","true","true","false","false","[2]","110","101","1","","","","","","",""
"","","","","","image-keyboard-response","301","478884","0.0-276.0","611994820071da2beee434ea","665500ab8938657b03fbdba8","6657783451cf2402886e5d7e","410","stimuli/21101012.jpg"," ","","feedback_trial","2","","","","","","","","","","","","","","","","","","","","",""
"","","","","","image-keyboard-response","302","480271","0.0-277.0","611994820071da2beee434ea","665500ab8938657b03fbdba8","6657783451cf2402886e5d7e","1385","stimuli/2011101.jpg","0","","prediction_trial","1","","false","","2","false","false","false","false","false","false","[2,1]","011","101","0","","","","","","",""
"","","","","","image-keyboard-response","303","480799","0.0-278.0","611994820071da2beee434ea","665500ab8938657b03fbdba8","6657783451cf2402886e5d7e","526","stimuli/20111011.jpg"," ","","feedback_trial","2","","","","","","","","","","","","","","","","","","","","",""
"","","","","","image-keyboard-response","304","484585","0.0-279.0","611994820071da2beee434ea","665500ab8938657b03fbdba8","6657783451cf2402886e5d7e","3785","stimuli/1110110.jpg","1","","prediction_trial","1","","true","","1","false","false","false","false","false","false","[0,1]","110","110","1","","","","","","",""
"","","","","","image-keyboard-response","305","485017","0.0-280.0","611994820071da2beee434ea","665500ab8938657b03fbdba8","6657783451cf2402886e5d7e","429","stimuli/11101101.jpg"," ","","feedback_trial","0","","","","","","","","","","","","","","","","","","","","",""
"","","","","","image-keyboard-response","306","487815","0.0-281.0","611994820071da2beee434ea","665500ab8938657b03fbdba8","6657783451cf2402886e5d7e","2797","stimuli/2001100.jpg","2","","prediction_trial","2","","true","","2","true","true","false","true","false","true","[2]","001","100","1","","","","","","",""
"","","","","","image-keyboard-response","307","488096","0.0-282.0","611994820071da2beee434ea","665500ab8938657b03fbdba8","6657783451cf2402886e5d7e","280","stimuli/20011002.jpg"," ","","feedback_trial","2","","","","","","","","","","","","","","","","","","","","",""
"","","","","","image-keyboard-response","308","489700","0.0-283.0","611994820071da2beee434ea","665500ab8938657b03fbdba8","6657783451cf2402886e5d7e","1603","stimuli/1010011.jpg","1","","prediction_trial","1","","true","","1","false","false","false","true","false","false","[1]","010","011","1","","","","","","",""
"","","","","","image-keyboard-response","309","490026","0.0-284.0","611994820071da2beee434ea","665500ab8938657b03fbdba8","6657783451cf2402886e5d7e","321","stimuli/10100111.jpg"," ","","feedback_trial","1","","","","","","","","","","","","","","","","","","","","",""
"","","","","","image-keyboard-response","310","492639","0.0-285.0","611994820071da2beee434ea","665500ab8938657b03fbdba8","6657783451cf2402886e5d7e","2612","stimuli/2011000.jpg","1","","prediction_trial","2","","false","","2","true","true","false","false","false","false","[1,2]","011","000","0","","","","","","",""
"","","","","","image-keyboard-response","311","493085","0.0-286.0","611994820071da2beee434ea","665500ab8938657b03fbdba8","6657783451cf2402886e5d7e","443","stimuli/20110002.jpg"," ","","feedback_trial","1","","","","","","","","","","","","","","","","","","","","",""
"","","","","","image-keyboard-response","312","493807","0.0-287.0","611994820071da2beee434ea","665500ab8938657b03fbdba8","6657783451cf2402886e5d7e","720","stimuli/1000000.jpg","1","","prediction_trial","1","","true","","1","true","true","true","true","true","true","[1]","000","000","1","","","","","","",""
"","","","","","image-keyboard-response","313","494086","0.0-288.0","611994820071da2beee434ea","665500ab8938657b03fbdba8","6657783451cf2402886e5d7e","278","stimuli/10000001.jpg"," ","","feedback_trial","1","","","","","","","","","","","","","","","","","","","","",""
"","","","","","image-keyboard-response","314","495786","0.0-289.0","611994820071da2beee434ea","665500ab8938657b03fbdba8","6657783451cf2402886e5d7e","1699","stimuli/0111011.jpg","1","","prediction_trial","2","","false","","0","true","true","false","false","false","false","[1,2,0]","111","011","0","","","","","","",""
"","","","","","image-keyboard-response","315","496580","0.0-290.0","611994820071da2beee434ea","665500ab8938657b03fbdba8","6657783451cf2402886e5d7e","792","stimuli/01110112.jpg"," ","","feedback_trial","1","","","","","","","","","","","","","","","","","","","","",""
"","","","","","image-keyboard-response","316","499129","0.0-291.0","611994820071da2beee434ea","665500ab8938657b03fbdba8","6657783451cf2402886e5d7e","2547","stimuli/0111110.jpg","2","","prediction_trial","2","","true","","0","false","false","false","false","false","false","[1,0,2]","111","110","1","","","","","","",""
"","","","","","image-keyboard-response","317","499534","0.0-292.0","611994820071da2beee434ea","665500ab8938657b03fbdba8","6657783451cf2402886e5d7e","404","stimuli/01111102.jpg"," ","","feedback_trial","1","","","","","","","","","","","","","","","","","","","","",""
"","","","","","survey-html-form","318","558400","0.0-293.0","611994820071da2beee434ea","665500ab8938657b03fbdba8","6657783451cf2402886e5d7e","58862","","{""feedback"":""I was sometimes distracted by if I knew where the ball was \nIf he could see inside the basket\nIf my view and his view of the baskets were blocked\nA pattern of where he would usually look"",""age"":""26"",""gender"":""Female"",""other_gender"":"""",""race"":""White"",""other_race"":"""",""ethnicity"":""Non-Hispanic""}","","exit_survey","","","","","","","","","","","","","","","","I was sometimes distracted by if I knew where the ball was 
If he could see inside the basket
If my view and his view of the baskets were blocked
A pattern of where he would usually look","26","Non-Hispanic","Female","White","0.5972222222222222","0.5972222222222222"
