"success","timeout","failed_images","failed_audio","failed_video","trial_type","trial_index","time_elapsed","internal_node_id","prolific_id","prolific_study_id","prolific_session_id","rt","stimulus","response","view_history","trial","character_choice","stimulus_dict","accuracy","correct_response","ball_pos","ego_ball_visible","ego_can_infer","alter_ball_visible","alter_can_infer","collective_ball_visible","collective_can_infer","search_locations","alter_occluders","ego_occluders","accuracy_bool","feedback","age","ethnicity","gender","race","overall_accuracy","bonus"
"true","false","[]","[]","[]","preload","0","1198","0.0-0.0","5c2dea19d396500001e2b39d","665500ab8938657b03fbdba8","6657928a4bef0a0d27ea5a93","","","","","","","","","","","","","","","","","","","","","","","","","","",""
"true","","","","","fullscreen","1","3670","0.0-1.0","5c2dea19d396500001e2b39d","665500ab8938657b03fbdba8","6657928a4bef0a0d27ea5a93","","","","","","","","","","","","","","","","","","","","","","","","","","",""
"","","","","","html-button-response","2","5949","0.0-2.0","5c2dea19d396500001e2b39d","665500ab8938657b03fbdba8","6657928a4bef0a0d27ea5a93","2277","<p><b>Consent Form</b></p> <div style=""text-align:left;background-color:lightgrey; padding:20px; max-width:900px;""><p>Please consider this information carefully before deciding whether to participate in this research.</p> <p>The purpose of this research is to examine which factors influence social judgment and decision-making. You will be asked to make judgements about individuals and actions in social scenarios. We are simply interested in your judgement. The study will take less than 1 hour to complete, and you will receive less than $20 on Prolific. Your compensation and time commitment are specified in the study description. There are no anticipated risks associated with participating in this study. The effects of participating should be comparable to those you would ordinarily experience from viewing a computer monitor and using a mouse or keyboard for a similar amount of time. At the end of the study, we will provide an explanation of the questions that motivate this line of research and will describe the potential implications. </p><p> Your participation in this study is completely voluntary and you may refuse to participate or you may choose to withdraw at any time without penalty or loss of benefits to you which are otherwise entitled. Your participation in this study will remain confidential. No personally identifiable information will be associated with your data. Also, all analyses of the data will be averaged across all the participants, so your individual responses will never be specifically analyzed. </p><p> If you have questions or concerns about your participation or payment, or want to request a summary of research findings, please contact Dr. Jonathan Phillips at Jonathan.S.Phillips@dartmouth.edu. </p><p> Please save a copy of this form for your records. </p><p><b>Agreement: </b>The nature and purpose of this research have been sufficiently explained and I agree to participate in this study. I understand that I am free to withdraw at any time without incurring any penalty. Please consent by clicking the button below to continue. Otherwise, please exit the study at any time. </p>","0","","","","","","","","","","","","","","","","","","","","","","","",""
"","","","","","instructions","3","47211","0.0-3.0-0.0","5c2dea19d396500001e2b39d","665500ab8938657b03fbdba8","6657928a4bef0a0d27ea5a93","41260","","","[{""page_index"":0,""viewing_time"":2298},{""page_index"":1,""viewing_time"":1508},{""page_index"":2,""viewing_time"":1308},{""page_index"":3,""viewing_time"":3959},{""page_index"":4,""viewing_time"":1255},{""page_index"":5,""viewing_time"":2556},{""page_index"":6,""viewing_time"":4343},{""page_index"":7,""viewing_time"":2671},{""page_index"":8,""viewing_time"":3430},{""page_index"":9,""viewing_time"":1788},{""page_index"":10,""viewing_time"":7751},{""page_index"":11,""viewing_time"":4999},{""page_index"":12,""viewing_time"":2186},{""page_index"":13,""viewing_time"":1209}]","intro","","","","","","","","","","","","","","","","","","","","","",""
"","","","","","image-keyboard-response","4","49079","0.0-3.0-1.0","5c2dea19d396500001e2b39d","665500ab8938657b03fbdba8","6657928a4bef0a0d27ea5a93","1864","stimuli/1111100.jpg","1","","prediction_practice","1","{""filepath"":""stimuli/1111100.jpg"",""ball_pos"":1,""ego_ball_visible"":true,""ego_can_infer"":true,""alter_ball_visible"":false,""alter_can_infer"":false,""collective_ball_visible"":false,""collective_can_infer"":false,""search_locations"":[2,1,0],""alter_occluders"":""111"",""ego_occluders"":""100""}","true","","","","","","","","","","","","","","","","","","",""
"","","","","","image-keyboard-response","5","50731","0.0-3.0-2.0","5c2dea19d396500001e2b39d","665500ab8938657b03fbdba8","6657928a4bef0a0d27ea5a93","1651","stimuli/11111001.jpg"," ","","practrice_feedback","2","","","","","","","","","","","","","","","","","","","","",""
"","","","","","image-keyboard-response","6","54630","0.0-3.0-3.0","5c2dea19d396500001e2b39d","665500ab8938657b03fbdba8","6657928a4bef0a0d27ea5a93","3897","stimuli/1010111.jpg","1","","prediction_practice","1","{""filepath"":""stimuli/1010111.jpg"",""ball_pos"":1,""ego_ball_visible"":false,""ego_can_infer"":false,""alter_ball_visible"":false,""alter_can_infer"":true,""collective_ball_visible"":false,""collective_can_infer"":false,""search_locations"":[1],""alter_occluders"":""010"",""ego_occluders"":""111""}","true","","","","","","","","","","","","","","","","","","",""
"","","","","","image-keyboard-response","7","55469","0.0-3.0-4.0","5c2dea19d396500001e2b39d","665500ab8938657b03fbdba8","6657928a4bef0a0d27ea5a93","838","stimuli/10101111.jpg"," ","","practrice_feedback","1","","","","","","","","","","","","","","","","","","","","",""
"","","","","","image-keyboard-response","8","56784","0.0-3.0-5.0","5c2dea19d396500001e2b39d","665500ab8938657b03fbdba8","6657928a4bef0a0d27ea5a93","1314","stimuli/0001001.jpg","0","","prediction_practice","0","{""filepath"":""stimuli/0001001.jpg"",""ball_pos"":0,""ego_ball_visible"":true,""ego_can_infer"":true,""alter_ball_visible"":true,""alter_can_infer"":true,""collective_ball_visible"":true,""collective_can_infer"":true,""search_locations"":[0],""alter_occluders"":""001"",""ego_occluders"":""001""}","true","","","","","","","","","","","","","","","","","","",""
"","","","","","image-keyboard-response","9","57347","0.0-3.0-6.0","5c2dea19d396500001e2b39d","665500ab8938657b03fbdba8","6657928a4bef0a0d27ea5a93","561","stimuli/00010010.jpg"," ","","practrice_feedback","0","","","","","","","","","","","","","","","","","","","","",""
"","","","","","image-keyboard-response","10","59747","0.0-3.0-7.0","5c2dea19d396500001e2b39d","665500ab8938657b03fbdba8","6657928a4bef0a0d27ea5a93","2399","stimuli/2111101.jpg","2","","prediction_practice","2","{""filepath"":""stimuli/2111101.jpg"",""ball_pos"":2,""ego_ball_visible"":false,""ego_can_infer"":false,""alter_ball_visible"":false,""alter_can_infer"":false,""collective_ball_visible"":false,""collective_can_infer"":false,""search_locations"":[0,2,1],""alter_occluders"":""111"",""ego_occluders"":""101""}","true","","","","","","","","","","","","","","","","","","",""
"","","","","","image-keyboard-response","11","60208","0.0-3.0-8.0","5c2dea19d396500001e2b39d","665500ab8938657b03fbdba8","6657928a4bef0a0d27ea5a93","460","stimuli/21111012.jpg"," ","","practrice_feedback","0","","","","","","","","","","","","","","","","","","","","",""
"","","","","","image-keyboard-response","12","61728","0.0-3.0-9.0","5c2dea19d396500001e2b39d","665500ab8938657b03fbdba8","6657928a4bef0a0d27ea5a93","1511","stimuli/0010110.jpg","1","","prediction_practice","0","{""filepath"":""stimuli/0010110.jpg"",""ball_pos"":0,""ego_ball_visible"":false,""ego_can_infer"":false,""alter_ball_visible"":true,""alter_can_infer"":true,""collective_ball_visible"":false,""collective_can_infer"":false,""search_locations"":[0],""alter_occluders"":""010"",""ego_occluders"":""110""}","false","","","","","","","","","","","","","","","","","","",""
"","","","","","image-keyboard-response","13","62447","0.0-3.0-10.0","5c2dea19d396500001e2b39d","665500ab8938657b03fbdba8","6657928a4bef0a0d27ea5a93","718","stimuli/00101100.jpg"," ","","practrice_feedback","0","","","","","","","","","","","","","","","","","","","","",""
"","","","","","image-keyboard-response","14","63950","0.0-3.0-11.0","5c2dea19d396500001e2b39d","665500ab8938657b03fbdba8","6657928a4bef0a0d27ea5a93","1502","stimuli/1010000.jpg","1","","prediction_practice","1","{""filepath"":""stimuli/1010000.jpg"",""ball_pos"":1,""ego_ball_visible"":true,""ego_can_infer"":true,""alter_ball_visible"":false,""alter_can_infer"":true,""collective_ball_visible"":false,""collective_can_infer"":true,""search_locations"":[1],""alter_occluders"":""010"",""ego_occluders"":""000""}","true","","","","","","","","","","","","","","","","","","",""
"","","","","","image-keyboard-response","15","64280","0.0-3.0-12.0","5c2dea19d396500001e2b39d","665500ab8938657b03fbdba8","6657928a4bef0a0d27ea5a93","329","stimuli/10100001.jpg"," ","","practrice_feedback","1","","","","","","","","","","","","","","","","","","","","",""
"","","","","","image-keyboard-response","16","69392","0.0-3.0-13.0","5c2dea19d396500001e2b39d","665500ab8938657b03fbdba8","6657928a4bef0a0d27ea5a93","5111","stimuli/2001101.jpg","2","","prediction_practice","2","{""filepath"":""stimuli/2001101.jpg"",""ball_pos"":2,""ego_ball_visible"":false,""ego_can_infer"":false,""alter_ball_visible"":false,""alter_can_infer"":true,""collective_ball_visible"":false,""collective_can_infer"":false,""search_locations"":[2],""alter_occluders"":""001"",""ego_occluders"":""101""}","true","","","","","","","","","","","","","","","","","","",""
"","","","","","image-keyboard-response","17","69835","0.0-3.0-14.0","5c2dea19d396500001e2b39d","665500ab8938657b03fbdba8","6657928a4bef0a0d27ea5a93","442","stimuli/20011012.jpg"," ","","practrice_feedback","2","","","","","","","","","","","","","","","","","","","","",""
"","","","","","image-keyboard-response","18","71896","0.0-3.0-15.0","5c2dea19d396500001e2b39d","665500ab8938657b03fbdba8","6657928a4bef0a0d27ea5a93","2060","stimuli/2101001.jpg","2","","prediction_practice","2","{""filepath"":""stimuli/2101001.jpg"",""ball_pos"":2,""ego_ball_visible"":false,""ego_can_infer"":true,""alter_ball_visible"":false,""alter_can_infer"":false,""collective_ball_visible"":false,""collective_can_infer"":false,""search_locations"":[0,2],""alter_occluders"":""101"",""ego_occluders"":""001""}","true","","","","","","","","","","","","","","","","","","",""
"","","","","","image-keyboard-response","19","72315","0.0-3.0-16.0","5c2dea19d396500001e2b39d","665500ab8938657b03fbdba8","6657928a4bef0a0d27ea5a93","417","stimuli/21010012.jpg"," ","","practrice_feedback","0","","","","","","","","","","","","","","","","","","","","",""
"","","","","","image-keyboard-response","20","73832","0.0-3.0-17.0","5c2dea19d396500001e2b39d","665500ab8938657b03fbdba8","6657928a4bef0a0d27ea5a93","1517","stimuli/0011010.jpg","0","","prediction_practice","0","{""filepath"":""stimuli/0011010.jpg"",""ball_pos"":0,""ego_ball_visible"":true,""ego_can_infer"":true,""alter_ball_visible"":true,""alter_can_infer"":true,""collective_ball_visible"":true,""collective_can_infer"":true,""search_locations"":[0],""alter_occluders"":""011"",""ego_occluders"":""010""}","true","","","","","","","","","","","","","","","","","","",""
"","","","","","image-keyboard-response","21","74132","0.0-3.0-18.0","5c2dea19d396500001e2b39d","665500ab8938657b03fbdba8","6657928a4bef0a0d27ea5a93","299","stimuli/00110100.jpg"," ","","practrice_feedback","0","","","","","","","","","","","","","","","","","","","","",""
"","","","","","image-keyboard-response","22","75374","0.0-3.0-19.0","5c2dea19d396500001e2b39d","665500ab8938657b03fbdba8","6657928a4bef0a0d27ea5a93","1240","stimuli/2010000.jpg","2","","prediction_practice","2","{""filepath"":""stimuli/2010000.jpg"",""ball_pos"":2,""ego_ball_visible"":true,""ego_can_infer"":true,""alter_ball_visible"":true,""alter_can_infer"":true,""collective_ball_visible"":true,""collective_can_infer"":true,""search_locations"":[2],""alter_occluders"":""010"",""ego_occluders"":""000""}","true","","","","","","","","","","","","","","","","","","",""
"","","","","","image-keyboard-response","23","75778","0.0-3.0-20.0","5c2dea19d396500001e2b39d","665500ab8938657b03fbdba8","6657928a4bef0a0d27ea5a93","403","stimuli/20100002.jpg"," ","","practrice_feedback","2","","","","","","","","","","","","","","","","","","","","",""
"","","","","","html-button-response","24","78568","0.0-3.0-21.0","5c2dea19d396500001e2b39d","665500ab8938657b03fbdba8","6657928a4bef0a0d27ea5a93","2788","Now that you've had some practice, you'll be tested with a couple of easy trials. If you correctly predict Sam's choice, you'll move on to complete the experiment!","0","","","","","","","","","","","","","","","","","","","","","","","",""
"","","","","","image-keyboard-response","25","80297","0.0-3.0-22.0-0.0","5c2dea19d396500001e2b39d","665500ab8938657b03fbdba8","6657928a4bef0a0d27ea5a93","1728","stimuli/0000011.jpg","arrowleft","","comprehension_quiz","","","true","arrowleft","","","","","","","","","","","","","","","","","",""
"","","","","","image-keyboard-response","26","80667","0.0-3.0-22.0-1.0","5c2dea19d396500001e2b39d","665500ab8938657b03fbdba8","6657928a4bef0a0d27ea5a93","368","stimuli/00000110.jpg"," ","","comprehension_quiz","","","true"," ","","","","","","","","","","","","","","","","","",""
"","","","","","image-keyboard-response","27","82135","0.0-3.0-22.0-2.0","5c2dea19d396500001e2b39d","665500ab8938657b03fbdba8","6657928a4bef0a0d27ea5a93","1467","stimuli/1010010.jpg","arrowdown","","comprehension_quiz","","","true","arrowdown","","","","","","","","","","","","","","","","","",""
"","","","","","image-keyboard-response","28","82471","0.0-3.0-22.0-3.0","5c2dea19d396500001e2b39d","665500ab8938657b03fbdba8","6657928a4bef0a0d27ea5a93","335","stimuli/10100101.jpg"," ","","comprehension_quiz","","","true"," ","","","","","","","","","","","","","","","","","",""
"","","","","","html-button-response","29","84251","0.0-4.0","5c2dea19d396500001e2b39d","665500ab8938657b03fbdba8","6657928a4bef0a0d27ea5a93","1777","The experiment will now begin.","0","","","","","","","","","","","","","","","","","","","","","","","",""
"","","","","","image-keyboard-response","30","85833","0.0-5.0","5c2dea19d396500001e2b39d","665500ab8938657b03fbdba8","6657928a4bef0a0d27ea5a93","1580","stimuli/2001001.jpg","2","","prediction_trial","2","","true","","2","false","true","false","true","false","true","[2]","001","001","1","","","","","","",""
"","","","","","image-keyboard-response","31","86172","0.0-6.0","5c2dea19d396500001e2b39d","665500ab8938657b03fbdba8","6657928a4bef0a0d27ea5a93","338","stimuli/20010012.jpg"," ","","feedback_trial","2","","","","","","","","","","","","","","","","","","","","",""
"","","","","","image-keyboard-response","32","88110","0.0-7.0","5c2dea19d396500001e2b39d","665500ab8938657b03fbdba8","6657928a4bef0a0d27ea5a93","1930","stimuli/0010000.jpg","0","","prediction_trial","0","","true","","0","true","true","true","true","true","true","[0]","010","000","1","","","","","","",""
"","","","","","image-keyboard-response","33","88351","0.0-8.0","5c2dea19d396500001e2b39d","665500ab8938657b03fbdba8","6657928a4bef0a0d27ea5a93","240","stimuli/00100000.jpg"," ","","feedback_trial","0","","","","","","","","","","","","","","","","","","","","",""
"","","","","","image-keyboard-response","34","89483","0.0-9.0","5c2dea19d396500001e2b39d","665500ab8938657b03fbdba8","6657928a4bef0a0d27ea5a93","1130","stimuli/0000100.jpg","0","","prediction_trial","0","","true","","0","false","true","true","true","false","true","[0]","000","100","1","","","","","","",""
"","","","","","image-keyboard-response","35","89856","0.0-10.0","5c2dea19d396500001e2b39d","665500ab8938657b03fbdba8","6657928a4bef0a0d27ea5a93","372","stimuli/00001000.jpg"," ","","feedback_trial","0","","","","","","","","","","","","","","","","","","","","",""
"","","","","","image-keyboard-response","36","90941","0.0-11.0","5c2dea19d396500001e2b39d","665500ab8938657b03fbdba8","6657928a4bef0a0d27ea5a93","1084","stimuli/0001000.jpg","0","","prediction_trial","0","","true","","0","true","true","true","true","true","true","[0]","001","000","1","","","","","","",""
"","","","","","image-keyboard-response","37","91177","0.0-12.0","5c2dea19d396500001e2b39d","665500ab8938657b03fbdba8","6657928a4bef0a0d27ea5a93","235","stimuli/00010000.jpg"," ","","feedback_trial","0","","","","","","","","","","","","","","","","","","","","",""
"","","","","","image-keyboard-response","38","94721","0.0-13.0","5c2dea19d396500001e2b39d","665500ab8938657b03fbdba8","6657928a4bef0a0d27ea5a93","3543","stimuli/2010101.jpg","2","","prediction_trial","2","","true","","2","false","false","true","true","false","false","[2]","010","101","1","","","","","","",""
"","","","","","image-keyboard-response","39","95127","0.0-14.0","5c2dea19d396500001e2b39d","665500ab8938657b03fbdba8","6657928a4bef0a0d27ea5a93","405","stimuli/20101012.jpg"," ","","feedback_trial","2","","","","","","","","","","","","","","","","","","","","",""
"","","","","","image-keyboard-response","40","98594","0.0-15.0","5c2dea19d396500001e2b39d","665500ab8938657b03fbdba8","6657928a4bef0a0d27ea5a93","3466","stimuli/0011110.jpg","1","","prediction_trial","0","","false","","0","false","false","true","true","false","false","[0]","011","110","0","","","","","","",""
"","","","","","image-keyboard-response","41","99177","0.0-16.0","5c2dea19d396500001e2b39d","665500ab8938657b03fbdba8","6657928a4bef0a0d27ea5a93","581","stimuli/00111100.jpg"," ","","feedback_trial","0","","","","","","","","","","","","","","","","","","","","",""
"","","","","","image-keyboard-response","42","100665","0.0-17.0","5c2dea19d396500001e2b39d","665500ab8938657b03fbdba8","6657928a4bef0a0d27ea5a93","1487","stimuli/0101011.jpg","0","","prediction_trial","0","","true","","0","true","true","false","false","false","false","[2,0]","101","011","1","","","","","","",""
"","","","","","image-keyboard-response","43","101008","0.0-18.0","5c2dea19d396500001e2b39d","665500ab8938657b03fbdba8","6657928a4bef0a0d27ea5a93","342","stimuli/01010110.jpg"," ","","feedback_trial","2","","","","","","","","","","","","","","","","","","","","",""
"","","","","","image-keyboard-response","44","103169","0.0-19.0","5c2dea19d396500001e2b39d","665500ab8938657b03fbdba8","6657928a4bef0a0d27ea5a93","2160","stimuli/1110110.jpg","1","","prediction_trial","0","","false","","1","false","false","false","false","false","false","[0,1]","110","110","0","","","","","","",""
"","","","","","image-keyboard-response","45","103505","0.0-20.0","5c2dea19d396500001e2b39d","665500ab8938657b03fbdba8","6657928a4bef0a0d27ea5a93","335","stimuli/11101100.jpg"," ","","feedback_trial","0","","","","","","","","","","","","","","","","","","","","",""
"","","","","","image-keyboard-response","46","105531","0.0-21.0","5c2dea19d396500001e2b39d","665500ab8938657b03fbdba8","6657928a4bef0a0d27ea5a93","2025","stimuli/0001111.jpg","1","","prediction_trial","0","","false","","0","false","false","true","true","false","false","[0]","001","111","0","","","","","","",""
"","","","","","image-keyboard-response","47","106021","0.0-22.0","5c2dea19d396500001e2b39d","665500ab8938657b03fbdba8","6657928a4bef0a0d27ea5a93","489","stimuli/00011110.jpg"," ","","feedback_trial","0","","","","","","","","","","","","","","","","","","","","",""
"","","","","","image-keyboard-response","48","107250","0.0-23.0","5c2dea19d396500001e2b39d","665500ab8938657b03fbdba8","6657928a4bef0a0d27ea5a93","1229","stimuli/1100001.jpg","1","","prediction_trial","1","","true","","1","true","true","true","true","true","true","[1]","100","001","1","","","","","","",""
"","","","","","image-keyboard-response","49","107491","0.0-24.0","5c2dea19d396500001e2b39d","665500ab8938657b03fbdba8","6657928a4bef0a0d27ea5a93","240","stimuli/11000011.jpg"," ","","feedback_trial","1","","","","","","","","","","","","","","","","","","","","",""
"","","","","","image-keyboard-response","50","109228","0.0-25.0","5c2dea19d396500001e2b39d","665500ab8938657b03fbdba8","6657928a4bef0a0d27ea5a93","1729","stimuli/1101111.jpg","0","","prediction_trial","1","","false","","1","false","false","true","true","false","false","[1]","101","111","0","","","","","","",""
"","","","","","image-keyboard-response","51","109530","0.0-26.0","5c2dea19d396500001e2b39d","665500ab8938657b03fbdba8","6657928a4bef0a0d27ea5a93","301","stimuli/11011111.jpg"," ","","feedback_trial","1","","","","","","","","","","","","","","","","","","","","",""
"","","","","","image-keyboard-response","52","110479","0.0-27.0","5c2dea19d396500001e2b39d","665500ab8938657b03fbdba8","6657928a4bef0a0d27ea5a93","948","stimuli/0000001.jpg","0","","prediction_trial","0","","true","","0","true","true","true","true","true","true","[0]","000","001","1","","","","","","",""
"","","","","","image-keyboard-response","53","110783","0.0-28.0","5c2dea19d396500001e2b39d","665500ab8938657b03fbdba8","6657928a4bef0a0d27ea5a93","302","stimuli/00000010.jpg"," ","","feedback_trial","0","","","","","","","","","","","","","","","","","","","","",""
"","","","","","image-keyboard-response","54","111902","0.0-29.0","5c2dea19d396500001e2b39d","665500ab8938657b03fbdba8","6657928a4bef0a0d27ea5a93","1119","stimuli/2101011.jpg","2","","prediction_trial","2","","true","","2","false","false","false","false","false","false","[2,0]","101","011","1","","","","","","",""
"","","","","","image-keyboard-response","55","112221","0.0-30.0","5c2dea19d396500001e2b39d","665500ab8938657b03fbdba8","6657928a4bef0a0d27ea5a93","317","stimuli/21010112.jpg"," ","","feedback_trial","2","","","","","","","","","","","","","","","","","","","","",""
"","","","","","image-keyboard-response","56","113237","0.0-31.0","5c2dea19d396500001e2b39d","665500ab8938657b03fbdba8","6657928a4bef0a0d27ea5a93","1015","stimuli/2101110.jpg","2","","prediction_trial","0","","false","","2","true","true","false","false","false","false","[2,0]","101","110","0","","","","","","",""
"","","","","","image-keyboard-response","57","113625","0.0-32.0","5c2dea19d396500001e2b39d","665500ab8938657b03fbdba8","6657928a4bef0a0d27ea5a93","387","stimuli/21011100.jpg"," ","","feedback_trial","2","","","","","","","","","","","","","","","","","","","","",""
"","","","","","image-keyboard-response","58","117741","0.0-33.0","5c2dea19d396500001e2b39d","665500ab8938657b03fbdba8","6657928a4bef0a0d27ea5a93","4115","stimuli/2010111.jpg","1","","prediction_trial","2","","false","","2","false","false","true","true","false","false","[2]","010","111","0","","","","","","",""
"","","","","","image-keyboard-response","59","118024","0.0-34.0","5c2dea19d396500001e2b39d","665500ab8938657b03fbdba8","6657928a4bef0a0d27ea5a93","282","stimuli/20101112.jpg"," ","","feedback_trial","2","","","","","","","","","","","","","","","","","","","","",""
"","","","","","image-keyboard-response","60","119337","0.0-35.0","5c2dea19d396500001e2b39d","665500ab8938657b03fbdba8","6657928a4bef0a0d27ea5a93","1312","stimuli/1110100.jpg","1","","prediction_trial","0","","false","","1","true","true","false","false","false","false","[0,1]","110","100","0","","","","","","",""
"","","","","","image-keyboard-response","61","120316","0.0-36.0","5c2dea19d396500001e2b39d","665500ab8938657b03fbdba8","6657928a4bef0a0d27ea5a93","978","stimuli/11101000.jpg"," ","","feedback_trial","0","","","","","","","","","","","","","","","","","","","","",""
"","","","","","image-keyboard-response","62","121345","0.0-37.0","5c2dea19d396500001e2b39d","665500ab8938657b03fbdba8","6657928a4bef0a0d27ea5a93","1028","stimuli/2000010.jpg","2","","prediction_trial","2","","true","","2","true","true","true","true","true","true","[2]","000","010","1","","","","","","",""
"","","","","","image-keyboard-response","63","121672","0.0-38.0","5c2dea19d396500001e2b39d","665500ab8938657b03fbdba8","6657928a4bef0a0d27ea5a93","326","stimuli/20000102.jpg"," ","","feedback_trial","2","","","","","","","","","","","","","","","","","","","","",""
"","","","","","image-keyboard-response","64","123246","0.0-39.0","5c2dea19d396500001e2b39d","665500ab8938657b03fbdba8","6657928a4bef0a0d27ea5a93","1572","stimuli/2110100.jpg","2","","prediction_trial","2","","true","","2","true","true","true","true","true","true","[2]","110","100","1","","","","","","",""
"","","","","","image-keyboard-response","65","123577","0.0-40.0","5c2dea19d396500001e2b39d","665500ab8938657b03fbdba8","6657928a4bef0a0d27ea5a93","330","stimuli/21101002.jpg"," ","","feedback_trial","2","","","","","","","","","","","","","","","","","","","","",""
"","","","","","image-keyboard-response","66","124584","0.0-41.0","5c2dea19d396500001e2b39d","665500ab8938657b03fbdba8","6657928a4bef0a0d27ea5a93","1006","stimuli/0111011.jpg","0","","prediction_trial","2","","false","","0","true","true","false","false","false","false","[1,0,2]","111","011","0","","","","","","",""
"","","","","","image-keyboard-response","67","124900","0.0-42.0","5c2dea19d396500001e2b39d","665500ab8938657b03fbdba8","6657928a4bef0a0d27ea5a93","315","stimuli/01110112.jpg"," ","","feedback_trial","1","","","","","","","","","","","","","","","","","","","","",""
"","","","","","image-keyboard-response","68","125871","0.0-43.0","5c2dea19d396500001e2b39d","665500ab8938657b03fbdba8","6657928a4bef0a0d27ea5a93","969","stimuli/1101101.jpg","1","","prediction_trial","1","","true","","1","true","true","true","true","true","true","[1]","101","101","1","","","","","","",""
"","","","","","image-keyboard-response","69","126183","0.0-44.0","5c2dea19d396500001e2b39d","665500ab8938657b03fbdba8","6657928a4bef0a0d27ea5a93","311","stimuli/11011011.jpg"," ","","feedback_trial","1","","","","","","","","","","","","","","","","","","","","",""
"","","","","","image-keyboard-response","70","127287","0.0-45.0","5c2dea19d396500001e2b39d","665500ab8938657b03fbdba8","6657928a4bef0a0d27ea5a93","1102","stimuli/1111010.jpg","1","","prediction_trial","0","","false","","1","false","true","false","false","false","false","[0,2,1]","111","010","0","","","","","","",""
"","","","","","image-keyboard-response","71","127675","0.0-46.0","5c2dea19d396500001e2b39d","665500ab8938657b03fbdba8","6657928a4bef0a0d27ea5a93","387","stimuli/11110100.jpg"," ","","feedback_trial","0","","","","","","","","","","","","","","","","","","","","",""
"","","","","","image-keyboard-response","72","128879","0.0-47.0","5c2dea19d396500001e2b39d","665500ab8938657b03fbdba8","6657928a4bef0a0d27ea5a93","1203","stimuli/1110001.jpg","1","","prediction_trial","1","","true","","1","true","true","false","false","false","false","[0,1]","110","001","1","","","","","","",""
"","","","","","image-keyboard-response","73","129219","0.0-48.0","5c2dea19d396500001e2b39d","665500ab8938657b03fbdba8","6657928a4bef0a0d27ea5a93","339","stimuli/11100011.jpg"," ","","feedback_trial","0","","","","","","","","","","","","","","","","","","","","",""
"","","","","","image-keyboard-response","74","130135","0.0-49.0","5c2dea19d396500001e2b39d","665500ab8938657b03fbdba8","6657928a4bef0a0d27ea5a93","915","stimuli/2010110.jpg","2","","prediction_trial","2","","true","","2","true","true","true","true","true","true","[2]","010","110","1","","","","","","",""
"","","","","","image-keyboard-response","75","130466","0.0-50.0","5c2dea19d396500001e2b39d","665500ab8938657b03fbdba8","6657928a4bef0a0d27ea5a93","330","stimuli/20101102.jpg"," ","","feedback_trial","2","","","","","","","","","","","","","","","","","","","","",""
"","","","","","image-keyboard-response","76","132344","0.0-51.0","5c2dea19d396500001e2b39d","665500ab8938657b03fbdba8","6657928a4bef0a0d27ea5a93","1877","stimuli/1011000.jpg","1","","prediction_trial","2","","false","","1","true","true","false","false","false","false","[1,2]","011","000","0","","","","","","",""
"","","","","","image-keyboard-response","77","133247","0.0-52.0","5c2dea19d396500001e2b39d","665500ab8938657b03fbdba8","6657928a4bef0a0d27ea5a93","902","stimuli/10110002.jpg"," ","","feedback_trial","1","","","","","","","","","","","","","","","","","","","","",""
"","","","","","image-keyboard-response","78","134658","0.0-53.0","5c2dea19d396500001e2b39d","665500ab8938657b03fbdba8","6657928a4bef0a0d27ea5a93","1409","stimuli/1100000.jpg","1","","prediction_trial","1","","true","","1","true","true","true","true","true","true","[1]","100","000","1","","","","","","",""
"","","","","","image-keyboard-response","79","134973","0.0-54.0","5c2dea19d396500001e2b39d","665500ab8938657b03fbdba8","6657928a4bef0a0d27ea5a93","314","stimuli/11000001.jpg"," ","","feedback_trial","1","","","","","","","","","","","","","","","","","","","","",""
"","","","","","image-keyboard-response","80","136543","0.0-55.0","5c2dea19d396500001e2b39d","665500ab8938657b03fbdba8","6657928a4bef0a0d27ea5a93","1569","stimuli/2111100.jpg","2","","prediction_trial","1","","false","","2","true","true","false","false","false","false","[1,0,2]","111","100","0","","","","","","",""
"","","","","","image-keyboard-response","81","136961","0.0-56.0","5c2dea19d396500001e2b39d","665500ab8938657b03fbdba8","6657928a4bef0a0d27ea5a93","417","stimuli/21111001.jpg"," ","","feedback_trial","1","","","","","","","","","","","","","","","","","","","","",""
"","","","","","image-keyboard-response","82","139013","0.0-57.0","5c2dea19d396500001e2b39d","665500ab8938657b03fbdba8","6657928a4bef0a0d27ea5a93","2051","stimuli/2110111.jpg","1","","prediction_trial","2","","false","","2","false","false","true","true","false","false","[2]","110","111","0","","","","","","",""
"","","","","","image-keyboard-response","83","139536","0.0-58.0","5c2dea19d396500001e2b39d","665500ab8938657b03fbdba8","6657928a4bef0a0d27ea5a93","522","stimuli/21101112.jpg"," ","","feedback_trial","2","","","","","","","","","","","","","","","","","","","","",""
"","","","","","image-keyboard-response","84","140240","0.0-59.0","5c2dea19d396500001e2b39d","665500ab8938657b03fbdba8","6657928a4bef0a0d27ea5a93","703","stimuli/2111010.jpg","2","","prediction_trial","2","","true","","2","true","true","false","false","false","false","[2,0,1]","111","010","1","","","","","","",""
"","","","","","image-keyboard-response","85","140574","0.0-60.0","5c2dea19d396500001e2b39d","665500ab8938657b03fbdba8","6657928a4bef0a0d27ea5a93","333","stimuli/21110102.jpg"," ","","feedback_trial","2","","","","","","","","","","","","","","","","","","","","",""
"","","","","","image-keyboard-response","86","141774","0.0-61.0","5c2dea19d396500001e2b39d","665500ab8938657b03fbdba8","6657928a4bef0a0d27ea5a93","1194","stimuli/0001010.jpg","0","","prediction_trial","0","","true","","0","true","true","true","true","true","true","[0]","001","010","1","","","","","","",""
"","","","","","image-keyboard-response","87","141998","0.0-62.0","5c2dea19d396500001e2b39d","665500ab8938657b03fbdba8","6657928a4bef0a0d27ea5a93","222","stimuli/00010100.jpg"," ","","feedback_trial","0","","","","","","","","","","","","","","","","","","","","",""
"","","","","","image-keyboard-response","88","143132","0.0-63.0","5c2dea19d396500001e2b39d","665500ab8938657b03fbdba8","6657928a4bef0a0d27ea5a93","1133","stimuli/0110000.jpg","0","","prediction_trial","1","","false","","0","true","true","false","false","false","false","[0,1]","110","000","0","","","","","","",""
"","","","","","image-keyboard-response","89","143661","0.0-64.0","5c2dea19d396500001e2b39d","665500ab8938657b03fbdba8","6657928a4bef0a0d27ea5a93","528","stimuli/01100001.jpg"," ","","feedback_trial","0","","","","","","","","","","","","","","","","","","","","",""
"","","","","","image-keyboard-response","90","145888","0.0-65.0","5c2dea19d396500001e2b39d","665500ab8938657b03fbdba8","6657928a4bef0a0d27ea5a93","2226","stimuli/1111011.jpg","1","","prediction_trial","0","","false","","1","false","false","false","false","false","false","[1,2,0]","111","011","0","","","","","","",""
"","","","","","image-keyboard-response","91","146328","0.0-66.0","5c2dea19d396500001e2b39d","665500ab8938657b03fbdba8","6657928a4bef0a0d27ea5a93","439","stimuli/11110110.jpg"," ","","feedback_trial","1","","","","","","","","","","","","","","","","","","","","",""
"","","","","","image-keyboard-response","92","147927","0.0-67.0","5c2dea19d396500001e2b39d","665500ab8938657b03fbdba8","6657928a4bef0a0d27ea5a93","1598","stimuli/0101110.jpg","1","","prediction_trial","2","","false","","0","false","false","false","false","false","false","[0,2]","101","110","0","","","","","","",""
"","","","","","image-keyboard-response","93","148244","0.0-68.0","5c2dea19d396500001e2b39d","665500ab8938657b03fbdba8","6657928a4bef0a0d27ea5a93","315","stimuli/01011102.jpg"," ","","feedback_trial","0","","","","","","","","","","","","","","","","","","","","",""
"","","","","","image-keyboard-response","94","149767","0.0-69.0","5c2dea19d396500001e2b39d","665500ab8938657b03fbdba8","6657928a4bef0a0d27ea5a93","1523","stimuli/1000111.jpg","0","","prediction_trial","1","","false","","1","false","false","true","true","false","false","[1]","000","111","0","","","","","","",""
"","","","","","image-keyboard-response","95","150107","0.0-70.0","5c2dea19d396500001e2b39d","665500ab8938657b03fbdba8","6657928a4bef0a0d27ea5a93","339","stimuli/10001111.jpg"," ","","feedback_trial","1","","","","","","","","","","","","","","","","","","","","",""
"","","","","","image-keyboard-response","96","151722","0.0-71.0","5c2dea19d396500001e2b39d","665500ab8938657b03fbdba8","6657928a4bef0a0d27ea5a93","1614","stimuli/0111110.jpg","2","","prediction_trial","1","","false","","0","false","false","false","false","false","false","[1,0,2]","111","110","0","","","","","","",""
"","","","","","image-keyboard-response","97","152102","0.0-72.0","5c2dea19d396500001e2b39d","665500ab8938657b03fbdba8","6657928a4bef0a0d27ea5a93","379","stimuli/01111101.jpg"," ","","feedback_trial","1","","","","","","","","","","","","","","","","","","","","",""
"","","","","","image-keyboard-response","98","153530","0.0-73.0","5c2dea19d396500001e2b39d","665500ab8938657b03fbdba8","6657928a4bef0a0d27ea5a93","1427","stimuli/0001101.jpg","0","","prediction_trial","0","","true","","0","false","false","true","true","false","false","[0]","001","101","1","","","","","","",""
"","","","","","image-keyboard-response","99","153853","0.0-74.0","5c2dea19d396500001e2b39d","665500ab8938657b03fbdba8","6657928a4bef0a0d27ea5a93","321","stimuli/00011010.jpg"," ","","feedback_trial","0","","","","","","","","","","","","","","","","","","","","",""
"","","","","","image-keyboard-response","100","155593","0.0-75.0","5c2dea19d396500001e2b39d","665500ab8938657b03fbdba8","6657928a4bef0a0d27ea5a93","1739","stimuli/2110101.jpg","2","","prediction_trial","2","","true","","2","false","false","true","true","false","false","[2]","110","101","1","","","","","","",""
"","","","","","image-keyboard-response","101","155934","0.0-76.0","5c2dea19d396500001e2b39d","665500ab8938657b03fbdba8","6657928a4bef0a0d27ea5a93","339","stimuli/21101012.jpg"," ","","feedback_trial","2","","","","","","","","","","","","","","","","","","","","",""
"","","","","","image-keyboard-response","102","157017","0.0-77.0","5c2dea19d396500001e2b39d","665500ab8938657b03fbdba8","6657928a4bef0a0d27ea5a93","1082","stimuli/0110001.jpg","0","","prediction_trial","0","","true","","0","true","true","false","false","false","false","[1,0]","110","001","1","","","","","","",""
"","","","","","image-keyboard-response","103","157305","0.0-78.0","5c2dea19d396500001e2b39d","665500ab8938657b03fbdba8","6657928a4bef0a0d27ea5a93","287","stimuli/01100010.jpg"," ","","feedback_trial","1","","","","","","","","","","","","","","","","","","","","",""
"","","","","","image-keyboard-response","104","158262","0.0-79.0","5c2dea19d396500001e2b39d","665500ab8938657b03fbdba8","6657928a4bef0a0d27ea5a93","948","stimuli/0111001.jpg","0","","prediction_trial","2","","false","","0","true","true","false","false","false","false","[2,0,1]","111","001","0","","","","","","",""
"","","","","","image-keyboard-response","105","158496","0.0-80.0","5c2dea19d396500001e2b39d","665500ab8938657b03fbdba8","6657928a4bef0a0d27ea5a93","233","stimuli/01110012.jpg"," ","","feedback_trial","2","","","","","","","","","","","","","","","","","","","","",""
"","","","","","image-keyboard-response","106","159724","0.0-81.0","5c2dea19d396500001e2b39d","665500ab8938657b03fbdba8","6657928a4bef0a0d27ea5a93","1227","stimuli/1010111.jpg","1","","prediction_trial","1","","true","","1","false","false","false","true","false","false","[1]","010","111","1","","","","","","",""
"","","","","","image-keyboard-response","107","159977","0.0-82.0","5c2dea19d396500001e2b39d","665500ab8938657b03fbdba8","6657928a4bef0a0d27ea5a93","252","stimuli/10101111.jpg"," ","","feedback_trial","1","","","","","","","","","","","","","","","","","","","","",""
"","","","","","image-keyboard-response","108","161483","0.0-83.0","5c2dea19d396500001e2b39d","665500ab8938657b03fbdba8","6657928a4bef0a0d27ea5a93","1505","stimuli/0100010.jpg","0","","prediction_trial","0","","true","","0","true","true","false","true","false","true","[0]","100","010","1","","","","","","",""
"","","","","","image-keyboard-response","109","161757","0.0-84.0","5c2dea19d396500001e2b39d","665500ab8938657b03fbdba8","6657928a4bef0a0d27ea5a93","273","stimuli/01000100.jpg"," ","","feedback_trial","0","","","","","","","","","","","","","","","","","","","","",""
"","","","","","image-keyboard-response","110","165568","0.0-85.0","5c2dea19d396500001e2b39d","665500ab8938657b03fbdba8","6657928a4bef0a0d27ea5a93","3810","stimuli/0100110.jpg","0","","prediction_trial","0","","true","","0","false","false","false","true","false","false","[0]","100","110","1","","","","","","",""
"","","","","","image-keyboard-response","111","165844","0.0-86.0","5c2dea19d396500001e2b39d","665500ab8938657b03fbdba8","6657928a4bef0a0d27ea5a93","274","stimuli/01001100.jpg"," ","","feedback_trial","0","","","","","","","","","","","","","","","","","","","","",""
"","","","","","image-keyboard-response","112","168541","0.0-87.0","5c2dea19d396500001e2b39d","665500ab8938657b03fbdba8","6657928a4bef0a0d27ea5a93","2696","stimuli/0110111.jpg","2","","prediction_trial","1","","false","","0","false","false","false","false","false","false","[0,1]","110","111","0","","","","","","",""
"","","","","","image-keyboard-response","113","168988","0.0-88.0","5c2dea19d396500001e2b39d","665500ab8938657b03fbdba8","6657928a4bef0a0d27ea5a93","446","stimuli/01101111.jpg"," ","","feedback_trial","0","","","","","","","","","","","","","","","","","","","","",""
"","","","","","image-keyboard-response","114","170048","0.0-89.0","5c2dea19d396500001e2b39d","665500ab8938657b03fbdba8","6657928a4bef0a0d27ea5a93","1059","stimuli/1110000.jpg","1","","prediction_trial","0","","false","","1","true","true","false","false","false","false","[0,1]","110","000","0","","","","","","",""
"","","","","","image-keyboard-response","115","170566","0.0-90.0","5c2dea19d396500001e2b39d","665500ab8938657b03fbdba8","6657928a4bef0a0d27ea5a93","517","stimuli/11100000.jpg"," ","","feedback_trial","0","","","","","","","","","","","","","","","","","","","","",""
"","","","","","image-keyboard-response","116","171622","0.0-91.0","5c2dea19d396500001e2b39d","665500ab8938657b03fbdba8","6657928a4bef0a0d27ea5a93","1055","stimuli/0001011.jpg","0","","prediction_trial","0","","true","","0","true","true","true","true","true","true","[0]","001","011","1","","","","","","",""
"","","","","","image-keyboard-response","117","171955","0.0-92.0","5c2dea19d396500001e2b39d","665500ab8938657b03fbdba8","6657928a4bef0a0d27ea5a93","332","stimuli/00010110.jpg"," ","","feedback_trial","0","","","","","","","","","","","","","","","","","","","","",""
"","","","","","image-keyboard-response","118","173424","0.0-93.0","5c2dea19d396500001e2b39d","665500ab8938657b03fbdba8","6657928a4bef0a0d27ea5a93","1468","stimuli/2111110.jpg","2","","prediction_trial","2","","true","","2","true","true","false","false","false","false","[0,1,2]","111","110","1","","","","","","",""
"","","","","","image-keyboard-response","119","173898","0.0-94.0","5c2dea19d396500001e2b39d","665500ab8938657b03fbdba8","6657928a4bef0a0d27ea5a93","473","stimuli/21111102.jpg"," ","","feedback_trial","0","","","","","","","","","","","","","","","","","","","","",""
"","","","","","image-keyboard-response","120","177062","0.0-95.0","5c2dea19d396500001e2b39d","665500ab8938657b03fbdba8","6657928a4bef0a0d27ea5a93","3163","stimuli/0101100.jpg","0","","prediction_trial","0","","true","","0","false","true","false","false","false","false","[0,2]","101","100","1","","","","","","",""
"","","","","","image-keyboard-response","121","177597","0.0-96.0","5c2dea19d396500001e2b39d","665500ab8938657b03fbdba8","6657928a4bef0a0d27ea5a93","534","stimuli/01011000.jpg"," ","","feedback_trial","0","","","","","","","","","","","","","","","","","","","","",""
"","","","","","image-keyboard-response","122","179281","0.0-97.0","5c2dea19d396500001e2b39d","665500ab8938657b03fbdba8","6657928a4bef0a0d27ea5a93","1677","stimuli/2111111.jpg","1","","prediction_trial","2","","false","","2","false","false","false","false","false","false","[1,2,0]","111","111","0","","","","","","",""
"","","","","","image-keyboard-response","123","179530","0.0-98.0","5c2dea19d396500001e2b39d","665500ab8938657b03fbdba8","6657928a4bef0a0d27ea5a93","248","stimuli/21111112.jpg"," ","","feedback_trial","1","","","","","","","","","","","","","","","","","","","","",""
"","","","","","image-keyboard-response","124","181615","0.0-99.0","5c2dea19d396500001e2b39d","665500ab8938657b03fbdba8","6657928a4bef0a0d27ea5a93","2084","stimuli/1010110.jpg","1","","prediction_trial","1","","true","","1","false","false","false","true","false","false","[1]","010","110","1","","","","","","",""
"","","","","","image-keyboard-response","125","181859","0.0-100.0","5c2dea19d396500001e2b39d","665500ab8938657b03fbdba8","6657928a4bef0a0d27ea5a93","244","stimuli/10101101.jpg"," ","","feedback_trial","1","","","","","","","","","","","","","","","","","","","","",""
"","","","","","image-keyboard-response","126","184947","0.0-101.0","5c2dea19d396500001e2b39d","665500ab8938657b03fbdba8","6657928a4bef0a0d27ea5a93","3087","stimuli/2101001.jpg","0","","prediction_trial","0","","true","","2","false","true","false","false","false","false","[0,2]","101","001","1","","","","","","",""
"","","","","","image-keyboard-response","127","185220","0.0-102.0","5c2dea19d396500001e2b39d","665500ab8938657b03fbdba8","6657928a4bef0a0d27ea5a93","272","stimuli/21010010.jpg"," ","","feedback_trial","0","","","","","","","","","","","","","","","","","","","","",""
"","","","","","image-keyboard-response","128","186679","0.0-103.0","5c2dea19d396500001e2b39d","665500ab8938657b03fbdba8","6657928a4bef0a0d27ea5a93","1458","stimuli/1001000.jpg","1","","prediction_trial","1","","true","","1","true","true","true","true","true","true","[1]","001","000","1","","","","","","",""
"","","","","","image-keyboard-response","129","187141","0.0-104.0","5c2dea19d396500001e2b39d","665500ab8938657b03fbdba8","6657928a4bef0a0d27ea5a93","461","stimuli/10010001.jpg"," ","","feedback_trial","1","","","","","","","","","","","","","","","","","","","","",""
"","","","","","image-keyboard-response","130","188159","0.0-105.0","5c2dea19d396500001e2b39d","665500ab8938657b03fbdba8","6657928a4bef0a0d27ea5a93","1017","stimuli/2010010.jpg","2","","prediction_trial","2","","true","","2","true","true","true","true","true","true","[2]","010","010","1","","","","","","",""
"","","","","","image-keyboard-response","131","188420","0.0-106.0","5c2dea19d396500001e2b39d","665500ab8938657b03fbdba8","6657928a4bef0a0d27ea5a93","260","stimuli/20100102.jpg"," ","","feedback_trial","2","","","","","","","","","","","","","","","","","","","","",""
"","","","","","image-keyboard-response","132","189611","0.0-107.0","5c2dea19d396500001e2b39d","665500ab8938657b03fbdba8","6657928a4bef0a0d27ea5a93","1189","stimuli/0100100.jpg","0","","prediction_trial","0","","true","","0","false","true","false","true","false","true","[0]","100","100","1","","","","","","",""
"","","","","","image-keyboard-response","133","189885","0.0-108.0","5c2dea19d396500001e2b39d","665500ab8938657b03fbdba8","6657928a4bef0a0d27ea5a93","273","stimuli/01001000.jpg"," ","","feedback_trial","0","","","","","","","","","","","","","","","","","","","","",""
"","","","","","image-keyboard-response","134","191611","0.0-109.0","5c2dea19d396500001e2b39d","665500ab8938657b03fbdba8","6657928a4bef0a0d27ea5a93","1725","stimuli/2101000.jpg","2","","prediction_trial","0","","false","","2","true","true","false","false","false","false","[2,0]","101","000","0","","","","","","",""
"","","","","","image-keyboard-response","135","191864","0.0-110.0","5c2dea19d396500001e2b39d","665500ab8938657b03fbdba8","6657928a4bef0a0d27ea5a93","253","stimuli/21010000.jpg"," ","","feedback_trial","2","","","","","","","","","","","","","","","","","","","","",""
"","","","","","image-keyboard-response","136","193535","0.0-111.0","5c2dea19d396500001e2b39d","665500ab8938657b03fbdba8","6657928a4bef0a0d27ea5a93","1670","stimuli/2011110.jpg","2","","prediction_trial","1","","false","","2","true","true","false","false","false","false","[2,1]","011","110","0","","","","","","",""
"","","","","","image-keyboard-response","137","193923","0.0-112.0","5c2dea19d396500001e2b39d","665500ab8938657b03fbdba8","6657928a4bef0a0d27ea5a93","387","stimuli/20111101.jpg"," ","","feedback_trial","2","","","","","","","","","","","","","","","","","","","","",""
"","","","","","image-keyboard-response","138","195303","0.0-113.0","5c2dea19d396500001e2b39d","665500ab8938657b03fbdba8","6657928a4bef0a0d27ea5a93","1379","stimuli/0111100.jpg","0","","prediction_trial","0","","true","","0","false","true","false","false","false","false","[0,1,2]","111","100","1","","","","","","",""
"","","","","","image-keyboard-response","139","195554","0.0-114.0","5c2dea19d396500001e2b39d","665500ab8938657b03fbdba8","6657928a4bef0a0d27ea5a93","250","stimuli/01111000.jpg"," ","","feedback_trial","0","","","","","","","","","","","","","","","","","","","","",""
"","","","","","image-keyboard-response","140","196585","0.0-115.0","5c2dea19d396500001e2b39d","665500ab8938657b03fbdba8","6657928a4bef0a0d27ea5a93","1023","stimuli/0000011.jpg","0","","prediction_trial","0","","true","","0","true","true","true","true","true","true","[0]","000","011","1","","","","","","",""
"","","","","","image-keyboard-response","141","196815","0.0-116.0","5c2dea19d396500001e2b39d","665500ab8938657b03fbdba8","6657928a4bef0a0d27ea5a93","229","stimuli/00000110.jpg"," ","","feedback_trial","0","","","","","","","","","","","","","","","","","","","","",""
"","","","","","image-keyboard-response","142","199189","0.0-117.0","5c2dea19d396500001e2b39d","665500ab8938657b03fbdba8","6657928a4bef0a0d27ea5a93","2373","stimuli/1100111.jpg","0","","prediction_trial","1","","false","","1","false","false","true","true","false","false","[1]","100","111","0","","","","","","",""
"","","","","","image-keyboard-response","143","199825","0.0-118.0","5c2dea19d396500001e2b39d","665500ab8938657b03fbdba8","6657928a4bef0a0d27ea5a93","634","stimuli/11001111.jpg"," ","","feedback_trial","1","","","","","","","","","","","","","","","","","","","","",""
"","","","","","image-keyboard-response","144","200797","0.0-119.0","5c2dea19d396500001e2b39d","665500ab8938657b03fbdba8","6657928a4bef0a0d27ea5a93","971","stimuli/0000000.jpg","0","","prediction_trial","0","","true","","0","true","true","true","true","true","true","[0]","000","000","1","","","","","","",""
"","","","","","image-keyboard-response","145","200994","0.0-120.0","5c2dea19d396500001e2b39d","665500ab8938657b03fbdba8","6657928a4bef0a0d27ea5a93","196","stimuli/00000000.jpg"," ","","feedback_trial","0","","","","","","","","","","","","","","","","","","","","",""
"","","","","","image-keyboard-response","146","201887","0.0-121.0","5c2dea19d396500001e2b39d","665500ab8938657b03fbdba8","6657928a4bef0a0d27ea5a93","893","stimuli/2000100.jpg","2","","prediction_trial","2","","true","","2","true","true","true","true","true","true","[2]","000","100","1","","","","","","",""
"","","","","","image-keyboard-response","147","202163","0.0-122.0","5c2dea19d396500001e2b39d","665500ab8938657b03fbdba8","6657928a4bef0a0d27ea5a93","275","stimuli/20001002.jpg"," ","","feedback_trial","2","","","","","","","","","","","","","","","","","","","","",""
"","","","","","image-keyboard-response","148","203283","0.0-123.0","5c2dea19d396500001e2b39d","665500ab8938657b03fbdba8","6657928a4bef0a0d27ea5a93","1119","stimuli/1101001.jpg","1","","prediction_trial","1","","true","","1","true","true","true","true","true","true","[1]","101","001","1","","","","","","",""
"","","","","","image-keyboard-response","149","203513","0.0-124.0","5c2dea19d396500001e2b39d","665500ab8938657b03fbdba8","6657928a4bef0a0d27ea5a93","228","stimuli/11010011.jpg"," ","","feedback_trial","1","","","","","","","","","","","","","","","","","","","","",""
"","","","","","image-keyboard-response","150","205750","0.0-125.0","5c2dea19d396500001e2b39d","665500ab8938657b03fbdba8","6657928a4bef0a0d27ea5a93","2236","stimuli/0111101.jpg","1","","prediction_trial","1","","true","","0","false","false","false","false","false","false","[0,1,2]","111","101","1","","","","","","",""
"","","","","","image-keyboard-response","151","206051","0.0-126.0","5c2dea19d396500001e2b39d","665500ab8938657b03fbdba8","6657928a4bef0a0d27ea5a93","300","stimuli/01111011.jpg"," ","","feedback_trial","0","","","","","","","","","","","","","","","","","","","","",""
"","","","","","image-keyboard-response","152","207274","0.0-127.0","5c2dea19d396500001e2b39d","665500ab8938657b03fbdba8","6657928a4bef0a0d27ea5a93","1222","stimuli/1100110.jpg","1","","prediction_trial","1","","true","","1","false","false","true","true","false","false","[1]","100","110","1","","","","","","",""
"","","","","","image-keyboard-response","153","207546","0.0-128.0","5c2dea19d396500001e2b39d","665500ab8938657b03fbdba8","6657928a4bef0a0d27ea5a93","271","stimuli/11001101.jpg"," ","","feedback_trial","1","","","","","","","","","","","","","","","","","","","","",""
"","","","","","image-keyboard-response","154","208615","0.0-129.0","5c2dea19d396500001e2b39d","665500ab8938657b03fbdba8","6657928a4bef0a0d27ea5a93","1068","stimuli/0110010.jpg","0","","prediction_trial","0","","true","","0","true","true","false","false","false","false","[0,1]","110","010","1","","","","","","",""
"","","","","","image-keyboard-response","155","208970","0.0-130.0","5c2dea19d396500001e2b39d","665500ab8938657b03fbdba8","6657928a4bef0a0d27ea5a93","353","stimuli/01100100.jpg"," ","","feedback_trial","0","","","","","","","","","","","","","","","","","","","","",""
"","","","","","image-keyboard-response","156","211874","0.0-131.0","5c2dea19d396500001e2b39d","665500ab8938657b03fbdba8","6657928a4bef0a0d27ea5a93","2903","stimuli/0100111.jpg","2","","prediction_trial","0","","false","","0","false","false","false","true","false","false","[0]","100","111","0","","","","","","",""
"","","","","","image-keyboard-response","157","212254","0.0-132.0","5c2dea19d396500001e2b39d","665500ab8938657b03fbdba8","6657928a4bef0a0d27ea5a93","379","stimuli/01001110.jpg"," ","","feedback_trial","0","","","","","","","","","","","","","","","","","","","","",""
"","","","","","image-keyboard-response","158","214477","0.0-133.0","5c2dea19d396500001e2b39d","665500ab8938657b03fbdba8","6657928a4bef0a0d27ea5a93","2222","stimuli/2011101.jpg","1","","prediction_trial","2","","false","","2","false","false","false","false","false","false","[2,1]","011","101","0","","","","","","",""
"","","","","","image-keyboard-response","159","214818","0.0-134.0","5c2dea19d396500001e2b39d","665500ab8938657b03fbdba8","6657928a4bef0a0d27ea5a93","340","stimuli/20111012.jpg"," ","","feedback_trial","2","","","","","","","","","","","","","","","","","","","","",""
"","","","","","image-keyboard-response","160","215808","0.0-135.0","5c2dea19d396500001e2b39d","665500ab8938657b03fbdba8","6657928a4bef0a0d27ea5a93","988","stimuli/2000000.jpg","2","","prediction_trial","2","","true","","2","true","true","true","true","true","true","[2]","000","000","1","","","","","","",""
"","","","","","image-keyboard-response","161","216102","0.0-136.0","5c2dea19d396500001e2b39d","665500ab8938657b03fbdba8","6657928a4bef0a0d27ea5a93","293","stimuli/20000002.jpg"," ","","feedback_trial","2","","","","","","","","","","","","","","","","","","","","",""
"","","","","","image-keyboard-response","162","217237","0.0-137.0","5c2dea19d396500001e2b39d","665500ab8938657b03fbdba8","6657928a4bef0a0d27ea5a93","1135","stimuli/0001001.jpg","0","","prediction_trial","0","","true","","0","true","true","true","true","true","true","[0]","001","001","1","","","","","","",""
"","","","","","image-keyboard-response","163","217501","0.0-138.0","5c2dea19d396500001e2b39d","665500ab8938657b03fbdba8","6657928a4bef0a0d27ea5a93","263","stimuli/00010010.jpg"," ","","feedback_trial","0","","","","","","","","","","","","","","","","","","","","",""
"","","","","","image-keyboard-response","164","218540","0.0-139.0","5c2dea19d396500001e2b39d","665500ab8938657b03fbdba8","6657928a4bef0a0d27ea5a93","1038","stimuli/1001101.jpg","1","","prediction_trial","1","","true","","1","true","true","true","true","true","true","[1]","001","101","1","","","","","","",""
"","","","","","image-keyboard-response","165","218805","0.0-140.0","5c2dea19d396500001e2b39d","665500ab8938657b03fbdba8","6657928a4bef0a0d27ea5a93","264","stimuli/10011011.jpg"," ","","feedback_trial","1","","","","","","","","","","","","","","","","","","","","",""
"","","","","","image-keyboard-response","166","219894","0.0-141.0","5c2dea19d396500001e2b39d","665500ab8938657b03fbdba8","6657928a4bef0a0d27ea5a93","1088","stimuli/1010100.jpg","1","","prediction_trial","1","","true","","1","true","true","false","true","false","true","[1]","010","100","1","","","","","","",""
"","","","","","image-keyboard-response","167","220170","0.0-142.0","5c2dea19d396500001e2b39d","665500ab8938657b03fbdba8","6657928a4bef0a0d27ea5a93","274","stimuli/10101001.jpg"," ","","feedback_trial","1","","","","","","","","","","","","","","","","","","","","",""
"","","","","","image-keyboard-response","168","221329","0.0-143.0","5c2dea19d396500001e2b39d","665500ab8938657b03fbdba8","6657928a4bef0a0d27ea5a93","1158","stimuli/0011101.jpg","0","","prediction_trial","0","","true","","0","false","false","true","true","false","false","[0]","011","101","1","","","","","","",""
"","","","","","image-keyboard-response","169","221601","0.0-144.0","5c2dea19d396500001e2b39d","665500ab8938657b03fbdba8","6657928a4bef0a0d27ea5a93","271","stimuli/00111010.jpg"," ","","feedback_trial","0","","","","","","","","","","","","","","","","","","","","",""
"","","","","","image-keyboard-response","170","222677","0.0-145.0","5c2dea19d396500001e2b39d","665500ab8938657b03fbdba8","6657928a4bef0a0d27ea5a93","1075","stimuli/1010001.jpg","1","","prediction_trial","1","","true","","1","true","true","false","true","false","true","[1]","010","001","1","","","","","","",""
"","","","","","image-keyboard-response","171","222974","0.0-146.0","5c2dea19d396500001e2b39d","665500ab8938657b03fbdba8","6657928a4bef0a0d27ea5a93","296","stimuli/10100011.jpg"," ","","feedback_trial","1","","","","","","","","","","","","","","","","","","","","",""
"","","","","","image-keyboard-response","172","223784","0.0-147.0","5c2dea19d396500001e2b39d","665500ab8938657b03fbdba8","6657928a4bef0a0d27ea5a93","809","stimuli/1111001.jpg","1","","prediction_trial","0","","false","","1","true","true","false","false","false","false","[0,1,2]","111","001","0","","","","","","",""
"","","","","","image-keyboard-response","173","224398","0.0-148.0","5c2dea19d396500001e2b39d","665500ab8938657b03fbdba8","6657928a4bef0a0d27ea5a93","612","stimuli/11110010.jpg"," ","","feedback_trial","0","","","","","","","","","","","","","","","","","","","","",""
"","","","","","image-keyboard-response","174","225046","0.0-149.0","5c2dea19d396500001e2b39d","665500ab8938657b03fbdba8","6657928a4bef0a0d27ea5a93","647","stimuli/2000110.jpg","2","","prediction_trial","2","","true","","2","true","true","true","true","true","true","[2]","000","110","1","","","","","","",""
"","","","","","image-keyboard-response","175","225369","0.0-150.0","5c2dea19d396500001e2b39d","665500ab8938657b03fbdba8","6657928a4bef0a0d27ea5a93","322","stimuli/20001102.jpg"," ","","feedback_trial","2","","","","","","","","","","","","","","","","","","","","",""
"","","","","","image-keyboard-response","176","226033","0.0-151.0","5c2dea19d396500001e2b39d","665500ab8938657b03fbdba8","6657928a4bef0a0d27ea5a93","657","stimuli/2011000.jpg","2","","prediction_trial","2","","true","","2","true","true","false","false","false","false","[1,2]","011","000","1","","","","","","",""
"","","","","","image-keyboard-response","177","226334","0.0-152.0","5c2dea19d396500001e2b39d","665500ab8938657b03fbdba8","6657928a4bef0a0d27ea5a93","300","stimuli/20110002.jpg"," ","","feedback_trial","1","","","","","","","","","","","","","","","","","","","","",""
"","","","","","image-keyboard-response","178","226986","0.0-153.0","5c2dea19d396500001e2b39d","665500ab8938657b03fbdba8","6657928a4bef0a0d27ea5a93","650","stimuli/0010010.jpg","0","","prediction_trial","0","","true","","0","true","true","true","true","true","true","[0]","010","010","1","","","","","","",""
"","","","","","image-keyboard-response","179","227270","0.0-154.0","5c2dea19d396500001e2b39d","665500ab8938657b03fbdba8","6657928a4bef0a0d27ea5a93","284","stimuli/00100100.jpg"," ","","feedback_trial","0","","","","","","","","","","","","","","","","","","","","",""
"","","","","","image-keyboard-response","180","227956","0.0-155.0","5c2dea19d396500001e2b39d","665500ab8938657b03fbdba8","6657928a4bef0a0d27ea5a93","685","stimuli/0101010.jpg","0","","prediction_trial","2","","false","","0","true","true","false","false","false","false","[2,0]","101","010","0","","","","","","",""
"","","","","","image-keyboard-response","181","228530","0.0-156.0","5c2dea19d396500001e2b39d","665500ab8938657b03fbdba8","6657928a4bef0a0d27ea5a93","573","stimuli/01010102.jpg"," ","","feedback_trial","2","","","","","","","","","","","","","","","","","","","","",""
"","","","","","image-keyboard-response","182","229418","0.0-157.0","5c2dea19d396500001e2b39d","665500ab8938657b03fbdba8","6657928a4bef0a0d27ea5a93","887","stimuli/1010000.jpg","1","","prediction_trial","1","","true","","1","true","true","false","true","false","true","[1]","010","000","1","","","","","","",""
"","","","","","image-keyboard-response","183","229668","0.0-158.0","5c2dea19d396500001e2b39d","665500ab8938657b03fbdba8","6657928a4bef0a0d27ea5a93","249","stimuli/10100001.jpg"," ","","feedback_trial","1","","","","","","","","","","","","","","","","","","","","",""
"","","","","","image-keyboard-response","184","230529","0.0-159.0","5c2dea19d396500001e2b39d","665500ab8938657b03fbdba8","6657928a4bef0a0d27ea5a93","860","stimuli/1101100.jpg","1","","prediction_trial","1","","true","","1","true","true","true","true","true","true","[1]","101","100","1","","","","","","",""
"","","","","","image-keyboard-response","185","230777","0.0-160.0","5c2dea19d396500001e2b39d","665500ab8938657b03fbdba8","6657928a4bef0a0d27ea5a93","246","stimuli/11011001.jpg"," ","","feedback_trial","1","","","","","","","","","","","","","","","","","","","","",""
"","","","","","image-keyboard-response","186","231393","0.0-161.0","5c2dea19d396500001e2b39d","665500ab8938657b03fbdba8","6657928a4bef0a0d27ea5a93","615","stimuli/0010011.jpg","0","","prediction_trial","0","","true","","0","true","true","true","true","true","true","[0]","010","011","1","","","","","","",""
"","","","","","image-keyboard-response","187","231687","0.0-162.0","5c2dea19d396500001e2b39d","665500ab8938657b03fbdba8","6657928a4bef0a0d27ea5a93","293","stimuli/00100110.jpg"," ","","feedback_trial","0","","","","","","","","","","","","","","","","","","","","",""
"","","","","","image-keyboard-response","188","233094","0.0-163.0","5c2dea19d396500001e2b39d","665500ab8938657b03fbdba8","6657928a4bef0a0d27ea5a93","1406","stimuli/0101101.jpg","2","","prediction_trial","0","","false","","0","false","false","false","false","false","false","[0,2]","101","101","0","","","","","","",""
"","","","","","image-keyboard-response","189","233500","0.0-164.0","5c2dea19d396500001e2b39d","665500ab8938657b03fbdba8","6657928a4bef0a0d27ea5a93","405","stimuli/01011010.jpg"," ","","feedback_trial","0","","","","","","","","","","","","","","","","","","","","",""
"","","","","","image-keyboard-response","190","234504","0.0-165.0","5c2dea19d396500001e2b39d","665500ab8938657b03fbdba8","6657928a4bef0a0d27ea5a93","1002","stimuli/0010101.jpg","0","","prediction_trial","0","","true","","0","false","false","true","true","false","false","[0]","010","101","1","","","","","","",""
"","","","","","image-keyboard-response","191","234775","0.0-166.0","5c2dea19d396500001e2b39d","665500ab8938657b03fbdba8","6657928a4bef0a0d27ea5a93","270","stimuli/00101010.jpg"," ","","feedback_trial","0","","","","","","","","","","","","","","","","","","","","",""
"","","","","","image-keyboard-response","192","235762","0.0-167.0","5c2dea19d396500001e2b39d","665500ab8938657b03fbdba8","6657928a4bef0a0d27ea5a93","987","stimuli/0111000.jpg","0","","prediction_trial","1","","false","","0","true","true","false","false","false","false","[2,0,1]","111","000","0","","","","","","",""
"","","","","","image-keyboard-response","193","236011","0.0-168.0","5c2dea19d396500001e2b39d","665500ab8938657b03fbdba8","6657928a4bef0a0d27ea5a93","248","stimuli/01110001.jpg"," ","","feedback_trial","2","","","","","","","","","","","","","","","","","","","","",""
"","","","","","image-keyboard-response","194","237191","0.0-169.0","5c2dea19d396500001e2b39d","665500ab8938657b03fbdba8","6657928a4bef0a0d27ea5a93","1171","stimuli/1110111.jpg","1","","prediction_trial","1","","true","","1","false","false","false","false","false","false","[0,1]","110","111","1","","","","","","",""
"","","","","","image-keyboard-response","195","237469","0.0-170.0","5c2dea19d396500001e2b39d","665500ab8938657b03fbdba8","6657928a4bef0a0d27ea5a93","277","stimuli/11101111.jpg"," ","","feedback_trial","0","","","","","","","","","","","","","","","","","","","","",""
"","","","","","image-keyboard-response","196","238373","0.0-171.0","5c2dea19d396500001e2b39d","665500ab8938657b03fbdba8","6657928a4bef0a0d27ea5a93","902","stimuli/1011100.jpg","1","","prediction_trial","2","","false","","1","true","true","false","false","false","false","[1,2]","011","100","0","","","","","","",""
"","","","","","image-keyboard-response","197","238661","0.0-172.0","5c2dea19d396500001e2b39d","665500ab8938657b03fbdba8","6657928a4bef0a0d27ea5a93","288","stimuli/10111002.jpg"," ","","feedback_trial","1","","","","","","","","","","","","","","","","","","","","",""
"","","","","","image-keyboard-response","198","239680","0.0-173.0","5c2dea19d396500001e2b39d","665500ab8938657b03fbdba8","6657928a4bef0a0d27ea5a93","1017","stimuli/1001110.jpg","2","","prediction_trial","1","","false","","1","false","false","true","true","false","false","[1]","001","110","0","","","","","","",""
"","","","","","image-keyboard-response","199","239961","0.0-174.0","5c2dea19d396500001e2b39d","665500ab8938657b03fbdba8","6657928a4bef0a0d27ea5a93","280","stimuli/10011101.jpg"," ","","feedback_trial","1","","","","","","","","","","","","","","","","","","","","",""
"","","","","","image-keyboard-response","200","240537","0.0-175.0","5c2dea19d396500001e2b39d","665500ab8938657b03fbdba8","6657928a4bef0a0d27ea5a93","576","stimuli/1011001.jpg","1","","prediction_trial","1","","true","","1","true","true","false","false","false","false","[1,2]","011","001","1","","","","","","",""
"","","","","","image-keyboard-response","201","240814","0.0-176.0","5c2dea19d396500001e2b39d","665500ab8938657b03fbdba8","6657928a4bef0a0d27ea5a93","276","stimuli/10110011.jpg"," ","","feedback_trial","1","","","","","","","","","","","","","","","","","","","","",""
"","","","","","image-keyboard-response","202","241377","0.0-177.0","5c2dea19d396500001e2b39d","665500ab8938657b03fbdba8","6657928a4bef0a0d27ea5a93","563","stimuli/1111000.jpg","1","","prediction_trial","1","","true","","1","true","true","false","false","false","false","[2,1,0]","111","000","1","","","","","","",""
"","","","","","image-keyboard-response","203","241718","0.0-178.0","5c2dea19d396500001e2b39d","665500ab8938657b03fbdba8","6657928a4bef0a0d27ea5a93","340","stimuli/11110001.jpg"," ","","feedback_trial","2","","","","","","","","","","","","","","","","","","","","",""
"","","","","","image-keyboard-response","204","242382","0.0-179.0","5c2dea19d396500001e2b39d","665500ab8938657b03fbdba8","6657928a4bef0a0d27ea5a93","662","stimuli/2100100.jpg","2","","prediction_trial","2","","true","","2","true","true","true","true","true","true","[2]","100","100","1","","","","","","",""
"","","","","","image-keyboard-response","205","242719","0.0-180.0","5c2dea19d396500001e2b39d","665500ab8938657b03fbdba8","6657928a4bef0a0d27ea5a93","336","stimuli/21001002.jpg"," ","","feedback_trial","2","","","","","","","","","","","","","","","","","","","","",""
"","","","","","image-keyboard-response","206","245509","0.0-181.0","5c2dea19d396500001e2b39d","665500ab8938657b03fbdba8","6657928a4bef0a0d27ea5a93","2790","stimuli/0100101.jpg","2","","prediction_trial","0","","false","","0","false","false","false","true","false","false","[0]","100","101","0","","","","","","",""
"","","","","","image-keyboard-response","207","245970","0.0-182.0","5c2dea19d396500001e2b39d","665500ab8938657b03fbdba8","6657928a4bef0a0d27ea5a93","460","stimuli/01001010.jpg"," ","","feedback_trial","0","","","","","","","","","","","","","","","","","","","","",""
"","","","","","image-keyboard-response","208","247015","0.0-183.0","5c2dea19d396500001e2b39d","665500ab8938657b03fbdba8","6657928a4bef0a0d27ea5a93","1043","stimuli/2101101.jpg","0","","prediction_trial","0","","true","","2","false","false","false","false","false","false","[2,0]","101","101","1","","","","","","",""
"","","","","","image-keyboard-response","209","247348","0.0-184.0","5c2dea19d396500001e2b39d","665500ab8938657b03fbdba8","6657928a4bef0a0d27ea5a93","332","stimuli/21011010.jpg"," ","","feedback_trial","2","","","","","","","","","","","","","","","","","","","","",""
"","","","","","image-keyboard-response","210","248715","0.0-185.0","5c2dea19d396500001e2b39d","665500ab8938657b03fbdba8","6657928a4bef0a0d27ea5a93","1366","stimuli/2011111.jpg","0","","prediction_trial","2","","false","","2","false","false","false","false","false","false","[1,2]","011","111","0","","","","","","",""
"","","","","","image-keyboard-response","211","249347","0.0-186.0","5c2dea19d396500001e2b39d","665500ab8938657b03fbdba8","6657928a4bef0a0d27ea5a93","631","stimuli/20111112.jpg"," ","","feedback_trial","1","","","","","","","","","","","","","","","","","","","","",""
"","","","","","image-keyboard-response","212","250397","0.0-187.0","5c2dea19d396500001e2b39d","665500ab8938657b03fbdba8","6657928a4bef0a0d27ea5a93","1042","stimuli/0010110.jpg","1","","prediction_trial","0","","false","","0","false","false","true","true","false","false","[0]","010","110","0","","","","","","",""
"","","","","","image-keyboard-response","213","250677","0.0-188.0","5c2dea19d396500001e2b39d","665500ab8938657b03fbdba8","6657928a4bef0a0d27ea5a93","280","stimuli/00101100.jpg"," ","","feedback_trial","0","","","","","","","","","","","","","","","","","","","","",""
"","","","","","image-keyboard-response","214","252077","0.0-189.0","5c2dea19d396500001e2b39d","665500ab8938657b03fbdba8","6657928a4bef0a0d27ea5a93","1398","stimuli/2000011.jpg","2","","prediction_trial","2","","true","","2","false","false","true","true","false","false","[2]","000","011","1","","","","","","",""
"","","","","","image-keyboard-response","215","252393","0.0-190.0","5c2dea19d396500001e2b39d","665500ab8938657b03fbdba8","6657928a4bef0a0d27ea5a93","315","stimuli/20000112.jpg"," ","","feedback_trial","2","","","","","","","","","","","","","","","","","","","","",""
"","","","","","image-keyboard-response","216","253965","0.0-191.0","5c2dea19d396500001e2b39d","665500ab8938657b03fbdba8","6657928a4bef0a0d27ea5a93","1571","stimuli/1100011.jpg","0","","prediction_trial","1","","false","","1","false","false","true","true","false","false","[1]","100","011","0","","","","","","",""
"","","","","","image-keyboard-response","217","254256","0.0-192.0","5c2dea19d396500001e2b39d","665500ab8938657b03fbdba8","6657928a4bef0a0d27ea5a93","290","stimuli/11000111.jpg"," ","","feedback_trial","1","","","","","","","","","","","","","","","","","","","","",""
"","","","","","image-keyboard-response","218","255104","0.0-193.0","5c2dea19d396500001e2b39d","665500ab8938657b03fbdba8","6657928a4bef0a0d27ea5a93","848","stimuli/2001101.jpg","2","","prediction_trial","2","","true","","2","false","false","false","true","false","false","[2]","001","101","1","","","","","","",""
"","","","","","image-keyboard-response","219","255395","0.0-194.0","5c2dea19d396500001e2b39d","665500ab8938657b03fbdba8","6657928a4bef0a0d27ea5a93","290","stimuli/20011012.jpg"," ","","feedback_trial","2","","","","","","","","","","","","","","","","","","","","",""
"","","","","","image-keyboard-response","220","257579","0.0-195.0","5c2dea19d396500001e2b39d","665500ab8938657b03fbdba8","6657928a4bef0a0d27ea5a93","2182","stimuli/0110100.jpg","0","","prediction_trial","1","","false","","0","false","true","false","false","false","false","[1,0]","110","100","0","","","","","","",""
"","","","","","image-keyboard-response","221","258179","0.0-196.0","5c2dea19d396500001e2b39d","665500ab8938657b03fbdba8","6657928a4bef0a0d27ea5a93","599","stimuli/01101001.jpg"," ","","feedback_trial","1","","","","","","","","","","","","","","","","","","","","",""
"","","","","","image-keyboard-response","222","260075","0.0-197.0","5c2dea19d396500001e2b39d","665500ab8938657b03fbdba8","6657928a4bef0a0d27ea5a93","1894","stimuli/2010000.jpg","2","","prediction_trial","2","","true","","2","true","true","true","true","true","true","[2]","010","000","1","","","","","","",""
"","","","","","image-keyboard-response","223","260755","0.0-198.0","5c2dea19d396500001e2b39d","665500ab8938657b03fbdba8","6657928a4bef0a0d27ea5a93","679","stimuli/20100002.jpg"," ","","feedback_trial","2","","","","","","","","","","","","","","","","","","","","",""
"","","","","","image-keyboard-response","224","262533","0.0-199.0","5c2dea19d396500001e2b39d","665500ab8938657b03fbdba8","6657928a4bef0a0d27ea5a93","1777","stimuli/0001110.jpg","2","","prediction_trial","0","","false","","0","false","false","true","true","false","false","[0]","001","110","0","","","","","","",""
"","","","","","image-keyboard-response","225","262902","0.0-200.0","5c2dea19d396500001e2b39d","665500ab8938657b03fbdba8","6657928a4bef0a0d27ea5a93","368","stimuli/00011100.jpg"," ","","feedback_trial","0","","","","","","","","","","","","","","","","","","","","",""
"","","","","","image-keyboard-response","226","264019","0.0-201.0","5c2dea19d396500001e2b39d","665500ab8938657b03fbdba8","6657928a4bef0a0d27ea5a93","1116","stimuli/2001000.jpg","2","","prediction_trial","2","","true","","2","true","true","false","true","false","true","[2]","001","000","1","","","","","","",""
"","","","","","image-keyboard-response","227","264307","0.0-202.0","5c2dea19d396500001e2b39d","665500ab8938657b03fbdba8","6657928a4bef0a0d27ea5a93","287","stimuli/20010002.jpg"," ","","feedback_trial","2","","","","","","","","","","","","","","","","","","","","",""
"","","","","","image-keyboard-response","228","265360","0.0-203.0","5c2dea19d396500001e2b39d","665500ab8938657b03fbdba8","6657928a4bef0a0d27ea5a93","1052","stimuli/2110000.jpg","2","","prediction_trial","2","","true","","2","true","true","true","true","true","true","[2]","110","000","1","","","","","","",""
"","","","","","image-keyboard-response","229","265696","0.0-204.0","5c2dea19d396500001e2b39d","665500ab8938657b03fbdba8","6657928a4bef0a0d27ea5a93","335","stimuli/21100002.jpg"," ","","feedback_trial","2","","","","","","","","","","","","","","","","","","","","",""
"","","","","","image-keyboard-response","230","267263","0.0-205.0","5c2dea19d396500001e2b39d","665500ab8938657b03fbdba8","6657928a4bef0a0d27ea5a93","1565","stimuli/1000000.jpg","0","","prediction_trial","1","","false","","1","true","true","true","true","true","true","[1]","000","000","0","","","","","","",""
"","","","","","image-keyboard-response","231","269182","0.0-206.0","5c2dea19d396500001e2b39d","665500ab8938657b03fbdba8","6657928a4bef0a0d27ea5a93","1918","stimuli/10000001.jpg"," ","","feedback_trial","1","","","","","","","","","","","","","","","","","","","","",""
"","","","","","image-keyboard-response","232","270512","0.0-207.0","5c2dea19d396500001e2b39d","665500ab8938657b03fbdba8","6657928a4bef0a0d27ea5a93","1328","stimuli/0100011.jpg","0","","prediction_trial","0","","true","","0","true","true","false","true","false","true","[0]","100","011","1","","","","","","",""
"","","","","","image-keyboard-response","233","270816","0.0-208.0","5c2dea19d396500001e2b39d","665500ab8938657b03fbdba8","6657928a4bef0a0d27ea5a93","303","stimuli/01000110.jpg"," ","","feedback_trial","0","","","","","","","","","","","","","","","","","","","","",""
"","","","","","image-keyboard-response","234","271884","0.0-209.0","5c2dea19d396500001e2b39d","665500ab8938657b03fbdba8","6657928a4bef0a0d27ea5a93","1067","stimuli/1001001.jpg","1","","prediction_trial","1","","true","","1","true","true","true","true","true","true","[1]","001","001","1","","","","","","",""
"","","","","","image-keyboard-response","235","272190","0.0-210.0","5c2dea19d396500001e2b39d","665500ab8938657b03fbdba8","6657928a4bef0a0d27ea5a93","306","stimuli/10010011.jpg"," ","","feedback_trial","1","","","","","","","","","","","","","","","","","","","","",""
"","","","","","image-keyboard-response","236","274588","0.0-211.0","5c2dea19d396500001e2b39d","665500ab8938657b03fbdba8","6657928a4bef0a0d27ea5a93","2397","stimuli/1011110.jpg","1","","prediction_trial","1","","true","","1","false","false","false","false","false","false","[2,1]","011","110","1","","","","","","",""
"","","","","","image-keyboard-response","237","274856","0.0-212.0","5c2dea19d396500001e2b39d","665500ab8938657b03fbdba8","6657928a4bef0a0d27ea5a93","267","stimuli/10111101.jpg"," ","","feedback_trial","2","","","","","","","","","","","","","","","","","","","","",""
"","","","","","image-keyboard-response","238","276570","0.0-213.0","5c2dea19d396500001e2b39d","665500ab8938657b03fbdba8","6657928a4bef0a0d27ea5a93","1713","stimuli/0001100.jpg","2","","prediction_trial","0","","false","","0","false","true","true","true","false","true","[0]","001","100","0","","","","","","",""
"","","","","","image-keyboard-response","239","276931","0.0-214.0","5c2dea19d396500001e2b39d","665500ab8938657b03fbdba8","6657928a4bef0a0d27ea5a93","359","stimuli/00011000.jpg"," ","","feedback_trial","0","","","","","","","","","","","","","","","","","","","","",""
"","","","","","image-keyboard-response","240","279531","0.0-215.0","5c2dea19d396500001e2b39d","665500ab8938657b03fbdba8","6657928a4bef0a0d27ea5a93","2599","stimuli/0000101.jpg","0","","prediction_trial","0","","true","","0","false","false","true","true","false","false","[0]","000","101","1","","","","","","",""
"","","","","","image-keyboard-response","241","279887","0.0-216.0","5c2dea19d396500001e2b39d","665500ab8938657b03fbdba8","6657928a4bef0a0d27ea5a93","355","stimuli/00001010.jpg"," ","","feedback_trial","0","","","","","","","","","","","","","","","","","","","","",""
"","","","","","image-keyboard-response","242","280803","0.0-217.0","5c2dea19d396500001e2b39d","665500ab8938657b03fbdba8","6657928a4bef0a0d27ea5a93","915","stimuli/2001010.jpg","2","","prediction_trial","2","","true","","2","true","true","false","true","false","true","[2]","001","010","1","","","","","","",""
"","","","","","image-keyboard-response","243","281108","0.0-218.0","5c2dea19d396500001e2b39d","665500ab8938657b03fbdba8","6657928a4bef0a0d27ea5a93","304","stimuli/20010102.jpg"," ","","feedback_trial","2","","","","","","","","","","","","","","","","","","","","",""
"","","","","","image-keyboard-response","244","282276","0.0-219.0","5c2dea19d396500001e2b39d","665500ab8938657b03fbdba8","6657928a4bef0a0d27ea5a93","1167","stimuli/1001011.jpg","1","","prediction_trial","1","","true","","1","false","false","true","true","false","false","[1]","001","011","1","","","","","","",""
"","","","","","image-keyboard-response","245","282561","0.0-220.0","5c2dea19d396500001e2b39d","665500ab8938657b03fbdba8","6657928a4bef0a0d27ea5a93","283","stimuli/10010111.jpg"," ","","feedback_trial","1","","","","","","","","","","","","","","","","","","","","",""
"","","","","","image-keyboard-response","246","283650","0.0-221.0","5c2dea19d396500001e2b39d","665500ab8938657b03fbdba8","6657928a4bef0a0d27ea5a93","1088","stimuli/2000001.jpg","2","","prediction_trial","2","","true","","2","false","true","true","true","false","true","[2]","000","001","1","","","","","","",""
"","","","","","image-keyboard-response","247","283929","0.0-222.0","5c2dea19d396500001e2b39d","665500ab8938657b03fbdba8","6657928a4bef0a0d27ea5a93","278","stimuli/20000012.jpg"," ","","feedback_trial","2","","","","","","","","","","","","","","","","","","","","",""
"","","","","","image-keyboard-response","248","285120","0.0-223.0","5c2dea19d396500001e2b39d","665500ab8938657b03fbdba8","6657928a4bef0a0d27ea5a93","1183","stimuli/0101001.jpg","0","","prediction_trial","0","","true","","0","true","true","false","false","false","false","[2,0]","101","001","1","","","","","","",""
"","","","","","image-keyboard-response","249","285418","0.0-224.0","5c2dea19d396500001e2b39d","665500ab8938657b03fbdba8","6657928a4bef0a0d27ea5a93","297","stimuli/01010010.jpg"," ","","feedback_trial","2","","","","","","","","","","","","","","","","","","","","",""
"","","","","","image-keyboard-response","250","288719","0.0-225.0","5c2dea19d396500001e2b39d","665500ab8938657b03fbdba8","6657928a4bef0a0d27ea5a93","3300","stimuli/0110101.jpg","0","","prediction_trial","1","","false","","0","false","false","false","false","false","false","[0,1]","110","101","0","","","","","","",""
"","","","","","image-keyboard-response","251","289499","0.0-226.0","5c2dea19d396500001e2b39d","665500ab8938657b03fbdba8","6657928a4bef0a0d27ea5a93","779","stimuli/01101011.jpg"," ","","feedback_trial","0","","","","","","","","","","","","","","","","","","","","",""
"","","","","","image-keyboard-response","252","292923","0.0-227.0","5c2dea19d396500001e2b39d","665500ab8938657b03fbdba8","6657928a4bef0a0d27ea5a93","3422","stimuli/1010010.jpg","1","","prediction_trial","1","","true","","1","false","true","false","true","false","true","[1]","010","010","1","","","","","","",""
"","","","","","image-keyboard-response","253","293502","0.0-228.0","5c2dea19d396500001e2b39d","665500ab8938657b03fbdba8","6657928a4bef0a0d27ea5a93","578","stimuli/10100101.jpg"," ","","feedback_trial","1","","","","","","","","","","","","","","","","","","","","",""
"","","","","","image-keyboard-response","254","294911","0.0-229.0","5c2dea19d396500001e2b39d","665500ab8938657b03fbdba8","6657928a4bef0a0d27ea5a93","1408","stimuli/0101000.jpg","0","","prediction_trial","0","","true","","0","true","true","false","false","false","false","[0,2]","101","000","1","","","","","","",""
"","","","","","image-keyboard-response","255","295236","0.0-230.0","5c2dea19d396500001e2b39d","665500ab8938657b03fbdba8","6657928a4bef0a0d27ea5a93","324","stimuli/01010000.jpg"," ","","feedback_trial","0","","","","","","","","","","","","","","","","","","","","",""
"","","","","","image-keyboard-response","256","296194","0.0-231.0","5c2dea19d396500001e2b39d","665500ab8938657b03fbdba8","6657928a4bef0a0d27ea5a93","957","stimuli/0010001.jpg","0","","prediction_trial","0","","true","","0","true","true","true","true","true","true","[0]","010","001","1","","","","","","",""
"","","","","","image-keyboard-response","257","296427","0.0-232.0","5c2dea19d396500001e2b39d","665500ab8938657b03fbdba8","6657928a4bef0a0d27ea5a93","231","stimuli/00100010.jpg"," ","","feedback_trial","0","","","","","","","","","","","","","","","","","","","","",""
"","","","","","image-keyboard-response","258","297016","0.0-233.0","5c2dea19d396500001e2b39d","665500ab8938657b03fbdba8","6657928a4bef0a0d27ea5a93","588","stimuli/0011001.jpg","0","","prediction_trial","0","","true","","0","true","true","true","true","true","true","[0]","011","001","1","","","","","","",""
"","","","","","image-keyboard-response","259","297316","0.0-234.0","5c2dea19d396500001e2b39d","665500ab8938657b03fbdba8","6657928a4bef0a0d27ea5a93","299","stimuli/00110010.jpg"," ","","feedback_trial","0","","","","","","","","","","","","","","","","","","","","",""
"","","","","","image-keyboard-response","260","298117","0.0-235.0","5c2dea19d396500001e2b39d","665500ab8938657b03fbdba8","6657928a4bef0a0d27ea5a93","800","stimuli/1011101.jpg","1","","prediction_trial","1","","true","","1","true","true","false","false","false","false","[1,2]","011","101","1","","","","","","",""
"","","","","","image-keyboard-response","261","298454","0.0-236.0","5c2dea19d396500001e2b39d","665500ab8938657b03fbdba8","6657928a4bef0a0d27ea5a93","337","stimuli/10111011.jpg"," ","","feedback_trial","1","","","","","","","","","","","","","","","","","","","","",""
"","","","","","image-keyboard-response","262","299302","0.0-237.0","5c2dea19d396500001e2b39d","665500ab8938657b03fbdba8","6657928a4bef0a0d27ea5a93","847","stimuli/2110010.jpg","2","","prediction_trial","2","","true","","2","true","true","true","true","true","true","[2]","110","010","1","","","","","","",""
"","","","","","image-keyboard-response","263","299621","0.0-238.0","5c2dea19d396500001e2b39d","665500ab8938657b03fbdba8","6657928a4bef0a0d27ea5a93","318","stimuli/21100102.jpg"," ","","feedback_trial","2","","","","","","","","","","","","","","","","","","","","",""
"","","","","","image-keyboard-response","264","300769","0.0-239.0","5c2dea19d396500001e2b39d","665500ab8938657b03fbdba8","6657928a4bef0a0d27ea5a93","1147","stimuli/2111001.jpg","2","","prediction_trial","2","","true","","2","false","true","false","false","false","false","[0,1,2]","111","001","1","","","","","","",""
"","","","","","image-keyboard-response","265","301035","0.0-240.0","5c2dea19d396500001e2b39d","665500ab8938657b03fbdba8","6657928a4bef0a0d27ea5a93","265","stimuli/21110012.jpg"," ","","feedback_trial","0","","","","","","","","","","","","","","","","","","","","",""
"","","","","","image-keyboard-response","266","302035","0.0-241.0","5c2dea19d396500001e2b39d","665500ab8938657b03fbdba8","6657928a4bef0a0d27ea5a93","991","stimuli/2100001.jpg","2","","prediction_trial","2","","true","","2","false","true","true","true","false","true","[2]","100","001","1","","","","","","",""
"","","","","","image-keyboard-response","267","302289","0.0-242.0","5c2dea19d396500001e2b39d","665500ab8938657b03fbdba8","6657928a4bef0a0d27ea5a93","253","stimuli/21000012.jpg"," ","","feedback_trial","2","","","","","","","","","","","","","","","","","","","","",""
"","","","","","image-keyboard-response","268","303792","0.0-243.0","5c2dea19d396500001e2b39d","665500ab8938657b03fbdba8","6657928a4bef0a0d27ea5a93","1502","stimuli/1011111.jpg","0","","prediction_trial","1","","false","","1","false","false","false","false","false","false","[1,2]","011","111","0","","","","","","",""
"","","","","","image-keyboard-response","269","303993","0.0-244.0","5c2dea19d396500001e2b39d","665500ab8938657b03fbdba8","6657928a4bef0a0d27ea5a93","200","stimuli/10111111.jpg"," ","","feedback_trial","1","","","","","","","","","","","","","","","","","","","","",""
"","","","","","image-keyboard-response","270","305988","0.0-245.0","5c2dea19d396500001e2b39d","665500ab8938657b03fbdba8","6657928a4bef0a0d27ea5a93","1994","stimuli/2100111.jpg","0","","prediction_trial","2","","false","","2","false","false","true","true","false","false","[2]","100","111","0","","","","","","",""
"","","","","","image-keyboard-response","271","307508","0.0-246.0","5c2dea19d396500001e2b39d","665500ab8938657b03fbdba8","6657928a4bef0a0d27ea5a93","1519","stimuli/21001112.jpg"," ","","feedback_trial","2","","","","","","","","","","","","","","","","","","","","",""
"","","","","","image-keyboard-response","272","308229","0.0-247.0","5c2dea19d396500001e2b39d","665500ab8938657b03fbdba8","6657928a4bef0a0d27ea5a93","720","stimuli/2100000.jpg","2","","prediction_trial","2","","true","","2","true","true","true","true","true","true","[2]","100","000","1","","","","","","",""
"","","","","","image-keyboard-response","273","308659","0.0-248.0","5c2dea19d396500001e2b39d","665500ab8938657b03fbdba8","6657928a4bef0a0d27ea5a93","429","stimuli/21000002.jpg"," ","","feedback_trial","2","","","","","","","","","","","","","","","","","","","","",""
"","","","","","image-keyboard-response","274","309744","0.0-249.0","5c2dea19d396500001e2b39d","665500ab8938657b03fbdba8","6657928a4bef0a0d27ea5a93","1084","stimuli/0111010.jpg","0","","prediction_trial","0","","true","","0","true","true","false","false","false","false","[2,1,0]","111","010","1","","","","","","",""
"","","","","","image-keyboard-response","275","310047","0.0-250.0","5c2dea19d396500001e2b39d","665500ab8938657b03fbdba8","6657928a4bef0a0d27ea5a93","302","stimuli/01110100.jpg"," ","","feedback_trial","2","","","","","","","","","","","","","","","","","","","","",""
"","","","","","image-keyboard-response","276","310675","0.0-251.0","5c2dea19d396500001e2b39d","665500ab8938657b03fbdba8","6657928a4bef0a0d27ea5a93","627","stimuli/1000101.jpg","1","","prediction_trial","1","","true","","1","true","true","true","true","true","true","[1]","000","101","1","","","","","","",""
"","","","","","image-keyboard-response","277","310921","0.0-252.0","5c2dea19d396500001e2b39d","665500ab8938657b03fbdba8","6657928a4bef0a0d27ea5a93","245","stimuli/10001011.jpg"," ","","feedback_trial","1","","","","","","","","","","","","","","","","","","","","",""
"","","","","","image-keyboard-response","278","311979","0.0-253.0","5c2dea19d396500001e2b39d","665500ab8938657b03fbdba8","6657928a4bef0a0d27ea5a93","1057","stimuli/2100101.jpg","2","","prediction_trial","2","","true","","2","false","false","true","true","false","false","[2]","100","101","1","","","","","","",""
"","","","","","image-keyboard-response","279","312299","0.0-254.0","5c2dea19d396500001e2b39d","665500ab8938657b03fbdba8","6657928a4bef0a0d27ea5a93","319","stimuli/21001012.jpg"," ","","feedback_trial","2","","","","","","","","","","","","","","","","","","","","",""
"","","","","","image-keyboard-response","280","313256","0.0-255.0","5c2dea19d396500001e2b39d","665500ab8938657b03fbdba8","6657928a4bef0a0d27ea5a93","956","stimuli/0111111.jpg","1","","prediction_trial","2","","false","","0","false","false","false","false","false","false","[1,0,2]","111","111","0","","","","","","",""
"","","","","","image-keyboard-response","281","313546","0.0-256.0","5c2dea19d396500001e2b39d","665500ab8938657b03fbdba8","6657928a4bef0a0d27ea5a93","289","stimuli/01111112.jpg"," ","","feedback_trial","1","","","","","","","","","","","","","","","","","","","","",""
"","","","","","image-keyboard-response","282","315823","0.0-257.0","5c2dea19d396500001e2b39d","665500ab8938657b03fbdba8","6657928a4bef0a0d27ea5a93","2275","stimuli/0011111.jpg","1","","prediction_trial","0","","false","","0","false","false","true","true","false","false","[0]","011","111","0","","","","","","",""
"","","","","","image-keyboard-response","283","316232","0.0-258.0","5c2dea19d396500001e2b39d","665500ab8938657b03fbdba8","6657928a4bef0a0d27ea5a93","409","stimuli/00111110.jpg"," ","","feedback_trial","0","","","","","","","","","","","","","","","","","","","","",""
"","","","","","image-keyboard-response","284","317140","0.0-259.0","5c2dea19d396500001e2b39d","665500ab8938657b03fbdba8","6657928a4bef0a0d27ea5a93","900","stimuli/1000010.jpg","1","","prediction_trial","1","","true","","1","false","true","true","true","false","true","[1]","000","010","1","","","","","","",""
"","","","","","image-keyboard-response","285","317717","0.0-260.0","5c2dea19d396500001e2b39d","665500ab8938657b03fbdba8","6657928a4bef0a0d27ea5a93","575","stimuli/10000101.jpg"," ","","feedback_trial","1","","","","","","","","","","","","","","","","","","","","",""
"","","","","","image-keyboard-response","286","319414","0.0-261.0","5c2dea19d396500001e2b39d","665500ab8938657b03fbdba8","6657928a4bef0a0d27ea5a93","1696","stimuli/2100011.jpg","2","","prediction_trial","2","","true","","2","false","false","true","true","false","false","[2]","100","011","1","","","","","","",""
"","","","","","image-keyboard-response","287","319732","0.0-262.0","5c2dea19d396500001e2b39d","665500ab8938657b03fbdba8","6657928a4bef0a0d27ea5a93","317","stimuli/21000112.jpg"," ","","feedback_trial","2","","","","","","","","","","","","","","","","","","","","",""
"","","","","","image-keyboard-response","288","321020","0.0-263.0","5c2dea19d396500001e2b39d","665500ab8938657b03fbdba8","6657928a4bef0a0d27ea5a93","1288","stimuli/0101111.jpg","1","","prediction_trial","0","","false","","0","false","false","false","false","false","false","[0,2]","101","111","0","","","","","","",""
"","","","","","image-keyboard-response","289","321382","0.0-264.0","5c2dea19d396500001e2b39d","665500ab8938657b03fbdba8","6657928a4bef0a0d27ea5a93","361","stimuli/01011110.jpg"," ","","feedback_trial","0","","","","","","","","","","","","","","","","","","","","",""
"","","","","","image-keyboard-response","290","322313","0.0-265.0","5c2dea19d396500001e2b39d","665500ab8938657b03fbdba8","6657928a4bef0a0d27ea5a93","930","stimuli/0110011.jpg","0","","prediction_trial","0","","true","","0","true","true","false","false","false","false","[1,0]","110","011","1","","","","","","",""
"","","","","","image-keyboard-response","291","322535","0.0-266.0","5c2dea19d396500001e2b39d","665500ab8938657b03fbdba8","6657928a4bef0a0d27ea5a93","221","stimuli/01100110.jpg"," ","","feedback_trial","1","","","","","","","","","","","","","","","","","","","","",""
"","","","","","image-keyboard-response","292","323695","0.0-267.0","5c2dea19d396500001e2b39d","665500ab8938657b03fbdba8","6657928a4bef0a0d27ea5a93","1159","stimuli/2000111.jpg","0","","prediction_trial","2","","false","","2","false","false","true","true","false","false","[2]","000","111","0","","","","","","",""
"","","","","","image-keyboard-response","293","324373","0.0-268.0","5c2dea19d396500001e2b39d","665500ab8938657b03fbdba8","6657928a4bef0a0d27ea5a93","676","stimuli/20001112.jpg"," ","","feedback_trial","2","","","","","","","","","","","","","","","","","","","","",""
"","","","","","image-keyboard-response","294","325542","0.0-269.0","5c2dea19d396500001e2b39d","665500ab8938657b03fbdba8","6657928a4bef0a0d27ea5a93","1168","stimuli/0011011.jpg","2","","prediction_trial","0","","false","","0","true","true","true","true","true","true","[0]","011","011","0","","","","","","",""
"","","","","","image-keyboard-response","295","325797","0.0-270.0","5c2dea19d396500001e2b39d","665500ab8938657b03fbdba8","6657928a4bef0a0d27ea5a93","253","stimuli/00110110.jpg"," ","","feedback_trial","0","","","","","","","","","","","","","","","","","","","","",""
"","","","","","image-keyboard-response","296","326381","0.0-271.0","5c2dea19d396500001e2b39d","665500ab8938657b03fbdba8","6657928a4bef0a0d27ea5a93","583","stimuli/2111101.jpg","1","","prediction_trial","2","","false","","2","false","false","false","false","false","false","[0,2,1]","111","101","0","","","","","","",""
"","","","","","image-keyboard-response","297","326706","0.0-272.0","5c2dea19d396500001e2b39d","665500ab8938657b03fbdba8","6657928a4bef0a0d27ea5a93","324","stimuli/21111012.jpg"," ","","feedback_trial","0","","","","","","","","","","","","","","","","","","","","",""
"","","","","","image-keyboard-response","298","327536","0.0-273.0","5c2dea19d396500001e2b39d","665500ab8938657b03fbdba8","6657928a4bef0a0d27ea5a93","829","stimuli/1010101.jpg","1","","prediction_trial","1","","true","","1","true","true","false","true","false","true","[1]","010","101","1","","","","","","",""
"","","","","","image-keyboard-response","299","327765","0.0-274.0","5c2dea19d396500001e2b39d","665500ab8938657b03fbdba8","6657928a4bef0a0d27ea5a93","228","stimuli/10101011.jpg"," ","","feedback_trial","1","","","","","","","","","","","","","","","","","","","","",""
"","","","","","image-keyboard-response","300","328366","0.0-275.0","5c2dea19d396500001e2b39d","665500ab8938657b03fbdba8","6657928a4bef0a0d27ea5a93","600","stimuli/1101000.jpg","1","","prediction_trial","1","","true","","1","true","true","true","true","true","true","[1]","101","000","1","","","","","","",""
"","","","","","image-keyboard-response","301","328553","0.0-276.0","5c2dea19d396500001e2b39d","665500ab8938657b03fbdba8","6657928a4bef0a0d27ea5a93","186","stimuli/11010001.jpg"," ","","feedback_trial","1","","","","","","","","","","","","","","","","","","","","",""
"","","","","","image-keyboard-response","302","329005","0.0-277.0","5c2dea19d396500001e2b39d","665500ab8938657b03fbdba8","6657928a4bef0a0d27ea5a93","446","stimuli/1100101.jpg","1","","prediction_trial","1","","true","","1","true","true","true","true","true","true","[1]","100","101","1","","","","","","",""
"","","","","","image-keyboard-response","303","329224","0.0-278.0","5c2dea19d396500001e2b39d","665500ab8938657b03fbdba8","6657928a4bef0a0d27ea5a93","218","stimuli/11001011.jpg"," ","","feedback_trial","1","","","","","","","","","","","","","","","","","","","","",""
"","","","","","image-keyboard-response","304","330350","0.0-279.0","5c2dea19d396500001e2b39d","665500ab8938657b03fbdba8","6657928a4bef0a0d27ea5a93","1125","stimuli/2001110.jpg","2","","prediction_trial","2","","true","","2","true","true","false","true","false","true","[2]","001","110","1","","","","","","",""
"","","","","","image-keyboard-response","305","330666","0.0-280.0","5c2dea19d396500001e2b39d","665500ab8938657b03fbdba8","6657928a4bef0a0d27ea5a93","315","stimuli/20011102.jpg"," ","","feedback_trial","2","","","","","","","","","","","","","","","","","","","","",""
"","","","","","image-keyboard-response","306","333964","0.0-281.0","5c2dea19d396500001e2b39d","665500ab8938657b03fbdba8","6657928a4bef0a0d27ea5a93","3297","stimuli/2110011.jpg","2","","prediction_trial","2","","true","","2","false","false","true","true","false","false","[2]","110","011","1","","","","","","",""
"","","","","","image-keyboard-response","307","334270","0.0-282.0","5c2dea19d396500001e2b39d","665500ab8938657b03fbdba8","6657928a4bef0a0d27ea5a93","306","stimuli/21100112.jpg"," ","","feedback_trial","2","","","","","","","","","","","","","","","","","","","","",""
"","","","","","image-keyboard-response","308","335991","0.0-283.0","5c2dea19d396500001e2b39d","665500ab8938657b03fbdba8","6657928a4bef0a0d27ea5a93","1720","stimuli/2111011.jpg","1","","prediction_trial","1","","true","","2","false","false","false","false","false","false","[0,2,1]","111","011","1","","","","","","",""
"","","","","","image-keyboard-response","309","336301","0.0-284.0","5c2dea19d396500001e2b39d","665500ab8938657b03fbdba8","6657928a4bef0a0d27ea5a93","308","stimuli/21110111.jpg"," ","","feedback_trial","0","","","","","","","","","","","","","","","","","","","","",""
"","","","","","image-keyboard-response","310","337428","0.0-285.0","5c2dea19d396500001e2b39d","665500ab8938657b03fbdba8","6657928a4bef0a0d27ea5a93","1127","stimuli/2011001.jpg","2","","prediction_trial","1","","false","","2","false","true","false","false","false","false","[1,2]","011","001","0","","","","","","",""
"","","","","","image-keyboard-response","311","337691","0.0-286.0","5c2dea19d396500001e2b39d","665500ab8938657b03fbdba8","6657928a4bef0a0d27ea5a93","261","stimuli/20110011.jpg"," ","","feedback_trial","1","","","","","","","","","","","","","","","","","","","","",""
"","","","","","image-keyboard-response","312","338508","0.0-287.0","5c2dea19d396500001e2b39d","665500ab8938657b03fbdba8","6657928a4bef0a0d27ea5a93","816","stimuli/0100001.jpg","0","","prediction_trial","0","","true","","0","true","true","false","true","false","true","[0]","100","001","1","","","","","","",""
"","","","","","image-keyboard-response","313","338769","0.0-288.0","5c2dea19d396500001e2b39d","665500ab8938657b03fbdba8","6657928a4bef0a0d27ea5a93","260","stimuli/01000010.jpg"," ","","feedback_trial","0","","","","","","","","","","","","","","","","","","","","",""
"","","","","","image-keyboard-response","314","339704","0.0-289.0","5c2dea19d396500001e2b39d","665500ab8938657b03fbdba8","6657928a4bef0a0d27ea5a93","935","stimuli/1111111.jpg","2","","prediction_trial","0","","false","","1","false","false","false","false","false","false","[1,2,0]","111","111","0","","","","","","",""
"","","","","","image-keyboard-response","315","340020","0.0-290.0","5c2dea19d396500001e2b39d","665500ab8938657b03fbdba8","6657928a4bef0a0d27ea5a93","314","stimuli/11111110.jpg"," ","","feedback_trial","1","","","","","","","","","","","","","","","","","","","","",""
"","","","","","image-keyboard-response","316","340882","0.0-291.0","5c2dea19d396500001e2b39d","665500ab8938657b03fbdba8","6657928a4bef0a0d27ea5a93","861","stimuli/2010011.jpg","1","","prediction_trial","2","","false","","2","false","false","true","true","false","false","[2]","010","011","0","","","","","","",""
"","","","","","image-keyboard-response","317","341140","0.0-292.0","5c2dea19d396500001e2b39d","665500ab8938657b03fbdba8","6657928a4bef0a0d27ea5a93","257","stimuli/20100112.jpg"," ","","feedback_trial","2","","","","","","","","","","","","","","","","","","","","",""
"","","","","","survey-html-form","318","363387","0.0-293.0","5c2dea19d396500001e2b39d","665500ab8938657b03fbdba8","6657928a4bef0a0d27ea5a93","22244","","{""feedback"":""I just made educated guesses"",""age"":""30"",""gender"":""Female"",""other_gender"":"""",""race"":""White"",""other_race"":"""",""ethnicity"":""Non-Hispanic""}","","exit_survey","","","","","","","","","","","","","","","","I just made educated guesses","30","Non-Hispanic","Female","White","0.6388888888888888","0.6388888888888888"
