"success","timeout","failed_images","failed_audio","failed_video","trial_type","trial_index","time_elapsed","internal_node_id","prolific_id","prolific_study_id","prolific_session_id","rt","stimulus","response","view_history","trial","character_choice","stimulus_dict","accuracy","correct_response","ball_pos","ego_ball_visible","ego_can_infer","alter_ball_visible","alter_can_infer","collective_ball_visible","collective_can_infer","search_locations","alter_occluders","ego_occluders","accuracy_bool","feedback","age","ethnicity","gender","race","overall_accuracy","bonus"
"true","false","[]","[]","[]","preload","0","3888","0.0-0.0","6296295f57c07906c9052955","665500ab8938657b03fbdba8","665792f49f0317b2cba47e94","","","","","","","","","","","","","","","","","","","","","","","","","","",""
"true","","","","","fullscreen","1","6322","0.0-1.0","6296295f57c07906c9052955","665500ab8938657b03fbdba8","665792f49f0317b2cba47e94","","","","","","","","","","","","","","","","","","","","","","","","","","",""
"","","","","","html-button-response","2","9650","0.0-2.0","6296295f57c07906c9052955","665500ab8938657b03fbdba8","665792f49f0317b2cba47e94","3328","<p><b>Consent Form</b></p> <div style=""text-align:left;background-color:lightgrey; padding:20px; max-width:900px;""><p>Please consider this information carefully before deciding whether to participate in this research.</p> <p>The purpose of this research is to examine which factors influence social judgment and decision-making. You will be asked to make judgements about individuals and actions in social scenarios. We are simply interested in your judgement. The study will take less than 1 hour to complete, and you will receive less than $20 on Prolific. Your compensation and time commitment are specified in the study description. There are no anticipated risks associated with participating in this study. The effects of participating should be comparable to those you would ordinarily experience from viewing a computer monitor and using a mouse or keyboard for a similar amount of time. At the end of the study, we will provide an explanation of the questions that motivate this line of research and will describe the potential implications. </p><p> Your participation in this study is completely voluntary and you may refuse to participate or you may choose to withdraw at any time without penalty or loss of benefits to you which are otherwise entitled. Your participation in this study will remain confidential. No personally identifiable information will be associated with your data. Also, all analyses of the data will be averaged across all the participants, so your individual responses will never be specifically analyzed. </p><p> If you have questions or concerns about your participation or payment, or want to request a summary of research findings, please contact Dr. Jonathan Phillips at Jonathan.S.Phillips@dartmouth.edu. </p><p> Please save a copy of this form for your records. </p><p><b>Agreement: </b>The nature and purpose of this research have been sufficiently explained and I agree to participate in this study. I understand that I am free to withdraw at any time without incurring any penalty. Please consent by clicking the button below to continue. Otherwise, please exit the study at any time. </p>","0","","","","","","","","","","","","","","","","","","","","","","","",""
"","","","","","instructions","3","591189","0.0-3.0-0.0","6296295f57c07906c9052955","665500ab8938657b03fbdba8","665792f49f0317b2cba47e94","581538","","","[{""page_index"":0,""viewing_time"":1828},{""page_index"":1,""viewing_time"":1872},{""page_index"":2,""viewing_time"":489503},{""page_index"":3,""viewing_time"":2774},{""page_index"":4,""viewing_time"":1278},{""page_index"":5,""viewing_time"":1262},{""page_index"":6,""viewing_time"":1803},{""page_index"":7,""viewing_time"":1948},{""page_index"":8,""viewing_time"":3702},{""page_index"":9,""viewing_time"":62746},{""page_index"":10,""viewing_time"":3952},{""page_index"":11,""viewing_time"":3390},{""page_index"":12,""viewing_time"":4374},{""page_index"":13,""viewing_time"":1106}]","intro","","","","","","","","","","","","","","","","","","","","","",""
"","","","","","image-keyboard-response","4","594229","0.0-3.0-1.0","6296295f57c07906c9052955","665500ab8938657b03fbdba8","665792f49f0317b2cba47e94","3037","stimuli/2000001.jpg","2","","prediction_practice","2","{""filepath"":""stimuli/2000001.jpg"",""ball_pos"":2,""ego_ball_visible"":false,""ego_can_infer"":true,""alter_ball_visible"":true,""alter_can_infer"":true,""collective_ball_visible"":false,""collective_can_infer"":true,""search_locations"":[2],""alter_occluders"":""000"",""ego_occluders"":""001""}","true","","","","","","","","","","","","","","","","","","",""
"","","","","","image-keyboard-response","5","595547","0.0-3.0-2.0","6296295f57c07906c9052955","665500ab8938657b03fbdba8","665792f49f0317b2cba47e94","1315","stimuli/20000012.jpg"," ","","practrice_feedback","2","","","","","","","","","","","","","","","","","","","","",""
"","","","","","image-keyboard-response","6","596173","0.0-3.0-3.0","6296295f57c07906c9052955","665500ab8938657b03fbdba8","665792f49f0317b2cba47e94","625","stimuli/0101010.jpg","0","","prediction_practice","0","{""filepath"":""stimuli/0101010.jpg"",""ball_pos"":0,""ego_ball_visible"":true,""ego_can_infer"":true,""alter_ball_visible"":false,""alter_can_infer"":false,""collective_ball_visible"":false,""collective_can_infer"":false,""search_locations"":[2,0],""alter_occluders"":""101"",""ego_occluders"":""010""}","true","","","","","","","","","","","","","","","","","","",""
"","","","","","image-keyboard-response","7","596972","0.0-3.0-4.0","6296295f57c07906c9052955","665500ab8938657b03fbdba8","665792f49f0317b2cba47e94","798","stimuli/01010100.jpg"," ","","practrice_feedback","2","","","","","","","","","","","","","","","","","","","","",""
"","","","","","image-keyboard-response","8","597643","0.0-3.0-5.0","6296295f57c07906c9052955","665500ab8938657b03fbdba8","665792f49f0317b2cba47e94","669","stimuli/2011100.jpg","2","","prediction_practice","2","{""filepath"":""stimuli/2011100.jpg"",""ball_pos"":2,""ego_ball_visible"":true,""ego_can_infer"":true,""alter_ball_visible"":false,""alter_can_infer"":false,""collective_ball_visible"":false,""collective_can_infer"":false,""search_locations"":[1,2],""alter_occluders"":""011"",""ego_occluders"":""100""}","true","","","","","","","","","","","","","","","","","","",""
"","","","","","image-keyboard-response","9","598202","0.0-3.0-6.0","6296295f57c07906c9052955","665500ab8938657b03fbdba8","665792f49f0317b2cba47e94","559","stimuli/20111002.jpg"," ","","practrice_feedback","1","","","","","","","","","","","","","","","","","","","","",""
"","","","","","image-keyboard-response","10","599972","0.0-3.0-7.0","6296295f57c07906c9052955","665500ab8938657b03fbdba8","665792f49f0317b2cba47e94","1770","stimuli/2110011.jpg","1","","prediction_practice","2","{""filepath"":""stimuli/2110011.jpg"",""ball_pos"":2,""ego_ball_visible"":false,""ego_can_infer"":false,""alter_ball_visible"":true,""alter_can_infer"":true,""collective_ball_visible"":false,""collective_can_infer"":false,""search_locations"":[2],""alter_occluders"":""110"",""ego_occluders"":""011""}","false","","","","","","","","","","","","","","","","","","",""
"","","","","","image-keyboard-response","11","601316","0.0-3.0-8.0","6296295f57c07906c9052955","665500ab8938657b03fbdba8","665792f49f0317b2cba47e94","1343","stimuli/21100112.jpg"," ","","practrice_feedback","2","","","","","","","","","","","","","","","","","","","","",""
"","","","","","image-keyboard-response","12","601973","0.0-3.0-9.0","6296295f57c07906c9052955","665500ab8938657b03fbdba8","665792f49f0317b2cba47e94","656","stimuli/2111010.jpg","2","","prediction_practice","1","{""filepath"":""stimuli/2111010.jpg"",""ball_pos"":2,""ego_ball_visible"":true,""ego_can_infer"":true,""alter_ball_visible"":false,""alter_can_infer"":false,""collective_ball_visible"":false,""collective_can_infer"":false,""search_locations"":[1,2,0],""alter_occluders"":""111"",""ego_occluders"":""010""}","false","","","","","","","","","","","","","","","","","","",""
"","","","","","image-keyboard-response","13","604235","0.0-3.0-10.0","6296295f57c07906c9052955","665500ab8938657b03fbdba8","665792f49f0317b2cba47e94","2262","stimuli/21110101.jpg"," ","","practrice_feedback","1","","","","","","","","","","","","","","","","","","","","",""
"","","","","","image-keyboard-response","14","606708","0.0-3.0-11.0","6296295f57c07906c9052955","665500ab8938657b03fbdba8","665792f49f0317b2cba47e94","2472","stimuli/1110101.jpg","1","","prediction_practice","0","{""filepath"":""stimuli/1110101.jpg"",""ball_pos"":1,""ego_ball_visible"":true,""ego_can_infer"":true,""alter_ball_visible"":false,""alter_can_infer"":false,""collective_ball_visible"":false,""collective_can_infer"":false,""search_locations"":[0,1],""alter_occluders"":""110"",""ego_occluders"":""101""}","false","","","","","","","","","","","","","","","","","","",""
"","","","","","image-keyboard-response","15","607228","0.0-3.0-12.0","6296295f57c07906c9052955","665500ab8938657b03fbdba8","665792f49f0317b2cba47e94","518","stimuli/11101010.jpg"," ","","practrice_feedback","0","","","","","","","","","","","","","","","","","","","","",""
"","","","","","image-keyboard-response","16","608339","0.0-3.0-13.0","6296295f57c07906c9052955","665500ab8938657b03fbdba8","665792f49f0317b2cba47e94","1110","stimuli/0010100.jpg","0","","prediction_practice","0","{""filepath"":""stimuli/0010100.jpg"",""ball_pos"":0,""ego_ball_visible"":false,""ego_can_infer"":true,""alter_ball_visible"":true,""alter_can_infer"":true,""collective_ball_visible"":false,""collective_can_infer"":true,""search_locations"":[0],""alter_occluders"":""010"",""ego_occluders"":""100""}","true","","","","","","","","","","","","","","","","","","",""
"","","","","","image-keyboard-response","17","609324","0.0-3.0-14.0","6296295f57c07906c9052955","665500ab8938657b03fbdba8","665792f49f0317b2cba47e94","981","stimuli/00101000.jpg"," ","","practrice_feedback","0","","","","","","","","","","","","","","","","","","","","",""
"","","","","","image-keyboard-response","18","610283","0.0-3.0-15.0","6296295f57c07906c9052955","665500ab8938657b03fbdba8","665792f49f0317b2cba47e94","958","stimuli/0101110.jpg","0","","prediction_practice","0","{""filepath"":""stimuli/0101110.jpg"",""ball_pos"":0,""ego_ball_visible"":false,""ego_can_infer"":false,""alter_ball_visible"":false,""alter_can_infer"":false,""collective_ball_visible"":false,""collective_can_infer"":false,""search_locations"":[2,0],""alter_occluders"":""101"",""ego_occluders"":""110""}","true","","","","","","","","","","","","","","","","","","",""
"","","","","","image-keyboard-response","19","610820","0.0-3.0-16.0","6296295f57c07906c9052955","665500ab8938657b03fbdba8","665792f49f0317b2cba47e94","537","stimuli/01011100.jpg"," ","","practrice_feedback","2","","","","","","","","","","","","","","","","","","","","",""
"","","","","","image-keyboard-response","20","612131","0.0-3.0-17.0","6296295f57c07906c9052955","665500ab8938657b03fbdba8","665792f49f0317b2cba47e94","1309","stimuli/1110000.jpg","1","","prediction_practice","0","{""filepath"":""stimuli/1110000.jpg"",""ball_pos"":1,""ego_ball_visible"":true,""ego_can_infer"":true,""alter_ball_visible"":false,""alter_can_infer"":false,""collective_ball_visible"":false,""collective_can_infer"":false,""search_locations"":[1,0],""alter_occluders"":""110"",""ego_occluders"":""000""}","false","","","","","","","","","","","","","","","","","","",""
"","","","","","image-keyboard-response","21","612548","0.0-3.0-18.0","6296295f57c07906c9052955","665500ab8938657b03fbdba8","665792f49f0317b2cba47e94","416","stimuli/11100000.jpg"," ","","practrice_feedback","1","","","","","","","","","","","","","","","","","","","","",""
"","","","","","image-keyboard-response","22","613347","0.0-3.0-19.0","6296295f57c07906c9052955","665500ab8938657b03fbdba8","665792f49f0317b2cba47e94","798","stimuli/0110011.jpg","0","","prediction_practice","1","{""filepath"":""stimuli/0110011.jpg"",""ball_pos"":0,""ego_ball_visible"":true,""ego_can_infer"":true,""alter_ball_visible"":false,""alter_can_infer"":false,""collective_ball_visible"":false,""collective_can_infer"":false,""search_locations"":[1,0],""alter_occluders"":""110"",""ego_occluders"":""011""}","false","","","","","","","","","","","","","","","","","","",""
"","","","","","image-keyboard-response","23","613989","0.0-3.0-20.0","6296295f57c07906c9052955","665500ab8938657b03fbdba8","665792f49f0317b2cba47e94","641","stimuli/01100111.jpg"," ","","practrice_feedback","1","","","","","","","","","","","","","","","","","","","","",""
"","","","","","html-button-response","24","617363","0.0-3.0-21.0","6296295f57c07906c9052955","665500ab8938657b03fbdba8","665792f49f0317b2cba47e94","3373","Now that you've had some practice, you'll be tested with a couple of easy trials. If you correctly predict Sam's choice, you'll move on to complete the experiment!","0","","","","","","","","","","","","","","","","","","","","","","","",""
"","","","","","image-keyboard-response","25","619364","0.0-3.0-22.0-0.0","6296295f57c07906c9052955","665500ab8938657b03fbdba8","665792f49f0317b2cba47e94","2000","stimuli/0000011.jpg","arrowleft","","comprehension_quiz","","","true","arrowleft","","","","","","","","","","","","","","","","","",""
"","","","","","image-keyboard-response","26","619820","0.0-3.0-22.0-1.0","6296295f57c07906c9052955","665500ab8938657b03fbdba8","665792f49f0317b2cba47e94","454","stimuli/00000110.jpg"," ","","comprehension_quiz","","","true"," ","","","","","","","","","","","","","","","","","",""
"","","","","","image-keyboard-response","27","620644","0.0-3.0-22.0-2.0","6296295f57c07906c9052955","665500ab8938657b03fbdba8","665792f49f0317b2cba47e94","823","stimuli/1010010.jpg","arrowdown","","comprehension_quiz","","","true","arrowdown","","","","","","","","","","","","","","","","","",""
"","","","","","image-keyboard-response","28","621140","0.0-3.0-22.0-3.0","6296295f57c07906c9052955","665500ab8938657b03fbdba8","665792f49f0317b2cba47e94","494","stimuli/10100101.jpg"," ","","comprehension_quiz","","","true"," ","","","","","","","","","","","","","","","","","",""
"","","","","","html-button-response","29","625401","0.0-4.0","6296295f57c07906c9052955","665500ab8938657b03fbdba8","665792f49f0317b2cba47e94","4258","The experiment will now begin.","0","","","","","","","","","","","","","","","","","","","","","","","",""
"","","","","","image-keyboard-response","30","628396","0.0-5.0","6296295f57c07906c9052955","665500ab8938657b03fbdba8","665792f49f0317b2cba47e94","2994","stimuli/0100101.jpg","2","","prediction_trial","0","","false","","0","false","false","false","true","false","false","[0]","100","101","0","","","","","","",""
"","","","","","image-keyboard-response","31","629282","0.0-6.0","6296295f57c07906c9052955","665500ab8938657b03fbdba8","665792f49f0317b2cba47e94","884","stimuli/01001010.jpg"," ","","feedback_trial","0","","","","","","","","","","","","","","","","","","","","",""
"","","","","","image-keyboard-response","32","630004","0.0-7.0","6296295f57c07906c9052955","665500ab8938657b03fbdba8","665792f49f0317b2cba47e94","721","stimuli/2110010.jpg","0","","prediction_trial","2","","false","","2","true","true","true","true","true","true","[2]","110","010","0","","","","","","",""
"","","","","","image-keyboard-response","33","630740","0.0-8.0","6296295f57c07906c9052955","665500ab8938657b03fbdba8","665792f49f0317b2cba47e94","728","stimuli/21100102.jpg"," ","","feedback_trial","2","","","","","","","","","","","","","","","","","","","","",""
"","","","","","image-keyboard-response","34","631492","0.0-9.0","6296295f57c07906c9052955","665500ab8938657b03fbdba8","665792f49f0317b2cba47e94","751","stimuli/2011101.jpg","0","","prediction_trial","2","","false","","2","false","false","false","false","false","false","[2,1]","011","101","0","","","","","","",""
"","","","","","image-keyboard-response","35","632812","0.0-10.0","6296295f57c07906c9052955","665500ab8938657b03fbdba8","665792f49f0317b2cba47e94","1319","stimuli/20111012.jpg"," ","","feedback_trial","2","","","","","","","","","","","","","","","","","","","","",""
"","","","","","image-keyboard-response","36","633876","0.0-11.0","6296295f57c07906c9052955","665500ab8938657b03fbdba8","665792f49f0317b2cba47e94","1063","stimuli/1011110.jpg","0","","prediction_trial","2","","false","","1","false","false","false","false","false","false","[2,1]","011","110","0","","","","","","",""
"","","","","","image-keyboard-response","37","634436","0.0-12.0","6296295f57c07906c9052955","665500ab8938657b03fbdba8","665792f49f0317b2cba47e94","558","stimuli/10111102.jpg"," ","","feedback_trial","2","","","","","","","","","","","","","","","","","","","","",""
"","","","","","image-keyboard-response","38","635698","0.0-13.0","6296295f57c07906c9052955","665500ab8938657b03fbdba8","665792f49f0317b2cba47e94","1261","stimuli/0101110.jpg","1","","prediction_trial","0","","false","","0","false","false","false","false","false","false","[2,0]","101","110","0","","","","","","",""
"","","","","","image-keyboard-response","39","636133","0.0-14.0","6296295f57c07906c9052955","665500ab8938657b03fbdba8","665792f49f0317b2cba47e94","433","stimuli/01011100.jpg"," ","","feedback_trial","2","","","","","","","","","","","","","","","","","","","","",""
"","","","","","image-keyboard-response","40","640212","0.0-15.0","6296295f57c07906c9052955","665500ab8938657b03fbdba8","665792f49f0317b2cba47e94","4078","stimuli/1100111.jpg","2","","prediction_trial","1","","false","","1","false","false","true","true","false","false","[1]","100","111","0","","","","","","",""
"","","","","","image-keyboard-response","41","640644","0.0-16.0","6296295f57c07906c9052955","665500ab8938657b03fbdba8","665792f49f0317b2cba47e94","430","stimuli/11001111.jpg"," ","","feedback_trial","1","","","","","","","","","","","","","","","","","","","","",""
"","","","","","image-keyboard-response","42","641372","0.0-17.0","6296295f57c07906c9052955","665500ab8938657b03fbdba8","665792f49f0317b2cba47e94","727","stimuli/0010100.jpg","0","","prediction_trial","0","","true","","0","false","true","true","true","false","true","[0]","010","100","1","","","","","","",""
"","","","","","image-keyboard-response","43","642060","0.0-18.0","6296295f57c07906c9052955","665500ab8938657b03fbdba8","665792f49f0317b2cba47e94","686","stimuli/00101000.jpg"," ","","feedback_trial","0","","","","","","","","","","","","","","","","","","","","",""
"","","","","","image-keyboard-response","44","642732","0.0-19.0","6296295f57c07906c9052955","665500ab8938657b03fbdba8","665792f49f0317b2cba47e94","670","stimuli/1111101.jpg","2","","prediction_trial","1","","false","","1","true","true","false","false","false","false","[1,0,2]","111","101","0","","","","","","",""
"","","","","","image-keyboard-response","45","643428","0.0-20.0","6296295f57c07906c9052955","665500ab8938657b03fbdba8","665792f49f0317b2cba47e94","694","stimuli/11111011.jpg"," ","","feedback_trial","1","","","","","","","","","","","","","","","","","","","","",""
"","","","","","image-keyboard-response","46","644164","0.0-21.0","6296295f57c07906c9052955","665500ab8938657b03fbdba8","665792f49f0317b2cba47e94","734","stimuli/2010000.jpg","2","","prediction_trial","2","","true","","2","true","true","true","true","true","true","[2]","010","000","1","","","","","","",""
"","","","","","image-keyboard-response","47","644717","0.0-22.0","6296295f57c07906c9052955","665500ab8938657b03fbdba8","665792f49f0317b2cba47e94","545","stimuli/20100002.jpg"," ","","feedback_trial","2","","","","","","","","","","","","","","","","","","","","",""
"","","","","","image-keyboard-response","48","645684","0.0-23.0","6296295f57c07906c9052955","665500ab8938657b03fbdba8","665792f49f0317b2cba47e94","966","stimuli/2110101.jpg","2","","prediction_trial","2","","true","","2","false","false","true","true","false","false","[2]","110","101","1","","","","","","",""
"","","","","","image-keyboard-response","49","646340","0.0-24.0","6296295f57c07906c9052955","665500ab8938657b03fbdba8","665792f49f0317b2cba47e94","654","stimuli/21101012.jpg"," ","","feedback_trial","2","","","","","","","","","","","","","","","","","","","","",""
"","","","","","image-keyboard-response","50","647483","0.0-25.0","6296295f57c07906c9052955","665500ab8938657b03fbdba8","665792f49f0317b2cba47e94","1142","stimuli/1000111.jpg","1","","prediction_trial","1","","true","","1","false","false","true","true","false","false","[1]","000","111","1","","","","","","",""
"","","","","","image-keyboard-response","51","648013","0.0-26.0","6296295f57c07906c9052955","665500ab8938657b03fbdba8","665792f49f0317b2cba47e94","529","stimuli/10001111.jpg"," ","","feedback_trial","1","","","","","","","","","","","","","","","","","","","","",""
"","","","","","image-keyboard-response","52","649061","0.0-27.0","6296295f57c07906c9052955","665500ab8938657b03fbdba8","665792f49f0317b2cba47e94","1047","stimuli/0101111.jpg","1","","prediction_trial","2","","false","","0","false","false","false","false","false","false","[2,0]","101","111","0","","","","","","",""
"","","","","","image-keyboard-response","53","649635","0.0-28.0","6296295f57c07906c9052955","665500ab8938657b03fbdba8","665792f49f0317b2cba47e94","574","stimuli/01011112.jpg"," ","","feedback_trial","2","","","","","","","","","","","","","","","","","","","","",""
"","","","","","image-keyboard-response","54","650364","0.0-29.0","6296295f57c07906c9052955","665500ab8938657b03fbdba8","665792f49f0317b2cba47e94","727","stimuli/0000110.jpg","2","","prediction_trial","0","","false","","0","false","false","true","true","false","false","[0]","000","110","0","","","","","","",""
"","","","","","image-keyboard-response","55","650981","0.0-30.0","6296295f57c07906c9052955","665500ab8938657b03fbdba8","665792f49f0317b2cba47e94","616","stimuli/00001100.jpg"," ","","feedback_trial","0","","","","","","","","","","","","","","","","","","","","",""
"","","","","","image-keyboard-response","56","651739","0.0-31.0","6296295f57c07906c9052955","665500ab8938657b03fbdba8","665792f49f0317b2cba47e94","757","stimuli/2011000.jpg","2","","prediction_trial","2","","true","","2","true","true","false","false","false","false","[1,2]","011","000","1","","","","","","",""
"","","","","","image-keyboard-response","57","652173","0.0-32.0","6296295f57c07906c9052955","665500ab8938657b03fbdba8","665792f49f0317b2cba47e94","433","stimuli/20110002.jpg"," ","","feedback_trial","1","","","","","","","","","","","","","","","","","","","","",""
"","","","","","image-keyboard-response","58","653115","0.0-33.0","6296295f57c07906c9052955","665500ab8938657b03fbdba8","665792f49f0317b2cba47e94","940","stimuli/0101101.jpg","0","","prediction_trial","2","","false","","0","false","false","false","false","false","false","[2,0]","101","101","0","","","","","","",""
"","","","","","image-keyboard-response","59","653836","0.0-34.0","6296295f57c07906c9052955","665500ab8938657b03fbdba8","665792f49f0317b2cba47e94","721","stimuli/01011012.jpg"," ","","feedback_trial","2","","","","","","","","","","","","","","","","","","","","",""
"","","","","","image-keyboard-response","60","654429","0.0-35.0","6296295f57c07906c9052955","665500ab8938657b03fbdba8","665792f49f0317b2cba47e94","592","stimuli/1001100.jpg","0","","prediction_trial","1","","false","","1","true","true","true","true","true","true","[1]","001","100","0","","","","","","",""
"","","","","","image-keyboard-response","61","655381","0.0-36.0","6296295f57c07906c9052955","665500ab8938657b03fbdba8","665792f49f0317b2cba47e94","945","stimuli/10011001.jpg"," ","","feedback_trial","1","","","","","","","","","","","","","","","","","","","","",""
"","","","","","image-keyboard-response","62","656012","0.0-37.0","6296295f57c07906c9052955","665500ab8938657b03fbdba8","665792f49f0317b2cba47e94","631","stimuli/0011100.jpg","0","","prediction_trial","0","","true","","0","false","true","true","true","false","true","[0]","011","100","1","","","","","","",""
"","","","","","image-keyboard-response","63","656612","0.0-38.0","6296295f57c07906c9052955","665500ab8938657b03fbdba8","665792f49f0317b2cba47e94","598","stimuli/00111000.jpg"," ","","feedback_trial","0","","","","","","","","","","","","","","","","","","","","",""
"","","","","","image-keyboard-response","64","657955","0.0-39.0","6296295f57c07906c9052955","665500ab8938657b03fbdba8","665792f49f0317b2cba47e94","1342","stimuli/0000101.jpg","0","","prediction_trial","0","","true","","0","false","false","true","true","false","false","[0]","000","101","1","","","","","","",""
"","","","","","image-keyboard-response","65","658548","0.0-40.0","6296295f57c07906c9052955","665500ab8938657b03fbdba8","665792f49f0317b2cba47e94","592","stimuli/00001010.jpg"," ","","feedback_trial","0","","","","","","","","","","","","","","","","","","","","",""
"","","","","","image-keyboard-response","66","659676","0.0-41.0","6296295f57c07906c9052955","665500ab8938657b03fbdba8","665792f49f0317b2cba47e94","1126","stimuli/2101101.jpg","0","","prediction_trial","2","","false","","2","false","false","false","false","false","false","[2,0]","101","101","0","","","","","","",""
"","","","","","image-keyboard-response","67","660373","0.0-42.0","6296295f57c07906c9052955","665500ab8938657b03fbdba8","665792f49f0317b2cba47e94","695","stimuli/21011012.jpg"," ","","feedback_trial","2","","","","","","","","","","","","","","","","","","","","",""
"","","","","","image-keyboard-response","68","661948","0.0-43.0","6296295f57c07906c9052955","665500ab8938657b03fbdba8","665792f49f0317b2cba47e94","1574","stimuli/1001011.jpg","1","","prediction_trial","1","","true","","1","false","false","true","true","false","false","[1]","001","011","1","","","","","","",""
"","","","","","image-keyboard-response","69","662421","0.0-44.0","6296295f57c07906c9052955","665500ab8938657b03fbdba8","665792f49f0317b2cba47e94","471","stimuli/10010111.jpg"," ","","feedback_trial","1","","","","","","","","","","","","","","","","","","","","",""
"","","","","","image-keyboard-response","70","663571","0.0-45.0","6296295f57c07906c9052955","665500ab8938657b03fbdba8","665792f49f0317b2cba47e94","1149","stimuli/1111000.jpg","1","","prediction_trial","2","","false","","1","true","true","false","false","false","false","[2,0,1]","111","000","0","","","","","","",""
"","","","","","image-keyboard-response","71","664069","0.0-46.0","6296295f57c07906c9052955","665500ab8938657b03fbdba8","665792f49f0317b2cba47e94","498","stimuli/11110002.jpg"," ","","feedback_trial","2","","","","","","","","","","","","","","","","","","","","",""
"","","","","","image-keyboard-response","72","664868","0.0-47.0","6296295f57c07906c9052955","665500ab8938657b03fbdba8","665792f49f0317b2cba47e94","799","stimuli/0001010.jpg","0","","prediction_trial","0","","true","","0","true","true","true","true","true","true","[0]","001","010","1","","","","","","",""
"","","","","","image-keyboard-response","73","665316","0.0-48.0","6296295f57c07906c9052955","665500ab8938657b03fbdba8","665792f49f0317b2cba47e94","446","stimuli/00010100.jpg"," ","","feedback_trial","0","","","","","","","","","","","","","","","","","","","","",""
"","","","","","image-keyboard-response","74","666021","0.0-49.0","6296295f57c07906c9052955","665500ab8938657b03fbdba8","665792f49f0317b2cba47e94","703","stimuli/2110110.jpg","2","","prediction_trial","2","","true","","2","true","true","true","true","true","true","[2]","110","110","1","","","","","","",""
"","","","","","image-keyboard-response","75","666515","0.0-50.0","6296295f57c07906c9052955","665500ab8938657b03fbdba8","665792f49f0317b2cba47e94","490","stimuli/21101102.jpg"," ","","feedback_trial","2","","","","","","","","","","","","","","","","","","","","",""
"","","","","","image-keyboard-response","76","667261","0.0-51.0","6296295f57c07906c9052955","665500ab8938657b03fbdba8","665792f49f0317b2cba47e94","745","stimuli/2100010.jpg","2","","prediction_trial","2","","true","","2","true","true","true","true","true","true","[2]","100","010","1","","","","","","",""
"","","","","","image-keyboard-response","77","667844","0.0-52.0","6296295f57c07906c9052955","665500ab8938657b03fbdba8","665792f49f0317b2cba47e94","582","stimuli/21000102.jpg"," ","","feedback_trial","2","","","","","","","","","","","","","","","","","","","","",""
"","","","","","image-keyboard-response","78","668755","0.0-53.0","6296295f57c07906c9052955","665500ab8938657b03fbdba8","665792f49f0317b2cba47e94","909","stimuli/1101111.jpg","1","","prediction_trial","1","","true","","1","false","false","true","true","false","false","[1]","101","111","1","","","","","","",""
"","","","","","image-keyboard-response","79","669316","0.0-54.0","6296295f57c07906c9052955","665500ab8938657b03fbdba8","665792f49f0317b2cba47e94","561","stimuli/11011111.jpg"," ","","feedback_trial","1","","","","","","","","","","","","","","","","","","","","",""
"","","","","","image-keyboard-response","80","670020","0.0-55.0","6296295f57c07906c9052955","665500ab8938657b03fbdba8","665792f49f0317b2cba47e94","702","stimuli/2000100.jpg","2","","prediction_trial","2","","true","","2","true","true","true","true","true","true","[2]","000","100","1","","","","","","",""
"","","","","","image-keyboard-response","81","670396","0.0-56.0","6296295f57c07906c9052955","665500ab8938657b03fbdba8","665792f49f0317b2cba47e94","375","stimuli/20001002.jpg"," ","","feedback_trial","2","","","","","","","","","","","","","","","","","","","","",""
"","","","","","image-keyboard-response","82","670972","0.0-57.0","6296295f57c07906c9052955","665500ab8938657b03fbdba8","665792f49f0317b2cba47e94","574","stimuli/2101000.jpg","2","","prediction_trial","0","","false","","2","true","true","false","false","false","false","[0,2]","101","000","0","","","","","","",""
"","","","","","image-keyboard-response","83","671396","0.0-58.0","6296295f57c07906c9052955","665500ab8938657b03fbdba8","665792f49f0317b2cba47e94","422","stimuli/21010000.jpg"," ","","feedback_trial","0","","","","","","","","","","","","","","","","","","","","",""
"","","","","","image-keyboard-response","84","672795","0.0-59.0","6296295f57c07906c9052955","665500ab8938657b03fbdba8","665792f49f0317b2cba47e94","1398","stimuli/1010111.jpg","0","","prediction_trial","1","","false","","1","false","false","false","true","false","false","[1]","010","111","0","","","","","","",""
"","","","","","image-keyboard-response","85","673476","0.0-60.0","6296295f57c07906c9052955","665500ab8938657b03fbdba8","665792f49f0317b2cba47e94","680","stimuli/10101111.jpg"," ","","feedback_trial","1","","","","","","","","","","","","","","","","","","","","",""
"","","","","","image-keyboard-response","86","674748","0.0-61.0","6296295f57c07906c9052955","665500ab8938657b03fbdba8","665792f49f0317b2cba47e94","1271","stimuli/1000110.jpg","1","","prediction_trial","1","","true","","1","false","false","true","true","false","false","[1]","000","110","1","","","","","","",""
"","","","","","image-keyboard-response","87","675268","0.0-62.0","6296295f57c07906c9052955","665500ab8938657b03fbdba8","665792f49f0317b2cba47e94","519","stimuli/10001101.jpg"," ","","feedback_trial","1","","","","","","","","","","","","","","","","","","","","",""
"","","","","","image-keyboard-response","88","676291","0.0-63.0","6296295f57c07906c9052955","665500ab8938657b03fbdba8","665792f49f0317b2cba47e94","1021","stimuli/2011100.jpg","2","","prediction_trial","2","","true","","2","true","true","false","false","false","false","[1,2]","011","100","1","","","","","","",""
"","","","","","image-keyboard-response","89","677036","0.0-64.0","6296295f57c07906c9052955","665500ab8938657b03fbdba8","665792f49f0317b2cba47e94","744","stimuli/20111002.jpg"," ","","feedback_trial","1","","","","","","","","","","","","","","","","","","","","",""
"","","","","","image-keyboard-response","90","678579","0.0-65.0","6296295f57c07906c9052955","665500ab8938657b03fbdba8","665792f49f0317b2cba47e94","1542","stimuli/0110111.jpg","2","","prediction_trial","0","","false","","0","false","false","false","false","false","false","[1,0]","110","111","0","","","","","","",""
"","","","","","image-keyboard-response","91","679043","0.0-66.0","6296295f57c07906c9052955","665500ab8938657b03fbdba8","665792f49f0317b2cba47e94","463","stimuli/01101110.jpg"," ","","feedback_trial","1","","","","","","","","","","","","","","","","","","","","",""
"","","","","","image-keyboard-response","92","679756","0.0-67.0","6296295f57c07906c9052955","665500ab8938657b03fbdba8","665792f49f0317b2cba47e94","713","stimuli/2100000.jpg","2","","prediction_trial","2","","true","","2","true","true","true","true","true","true","[2]","100","000","1","","","","","","",""
"","","","","","image-keyboard-response","93","680132","0.0-68.0","6296295f57c07906c9052955","665500ab8938657b03fbdba8","665792f49f0317b2cba47e94","375","stimuli/21000002.jpg"," ","","feedback_trial","2","","","","","","","","","","","","","","","","","","","","",""
"","","","","","image-keyboard-response","94","681044","0.0-69.0","6296295f57c07906c9052955","665500ab8938657b03fbdba8","665792f49f0317b2cba47e94","910","stimuli/2010011.jpg","2","","prediction_trial","2","","true","","2","false","false","true","true","false","false","[2]","010","011","1","","","","","","",""
"","","","","","image-keyboard-response","95","681571","0.0-70.0","6296295f57c07906c9052955","665500ab8938657b03fbdba8","665792f49f0317b2cba47e94","526","stimuli/20100112.jpg"," ","","feedback_trial","2","","","","","","","","","","","","","","","","","","","","",""
"","","","","","image-keyboard-response","96","682228","0.0-71.0","6296295f57c07906c9052955","665500ab8938657b03fbdba8","665792f49f0317b2cba47e94","656","stimuli/0111111.jpg","1","","prediction_trial","2","","false","","0","false","false","false","false","false","false","[2,0,1]","111","111","0","","","","","","",""
"","","","","","image-keyboard-response","97","682691","0.0-72.0","6296295f57c07906c9052955","665500ab8938657b03fbdba8","665792f49f0317b2cba47e94","461","stimuli/01111112.jpg"," ","","feedback_trial","2","","","","","","","","","","","","","","","","","","","","",""
"","","","","","image-keyboard-response","98","684165","0.0-73.0","6296295f57c07906c9052955","665500ab8938657b03fbdba8","665792f49f0317b2cba47e94","1473","stimuli/2000110.jpg","1","","prediction_trial","2","","false","","2","true","true","true","true","true","true","[2]","000","110","0","","","","","","",""
"","","","","","image-keyboard-response","99","684684","0.0-74.0","6296295f57c07906c9052955","665500ab8938657b03fbdba8","665792f49f0317b2cba47e94","518","stimuli/20001102.jpg"," ","","feedback_trial","2","","","","","","","","","","","","","","","","","","","","",""
"","","","","","image-keyboard-response","100","685284","0.0-75.0","6296295f57c07906c9052955","665500ab8938657b03fbdba8","665792f49f0317b2cba47e94","598","stimuli/2010100.jpg","0","","prediction_trial","2","","false","","2","true","true","true","true","true","true","[2]","010","100","0","","","","","","",""
"","","","","","image-keyboard-response","101","685845","0.0-76.0","6296295f57c07906c9052955","665500ab8938657b03fbdba8","665792f49f0317b2cba47e94","560","stimuli/20101002.jpg"," ","","feedback_trial","2","","","","","","","","","","","","","","","","","","","","",""
"","","","","","image-keyboard-response","102","686404","0.0-77.0","6296295f57c07906c9052955","665500ab8938657b03fbdba8","665792f49f0317b2cba47e94","558","stimuli/0010011.jpg","0","","prediction_trial","0","","true","","0","true","true","true","true","true","true","[0]","010","011","1","","","","","","",""
"","","","","","image-keyboard-response","103","686779","0.0-78.0","6296295f57c07906c9052955","665500ab8938657b03fbdba8","665792f49f0317b2cba47e94","373","stimuli/00100110.jpg"," ","","feedback_trial","0","","","","","","","","","","","","","","","","","","","","",""
"","","","","","image-keyboard-response","104","688203","0.0-79.0","6296295f57c07906c9052955","665500ab8938657b03fbdba8","665792f49f0317b2cba47e94","1423","stimuli/0111011.jpg","0","","prediction_trial","1","","false","","0","true","true","false","false","false","false","[0,1,2]","111","011","0","","","","","","",""
"","","","","","image-keyboard-response","105","688684","0.0-80.0","6296295f57c07906c9052955","665500ab8938657b03fbdba8","665792f49f0317b2cba47e94","480","stimuli/01110111.jpg"," ","","feedback_trial","0","","","","","","","","","","","","","","","","","","","","",""
"","","","","","image-keyboard-response","106","689565","0.0-81.0","6296295f57c07906c9052955","665500ab8938657b03fbdba8","665792f49f0317b2cba47e94","879","stimuli/1111001.jpg","1","","prediction_trial","1","","true","","1","true","true","false","false","false","false","[0,1,2]","111","001","1","","","","","","",""
"","","","","","image-keyboard-response","107","689941","0.0-82.0","6296295f57c07906c9052955","665500ab8938657b03fbdba8","665792f49f0317b2cba47e94","374","stimuli/11110011.jpg"," ","","feedback_trial","0","","","","","","","","","","","","","","","","","","","","",""
"","","","","","image-keyboard-response","108","691101","0.0-83.0","6296295f57c07906c9052955","665500ab8938657b03fbdba8","665792f49f0317b2cba47e94","1159","stimuli/1000011.jpg","1","","prediction_trial","1","","true","","1","false","false","true","true","false","false","[1]","000","011","1","","","","","","",""
"","","","","","image-keyboard-response","109","691587","0.0-84.0","6296295f57c07906c9052955","665500ab8938657b03fbdba8","665792f49f0317b2cba47e94","485","stimuli/10000111.jpg"," ","","feedback_trial","1","","","","","","","","","","","","","","","","","","","","",""
"","","","","","image-keyboard-response","110","692451","0.0-85.0","6296295f57c07906c9052955","665500ab8938657b03fbdba8","665792f49f0317b2cba47e94","863","stimuli/2100011.jpg","1","","prediction_trial","2","","false","","2","false","false","true","true","false","false","[2]","100","011","0","","","","","","",""
"","","","","","image-keyboard-response","111","692955","0.0-86.0","6296295f57c07906c9052955","665500ab8938657b03fbdba8","665792f49f0317b2cba47e94","503","stimuli/21000112.jpg"," ","","feedback_trial","2","","","","","","","","","","","","","","","","","","","","",""
"","","","","","image-keyboard-response","112","693645","0.0-87.0","6296295f57c07906c9052955","665500ab8938657b03fbdba8","665792f49f0317b2cba47e94","689","stimuli/2110011.jpg","2","","prediction_trial","2","","true","","2","false","false","true","true","false","false","[2]","110","011","1","","","","","","",""
"","","","","","image-keyboard-response","113","694212","0.0-88.0","6296295f57c07906c9052955","665500ab8938657b03fbdba8","665792f49f0317b2cba47e94","566","stimuli/21100112.jpg"," ","","feedback_trial","2","","","","","","","","","","","","","","","","","","","","",""
"","","","","","image-keyboard-response","114","695685","0.0-89.0","6296295f57c07906c9052955","665500ab8938657b03fbdba8","665792f49f0317b2cba47e94","1471","stimuli/2001000.jpg","2","","prediction_trial","2","","true","","2","true","true","false","true","false","true","[2]","001","000","1","","","","","","",""
"","","","","","image-keyboard-response","115","695971","0.0-90.0","6296295f57c07906c9052955","665500ab8938657b03fbdba8","665792f49f0317b2cba47e94","286","stimuli/20010002.jpg"," ","","feedback_trial","2","","","","","","","","","","","","","","","","","","","","",""
"","","","","","image-keyboard-response","116","696884","0.0-91.0","6296295f57c07906c9052955","665500ab8938657b03fbdba8","665792f49f0317b2cba47e94","912","stimuli/0110101.jpg","2","","prediction_trial","1","","false","","0","false","false","false","false","false","false","[1,0]","110","101","0","","","","","","",""
"","","","","","image-keyboard-response","117","697531","0.0-92.0","6296295f57c07906c9052955","665500ab8938657b03fbdba8","665792f49f0317b2cba47e94","645","stimuli/01101011.jpg"," ","","feedback_trial","1","","","","","","","","","","","","","","","","","","","","",""
"","","","","","image-keyboard-response","118","698507","0.0-93.0","6296295f57c07906c9052955","665500ab8938657b03fbdba8","665792f49f0317b2cba47e94","975","stimuli/2001101.jpg","0","","prediction_trial","2","","false","","2","false","false","false","true","false","false","[2]","001","101","0","","","","","","",""
"","","","","","image-keyboard-response","119","699266","0.0-94.0","6296295f57c07906c9052955","665500ab8938657b03fbdba8","665792f49f0317b2cba47e94","759","stimuli/20011012.jpg"," ","","feedback_trial","2","","","","","","","","","","","","","","","","","","","","",""
"","","","","","image-keyboard-response","120","700499","0.0-95.0","6296295f57c07906c9052955","665500ab8938657b03fbdba8","665792f49f0317b2cba47e94","1233","stimuli/1111011.jpg","1","","prediction_trial","0","","false","","1","false","false","false","false","false","false","[0,1,2]","111","011","0","","","","","","",""
"","","","","","image-keyboard-response","121","700916","0.0-96.0","6296295f57c07906c9052955","665500ab8938657b03fbdba8","665792f49f0317b2cba47e94","415","stimuli/11110110.jpg"," ","","feedback_trial","0","","","","","","","","","","","","","","","","","","","","",""
"","","","","","image-keyboard-response","122","701548","0.0-97.0","6296295f57c07906c9052955","665500ab8938657b03fbdba8","665792f49f0317b2cba47e94","630","stimuli/2000010.jpg","2","","prediction_trial","2","","true","","2","true","true","true","true","true","true","[2]","000","010","1","","","","","","",""
"","","","","","image-keyboard-response","123","702060","0.0-98.0","6296295f57c07906c9052955","665500ab8938657b03fbdba8","665792f49f0317b2cba47e94","511","stimuli/20000102.jpg"," ","","feedback_trial","2","","","","","","","","","","","","","","","","","","","","",""
"","","","","","image-keyboard-response","124","703108","0.0-99.0","6296295f57c07906c9052955","665500ab8938657b03fbdba8","665792f49f0317b2cba47e94","1046","stimuli/0100001.jpg","1","","prediction_trial","0","","false","","0","true","true","false","true","false","true","[0]","100","001","0","","","","","","",""
"","","","","","image-keyboard-response","125","703594","0.0-100.0","6296295f57c07906c9052955","665500ab8938657b03fbdba8","665792f49f0317b2cba47e94","485","stimuli/01000010.jpg"," ","","feedback_trial","0","","","","","","","","","","","","","","","","","","","","",""
"","","","","","image-keyboard-response","126","704204","0.0-101.0","6296295f57c07906c9052955","665500ab8938657b03fbdba8","665792f49f0317b2cba47e94","609","stimuli/2111000.jpg","2","","prediction_trial","2","","true","","2","true","true","false","false","false","false","[2,1,0]","111","000","1","","","","","","",""
"","","","","","image-keyboard-response","127","704683","0.0-102.0","6296295f57c07906c9052955","665500ab8938657b03fbdba8","665792f49f0317b2cba47e94","478","stimuli/21110002.jpg"," ","","feedback_trial","2","","","","","","","","","","","","","","","","","","","","",""
"","","","","","image-keyboard-response","128","705915","0.0-103.0","6296295f57c07906c9052955","665500ab8938657b03fbdba8","665792f49f0317b2cba47e94","1232","stimuli/1100010.jpg","1","","prediction_trial","1","","true","","1","false","true","true","true","false","true","[1]","100","010","1","","","","","","",""
"","","","","","image-keyboard-response","129","706347","0.0-104.0","6296295f57c07906c9052955","665500ab8938657b03fbdba8","665792f49f0317b2cba47e94","431","stimuli/11000101.jpg"," ","","feedback_trial","1","","","","","","","","","","","","","","","","","","","","",""
"","","","","","image-keyboard-response","130","707260","0.0-105.0","6296295f57c07906c9052955","665500ab8938657b03fbdba8","665792f49f0317b2cba47e94","912","stimuli/1010101.jpg","0","","prediction_trial","1","","false","","1","true","true","false","true","false","true","[1]","010","101","0","","","","","","",""
"","","","","","image-keyboard-response","131","708020","0.0-106.0","6296295f57c07906c9052955","665500ab8938657b03fbdba8","665792f49f0317b2cba47e94","758","stimuli/10101011.jpg"," ","","feedback_trial","1","","","","","","","","","","","","","","","","","","","","",""
"","","","","","image-keyboard-response","132","709780","0.0-107.0","6296295f57c07906c9052955","665500ab8938657b03fbdba8","665792f49f0317b2cba47e94","1758","stimuli/1010011.jpg","2","","prediction_trial","1","","false","","1","false","false","false","true","false","false","[1]","010","011","0","","","","","","",""
"","","","","","image-keyboard-response","133","710299","0.0-108.0","6296295f57c07906c9052955","665500ab8938657b03fbdba8","665792f49f0317b2cba47e94","518","stimuli/10100111.jpg"," ","","feedback_trial","1","","","","","","","","","","","","","","","","","","","","",""
"","","","","","image-keyboard-response","134","711076","0.0-109.0","6296295f57c07906c9052955","665500ab8938657b03fbdba8","665792f49f0317b2cba47e94","775","stimuli/0011011.jpg","0","","prediction_trial","0","","true","","0","true","true","true","true","true","true","[0]","011","011","1","","","","","","",""
"","","","","","image-keyboard-response","135","711460","0.0-110.0","6296295f57c07906c9052955","665500ab8938657b03fbdba8","665792f49f0317b2cba47e94","382","stimuli/00110110.jpg"," ","","feedback_trial","0","","","","","","","","","","","","","","","","","","","","",""
"","","","","","image-keyboard-response","136","712596","0.0-111.0","6296295f57c07906c9052955","665500ab8938657b03fbdba8","665792f49f0317b2cba47e94","1134","stimuli/1010010.jpg","1","","prediction_trial","1","","true","","1","false","true","false","true","false","true","[1]","010","010","1","","","","","","",""
"","","","","","image-keyboard-response","137","712987","0.0-112.0","6296295f57c07906c9052955","665500ab8938657b03fbdba8","665792f49f0317b2cba47e94","390","stimuli/10100101.jpg"," ","","feedback_trial","1","","","","","","","","","","","","","","","","","","","","",""
"","","","","","image-keyboard-response","138","714099","0.0-113.0","6296295f57c07906c9052955","665500ab8938657b03fbdba8","665792f49f0317b2cba47e94","1111","stimuli/0100011.jpg","0","","prediction_trial","0","","true","","0","true","true","false","true","false","true","[0]","100","011","1","","","","","","",""
"","","","","","image-keyboard-response","139","714476","0.0-114.0","6296295f57c07906c9052955","665500ab8938657b03fbdba8","665792f49f0317b2cba47e94","377","stimuli/01000110.jpg"," ","","feedback_trial","0","","","","","","","","","","","","","","","","","","","","",""
"","","","","","image-keyboard-response","140","715412","0.0-115.0","6296295f57c07906c9052955","665500ab8938657b03fbdba8","665792f49f0317b2cba47e94","934","stimuli/2000111.jpg","0","","prediction_trial","2","","false","","2","false","false","true","true","false","false","[2]","000","111","0","","","","","","",""
"","","","","","image-keyboard-response","141","716036","0.0-116.0","6296295f57c07906c9052955","665500ab8938657b03fbdba8","665792f49f0317b2cba47e94","622","stimuli/20001112.jpg"," ","","feedback_trial","2","","","","","","","","","","","","","","","","","","","","",""
"","","","","","image-keyboard-response","142","730852","0.0-117.0","6296295f57c07906c9052955","665500ab8938657b03fbdba8","665792f49f0317b2cba47e94","14815","stimuli/2000000.jpg","2","","prediction_trial","2","","true","","2","true","true","true","true","true","true","[2]","000","000","1","","","","","","",""
"","","","","","image-keyboard-response","143","731444","0.0-118.0","6296295f57c07906c9052955","665500ab8938657b03fbdba8","665792f49f0317b2cba47e94","590","stimuli/20000002.jpg"," ","","feedback_trial","2","","","","","","","","","","","","","","","","","","","","",""
"","","","","","image-keyboard-response","144","732026","0.0-119.0","6296295f57c07906c9052955","665500ab8938657b03fbdba8","665792f49f0317b2cba47e94","581","stimuli/1100001.jpg","1","","prediction_trial","1","","true","","1","true","true","true","true","true","true","[1]","100","001","1","","","","","","",""
"","","","","","image-keyboard-response","145","732187","0.0-120.0","6296295f57c07906c9052955","665500ab8938657b03fbdba8","665792f49f0317b2cba47e94","160","stimuli/11000011.jpg"," ","","feedback_trial","1","","","","","","","","","","","","","","","","","","","","",""
"","","","","","image-keyboard-response","146","733500","0.0-121.0","6296295f57c07906c9052955","665500ab8938657b03fbdba8","665792f49f0317b2cba47e94","1313","stimuli/1110000.jpg","1","","prediction_trial","0","","false","","1","true","true","false","false","false","false","[1,0]","110","000","0","","","","","","",""
"","","","","","image-keyboard-response","147","733899","0.0-122.0","6296295f57c07906c9052955","665500ab8938657b03fbdba8","665792f49f0317b2cba47e94","398","stimuli/11100000.jpg"," ","","feedback_trial","1","","","","","","","","","","","","","","","","","","","","",""
"","","","","","image-keyboard-response","148","734972","0.0-123.0","6296295f57c07906c9052955","665500ab8938657b03fbdba8","665792f49f0317b2cba47e94","1073","stimuli/1111100.jpg","0","","prediction_trial","0","","true","","1","true","true","false","false","false","false","[0,1,2]","111","100","1","","","","","","",""
"","","","","","image-keyboard-response","149","735396","0.0-124.0","6296295f57c07906c9052955","665500ab8938657b03fbdba8","665792f49f0317b2cba47e94","423","stimuli/11111000.jpg"," ","","feedback_trial","0","","","","","","","","","","","","","","","","","","","","",""
"","","","","","image-keyboard-response","150","736404","0.0-125.0","6296295f57c07906c9052955","665500ab8938657b03fbdba8","665792f49f0317b2cba47e94","1007","stimuli/2111011.jpg","2","","prediction_trial","2","","true","","2","false","false","false","false","false","false","[2,1,0]","111","011","1","","","","","","",""
"","","","","","image-keyboard-response","151","736812","0.0-126.0","6296295f57c07906c9052955","665500ab8938657b03fbdba8","665792f49f0317b2cba47e94","407","stimuli/21110112.jpg"," ","","feedback_trial","2","","","","","","","","","","","","","","","","","","","","",""
"","","","","","image-keyboard-response","152","737546","0.0-127.0","6296295f57c07906c9052955","665500ab8938657b03fbdba8","665792f49f0317b2cba47e94","733","stimuli/1101011.jpg","1","","prediction_trial","1","","true","","1","false","false","true","true","false","false","[1]","101","011","1","","","","","","",""
"","","","","","image-keyboard-response","153","738076","0.0-128.0","6296295f57c07906c9052955","665500ab8938657b03fbdba8","665792f49f0317b2cba47e94","529","stimuli/11010111.jpg"," ","","feedback_trial","1","","","","","","","","","","","","","","","","","","","","",""
"","","","","","image-keyboard-response","154","738610","0.0-129.0","6296295f57c07906c9052955","665500ab8938657b03fbdba8","665792f49f0317b2cba47e94","533","stimuli/0011000.jpg","0","","prediction_trial","0","","true","","0","true","true","true","true","true","true","[0]","011","000","1","","","","","","",""
"","","","","","image-keyboard-response","155","739060","0.0-130.0","6296295f57c07906c9052955","665500ab8938657b03fbdba8","665792f49f0317b2cba47e94","449","stimuli/00110000.jpg"," ","","feedback_trial","0","","","","","","","","","","","","","","","","","","","","",""
"","","","","","image-keyboard-response","156","740115","0.0-131.0","6296295f57c07906c9052955","665500ab8938657b03fbdba8","665792f49f0317b2cba47e94","1053","stimuli/0111110.jpg","0","","prediction_trial","0","","true","","0","false","false","false","false","false","false","[1,0,2]","111","110","1","","","","","","",""
"","","","","","image-keyboard-response","157","740460","0.0-132.0","6296295f57c07906c9052955","665500ab8938657b03fbdba8","665792f49f0317b2cba47e94","344","stimuli/01111100.jpg"," ","","feedback_trial","1","","","","","","","","","","","","","","","","","","","","",""
"","","","","","image-keyboard-response","158","741516","0.0-133.0","6296295f57c07906c9052955","665500ab8938657b03fbdba8","665792f49f0317b2cba47e94","1055","stimuli/1110100.jpg","1","","prediction_trial","0","","false","","1","true","true","false","false","false","false","[1,0]","110","100","0","","","","","","",""
"","","","","","image-keyboard-response","159","741843","0.0-134.0","6296295f57c07906c9052955","665500ab8938657b03fbdba8","665792f49f0317b2cba47e94","324","stimuli/11101000.jpg"," ","","feedback_trial","1","","","","","","","","","","","","","","","","","","","","",""
"","","","","","image-keyboard-response","160","742419","0.0-135.0","6296295f57c07906c9052955","665500ab8938657b03fbdba8","665792f49f0317b2cba47e94","573","stimuli/0010111.jpg","0","","prediction_trial","0","","true","","0","false","false","true","true","false","false","[0]","010","111","1","","","","","","",""
"","","","","","image-keyboard-response","161","742941","0.0-136.0","6296295f57c07906c9052955","665500ab8938657b03fbdba8","665792f49f0317b2cba47e94","521","stimuli/00101110.jpg"," ","","feedback_trial","0","","","","","","","","","","","","","","","","","","","","",""
"","","","","","image-keyboard-response","162","743628","0.0-137.0","6296295f57c07906c9052955","665500ab8938657b03fbdba8","665792f49f0317b2cba47e94","686","stimuli/0000011.jpg","0","","prediction_trial","0","","true","","0","true","true","true","true","true","true","[0]","000","011","1","","","","","","",""
"","","","","","image-keyboard-response","163","743963","0.0-138.0","6296295f57c07906c9052955","665500ab8938657b03fbdba8","665792f49f0317b2cba47e94","333","stimuli/00000110.jpg"," ","","feedback_trial","0","","","","","","","","","","","","","","","","","","","","",""
"","","","","","image-keyboard-response","164","744547","0.0-139.0","6296295f57c07906c9052955","665500ab8938657b03fbdba8","665792f49f0317b2cba47e94","584","stimuli/1110011.jpg","2","","prediction_trial","0","","false","","1","false","false","false","false","false","false","[1,0]","110","011","0","","","","","","",""
"","","","","","image-keyboard-response","165","745098","0.0-140.0","6296295f57c07906c9052955","665500ab8938657b03fbdba8","665792f49f0317b2cba47e94","550","stimuli/11100110.jpg"," ","","feedback_trial","1","","","","","","","","","","","","","","","","","","","","",""
"","","","","","image-keyboard-response","166","745724","0.0-141.0","6296295f57c07906c9052955","665500ab8938657b03fbdba8","665792f49f0317b2cba47e94","625","stimuli/1100100.jpg","1","","prediction_trial","1","","true","","1","true","true","true","true","true","true","[1]","100","100","1","","","","","","",""
"","","","","","image-keyboard-response","167","746115","0.0-142.0","6296295f57c07906c9052955","665500ab8938657b03fbdba8","665792f49f0317b2cba47e94","389","stimuli/11001001.jpg"," ","","feedback_trial","1","","","","","","","","","","","","","","","","","","","","",""
"","","","","","image-keyboard-response","168","747812","0.0-143.0","6296295f57c07906c9052955","665500ab8938657b03fbdba8","665792f49f0317b2cba47e94","1697","stimuli/2001010.jpg","2","","prediction_trial","2","","true","","2","true","true","false","true","false","true","[2]","001","010","1","","","","","","",""
"","","","","","image-keyboard-response","169","748202","0.0-144.0","6296295f57c07906c9052955","665500ab8938657b03fbdba8","665792f49f0317b2cba47e94","390","stimuli/20010102.jpg"," ","","feedback_trial","2","","","","","","","","","","","","","","","","","","","","",""
"","","","","","image-keyboard-response","170","749108","0.0-145.0","6296295f57c07906c9052955","665500ab8938657b03fbdba8","665792f49f0317b2cba47e94","905","stimuli/0100100.jpg","0","","prediction_trial","0","","true","","0","false","true","false","true","false","true","[0]","100","100","1","","","","","","",""
"","","","","","image-keyboard-response","171","749460","0.0-146.0","6296295f57c07906c9052955","665500ab8938657b03fbdba8","665792f49f0317b2cba47e94","351","stimuli/01001000.jpg"," ","","feedback_trial","0","","","","","","","","","","","","","","","","","","","","",""
"","","","","","image-keyboard-response","172","751378","0.0-147.0","6296295f57c07906c9052955","665500ab8938657b03fbdba8","665792f49f0317b2cba47e94","1917","stimuli/2011110.jpg","1","","prediction_trial","2","","false","","2","true","true","false","false","false","false","[2,1]","011","110","0","","","","","","",""
"","","","","","image-keyboard-response","173","751980","0.0-148.0","6296295f57c07906c9052955","665500ab8938657b03fbdba8","665792f49f0317b2cba47e94","598","stimuli/20111102.jpg"," ","","feedback_trial","2","","","","","","","","","","","","","","","","","","","","",""
"","","","","","image-keyboard-response","174","753244","0.0-149.0","6296295f57c07906c9052955","665500ab8938657b03fbdba8","665792f49f0317b2cba47e94","1263","stimuli/2010101.jpg","0","","prediction_trial","2","","false","","2","false","false","true","true","false","false","[2]","010","101","0","","","","","","",""
"","","","","","image-keyboard-response","175","753588","0.0-150.0","6296295f57c07906c9052955","665500ab8938657b03fbdba8","665792f49f0317b2cba47e94","342","stimuli/20101012.jpg"," ","","feedback_trial","2","","","","","","","","","","","","","","","","","","","","",""
"","","","","","image-keyboard-response","176","755139","0.0-151.0","6296295f57c07906c9052955","665500ab8938657b03fbdba8","665792f49f0317b2cba47e94","1550","stimuli/0110001.jpg","0","","prediction_trial","1","","false","","0","true","true","false","false","false","false","[1,0]","110","001","0","","","","","","",""
"","","","","","image-keyboard-response","177","755428","0.0-152.0","6296295f57c07906c9052955","665500ab8938657b03fbdba8","665792f49f0317b2cba47e94","289","stimuli/01100011.jpg"," ","","feedback_trial","1","","","","","","","","","","","","","","","","","","","","",""
"","","","","","image-keyboard-response","178","756644","0.0-153.0","6296295f57c07906c9052955","665500ab8938657b03fbdba8","665792f49f0317b2cba47e94","1215","stimuli/0110100.jpg","0","","prediction_trial","0","","true","","0","false","true","false","false","false","false","[1,0]","110","100","1","","","","","","",""
"","","","","","image-keyboard-response","179","757042","0.0-154.0","6296295f57c07906c9052955","665500ab8938657b03fbdba8","665792f49f0317b2cba47e94","397","stimuli/01101000.jpg"," ","","feedback_trial","1","","","","","","","","","","","","","","","","","","","","",""
"","","","","","image-keyboard-response","180","757955","0.0-155.0","6296295f57c07906c9052955","665500ab8938657b03fbdba8","665792f49f0317b2cba47e94","912","stimuli/1101110.jpg","1","","prediction_trial","1","","true","","1","false","false","true","true","false","false","[1]","101","110","1","","","","","","",""
"","","","","","image-keyboard-response","181","758531","0.0-156.0","6296295f57c07906c9052955","665500ab8938657b03fbdba8","665792f49f0317b2cba47e94","575","stimuli/11011101.jpg"," ","","feedback_trial","1","","","","","","","","","","","","","","","","","","","","",""
"","","","","","image-keyboard-response","182","759195","0.0-157.0","6296295f57c07906c9052955","665500ab8938657b03fbdba8","665792f49f0317b2cba47e94","662","stimuli/0010001.jpg","0","","prediction_trial","0","","true","","0","true","true","true","true","true","true","[0]","010","001","1","","","","","","",""
"","","","","","image-keyboard-response","183","759539","0.0-158.0","6296295f57c07906c9052955","665500ab8938657b03fbdba8","665792f49f0317b2cba47e94","343","stimuli/00100010.jpg"," ","","feedback_trial","0","","","","","","","","","","","","","","","","","","","","",""
"","","","","","image-keyboard-response","184","760164","0.0-159.0","6296295f57c07906c9052955","665500ab8938657b03fbdba8","665792f49f0317b2cba47e94","623","stimuli/0011101.jpg","0","","prediction_trial","0","","true","","0","false","false","true","true","false","false","[0]","011","101","1","","","","","","",""
"","","","","","image-keyboard-response","185","760618","0.0-160.0","6296295f57c07906c9052955","665500ab8938657b03fbdba8","665792f49f0317b2cba47e94","454","stimuli/00111010.jpg"," ","","feedback_trial","0","","","","","","","","","","","","","","","","","","","","",""
"","","","","","image-keyboard-response","186","761860","0.0-161.0","6296295f57c07906c9052955","665500ab8938657b03fbdba8","665792f49f0317b2cba47e94","1241","stimuli/0111101.jpg","0","","prediction_trial","1","","false","","0","false","false","false","false","false","false","[0,2,1]","111","101","0","","","","","","",""
"","","","","","image-keyboard-response","187","762299","0.0-162.0","6296295f57c07906c9052955","665500ab8938657b03fbdba8","665792f49f0317b2cba47e94","437","stimuli/01111011.jpg"," ","","feedback_trial","0","","","","","","","","","","","","","","","","","","","","",""
"","","","","","image-keyboard-response","188","763371","0.0-163.0","6296295f57c07906c9052955","665500ab8938657b03fbdba8","665792f49f0317b2cba47e94","1070","stimuli/2111111.jpg","1","","prediction_trial","1","","true","","2","false","false","false","false","false","false","[0,2,1]","111","111","1","","","","","","",""
"","","","","","image-keyboard-response","189","763731","0.0-164.0","6296295f57c07906c9052955","665500ab8938657b03fbdba8","665792f49f0317b2cba47e94","360","stimuli/21111111.jpg"," ","","feedback_trial","0","","","","","","","","","","","","","","","","","","","","",""
"","","","","","image-keyboard-response","190","764395","0.0-165.0","6296295f57c07906c9052955","665500ab8938657b03fbdba8","665792f49f0317b2cba47e94","662","stimuli/0000000.jpg","0","","prediction_trial","0","","true","","0","true","true","true","true","true","true","[0]","000","000","1","","","","","","",""
"","","","","","image-keyboard-response","191","764754","0.0-166.0","6296295f57c07906c9052955","665500ab8938657b03fbdba8","665792f49f0317b2cba47e94","358","stimuli/00000000.jpg"," ","","feedback_trial","0","","","","","","","","","","","","","","","","","","","","",""
"","","","","","image-keyboard-response","192","765315","0.0-167.0","6296295f57c07906c9052955","665500ab8938657b03fbdba8","665792f49f0317b2cba47e94","561","stimuli/2100110.jpg","2","","prediction_trial","2","","true","","2","true","true","true","true","true","true","[2]","100","110","1","","","","","","",""
"","","","","","image-keyboard-response","193","765516","0.0-168.0","6296295f57c07906c9052955","665500ab8938657b03fbdba8","665792f49f0317b2cba47e94","199","stimuli/21001102.jpg"," ","","feedback_trial","2","","","","","","","","","","","","","","","","","","","","",""
"","","","","","image-keyboard-response","194","766420","0.0-169.0","6296295f57c07906c9052955","665500ab8938657b03fbdba8","665792f49f0317b2cba47e94","902","stimuli/0000100.jpg","0","","prediction_trial","0","","true","","0","false","true","true","true","false","true","[0]","000","100","1","","","","","","",""
"","","","","","image-keyboard-response","195","766772","0.0-170.0","6296295f57c07906c9052955","665500ab8938657b03fbdba8","665792f49f0317b2cba47e94","351","stimuli/00001000.jpg"," ","","feedback_trial","0","","","","","","","","","","","","","","","","","","","","",""
"","","","","","image-keyboard-response","196","767548","0.0-171.0","6296295f57c07906c9052955","665500ab8938657b03fbdba8","665792f49f0317b2cba47e94","774","stimuli/1010110.jpg","0","","prediction_trial","1","","false","","1","false","false","false","true","false","false","[1]","010","110","0","","","","","","",""
"","","","","","image-keyboard-response","197","768075","0.0-172.0","6296295f57c07906c9052955","665500ab8938657b03fbdba8","665792f49f0317b2cba47e94","526","stimuli/10101101.jpg"," ","","feedback_trial","1","","","","","","","","","","","","","","","","","","","","",""
"","","","","","image-keyboard-response","198","769115","0.0-173.0","6296295f57c07906c9052955","665500ab8938657b03fbdba8","665792f49f0317b2cba47e94","1039","stimuli/1011010.jpg","1","","prediction_trial","1","","true","","1","false","true","false","false","false","false","[1,2]","011","010","1","","","","","","",""
"","","","","","image-keyboard-response","199","769379","0.0-174.0","6296295f57c07906c9052955","665500ab8938657b03fbdba8","665792f49f0317b2cba47e94","263","stimuli/10110101.jpg"," ","","feedback_trial","1","","","","","","","","","","","","","","","","","","","","",""
"","","","","","image-keyboard-response","200","770202","0.0-175.0","6296295f57c07906c9052955","665500ab8938657b03fbdba8","665792f49f0317b2cba47e94","822","stimuli/2001111.jpg","1","","prediction_trial","2","","false","","2","false","false","false","true","false","false","[2]","001","111","0","","","","","","",""
"","","","","","image-keyboard-response","201","770812","0.0-176.0","6296295f57c07906c9052955","665500ab8938657b03fbdba8","665792f49f0317b2cba47e94","609","stimuli/20011112.jpg"," ","","feedback_trial","2","","","","","","","","","","","","","","","","","","","","",""
"","","","","","image-keyboard-response","202","771643","0.0-177.0","6296295f57c07906c9052955","665500ab8938657b03fbdba8","665792f49f0317b2cba47e94","831","stimuli/0001100.jpg","0","","prediction_trial","0","","true","","0","false","true","true","true","false","true","[0]","001","100","1","","","","","","",""
"","","","","","image-keyboard-response","203","772107","0.0-178.0","6296295f57c07906c9052955","665500ab8938657b03fbdba8","665792f49f0317b2cba47e94","463","stimuli/00011000.jpg"," ","","feedback_trial","0","","","","","","","","","","","","","","","","","","","","",""
"","","","","","image-keyboard-response","204","772891","0.0-179.0","6296295f57c07906c9052955","665500ab8938657b03fbdba8","665792f49f0317b2cba47e94","783","stimuli/2111010.jpg","2","","prediction_trial","0","","false","","2","true","true","false","false","false","false","[1,2,0]","111","010","0","","","","","","",""
"","","","","","image-keyboard-response","205","773378","0.0-180.0","6296295f57c07906c9052955","665500ab8938657b03fbdba8","665792f49f0317b2cba47e94","486","stimuli/21110100.jpg"," ","","feedback_trial","1","","","","","","","","","","","","","","","","","","","","",""
"","","","","","image-keyboard-response","206","774043","0.0-181.0","6296295f57c07906c9052955","665500ab8938657b03fbdba8","665792f49f0317b2cba47e94","664","stimuli/2111110.jpg","2","","prediction_trial","2","","true","","2","true","true","false","false","false","false","[1,2,0]","111","110","1","","","","","","",""
"","","","","","image-keyboard-response","207","774483","0.0-182.0","6296295f57c07906c9052955","665500ab8938657b03fbdba8","665792f49f0317b2cba47e94","439","stimuli/21111102.jpg"," ","","feedback_trial","1","","","","","","","","","","","","","","","","","","","","",""
"","","","","","image-keyboard-response","208","775108","0.0-183.0","6296295f57c07906c9052955","665500ab8938657b03fbdba8","665792f49f0317b2cba47e94","623","stimuli/1101100.jpg","1","","prediction_trial","1","","true","","1","true","true","true","true","true","true","[1]","101","100","1","","","","","","",""
"","","","","","image-keyboard-response","209","775587","0.0-184.0","6296295f57c07906c9052955","665500ab8938657b03fbdba8","665792f49f0317b2cba47e94","478","stimuli/11011001.jpg"," ","","feedback_trial","1","","","","","","","","","","","","","","","","","","","","",""
"","","","","","image-keyboard-response","210","776171","0.0-185.0","6296295f57c07906c9052955","665500ab8938657b03fbdba8","665792f49f0317b2cba47e94","583","stimuli/0111100.jpg","0","","prediction_trial","1","","false","","0","false","true","false","false","false","false","[0,1,2]","111","100","0","","","","","","",""
"","","","","","image-keyboard-response","211","776708","0.0-186.0","6296295f57c07906c9052955","665500ab8938657b03fbdba8","665792f49f0317b2cba47e94","536","stimuli/01111001.jpg"," ","","feedback_trial","0","","","","","","","","","","","","","","","","","","","","",""
"","","","","","image-keyboard-response","212","778882","0.0-187.0","6296295f57c07906c9052955","665500ab8938657b03fbdba8","665792f49f0317b2cba47e94","2173","stimuli/2101010.jpg","2","","prediction_trial","2","","true","","2","true","true","false","false","false","false","[2,0]","101","010","1","","","","","","",""
"","","","","","image-keyboard-response","213","779291","0.0-188.0","6296295f57c07906c9052955","665500ab8938657b03fbdba8","665792f49f0317b2cba47e94","408","stimuli/21010102.jpg"," ","","feedback_trial","2","","","","","","","","","","","","","","","","","","","","",""
"","","","","","image-keyboard-response","214","780923","0.0-189.0","6296295f57c07906c9052955","665500ab8938657b03fbdba8","665792f49f0317b2cba47e94","1630","stimuli/1011101.jpg","1","","prediction_trial","1","","true","","1","true","true","false","false","false","false","[1,2]","011","101","1","","","","","","",""
"","","","","","image-keyboard-response","215","781283","0.0-190.0","6296295f57c07906c9052955","665500ab8938657b03fbdba8","665792f49f0317b2cba47e94","354","stimuli/10111011.jpg"," ","","feedback_trial","1","","","","","","","","","","","","","","","","","","","","",""
"","","","","","image-keyboard-response","216","782892","0.0-191.0","6296295f57c07906c9052955","665500ab8938657b03fbdba8","665792f49f0317b2cba47e94","1607","stimuli/1110110.jpg","0","","prediction_trial","0","","true","","1","false","false","false","false","false","false","[0,1]","110","110","1","","","","","","",""
"","","","","","image-keyboard-response","217","783307","0.0-192.0","6296295f57c07906c9052955","665500ab8938657b03fbdba8","665792f49f0317b2cba47e94","415","stimuli/11101100.jpg"," ","","feedback_trial","0","","","","","","","","","","","","","","","","","","","","",""
"","","","","","image-keyboard-response","218","785043","0.0-193.0","6296295f57c07906c9052955","665500ab8938657b03fbdba8","665792f49f0317b2cba47e94","1734","stimuli/1110010.jpg","1","","prediction_trial","0","","false","","1","false","true","false","false","false","false","[0,1]","110","010","0","","","","","","",""
"","","","","","image-keyboard-response","219","785443","0.0-194.0","6296295f57c07906c9052955","665500ab8938657b03fbdba8","665792f49f0317b2cba47e94","399","stimuli/11100100.jpg"," ","","feedback_trial","0","","","","","","","","","","","","","","","","","","","","",""
"","","","","","image-keyboard-response","220","786883","0.0-195.0","6296295f57c07906c9052955","665500ab8938657b03fbdba8","665792f49f0317b2cba47e94","1438","stimuli/2001100.jpg","2","","prediction_trial","2","","true","","2","true","true","false","true","false","true","[2]","001","100","1","","","","","","",""
"","","","","","image-keyboard-response","221","787274","0.0-196.0","6296295f57c07906c9052955","665500ab8938657b03fbdba8","665792f49f0317b2cba47e94","389","stimuli/20011002.jpg"," ","","feedback_trial","2","","","","","","","","","","","","","","","","","","","","",""
"","","","","","image-keyboard-response","222","787947","0.0-197.0","6296295f57c07906c9052955","665500ab8938657b03fbdba8","665792f49f0317b2cba47e94","673","stimuli/2110001.jpg","2","","prediction_trial","2","","true","","2","false","true","true","true","false","true","[2]","110","001","1","","","","","","",""
"","","","","","image-keyboard-response","223","788346","0.0-198.0","6296295f57c07906c9052955","665500ab8938657b03fbdba8","665792f49f0317b2cba47e94","397","stimuli/21100012.jpg"," ","","feedback_trial","2","","","","","","","","","","","","","","","","","","","","",""
"","","","","","image-keyboard-response","224","789322","0.0-199.0","6296295f57c07906c9052955","665500ab8938657b03fbdba8","665792f49f0317b2cba47e94","976","stimuli/0000111.jpg","1","","prediction_trial","0","","false","","0","false","false","true","true","false","false","[0]","000","111","0","","","","","","",""
"","","","","","image-keyboard-response","225","789635","0.0-200.0","6296295f57c07906c9052955","665500ab8938657b03fbdba8","665792f49f0317b2cba47e94","312","stimuli/00001110.jpg"," ","","feedback_trial","0","","","","","","","","","","","","","","","","","","","","",""
"","","","","","image-keyboard-response","226","790347","0.0-201.0","6296295f57c07906c9052955","665500ab8938657b03fbdba8","665792f49f0317b2cba47e94","710","stimuli/2010001.jpg","2","","prediction_trial","2","","true","","2","false","true","true","true","false","true","[2]","010","001","1","","","","","","",""
"","","","","","image-keyboard-response","227","790884","0.0-202.0","6296295f57c07906c9052955","665500ab8938657b03fbdba8","665792f49f0317b2cba47e94","535","stimuli/20100012.jpg"," ","","feedback_trial","2","","","","","","","","","","","","","","","","","","","","",""
"","","","","","image-keyboard-response","228","791651","0.0-203.0","6296295f57c07906c9052955","665500ab8938657b03fbdba8","665792f49f0317b2cba47e94","766","stimuli/2100111.jpg","1","","prediction_trial","2","","false","","2","false","false","true","true","false","false","[2]","100","111","0","","","","","","",""
"","","","","","image-keyboard-response","229","792355","0.0-204.0","6296295f57c07906c9052955","665500ab8938657b03fbdba8","665792f49f0317b2cba47e94","702","stimuli/21001112.jpg"," ","","feedback_trial","2","","","","","","","","","","","","","","","","","","","","",""
"","","","","","image-keyboard-response","230","793458","0.0-205.0","6296295f57c07906c9052955","665500ab8938657b03fbdba8","665792f49f0317b2cba47e94","1101","stimuli/1010001.jpg","1","","prediction_trial","1","","true","","1","true","true","false","true","false","true","[1]","010","001","1","","","","","","",""
"","","","","","image-keyboard-response","231","793914","0.0-206.0","6296295f57c07906c9052955","665500ab8938657b03fbdba8","665792f49f0317b2cba47e94","456","stimuli/10100011.jpg"," ","","feedback_trial","1","","","","","","","","","","","","","","","","","","","","",""
"","","","","","image-keyboard-response","232","807301","0.0-207.0","6296295f57c07906c9052955","665500ab8938657b03fbdba8","665792f49f0317b2cba47e94","13386","stimuli/1011111.jpg","0","","prediction_trial","2","","false","","1","false","false","false","false","false","false","[1,2]","011","111","0","","","","","","",""
"","","","","","image-keyboard-response","233","810539","0.0-208.0","6296295f57c07906c9052955","665500ab8938657b03fbdba8","665792f49f0317b2cba47e94","3237","stimuli/10111112.jpg"," ","","feedback_trial","1","","","","","","","","","","","","","","","","","","","","",""
"","","","","","image-keyboard-response","234","811283","0.0-209.0","6296295f57c07906c9052955","665500ab8938657b03fbdba8","665792f49f0317b2cba47e94","743","stimuli/0111000.jpg","1","","prediction_trial","1","","true","","0","true","true","false","false","false","false","[0,2,1]","111","000","1","","","","","","",""
"","","","","","image-keyboard-response","235","816410","0.0-210.0","6296295f57c07906c9052955","665500ab8938657b03fbdba8","665792f49f0317b2cba47e94","5125","stimuli/01110001.jpg"," ","","feedback_trial","0","","","","","","","","","","","","","","","","","","","","",""
"","","","","","image-keyboard-response","236","817340","0.0-211.0","6296295f57c07906c9052955","665500ab8938657b03fbdba8","665792f49f0317b2cba47e94","929","stimuli/1100011.jpg","1","","prediction_trial","1","","true","","1","false","false","true","true","false","false","[1]","100","011","1","","","","","","",""
"","","","","","image-keyboard-response","237","817675","0.0-212.0","6296295f57c07906c9052955","665500ab8938657b03fbdba8","665792f49f0317b2cba47e94","334","stimuli/11000111.jpg"," ","","feedback_trial","1","","","","","","","","","","","","","","","","","","","","",""
"","","","","","image-keyboard-response","238","818283","0.0-213.0","6296295f57c07906c9052955","665500ab8938657b03fbdba8","665792f49f0317b2cba47e94","607","stimuli/2010010.jpg","2","","prediction_trial","2","","true","","2","true","true","true","true","true","true","[2]","010","010","1","","","","","","",""
"","","","","","image-keyboard-response","239","818611","0.0-214.0","6296295f57c07906c9052955","665500ab8938657b03fbdba8","665792f49f0317b2cba47e94","326","stimuli/20100102.jpg"," ","","feedback_trial","2","","","","","","","","","","","","","","","","","","","","",""
"","","","","","image-keyboard-response","240","819524","0.0-215.0","6296295f57c07906c9052955","665500ab8938657b03fbdba8","665792f49f0317b2cba47e94","913","stimuli/2100101.jpg","2","","prediction_trial","2","","true","","2","false","false","true","true","false","false","[2]","100","101","1","","","","","","",""
"","","","","","image-keyboard-response","241","819796","0.0-216.0","6296295f57c07906c9052955","665500ab8938657b03fbdba8","665792f49f0317b2cba47e94","271","stimuli/21001012.jpg"," ","","feedback_trial","2","","","","","","","","","","","","","","","","","","","","",""
"","","","","","image-keyboard-response","242","820436","0.0-217.0","6296295f57c07906c9052955","665500ab8938657b03fbdba8","665792f49f0317b2cba47e94","639","stimuli/1001000.jpg","1","","prediction_trial","1","","true","","1","true","true","true","true","true","true","[1]","001","000","1","","","","","","",""
"","","","","","image-keyboard-response","243","820812","0.0-218.0","6296295f57c07906c9052955","665500ab8938657b03fbdba8","665792f49f0317b2cba47e94","370","stimuli/10010001.jpg"," ","","feedback_trial","1","","","","","","","","","","","","","","","","","","","","",""
"","","","","","image-keyboard-response","244","822212","0.0-219.0","6296295f57c07906c9052955","665500ab8938657b03fbdba8","665792f49f0317b2cba47e94","1399","stimuli/2001110.jpg","2","","prediction_trial","2","","true","","2","true","true","false","true","false","true","[2]","001","110","1","","","","","","",""
"","","","","","image-keyboard-response","245","822613","0.0-220.0","6296295f57c07906c9052955","665500ab8938657b03fbdba8","665792f49f0317b2cba47e94","399","stimuli/20011102.jpg"," ","","feedback_trial","2","","","","","","","","","","","","","","","","","","","","",""
"","","","","","image-keyboard-response","246","823676","0.0-221.0","6296295f57c07906c9052955","665500ab8938657b03fbdba8","665792f49f0317b2cba47e94","1063","stimuli/0101010.jpg","0","","prediction_trial","0","","true","","0","true","true","false","false","false","false","[2,0]","101","010","1","","","","","","",""
"","","","","","image-keyboard-response","247","823970","0.0-222.0","6296295f57c07906c9052955","665500ab8938657b03fbdba8","665792f49f0317b2cba47e94","292","stimuli/01010100.jpg"," ","","feedback_trial","2","","","","","","","","","","","","","","","","","","","","",""
"","","","","","image-keyboard-response","248","824652","0.0-223.0","6296295f57c07906c9052955","665500ab8938657b03fbdba8","665792f49f0317b2cba47e94","681","stimuli/1000000.jpg","1","","prediction_trial","1","","true","","1","true","true","true","true","true","true","[1]","000","000","1","","","","","","",""
"","","","","","image-keyboard-response","249","825027","0.0-224.0","6296295f57c07906c9052955","665500ab8938657b03fbdba8","665792f49f0317b2cba47e94","373","stimuli/10000001.jpg"," ","","feedback_trial","1","","","","","","","","","","","","","","","","","","","","",""
"","","","","","image-keyboard-response","250","825778","0.0-225.0","6296295f57c07906c9052955","665500ab8938657b03fbdba8","665792f49f0317b2cba47e94","749","stimuli/0001111.jpg","1","","prediction_trial","0","","false","","0","false","false","true","true","false","false","[0]","001","111","0","","","","","","",""
"","","","","","image-keyboard-response","251","826204","0.0-226.0","6296295f57c07906c9052955","665500ab8938657b03fbdba8","665792f49f0317b2cba47e94","426","stimuli/00011110.jpg"," ","","feedback_trial","0","","","","","","","","","","","","","","","","","","","","",""
"","","","","","image-keyboard-response","252","826708","0.0-227.0","6296295f57c07906c9052955","665500ab8938657b03fbdba8","665792f49f0317b2cba47e94","503","stimuli/0010010.jpg","0","","prediction_trial","0","","true","","0","true","true","true","true","true","true","[0]","010","010","1","","","","","","",""
"","","","","","image-keyboard-response","253","827052","0.0-228.0","6296295f57c07906c9052955","665500ab8938657b03fbdba8","665792f49f0317b2cba47e94","343","stimuli/00100100.jpg"," ","","feedback_trial","0","","","","","","","","","","","","","","","","","","","","",""
"","","","","","image-keyboard-response","254","827747","0.0-229.0","6296295f57c07906c9052955","665500ab8938657b03fbdba8","665792f49f0317b2cba47e94","693","stimuli/2000001.jpg","2","","prediction_trial","2","","true","","2","false","true","true","true","false","true","[2]","000","001","1","","","","","","",""
"","","","","","image-keyboard-response","255","828020","0.0-230.0","6296295f57c07906c9052955","665500ab8938657b03fbdba8","665792f49f0317b2cba47e94","273","stimuli/20000012.jpg"," ","","feedback_trial","2","","","","","","","","","","","","","","","","","","","","",""
"","","","","","image-keyboard-response","256","829044","0.0-231.0","6296295f57c07906c9052955","665500ab8938657b03fbdba8","665792f49f0317b2cba47e94","1023","stimuli/0101001.jpg","0","","prediction_trial","0","","true","","0","true","true","false","false","false","false","[2,0]","101","001","1","","","","","","",""
"","","","","","image-keyboard-response","257","829556","0.0-232.0","6296295f57c07906c9052955","665500ab8938657b03fbdba8","665792f49f0317b2cba47e94","508","stimuli/01010010.jpg"," ","","feedback_trial","2","","","","","","","","","","","","","","","","","","","","",""
"","","","","","image-keyboard-response","258","830556","0.0-233.0","6296295f57c07906c9052955","665500ab8938657b03fbdba8","665792f49f0317b2cba47e94","999","stimuli/2001011.jpg","1","","prediction_trial","2","","false","","2","false","false","false","true","false","false","[2]","001","011","0","","","","","","",""
"","","","","","image-keyboard-response","259","830804","0.0-234.0","6296295f57c07906c9052955","665500ab8938657b03fbdba8","665792f49f0317b2cba47e94","247","stimuli/20010112.jpg"," ","","feedback_trial","2","","","","","","","","","","","","","","","","","","","","",""
"","","","","","image-keyboard-response","260","831748","0.0-235.0","6296295f57c07906c9052955","665500ab8938657b03fbdba8","665792f49f0317b2cba47e94","942","stimuli/0011111.jpg","0","","prediction_trial","0","","true","","0","false","false","true","true","false","false","[0]","011","111","1","","","","","","",""
"","","","","","image-keyboard-response","261","831988","0.0-236.0","6296295f57c07906c9052955","665500ab8938657b03fbdba8","665792f49f0317b2cba47e94","238","stimuli/00111110.jpg"," ","","feedback_trial","0","","","","","","","","","","","","","","","","","","","","",""
"","","","","","image-keyboard-response","262","832404","0.0-237.0","6296295f57c07906c9052955","665500ab8938657b03fbdba8","665792f49f0317b2cba47e94","415","stimuli/1111111.jpg","2","","prediction_trial","0","","false","","1","false","false","false","false","false","false","[0,1,2]","111","111","0","","","","","","",""
"","","","","","image-keyboard-response","263","832748","0.0-238.0","6296295f57c07906c9052955","665500ab8938657b03fbdba8","665792f49f0317b2cba47e94","343","stimuli/11111110.jpg"," ","","feedback_trial","0","","","","","","","","","","","","","","","","","","","","",""
"","","","","","image-keyboard-response","264","833155","0.0-239.0","6296295f57c07906c9052955","665500ab8938657b03fbdba8","665792f49f0317b2cba47e94","405","stimuli/1111010.jpg","2","","prediction_trial","0","","false","","1","false","true","false","false","false","false","[2,1,0]","111","010","0","","","","","","",""
"","","","","","image-keyboard-response","265","833660","0.0-240.0","6296295f57c07906c9052955","665500ab8938657b03fbdba8","665792f49f0317b2cba47e94","505","stimuli/11110100.jpg"," ","","feedback_trial","2","","","","","","","","","","","","","","","","","","","","",""
"","","","","","image-keyboard-response","266","834020","0.0-241.0","6296295f57c07906c9052955","665500ab8938657b03fbdba8","665792f49f0317b2cba47e94","359","stimuli/0011110.jpg","1","","prediction_trial","0","","false","","0","false","false","true","true","false","false","[0]","011","110","0","","","","","","",""
"","","","","","image-keyboard-response","267","834588","0.0-242.0","6296295f57c07906c9052955","665500ab8938657b03fbdba8","665792f49f0317b2cba47e94","566","stimuli/00111100.jpg"," ","","feedback_trial","0","","","","","","","","","","","","","","","","","","","","",""
"","","","","","image-keyboard-response","268","835170","0.0-243.0","6296295f57c07906c9052955","665500ab8938657b03fbdba8","665792f49f0317b2cba47e94","580","stimuli/2101100.jpg","2","","prediction_trial","0","","false","","2","true","true","false","false","false","false","[0,2]","101","100","0","","","","","","",""
"","","","","","image-keyboard-response","269","835692","0.0-244.0","6296295f57c07906c9052955","665500ab8938657b03fbdba8","665792f49f0317b2cba47e94","521","stimuli/21011000.jpg"," ","","feedback_trial","0","","","","","","","","","","","","","","","","","","","","",""
"","","","","","image-keyboard-response","270","836284","0.0-245.0","6296295f57c07906c9052955","665500ab8938657b03fbdba8","665792f49f0317b2cba47e94","591","stimuli/0011001.jpg","0","","prediction_trial","0","","true","","0","true","true","true","true","true","true","[0]","011","001","1","","","","","","",""
"","","","","","image-keyboard-response","271","836620","0.0-246.0","6296295f57c07906c9052955","665500ab8938657b03fbdba8","665792f49f0317b2cba47e94","328","stimuli/00110010.jpg"," ","","feedback_trial","0","","","","","","","","","","","","","","","","","","","","",""
"","","","","","image-keyboard-response","272","837243","0.0-247.0","6296295f57c07906c9052955","665500ab8938657b03fbdba8","665792f49f0317b2cba47e94","621","stimuli/0001101.jpg","0","","prediction_trial","0","","true","","0","false","false","true","true","false","false","[0]","001","101","1","","","","","","",""
"","","","","","image-keyboard-response","273","837555","0.0-248.0","6296295f57c07906c9052955","665500ab8938657b03fbdba8","665792f49f0317b2cba47e94","311","stimuli/00011010.jpg"," ","","feedback_trial","0","","","","","","","","","","","","","","","","","","","","",""
"","","","","","image-keyboard-response","274","838540","0.0-249.0","6296295f57c07906c9052955","665500ab8938657b03fbdba8","665792f49f0317b2cba47e94","984","stimuli/0101100.jpg","0","","prediction_trial","2","","false","","0","false","true","false","false","false","false","[0,2]","101","100","0","","","","","","",""
"","","","","","image-keyboard-response","275","839276","0.0-250.0","6296295f57c07906c9052955","665500ab8938657b03fbdba8","665792f49f0317b2cba47e94","734","stimuli/01011002.jpg"," ","","feedback_trial","0","","","","","","","","","","","","","","","","","","","","",""
"","","","","","image-keyboard-response","276","839859","0.0-251.0","6296295f57c07906c9052955","665500ab8938657b03fbdba8","665792f49f0317b2cba47e94","582","stimuli/0000010.jpg","0","","prediction_trial","0","","true","","0","true","true","true","true","true","true","[0]","000","010","1","","","","","","",""
"","","","","","image-keyboard-response","277","840196","0.0-252.0","6296295f57c07906c9052955","665500ab8938657b03fbdba8","665792f49f0317b2cba47e94","336","stimuli/00000100.jpg"," ","","feedback_trial","0","","","","","","","","","","","","","","","","","","","","",""
"","","","","","image-keyboard-response","278","841084","0.0-253.0","6296295f57c07906c9052955","665500ab8938657b03fbdba8","665792f49f0317b2cba47e94","886","stimuli/2001001.jpg","2","","prediction_trial","2","","true","","2","false","true","false","true","false","true","[2]","001","001","1","","","","","","",""
"","","","","","image-keyboard-response","279","841339","0.0-254.0","6296295f57c07906c9052955","665500ab8938657b03fbdba8","665792f49f0317b2cba47e94","254","stimuli/20010012.jpg"," ","","feedback_trial","2","","","","","","","","","","","","","","","","","","","","",""
"","","","","","image-keyboard-response","280","842020","0.0-255.0","6296295f57c07906c9052955","665500ab8938657b03fbdba8","665792f49f0317b2cba47e94","680","stimuli/1000100.jpg","1","","prediction_trial","1","","true","","1","true","true","true","true","true","true","[1]","000","100","1","","","","","","",""
"","","","","","image-keyboard-response","281","842379","0.0-256.0","6296295f57c07906c9052955","665500ab8938657b03fbdba8","665792f49f0317b2cba47e94","358","stimuli/10001001.jpg"," ","","feedback_trial","1","","","","","","","","","","","","","","","","","","","","",""
"","","","","","image-keyboard-response","282","843052","0.0-257.0","6296295f57c07906c9052955","665500ab8938657b03fbdba8","665792f49f0317b2cba47e94","672","stimuli/0100010.jpg","0","","prediction_trial","0","","true","","0","true","true","false","true","false","true","[0]","100","010","1","","","","","","",""
"","","","","","image-keyboard-response","283","843428","0.0-258.0","6296295f57c07906c9052955","665500ab8938657b03fbdba8","665792f49f0317b2cba47e94","374","stimuli/01000100.jpg"," ","","feedback_trial","0","","","","","","","","","","","","","","","","","","","","",""
"","","","","","image-keyboard-response","284","844044","0.0-259.0","6296295f57c07906c9052955","665500ab8938657b03fbdba8","665792f49f0317b2cba47e94","615","stimuli/2101001.jpg","2","","prediction_trial","2","","true","","2","false","true","false","false","false","false","[2,0]","101","001","1","","","","","","",""
"","","","","","image-keyboard-response","285","844402","0.0-260.0","6296295f57c07906c9052955","665500ab8938657b03fbdba8","665792f49f0317b2cba47e94","356","stimuli/21010012.jpg"," ","","feedback_trial","2","","","","","","","","","","","","","","","","","","","","",""
"","","","","","image-keyboard-response","286","846148","0.0-261.0","6296295f57c07906c9052955","665500ab8938657b03fbdba8","665792f49f0317b2cba47e94","1746","stimuli/2010111.jpg","1","","prediction_trial","2","","false","","2","false","false","true","true","false","false","[2]","010","111","0","","","","","","",""
"","","","","","image-keyboard-response","287","846571","0.0-262.0","6296295f57c07906c9052955","665500ab8938657b03fbdba8","665792f49f0317b2cba47e94","422","stimuli/20101112.jpg"," ","","feedback_trial","2","","","","","","","","","","","","","","","","","","","","",""
"","","","","","image-keyboard-response","288","847987","0.0-263.0","6296295f57c07906c9052955","665500ab8938657b03fbdba8","665792f49f0317b2cba47e94","1415","stimuli/2011011.jpg","2","","prediction_trial","2","","true","","2","false","false","false","false","false","false","[1,2]","011","011","1","","","","","","",""
"","","","","","image-keyboard-response","289","848372","0.0-264.0","6296295f57c07906c9052955","665500ab8938657b03fbdba8","665792f49f0317b2cba47e94","384","stimuli/20110112.jpg"," ","","feedback_trial","1","","","","","","","","","","","","","","","","","","","","",""
"","","","","","image-keyboard-response","290","849004","0.0-265.0","6296295f57c07906c9052955","665500ab8938657b03fbdba8","665792f49f0317b2cba47e94","631","stimuli/0100110.jpg","0","","prediction_trial","0","","true","","0","false","false","false","true","false","false","[0]","100","110","1","","","","","","",""
"","","","","","image-keyboard-response","291","849356","0.0-266.0","6296295f57c07906c9052955","665500ab8938657b03fbdba8","665792f49f0317b2cba47e94","350","stimuli/01001100.jpg"," ","","feedback_trial","0","","","","","","","","","","","","","","","","","","","","",""
"","","","","","image-keyboard-response","292","849940","0.0-267.0","6296295f57c07906c9052955","665500ab8938657b03fbdba8","665792f49f0317b2cba47e94","583","stimuli/1101000.jpg","1","","prediction_trial","1","","true","","1","true","true","true","true","true","true","[1]","101","000","1","","","","","","",""
"","","","","","image-keyboard-response","293","850148","0.0-268.0","6296295f57c07906c9052955","665500ab8938657b03fbdba8","665792f49f0317b2cba47e94","206","stimuli/11010001.jpg"," ","","feedback_trial","1","","","","","","","","","","","","","","","","","","","","",""
"","","","","","image-keyboard-response","294","850844","0.0-269.0","6296295f57c07906c9052955","665500ab8938657b03fbdba8","665792f49f0317b2cba47e94","695","stimuli/1001010.jpg","1","","prediction_trial","1","","true","","1","false","true","true","true","false","true","[1]","001","010","1","","","","","","",""
"","","","","","image-keyboard-response","295","851099","0.0-270.0","6296295f57c07906c9052955","665500ab8938657b03fbdba8","665792f49f0317b2cba47e94","254","stimuli/10010101.jpg"," ","","feedback_trial","1","","","","","","","","","","","","","","","","","","","","",""
"","","","","","image-keyboard-response","296","851780","0.0-271.0","6296295f57c07906c9052955","665500ab8938657b03fbdba8","665792f49f0317b2cba47e94","680","stimuli/2111100.jpg","2","","prediction_trial","1","","false","","2","true","true","false","false","false","false","[2,0,1]","111","100","0","","","","","","",""
"","","","","","image-keyboard-response","297","852106","0.0-272.0","6296295f57c07906c9052955","665500ab8938657b03fbdba8","665792f49f0317b2cba47e94","325","stimuli/21111001.jpg"," ","","feedback_trial","2","","","","","","","","","","","","","","","","","","","","",""
"","","","","","image-keyboard-response","298","852706","0.0-273.0","6296295f57c07906c9052955","665500ab8938657b03fbdba8","665792f49f0317b2cba47e94","600","stimuli/0110000.jpg","0","","prediction_trial","1","","false","","0","true","true","false","false","false","false","[1,0]","110","000","0","","","","","","",""
"","","","","","image-keyboard-response","299","853108","0.0-274.0","6296295f57c07906c9052955","665500ab8938657b03fbdba8","665792f49f0317b2cba47e94","401","stimuli/01100001.jpg"," ","","feedback_trial","1","","","","","","","","","","","","","","","","","","","","",""
"","","","","","image-keyboard-response","300","853699","0.0-275.0","6296295f57c07906c9052955","665500ab8938657b03fbdba8","665792f49f0317b2cba47e94","590","stimuli/1000101.jpg","1","","prediction_trial","1","","true","","1","true","true","true","true","true","true","[1]","000","101","1","","","","","","",""
"","","","","","image-keyboard-response","301","853932","0.0-276.0","6296295f57c07906c9052955","665500ab8938657b03fbdba8","665792f49f0317b2cba47e94","231","stimuli/10001011.jpg"," ","","feedback_trial","1","","","","","","","","","","","","","","","","","","","","",""
"","","","","","image-keyboard-response","302","854460","0.0-277.0","6296295f57c07906c9052955","665500ab8938657b03fbdba8","665792f49f0317b2cba47e94","527","stimuli/0110011.jpg","0","","prediction_trial","0","","true","","0","true","true","false","false","false","false","[1,0]","110","011","1","","","","","","",""
"","","","","","image-keyboard-response","303","854796","0.0-278.0","6296295f57c07906c9052955","665500ab8938657b03fbdba8","665792f49f0317b2cba47e94","335","stimuli/01100110.jpg"," ","","feedback_trial","1","","","","","","","","","","","","","","","","","","","","",""
"","","","","","image-keyboard-response","304","855340","0.0-279.0","6296295f57c07906c9052955","665500ab8938657b03fbdba8","665792f49f0317b2cba47e94","544","stimuli/0111001.jpg","0","","prediction_trial","0","","true","","0","true","true","false","false","false","false","[1,2,0]","111","001","1","","","","","","",""
"","","","","","image-keyboard-response","305","855676","0.0-280.0","6296295f57c07906c9052955","665500ab8938657b03fbdba8","665792f49f0317b2cba47e94","334","stimuli/01110010.jpg"," ","","feedback_trial","1","","","","","","","","","","","","","","","","","","","","",""
"","","","","","image-keyboard-response","306","856291","0.0-281.0","6296295f57c07906c9052955","665500ab8938657b03fbdba8","665792f49f0317b2cba47e94","614","stimuli/0010110.jpg","0","","prediction_trial","0","","true","","0","false","false","true","true","false","false","[0]","010","110","1","","","","","","",""
"","","","","","image-keyboard-response","307","856604","0.0-282.0","6296295f57c07906c9052955","665500ab8938657b03fbdba8","665792f49f0317b2cba47e94","311","stimuli/00101100.jpg"," ","","feedback_trial","0","","","","","","","","","","","","","","","","","","","","",""
"","","","","","image-keyboard-response","308","857220","0.0-283.0","6296295f57c07906c9052955","665500ab8938657b03fbdba8","665792f49f0317b2cba47e94","615","stimuli/1100101.jpg","1","","prediction_trial","1","","true","","1","true","true","true","true","true","true","[1]","100","101","1","","","","","","",""
"","","","","","image-keyboard-response","309","857460","0.0-284.0","6296295f57c07906c9052955","665500ab8938657b03fbdba8","665792f49f0317b2cba47e94","239","stimuli/11001011.jpg"," ","","feedback_trial","1","","","","","","","","","","","","","","","","","","","","",""
"","","","","","image-keyboard-response","310","857988","0.0-285.0","6296295f57c07906c9052955","665500ab8938657b03fbdba8","665792f49f0317b2cba47e94","527","stimuli/2100100.jpg","2","","prediction_trial","2","","true","","2","true","true","true","true","true","true","[2]","100","100","1","","","","","","",""
"","","","","","image-keyboard-response","311","858268","0.0-286.0","6296295f57c07906c9052955","665500ab8938657b03fbdba8","665792f49f0317b2cba47e94","278","stimuli/21001002.jpg"," ","","feedback_trial","2","","","","","","","","","","","","","","","","","","","","",""
"","","","","","image-keyboard-response","312","858764","0.0-287.0","6296295f57c07906c9052955","665500ab8938657b03fbdba8","665792f49f0317b2cba47e94","496","stimuli/0100111.jpg","2","","prediction_trial","0","","false","","0","false","false","false","true","false","false","[0]","100","111","0","","","","","","",""
"","","","","","image-keyboard-response","313","859067","0.0-288.0","6296295f57c07906c9052955","665500ab8938657b03fbdba8","665792f49f0317b2cba47e94","296","stimuli/01001110.jpg"," ","","feedback_trial","0","","","","","","","","","","","","","","","","","","","","",""
"","","","","","image-keyboard-response","314","859484","0.0-289.0","6296295f57c07906c9052955","665500ab8938657b03fbdba8","665792f49f0317b2cba47e94","415","stimuli/2011001.jpg","1","","prediction_trial","1","","true","","2","false","true","false","false","false","false","[1,2]","011","001","1","","","","","","",""
"","","","","","image-keyboard-response","315","859827","0.0-290.0","6296295f57c07906c9052955","665500ab8938657b03fbdba8","665792f49f0317b2cba47e94","341","stimuli/20110011.jpg"," ","","feedback_trial","1","","","","","","","","","","","","","","","","","","","","",""
"","","","","","image-keyboard-response","316","860252","0.0-291.0","6296295f57c07906c9052955","665500ab8938657b03fbdba8","665792f49f0317b2cba47e94","424","stimuli/2011111.jpg","2","","prediction_trial","1","","false","","2","false","false","false","false","false","false","[2,1]","011","111","0","","","","","","",""
"","","","","","image-keyboard-response","317","860668","0.0-292.0","6296295f57c07906c9052955","665500ab8938657b03fbdba8","665792f49f0317b2cba47e94","414","stimuli/20111111.jpg"," ","","feedback_trial","2","","","","","","","","","","","","","","","","","","","","",""
"","","","","","survey-html-form","318","891699","0.0-293.0","6296295f57c07906c9052955","665500ab8938657b03fbdba8","665792f49f0317b2cba47e94","31028","","{""feedback"":""IF I thought he could see it, I tried to quickly determine if he could or couldn't see 1 or 2 of the balls to rule some out "",""age"":""37"",""gender"":""Male"",""other_gender"":"""",""race"":""White"",""other_race"":"""",""ethnicity"":""Non-Hispanic""}","","exit_survey","","","","","","","","","","","","","","","","IF I thought he could see it, I tried to quickly determine if he could or couldn't see 1 or 2 of the balls to rule some out ","37","Non-Hispanic","Male","White","0.6180555555555556","0.6180555555555556"
