"success","timeout","failed_images","failed_audio","failed_video","trial_type","trial_index","time_elapsed","internal_node_id","prolific_id","prolific_study_id","prolific_session_id","rt","stimulus","response","view_history","trial","character_choice","stimulus_dict","accuracy","correct_response","ball_pos","ego_ball_visible","ego_can_infer","alter_ball_visible","alter_can_infer","collective_ball_visible","collective_can_infer","search_locations","alter_occluders","ego_occluders","accuracy_bool","feedback","age","ethnicity","gender","race","overall_accuracy","bonus"
"true","false","[]","[]","[]","preload","0","2195","0.0-0.0","612bb0cdecc9e45781bbf511","665500ab8938657b03fbdba8","6657927a04f7a32c8a3aad71","","","","","","","","","","","","","","","","","","","","","","","","","","",""
"true","","","","","fullscreen","1","29410","0.0-1.0","612bb0cdecc9e45781bbf511","665500ab8938657b03fbdba8","6657927a04f7a32c8a3aad71","","","","","","","","","","","","","","","","","","","","","","","","","","",""
"","","","","","html-button-response","2","32002","0.0-2.0","612bb0cdecc9e45781bbf511","665500ab8938657b03fbdba8","6657927a04f7a32c8a3aad71","2588","<p><b>Consent Form</b></p> <div style=""text-align:left;background-color:lightgrey; padding:20px; max-width:900px;""><p>Please consider this information carefully before deciding whether to participate in this research.</p> <p>The purpose of this research is to examine which factors influence social judgment and decision-making. You will be asked to make judgements about individuals and actions in social scenarios. We are simply interested in your judgement. The study will take less than 1 hour to complete, and you will receive less than $20 on Prolific. Your compensation and time commitment are specified in the study description. There are no anticipated risks associated with participating in this study. The effects of participating should be comparable to those you would ordinarily experience from viewing a computer monitor and using a mouse or keyboard for a similar amount of time. At the end of the study, we will provide an explanation of the questions that motivate this line of research and will describe the potential implications. </p><p> Your participation in this study is completely voluntary and you may refuse to participate or you may choose to withdraw at any time without penalty or loss of benefits to you which are otherwise entitled. Your participation in this study will remain confidential. No personally identifiable information will be associated with your data. Also, all analyses of the data will be averaged across all the participants, so your individual responses will never be specifically analyzed. </p><p> If you have questions or concerns about your participation or payment, or want to request a summary of research findings, please contact Dr. Jonathan Phillips at Jonathan.S.Phillips@dartmouth.edu. </p><p> Please save a copy of this form for your records. </p><p><b>Agreement: </b>The nature and purpose of this research have been sufficiently explained and I agree to participate in this study. I understand that I am free to withdraw at any time without incurring any penalty. Please consent by clicking the button below to continue. Otherwise, please exit the study at any time. </p>","0","","","","","","","","","","","","","","","","","","","","","","","",""
"","","","","","instructions","3","71200","0.0-3.0-0.0","612bb0cdecc9e45781bbf511","665500ab8938657b03fbdba8","6657927a04f7a32c8a3aad71","39197","","","[{""page_index"":0,""viewing_time"":1073},{""page_index"":1,""viewing_time"":1242},{""page_index"":2,""viewing_time"":1356},{""page_index"":3,""viewing_time"":2168},{""page_index"":4,""viewing_time"":1746},{""page_index"":5,""viewing_time"":4416},{""page_index"":6,""viewing_time"":2067},{""page_index"":7,""viewing_time"":2840},{""page_index"":8,""viewing_time"":2498},{""page_index"":9,""viewing_time"":1686},{""page_index"":10,""viewing_time"":5399},{""page_index"":11,""viewing_time"":5761},{""page_index"":12,""viewing_time"":6121},{""page_index"":13,""viewing_time"":823}]","intro","","","","","","","","","","","","","","","","","","","","","",""
"","","","","","image-keyboard-response","4","73609","0.0-3.0-1.0","612bb0cdecc9e45781bbf511","665500ab8938657b03fbdba8","6657927a04f7a32c8a3aad71","2405","stimuli/1011000.jpg","1","","prediction_practice","1","{""filepath"":""stimuli/1011000.jpg"",""ball_pos"":1,""ego_ball_visible"":true,""ego_can_infer"":true,""alter_ball_visible"":false,""alter_can_infer"":false,""collective_ball_visible"":false,""collective_can_infer"":false,""search_locations"":[1,2],""alter_occluders"":""011"",""ego_occluders"":""000""}","true","","","","","","","","","","","","","","","","","","",""
"","","","","","image-keyboard-response","5","75429","0.0-3.0-2.0","612bb0cdecc9e45781bbf511","665500ab8938657b03fbdba8","6657927a04f7a32c8a3aad71","1818","stimuli/10110001.jpg"," ","","practrice_feedback","1","","","","","","","","","","","","","","","","","","","","",""
"","","","","","image-keyboard-response","6","77664","0.0-3.0-3.0","612bb0cdecc9e45781bbf511","665500ab8938657b03fbdba8","6657927a04f7a32c8a3aad71","2234","stimuli/2111001.jpg","2","","prediction_practice","2","{""filepath"":""stimuli/2111001.jpg"",""ball_pos"":2,""ego_ball_visible"":false,""ego_can_infer"":true,""alter_ball_visible"":false,""alter_can_infer"":false,""collective_ball_visible"":false,""collective_can_infer"":false,""search_locations"":[2,0,1],""alter_occluders"":""111"",""ego_occluders"":""001""}","true","","","","","","","","","","","","","","","","","","",""
"","","","","","image-keyboard-response","7","78288","0.0-3.0-4.0","612bb0cdecc9e45781bbf511","665500ab8938657b03fbdba8","6657927a04f7a32c8a3aad71","622","stimuli/21110012.jpg"," ","","practrice_feedback","2","","","","","","","","","","","","","","","","","","","","",""
"","","","","","image-keyboard-response","8","79440","0.0-3.0-5.0","612bb0cdecc9e45781bbf511","665500ab8938657b03fbdba8","6657927a04f7a32c8a3aad71","1150","stimuli/1111111.jpg","0","","prediction_practice","0","{""filepath"":""stimuli/1111111.jpg"",""ball_pos"":1,""ego_ball_visible"":false,""ego_can_infer"":false,""alter_ball_visible"":false,""alter_can_infer"":false,""collective_ball_visible"":false,""collective_can_infer"":false,""search_locations"":[2,0,1],""alter_occluders"":""111"",""ego_occluders"":""111""}","true","","","","","","","","","","","","","","","","","","",""
"","","","","","image-keyboard-response","9","80201","0.0-3.0-6.0","612bb0cdecc9e45781bbf511","665500ab8938657b03fbdba8","6657927a04f7a32c8a3aad71","758","stimuli/11111110.jpg"," ","","practrice_feedback","2","","","","","","","","","","","","","","","","","","","","",""
"","","","","","image-keyboard-response","10","82112","0.0-3.0-7.0","612bb0cdecc9e45781bbf511","665500ab8938657b03fbdba8","6657927a04f7a32c8a3aad71","1909","stimuli/2001011.jpg","1","","prediction_practice","2","{""filepath"":""stimuli/2001011.jpg"",""ball_pos"":2,""ego_ball_visible"":false,""ego_can_infer"":false,""alter_ball_visible"":false,""alter_can_infer"":true,""collective_ball_visible"":false,""collective_can_infer"":false,""search_locations"":[2],""alter_occluders"":""001"",""ego_occluders"":""011""}","false","","","","","","","","","","","","","","","","","","",""
"","","","","","image-keyboard-response","11","82688","0.0-3.0-8.0","612bb0cdecc9e45781bbf511","665500ab8938657b03fbdba8","6657927a04f7a32c8a3aad71","574","stimuli/20010112.jpg"," ","","practrice_feedback","2","","","","","","","","","","","","","","","","","","","","",""
"","","","","","image-keyboard-response","12","83480","0.0-3.0-9.0","612bb0cdecc9e45781bbf511","665500ab8938657b03fbdba8","6657927a04f7a32c8a3aad71","777","stimuli/2010110.jpg","2","","prediction_practice","2","{""filepath"":""stimuli/2010110.jpg"",""ball_pos"":2,""ego_ball_visible"":true,""ego_can_infer"":true,""alter_ball_visible"":true,""alter_can_infer"":true,""collective_ball_visible"":true,""collective_can_infer"":true,""search_locations"":[2],""alter_occluders"":""010"",""ego_occluders"":""110""}","true","","","","","","","","","","","","","","","","","","",""
"","","","","","image-keyboard-response","13","84233","0.0-3.0-10.0","612bb0cdecc9e45781bbf511","665500ab8938657b03fbdba8","6657927a04f7a32c8a3aad71","750","stimuli/20101102.jpg"," ","","practrice_feedback","2","","","","","","","","","","","","","","","","","","","","",""
"","","","","","image-keyboard-response","14","84944","0.0-3.0-11.0","612bb0cdecc9e45781bbf511","665500ab8938657b03fbdba8","6657927a04f7a32c8a3aad71","709","stimuli/2111100.jpg","2","","prediction_practice","0","{""filepath"":""stimuli/2111100.jpg"",""ball_pos"":2,""ego_ball_visible"":true,""ego_can_infer"":true,""alter_ball_visible"":false,""alter_can_infer"":false,""collective_ball_visible"":false,""collective_can_infer"":false,""search_locations"":[2,0,1],""alter_occluders"":""111"",""ego_occluders"":""100""}","false","","","","","","","","","","","","","","","","","","",""
"","","","","","image-keyboard-response","15","86424","0.0-3.0-12.0","612bb0cdecc9e45781bbf511","665500ab8938657b03fbdba8","6657927a04f7a32c8a3aad71","1478","stimuli/21111000.jpg"," ","","practrice_feedback","2","","","","","","","","","","","","","","","","","","","","",""
"","","","","","image-keyboard-response","16","87441","0.0-3.0-13.0","612bb0cdecc9e45781bbf511","665500ab8938657b03fbdba8","6657927a04f7a32c8a3aad71","1014","stimuli/0011111.jpg","1","","prediction_practice","0","{""filepath"":""stimuli/0011111.jpg"",""ball_pos"":0,""ego_ball_visible"":false,""ego_can_infer"":false,""alter_ball_visible"":true,""alter_can_infer"":true,""collective_ball_visible"":false,""collective_can_infer"":false,""search_locations"":[0],""alter_occluders"":""011"",""ego_occluders"":""111""}","false","","","","","","","","","","","","","","","","","","",""
"","","","","","image-keyboard-response","17","88033","0.0-3.0-14.0","612bb0cdecc9e45781bbf511","665500ab8938657b03fbdba8","6657927a04f7a32c8a3aad71","590","stimuli/00111110.jpg"," ","","practrice_feedback","0","","","","","","","","","","","","","","","","","","","","",""
"","","","","","image-keyboard-response","18","89543","0.0-3.0-15.0","612bb0cdecc9e45781bbf511","665500ab8938657b03fbdba8","6657927a04f7a32c8a3aad71","1508","stimuli/1001000.jpg","1","","prediction_practice","1","{""filepath"":""stimuli/1001000.jpg"",""ball_pos"":1,""ego_ball_visible"":true,""ego_can_infer"":true,""alter_ball_visible"":true,""alter_can_infer"":true,""collective_ball_visible"":true,""collective_can_infer"":true,""search_locations"":[1],""alter_occluders"":""001"",""ego_occluders"":""000""}","true","","","","","","","","","","","","","","","","","","",""
"","","","","","image-keyboard-response","19","90081","0.0-3.0-16.0","612bb0cdecc9e45781bbf511","665500ab8938657b03fbdba8","6657927a04f7a32c8a3aad71","535","stimuli/10010001.jpg"," ","","practrice_feedback","1","","","","","","","","","","","","","","","","","","","","",""
"","","","","","image-keyboard-response","20","91369","0.0-3.0-17.0","612bb0cdecc9e45781bbf511","665500ab8938657b03fbdba8","6657927a04f7a32c8a3aad71","1286","stimuli/2110101.jpg","2","","prediction_practice","2","{""filepath"":""stimuli/2110101.jpg"",""ball_pos"":2,""ego_ball_visible"":false,""ego_can_infer"":false,""alter_ball_visible"":true,""alter_can_infer"":true,""collective_ball_visible"":false,""collective_can_infer"":false,""search_locations"":[2],""alter_occluders"":""110"",""ego_occluders"":""101""}","true","","","","","","","","","","","","","","","","","","",""
"","","","","","image-keyboard-response","21","92272","0.0-3.0-18.0","612bb0cdecc9e45781bbf511","665500ab8938657b03fbdba8","6657927a04f7a32c8a3aad71","901","stimuli/21101012.jpg"," ","","practrice_feedback","2","","","","","","","","","","","","","","","","","","","","",""
"","","","","","image-keyboard-response","22","94048","0.0-3.0-19.0","612bb0cdecc9e45781bbf511","665500ab8938657b03fbdba8","6657927a04f7a32c8a3aad71","1774","stimuli/2000111.jpg","1","","prediction_practice","2","{""filepath"":""stimuli/2000111.jpg"",""ball_pos"":2,""ego_ball_visible"":false,""ego_can_infer"":false,""alter_ball_visible"":true,""alter_can_infer"":true,""collective_ball_visible"":false,""collective_can_infer"":false,""search_locations"":[2],""alter_occluders"":""000"",""ego_occluders"":""111""}","false","","","","","","","","","","","","","","","","","","",""
"","","","","","image-keyboard-response","23","94592","0.0-3.0-20.0","612bb0cdecc9e45781bbf511","665500ab8938657b03fbdba8","6657927a04f7a32c8a3aad71","541","stimuli/20001112.jpg"," ","","practrice_feedback","2","","","","","","","","","","","","","","","","","","","","",""
"","","","","","html-button-response","24","99089","0.0-3.0-21.0","612bb0cdecc9e45781bbf511","665500ab8938657b03fbdba8","6657927a04f7a32c8a3aad71","4496","Now that you've had some practice, you'll be tested with a couple of easy trials. If you correctly predict Sam's choice, you'll move on to complete the experiment!","0","","","","","","","","","","","","","","","","","","","","","","","",""
"","","","","","image-keyboard-response","25","100088","0.0-3.0-22.0-0.0","612bb0cdecc9e45781bbf511","665500ab8938657b03fbdba8","6657927a04f7a32c8a3aad71","998","stimuli/0000011.jpg","arrowleft","","comprehension_quiz","","","true","arrowleft","","","","","","","","","","","","","","","","","",""
"","","","","","image-keyboard-response","26","101072","0.0-3.0-22.0-1.0","612bb0cdecc9e45781bbf511","665500ab8938657b03fbdba8","6657927a04f7a32c8a3aad71","982","stimuli/00000110.jpg"," ","","comprehension_quiz","","","true"," ","","","","","","","","","","","","","","","","","",""
"","","","","","image-keyboard-response","27","102527","0.0-3.0-22.0-2.0","612bb0cdecc9e45781bbf511","665500ab8938657b03fbdba8","6657927a04f7a32c8a3aad71","1453","stimuli/1010010.jpg","arrowdown","","comprehension_quiz","","","true","arrowdown","","","","","","","","","","","","","","","","","",""
"","","","","","image-keyboard-response","28","103144","0.0-3.0-22.0-3.0","612bb0cdecc9e45781bbf511","665500ab8938657b03fbdba8","6657927a04f7a32c8a3aad71","615","stimuli/10100101.jpg"," ","","comprehension_quiz","","","true"," ","","","","","","","","","","","","","","","","","",""
"","","","","","html-button-response","29","104687","0.0-4.0","612bb0cdecc9e45781bbf511","665500ab8938657b03fbdba8","6657927a04f7a32c8a3aad71","1540","The experiment will now begin.","0","","","","","","","","","","","","","","","","","","","","","","","",""
"","","","","","image-keyboard-response","30","108343","0.0-5.0","612bb0cdecc9e45781bbf511","665500ab8938657b03fbdba8","6657927a04f7a32c8a3aad71","3655","stimuli/0110100.jpg","0","","prediction_trial","0","","true","","0","false","true","false","false","false","false","[0,1]","110","100","1","","","","","","",""
"","","","","","image-keyboard-response","31","108913","0.0-6.0","612bb0cdecc9e45781bbf511","665500ab8938657b03fbdba8","6657927a04f7a32c8a3aad71","566","stimuli/01101000.jpg"," ","","feedback_trial","0","","","","","","","","","","","","","","","","","","","","",""
"","","","","","image-keyboard-response","32","109720","0.0-7.0","612bb0cdecc9e45781bbf511","665500ab8938657b03fbdba8","6657927a04f7a32c8a3aad71","794","stimuli/0010011.jpg","0","","prediction_trial","0","","true","","0","true","true","true","true","true","true","[0]","010","011","1","","","","","","",""
"","","","","","image-keyboard-response","33","110104","0.0-8.0","612bb0cdecc9e45781bbf511","665500ab8938657b03fbdba8","6657927a04f7a32c8a3aad71","382","stimuli/00100110.jpg"," ","","feedback_trial","0","","","","","","","","","","","","","","","","","","","","",""
"","","","","","image-keyboard-response","34","110840","0.0-9.0","612bb0cdecc9e45781bbf511","665500ab8938657b03fbdba8","6657927a04f7a32c8a3aad71","734","stimuli/0001001.jpg","0","","prediction_trial","0","","true","","0","true","true","true","true","true","true","[0]","001","001","1","","","","","","",""
"","","","","","image-keyboard-response","35","111168","0.0-10.0","612bb0cdecc9e45781bbf511","665500ab8938657b03fbdba8","6657927a04f7a32c8a3aad71","326","stimuli/00010010.jpg"," ","","feedback_trial","0","","","","","","","","","","","","","","","","","","","","",""
"","","","","","image-keyboard-response","36","111688","0.0-11.0","612bb0cdecc9e45781bbf511","665500ab8938657b03fbdba8","6657927a04f7a32c8a3aad71","518","stimuli/0111010.jpg","0","","prediction_trial","0","","true","","0","true","true","false","false","false","false","[1,2,0]","111","010","1","","","","","","",""
"","","","","","image-keyboard-response","37","112121","0.0-12.0","612bb0cdecc9e45781bbf511","665500ab8938657b03fbdba8","6657927a04f7a32c8a3aad71","431","stimuli/01110100.jpg"," ","","feedback_trial","1","","","","","","","","","","","","","","","","","","","","",""
"","","","","","image-keyboard-response","38","113280","0.0-13.0","612bb0cdecc9e45781bbf511","665500ab8938657b03fbdba8","6657927a04f7a32c8a3aad71","1158","stimuli/1110100.jpg","1","","prediction_trial","0","","false","","1","true","true","false","false","false","false","[0,1]","110","100","0","","","","","","",""
"","","","","","image-keyboard-response","39","113911","0.0-14.0","612bb0cdecc9e45781bbf511","665500ab8938657b03fbdba8","6657927a04f7a32c8a3aad71","629","stimuli/11101000.jpg"," ","","feedback_trial","0","","","","","","","","","","","","","","","","","","","","",""
"","","","","","image-keyboard-response","40","115104","0.0-15.0","612bb0cdecc9e45781bbf511","665500ab8938657b03fbdba8","6657927a04f7a32c8a3aad71","1191","stimuli/0000101.jpg","2","","prediction_trial","0","","false","","0","false","false","true","true","false","false","[0]","000","101","0","","","","","","",""
"","","","","","image-keyboard-response","41","115750","0.0-16.0","612bb0cdecc9e45781bbf511","665500ab8938657b03fbdba8","6657927a04f7a32c8a3aad71","644","stimuli/00001010.jpg"," ","","feedback_trial","0","","","","","","","","","","","","","","","","","","","","",""
"","","","","","image-keyboard-response","42","116526","0.0-17.0","612bb0cdecc9e45781bbf511","665500ab8938657b03fbdba8","6657927a04f7a32c8a3aad71","775","stimuli/1011100.jpg","1","","prediction_trial","2","","false","","1","true","true","false","false","false","false","[1,2]","011","100","0","","","","","","",""
"","","","","","image-keyboard-response","43","117088","0.0-18.0","612bb0cdecc9e45781bbf511","665500ab8938657b03fbdba8","6657927a04f7a32c8a3aad71","560","stimuli/10111002.jpg"," ","","feedback_trial","1","","","","","","","","","","","","","","","","","","","","",""
"","","","","","image-keyboard-response","44","117783","0.0-19.0","612bb0cdecc9e45781bbf511","665500ab8938657b03fbdba8","6657927a04f7a32c8a3aad71","693","stimuli/2111010.jpg","2","","prediction_trial","1","","false","","2","true","true","false","false","false","false","[0,2,1]","111","010","0","","","","","","",""
"","","","","","image-keyboard-response","45","118360","0.0-20.0","612bb0cdecc9e45781bbf511","665500ab8938657b03fbdba8","6657927a04f7a32c8a3aad71","575","stimuli/21110101.jpg"," ","","feedback_trial","0","","","","","","","","","","","","","","","","","","","","",""
"","","","","","image-keyboard-response","46","119920","0.0-21.0","612bb0cdecc9e45781bbf511","665500ab8938657b03fbdba8","6657927a04f7a32c8a3aad71","1558","stimuli/0110110.jpg","1","","prediction_trial","0","","false","","0","false","false","false","false","false","false","[0,1]","110","110","0","","","","","","",""
"","","","","","image-keyboard-response","47","120336","0.0-22.0","612bb0cdecc9e45781bbf511","665500ab8938657b03fbdba8","6657927a04f7a32c8a3aad71","413","stimuli/01101100.jpg"," ","","feedback_trial","0","","","","","","","","","","","","","","","","","","","","",""
"","","","","","image-keyboard-response","48","121040","0.0-23.0","612bb0cdecc9e45781bbf511","665500ab8938657b03fbdba8","6657927a04f7a32c8a3aad71","710","stimuli/1111010.jpg","1","","prediction_trial","0","","false","","1","false","true","false","false","false","false","[1,2,0]","111","010","0","","","","","","",""
"","","","","","image-keyboard-response","49","121495","0.0-24.0","612bb0cdecc9e45781bbf511","665500ab8938657b03fbdba8","6657927a04f7a32c8a3aad71","454","stimuli/11110100.jpg"," ","","feedback_trial","1","","","","","","","","","","","","","","","","","","","","",""
"","","","","","image-keyboard-response","50","122167","0.0-25.0","612bb0cdecc9e45781bbf511","665500ab8938657b03fbdba8","6657927a04f7a32c8a3aad71","654","stimuli/2010100.jpg","2","","prediction_trial","2","","true","","2","true","true","true","true","true","true","[2]","010","100","1","","","","","","",""
"","","","","","image-keyboard-response","51","122512","0.0-26.0","612bb0cdecc9e45781bbf511","665500ab8938657b03fbdba8","6657927a04f7a32c8a3aad71","342","stimuli/20101002.jpg"," ","","feedback_trial","2","","","","","","","","","","","","","","","","","","","","",""
"","","","","","image-keyboard-response","52","123320","0.0-27.0","612bb0cdecc9e45781bbf511","665500ab8938657b03fbdba8","6657927a04f7a32c8a3aad71","806","stimuli/1010101.jpg","1","","prediction_trial","1","","true","","1","true","true","false","true","false","true","[1]","010","101","1","","","","","","",""
"","","","","","image-keyboard-response","53","123776","0.0-28.0","612bb0cdecc9e45781bbf511","665500ab8938657b03fbdba8","6657927a04f7a32c8a3aad71","454","stimuli/10101011.jpg"," ","","feedback_trial","1","","","","","","","","","","","","","","","","","","","","",""
"","","","","","image-keyboard-response","54","124335","0.0-29.0","612bb0cdecc9e45781bbf511","665500ab8938657b03fbdba8","6657927a04f7a32c8a3aad71","557","stimuli/2011110.jpg","2","","prediction_trial","1","","false","","2","true","true","false","false","false","false","[1,2]","011","110","0","","","","","","",""
"","","","","","image-keyboard-response","55","124888","0.0-30.0","612bb0cdecc9e45781bbf511","665500ab8938657b03fbdba8","6657927a04f7a32c8a3aad71","551","stimuli/20111101.jpg"," ","","feedback_trial","1","","","","","","","","","","","","","","","","","","","","",""
"","","","","","image-keyboard-response","56","126472","0.0-31.0","612bb0cdecc9e45781bbf511","665500ab8938657b03fbdba8","6657927a04f7a32c8a3aad71","1582","stimuli/1111110.jpg","1","","prediction_trial","2","","false","","1","false","false","false","false","false","false","[0,2,1]","111","110","0","","","","","","",""
"","","","","","image-keyboard-response","57","126984","0.0-32.0","612bb0cdecc9e45781bbf511","665500ab8938657b03fbdba8","6657927a04f7a32c8a3aad71","510","stimuli/11111102.jpg"," ","","feedback_trial","0","","","","","","","","","","","","","","","","","","","","",""
"","","","","","image-keyboard-response","58","127848","0.0-33.0","612bb0cdecc9e45781bbf511","665500ab8938657b03fbdba8","6657927a04f7a32c8a3aad71","862","stimuli/0111111.jpg","1","","prediction_trial","1","","true","","0","false","false","false","false","false","false","[1,0,2]","111","111","1","","","","","","",""
"","","","","","image-keyboard-response","59","128311","0.0-34.0","612bb0cdecc9e45781bbf511","665500ab8938657b03fbdba8","6657927a04f7a32c8a3aad71","462","stimuli/01111111.jpg"," ","","feedback_trial","1","","","","","","","","","","","","","","","","","","","","",""
"","","","","","image-keyboard-response","60","128920","0.0-35.0","612bb0cdecc9e45781bbf511","665500ab8938657b03fbdba8","6657927a04f7a32c8a3aad71","606","stimuli/2000110.jpg","2","","prediction_trial","2","","true","","2","true","true","true","true","true","true","[2]","000","110","1","","","","","","",""
"","","","","","image-keyboard-response","61","129319","0.0-36.0","612bb0cdecc9e45781bbf511","665500ab8938657b03fbdba8","6657927a04f7a32c8a3aad71","397","stimuli/20001102.jpg"," ","","feedback_trial","2","","","","","","","","","","","","","","","","","","","","",""
"","","","","","image-keyboard-response","62","130080","0.0-37.0","612bb0cdecc9e45781bbf511","665500ab8938657b03fbdba8","6657927a04f7a32c8a3aad71","759","stimuli/2110100.jpg","2","","prediction_trial","2","","true","","2","true","true","true","true","true","true","[2]","110","100","1","","","","","","",""
"","","","","","image-keyboard-response","63","130393","0.0-38.0","612bb0cdecc9e45781bbf511","665500ab8938657b03fbdba8","6657927a04f7a32c8a3aad71","311","stimuli/21101002.jpg"," ","","feedback_trial","2","","","","","","","","","","","","","","","","","","","","",""
"","","","","","image-keyboard-response","64","130967","0.0-39.0","612bb0cdecc9e45781bbf511","665500ab8938657b03fbdba8","6657927a04f7a32c8a3aad71","573","stimuli/0001011.jpg","0","","prediction_trial","0","","true","","0","true","true","true","true","true","true","[0]","001","011","1","","","","","","",""
"","","","","","image-keyboard-response","65","131304","0.0-40.0","612bb0cdecc9e45781bbf511","665500ab8938657b03fbdba8","6657927a04f7a32c8a3aad71","334","stimuli/00010110.jpg"," ","","feedback_trial","0","","","","","","","","","","","","","","","","","","","","",""
"","","","","","image-keyboard-response","66","131919","0.0-41.0","612bb0cdecc9e45781bbf511","665500ab8938657b03fbdba8","6657927a04f7a32c8a3aad71","614","stimuli/0000010.jpg","0","","prediction_trial","0","","true","","0","true","true","true","true","true","true","[0]","000","010","1","","","","","","",""
"","","","","","image-keyboard-response","67","132240","0.0-42.0","612bb0cdecc9e45781bbf511","665500ab8938657b03fbdba8","6657927a04f7a32c8a3aad71","319","stimuli/00000100.jpg"," ","","feedback_trial","0","","","","","","","","","","","","","","","","","","","","",""
"","","","","","image-keyboard-response","68","132846","0.0-43.0","612bb0cdecc9e45781bbf511","665500ab8938657b03fbdba8","6657927a04f7a32c8a3aad71","604","stimuli/1100100.jpg","1","","prediction_trial","1","","true","","1","true","true","true","true","true","true","[1]","100","100","1","","","","","","",""
"","","","","","image-keyboard-response","69","133216","0.0-44.0","612bb0cdecc9e45781bbf511","665500ab8938657b03fbdba8","6657927a04f7a32c8a3aad71","367","stimuli/11001001.jpg"," ","","feedback_trial","1","","","","","","","","","","","","","","","","","","","","",""
"","","","","","image-keyboard-response","70","134000","0.0-45.0","612bb0cdecc9e45781bbf511","665500ab8938657b03fbdba8","6657927a04f7a32c8a3aad71","782","stimuli/1111101.jpg","1","","prediction_trial","0","","false","","1","true","true","false","false","false","false","[1,0,2]","111","101","0","","","","","","",""
"","","","","","image-keyboard-response","71","134429","0.0-46.0","612bb0cdecc9e45781bbf511","665500ab8938657b03fbdba8","6657927a04f7a32c8a3aad71","427","stimuli/11111010.jpg"," ","","feedback_trial","1","","","","","","","","","","","","","","","","","","","","",""
"","","","","","image-keyboard-response","72","136288","0.0-47.0","612bb0cdecc9e45781bbf511","665500ab8938657b03fbdba8","6657927a04f7a32c8a3aad71","1858","stimuli/2111001.jpg","1","","prediction_trial","2","","false","","2","false","true","false","false","false","false","[2,0,1]","111","001","0","","","","","","",""
"","","","","","image-keyboard-response","73","136704","0.0-48.0","612bb0cdecc9e45781bbf511","665500ab8938657b03fbdba8","6657927a04f7a32c8a3aad71","414","stimuli/21110012.jpg"," ","","feedback_trial","2","","","","","","","","","","","","","","","","","","","","",""
"","","","","","image-keyboard-response","74","138743","0.0-49.0","612bb0cdecc9e45781bbf511","665500ab8938657b03fbdba8","6657927a04f7a32c8a3aad71","2037","stimuli/2001011.jpg","2","","prediction_trial","2","","true","","2","false","false","false","true","false","false","[2]","001","011","1","","","","","","",""
"","","","","","image-keyboard-response","75","139144","0.0-50.0","612bb0cdecc9e45781bbf511","665500ab8938657b03fbdba8","6657927a04f7a32c8a3aad71","399","stimuli/20010112.jpg"," ","","feedback_trial","2","","","","","","","","","","","","","","","","","","","","",""
"","","","","","image-keyboard-response","76","139968","0.0-51.0","612bb0cdecc9e45781bbf511","665500ab8938657b03fbdba8","6657927a04f7a32c8a3aad71","822","stimuli/1010010.jpg","1","","prediction_trial","1","","true","","1","false","true","false","true","false","true","[1]","010","010","1","","","","","","",""
"","","","","","image-keyboard-response","77","140341","0.0-52.0","612bb0cdecc9e45781bbf511","665500ab8938657b03fbdba8","6657927a04f7a32c8a3aad71","366","stimuli/10100101.jpg"," ","","feedback_trial","1","","","","","","","","","","","","","","","","","","","","",""
"","","","","","image-keyboard-response","78","141272","0.0-53.0","612bb0cdecc9e45781bbf511","665500ab8938657b03fbdba8","6657927a04f7a32c8a3aad71","929","stimuli/1110000.jpg","1","","prediction_trial","1","","true","","1","true","true","false","false","false","false","[0,1]","110","000","1","","","","","","",""
"","","","","","image-keyboard-response","79","141649","0.0-54.0","612bb0cdecc9e45781bbf511","665500ab8938657b03fbdba8","6657927a04f7a32c8a3aad71","375","stimuli/11100001.jpg"," ","","feedback_trial","0","","","","","","","","","","","","","","","","","","","","",""
"","","","","","image-keyboard-response","80","142191","0.0-55.0","612bb0cdecc9e45781bbf511","665500ab8938657b03fbdba8","6657927a04f7a32c8a3aad71","541","stimuli/1101100.jpg","1","","prediction_trial","1","","true","","1","true","true","true","true","true","true","[1]","101","100","1","","","","","","",""
"","","","","","image-keyboard-response","81","142432","0.0-56.0","612bb0cdecc9e45781bbf511","665500ab8938657b03fbdba8","6657927a04f7a32c8a3aad71","239","stimuli/11011001.jpg"," ","","feedback_trial","1","","","","","","","","","","","","","","","","","","","","",""
"","","","","","image-keyboard-response","82","143000","0.0-57.0","612bb0cdecc9e45781bbf511","665500ab8938657b03fbdba8","6657927a04f7a32c8a3aad71","565","stimuli/2000010.jpg","2","","prediction_trial","2","","true","","2","true","true","true","true","true","true","[2]","000","010","1","","","","","","",""
"","","","","","image-keyboard-response","83","143264","0.0-58.0","612bb0cdecc9e45781bbf511","665500ab8938657b03fbdba8","6657927a04f7a32c8a3aad71","262","stimuli/20000102.jpg"," ","","feedback_trial","2","","","","","","","","","","","","","","","","","","","","",""
"","","","","","image-keyboard-response","84","144776","0.0-59.0","612bb0cdecc9e45781bbf511","665500ab8938657b03fbdba8","6657927a04f7a32c8a3aad71","1510","stimuli/0001100.jpg","0","","prediction_trial","0","","true","","0","false","true","true","true","false","true","[0]","001","100","1","","","","","","",""
"","","","","","image-keyboard-response","85","145109","0.0-60.0","612bb0cdecc9e45781bbf511","665500ab8938657b03fbdba8","6657927a04f7a32c8a3aad71","331","stimuli/00011000.jpg"," ","","feedback_trial","0","","","","","","","","","","","","","","","","","","","","",""
"","","","","","image-keyboard-response","86","145663","0.0-61.0","612bb0cdecc9e45781bbf511","665500ab8938657b03fbdba8","6657927a04f7a32c8a3aad71","546","stimuli/1000101.jpg","1","","prediction_trial","1","","true","","1","true","true","true","true","true","true","[1]","000","101","1","","","","","","",""
"","","","","","image-keyboard-response","87","145928","0.0-62.0","612bb0cdecc9e45781bbf511","665500ab8938657b03fbdba8","6657927a04f7a32c8a3aad71","262","stimuli/10001011.jpg"," ","","feedback_trial","1","","","","","","","","","","","","","","","","","","","","",""
"","","","","","image-keyboard-response","88","147200","0.0-63.0","612bb0cdecc9e45781bbf511","665500ab8938657b03fbdba8","6657927a04f7a32c8a3aad71","1270","stimuli/1011101.jpg","1","","prediction_trial","2","","false","","1","true","true","false","false","false","false","[1,2]","011","101","0","","","","","","",""
"","","","","","image-keyboard-response","89","147583","0.0-64.0","612bb0cdecc9e45781bbf511","665500ab8938657b03fbdba8","6657927a04f7a32c8a3aad71","381","stimuli/10111012.jpg"," ","","feedback_trial","1","","","","","","","","","","","","","","","","","","","","",""
"","","","","","image-keyboard-response","90","148175","0.0-65.0","612bb0cdecc9e45781bbf511","665500ab8938657b03fbdba8","6657927a04f7a32c8a3aad71","590","stimuli/1101010.jpg","1","","prediction_trial","1","","true","","1","false","true","true","true","false","true","[1]","101","010","1","","","","","","",""
"","","","","","image-keyboard-response","91","148486","0.0-66.0","612bb0cdecc9e45781bbf511","665500ab8938657b03fbdba8","6657927a04f7a32c8a3aad71","309","stimuli/11010101.jpg"," ","","feedback_trial","1","","","","","","","","","","","","","","","","","","","","",""
"","","","","","image-keyboard-response","92","149367","0.0-67.0","612bb0cdecc9e45781bbf511","665500ab8938657b03fbdba8","6657927a04f7a32c8a3aad71","879","stimuli/1100010.jpg","1","","prediction_trial","1","","true","","1","false","true","true","true","false","true","[1]","100","010","1","","","","","","",""
"","","","","","image-keyboard-response","93","149640","0.0-68.0","612bb0cdecc9e45781bbf511","665500ab8938657b03fbdba8","6657927a04f7a32c8a3aad71","270","stimuli/11000101.jpg"," ","","feedback_trial","1","","","","","","","","","","","","","","","","","","","","",""
"","","","","","image-keyboard-response","94","150871","0.0-69.0","612bb0cdecc9e45781bbf511","665500ab8938657b03fbdba8","6657927a04f7a32c8a3aad71","1229","stimuli/0111100.jpg","0","","prediction_trial","0","","true","","0","false","true","false","false","false","false","[0,2,1]","111","100","1","","","","","","",""
"","","","","","image-keyboard-response","95","151240","0.0-70.0","612bb0cdecc9e45781bbf511","665500ab8938657b03fbdba8","6657927a04f7a32c8a3aad71","357","stimuli/01111000.jpg"," ","","feedback_trial","0","","","","","","","","","","","","","","","","","","","","",""
"","","","","","image-keyboard-response","96","151774","0.0-71.0","612bb0cdecc9e45781bbf511","665500ab8938657b03fbdba8","6657927a04f7a32c8a3aad71","532","stimuli/1101101.jpg","1","","prediction_trial","1","","true","","1","true","true","true","true","true","true","[1]","101","101","1","","","","","","",""
"","","","","","image-keyboard-response","97","152088","0.0-72.0","612bb0cdecc9e45781bbf511","665500ab8938657b03fbdba8","6657927a04f7a32c8a3aad71","311","stimuli/11011011.jpg"," ","","feedback_trial","1","","","","","","","","","","","","","","","","","","","","",""
"","","","","","image-keyboard-response","98","152656","0.0-73.0","612bb0cdecc9e45781bbf511","665500ab8938657b03fbdba8","6657927a04f7a32c8a3aad71","566","stimuli/2100100.jpg","2","","prediction_trial","2","","true","","2","true","true","true","true","true","true","[2]","100","100","1","","","","","","",""
"","","","","","image-keyboard-response","99","152968","0.0-74.0","612bb0cdecc9e45781bbf511","665500ab8938657b03fbdba8","6657927a04f7a32c8a3aad71","310","stimuli/21001002.jpg"," ","","feedback_trial","2","","","","","","","","","","","","","","","","","","","","",""
"","","","","","image-keyboard-response","100","153735","0.0-75.0","612bb0cdecc9e45781bbf511","665500ab8938657b03fbdba8","6657927a04f7a32c8a3aad71","765","stimuli/2010001.jpg","2","","prediction_trial","2","","true","","2","false","true","true","true","false","true","[2]","010","001","1","","","","","","",""
"","","","","","image-keyboard-response","101","154040","0.0-76.0","612bb0cdecc9e45781bbf511","665500ab8938657b03fbdba8","6657927a04f7a32c8a3aad71","302","stimuli/20100012.jpg"," ","","feedback_trial","2","","","","","","","","","","","","","","","","","","","","",""
"","","","","","image-keyboard-response","102","155784","0.0-77.0","612bb0cdecc9e45781bbf511","665500ab8938657b03fbdba8","6657927a04f7a32c8a3aad71","1742","stimuli/2100101.jpg","0","","prediction_trial","2","","false","","2","false","false","true","true","false","false","[2]","100","101","0","","","","","","",""
"","","","","","image-keyboard-response","103","156448","0.0-78.0","612bb0cdecc9e45781bbf511","665500ab8938657b03fbdba8","6657927a04f7a32c8a3aad71","661","stimuli/21001012.jpg"," ","","feedback_trial","2","","","","","","","","","","","","","","","","","","","","",""
"","","","","","image-keyboard-response","104","157048","0.0-79.0","612bb0cdecc9e45781bbf511","665500ab8938657b03fbdba8","6657927a04f7a32c8a3aad71","591","stimuli/2001110.jpg","2","","prediction_trial","2","","true","","2","true","true","false","true","false","true","[2]","001","110","1","","","","","","",""
"","","","","","image-keyboard-response","105","157464","0.0-80.0","612bb0cdecc9e45781bbf511","665500ab8938657b03fbdba8","6657927a04f7a32c8a3aad71","414","stimuli/20011102.jpg"," ","","feedback_trial","2","","","","","","","","","","","","","","","","","","","","",""
"","","","","","image-keyboard-response","106","159296","0.0-81.0","612bb0cdecc9e45781bbf511","665500ab8938657b03fbdba8","6657927a04f7a32c8a3aad71","1830","stimuli/0010110.jpg","1","","prediction_trial","0","","false","","0","false","false","true","true","false","false","[0]","010","110","0","","","","","","",""
"","","","","","image-keyboard-response","107","159712","0.0-82.0","612bb0cdecc9e45781bbf511","665500ab8938657b03fbdba8","6657927a04f7a32c8a3aad71","414","stimuli/00101100.jpg"," ","","feedback_trial","0","","","","","","","","","","","","","","","","","","","","",""
"","","","","","image-keyboard-response","108","160559","0.0-83.0","612bb0cdecc9e45781bbf511","665500ab8938657b03fbdba8","6657927a04f7a32c8a3aad71","845","stimuli/2001000.jpg","2","","prediction_trial","2","","true","","2","true","true","false","true","false","true","[2]","001","000","1","","","","","","",""
"","","","","","image-keyboard-response","109","160840","0.0-84.0","612bb0cdecc9e45781bbf511","665500ab8938657b03fbdba8","6657927a04f7a32c8a3aad71","279","stimuli/20010002.jpg"," ","","feedback_trial","2","","","","","","","","","","","","","","","","","","","","",""
"","","","","","image-keyboard-response","110","162184","0.0-85.0","612bb0cdecc9e45781bbf511","665500ab8938657b03fbdba8","6657927a04f7a32c8a3aad71","1343","stimuli/0101010.jpg","0","","prediction_trial","2","","false","","0","true","true","false","false","false","false","[2,0]","101","010","0","","","","","","",""
"","","","","","image-keyboard-response","111","162583","0.0-86.0","612bb0cdecc9e45781bbf511","665500ab8938657b03fbdba8","6657927a04f7a32c8a3aad71","397","stimuli/01010102.jpg"," ","","feedback_trial","2","","","","","","","","","","","","","","","","","","","","",""
"","","","","","image-keyboard-response","112","163509","0.0-87.0","612bb0cdecc9e45781bbf511","665500ab8938657b03fbdba8","6657927a04f7a32c8a3aad71","924","stimuli/1001110.jpg","0","","prediction_trial","1","","false","","1","false","false","true","true","false","false","[1]","001","110","0","","","","","","",""
"","","","","","image-keyboard-response","113","163840","0.0-88.0","612bb0cdecc9e45781bbf511","665500ab8938657b03fbdba8","6657927a04f7a32c8a3aad71","330","stimuli/10011101.jpg"," ","","feedback_trial","1","","","","","","","","","","","","","","","","","","","","",""
"","","","","","image-keyboard-response","114","164432","0.0-89.0","612bb0cdecc9e45781bbf511","665500ab8938657b03fbdba8","6657927a04f7a32c8a3aad71","590","stimuli/1111100.jpg","1","","prediction_trial","1","","true","","1","true","true","false","false","false","false","[2,1,0]","111","100","1","","","","","","",""
"","","","","","image-keyboard-response","115","164801","0.0-90.0","612bb0cdecc9e45781bbf511","665500ab8938657b03fbdba8","6657927a04f7a32c8a3aad71","366","stimuli/11111001.jpg"," ","","feedback_trial","2","","","","","","","","","","","","","","","","","","","","",""
"","","","","","image-keyboard-response","116","165351","0.0-91.0","612bb0cdecc9e45781bbf511","665500ab8938657b03fbdba8","6657927a04f7a32c8a3aad71","549","stimuli/0011011.jpg","0","","prediction_trial","0","","true","","0","true","true","true","true","true","true","[0]","011","011","1","","","","","","",""
"","","","","","image-keyboard-response","117","165598","0.0-92.0","612bb0cdecc9e45781bbf511","665500ab8938657b03fbdba8","6657927a04f7a32c8a3aad71","245","stimuli/00110110.jpg"," ","","feedback_trial","0","","","","","","","","","","","","","","","","","","","","",""
"","","","","","image-keyboard-response","118","166527","0.0-93.0","612bb0cdecc9e45781bbf511","665500ab8938657b03fbdba8","6657927a04f7a32c8a3aad71","927","stimuli/1001111.jpg","1","","prediction_trial","1","","true","","1","false","false","true","true","false","false","[1]","001","111","1","","","","","","",""
"","","","","","image-keyboard-response","119","166872","0.0-94.0","612bb0cdecc9e45781bbf511","665500ab8938657b03fbdba8","6657927a04f7a32c8a3aad71","342","stimuli/10011111.jpg"," ","","feedback_trial","1","","","","","","","","","","","","","","","","","","","","",""
"","","","","","image-keyboard-response","120","167423","0.0-95.0","612bb0cdecc9e45781bbf511","665500ab8938657b03fbdba8","6657927a04f7a32c8a3aad71","549","stimuli/2010010.jpg","2","","prediction_trial","2","","true","","2","true","true","true","true","true","true","[2]","010","010","1","","","","","","",""
"","","","","","image-keyboard-response","121","167728","0.0-96.0","612bb0cdecc9e45781bbf511","665500ab8938657b03fbdba8","6657927a04f7a32c8a3aad71","303","stimuli/20100102.jpg"," ","","feedback_trial","2","","","","","","","","","","","","","","","","","","","","",""
"","","","","","image-keyboard-response","122","168256","0.0-97.0","612bb0cdecc9e45781bbf511","665500ab8938657b03fbdba8","6657927a04f7a32c8a3aad71","518","stimuli/1001101.jpg","1","","prediction_trial","1","","true","","1","true","true","true","true","true","true","[1]","001","101","1","","","","","","",""
"","","","","","image-keyboard-response","123","168551","0.0-98.0","612bb0cdecc9e45781bbf511","665500ab8938657b03fbdba8","6657927a04f7a32c8a3aad71","293","stimuli/10011011.jpg"," ","","feedback_trial","1","","","","","","","","","","","","","","","","","","","","",""
"","","","","","image-keyboard-response","124","169208","0.0-99.0","612bb0cdecc9e45781bbf511","665500ab8938657b03fbdba8","6657927a04f7a32c8a3aad71","654","stimuli/1000010.jpg","1","","prediction_trial","1","","true","","1","false","true","true","true","false","true","[1]","000","010","1","","","","","","",""
"","","","","","image-keyboard-response","125","169488","0.0-100.0","612bb0cdecc9e45781bbf511","665500ab8938657b03fbdba8","6657927a04f7a32c8a3aad71","278","stimuli/10000101.jpg"," ","","feedback_trial","1","","","","","","","","","","","","","","","","","","","","",""
"","","","","","image-keyboard-response","126","170006","0.0-101.0","612bb0cdecc9e45781bbf511","665500ab8938657b03fbdba8","6657927a04f7a32c8a3aad71","516","stimuli/1100101.jpg","1","","prediction_trial","1","","true","","1","true","true","true","true","true","true","[1]","100","101","1","","","","","","",""
"","","","","","image-keyboard-response","127","170200","0.0-102.0","612bb0cdecc9e45781bbf511","665500ab8938657b03fbdba8","6657927a04f7a32c8a3aad71","191","stimuli/11001011.jpg"," ","","feedback_trial","1","","","","","","","","","","","","","","","","","","","","",""
"","","","","","image-keyboard-response","128","170991","0.0-103.0","612bb0cdecc9e45781bbf511","665500ab8938657b03fbdba8","6657927a04f7a32c8a3aad71","789","stimuli/2001111.jpg","1","","prediction_trial","2","","false","","2","false","false","false","true","false","false","[2]","001","111","0","","","","","","",""
"","","","","","image-keyboard-response","129","171368","0.0-104.0","612bb0cdecc9e45781bbf511","665500ab8938657b03fbdba8","6657927a04f7a32c8a3aad71","375","stimuli/20011112.jpg"," ","","feedback_trial","2","","","","","","","","","","","","","","","","","","","","",""
"","","","","","image-keyboard-response","130","172367","0.0-105.0","612bb0cdecc9e45781bbf511","665500ab8938657b03fbdba8","6657927a04f7a32c8a3aad71","996","stimuli/0101110.jpg","1","","prediction_trial","0","","false","","0","false","false","false","false","false","false","[0,2]","101","110","0","","","","","","",""
"","","","","","image-keyboard-response","131","172680","0.0-106.0","612bb0cdecc9e45781bbf511","665500ab8938657b03fbdba8","6657927a04f7a32c8a3aad71","303","stimuli/01011100.jpg"," ","","feedback_trial","0","","","","","","","","","","","","","","","","","","","","",""
"","","","","","image-keyboard-response","132","173344","0.0-107.0","612bb0cdecc9e45781bbf511","665500ab8938657b03fbdba8","6657927a04f7a32c8a3aad71","662","stimuli/0011110.jpg","1","","prediction_trial","0","","false","","0","false","false","true","true","false","false","[0]","011","110","0","","","","","","",""
"","","","","","image-keyboard-response","133","173696","0.0-108.0","612bb0cdecc9e45781bbf511","665500ab8938657b03fbdba8","6657927a04f7a32c8a3aad71","350","stimuli/00111100.jpg"," ","","feedback_trial","0","","","","","","","","","","","","","","","","","","","","",""
"","","","","","image-keyboard-response","134","174295","0.0-109.0","612bb0cdecc9e45781bbf511","665500ab8938657b03fbdba8","6657927a04f7a32c8a3aad71","597","stimuli/0000001.jpg","0","","prediction_trial","0","","true","","0","true","true","true","true","true","true","[0]","000","001","1","","","","","","",""
"","","","","","image-keyboard-response","135","174551","0.0-110.0","612bb0cdecc9e45781bbf511","665500ab8938657b03fbdba8","6657927a04f7a32c8a3aad71","253","stimuli/00000010.jpg"," ","","feedback_trial","0","","","","","","","","","","","","","","","","","","","","",""
"","","","","","image-keyboard-response","136","174991","0.0-111.0","612bb0cdecc9e45781bbf511","665500ab8938657b03fbdba8","6657927a04f7a32c8a3aad71","438","stimuli/0111001.jpg","0","","prediction_trial","2","","false","","0","true","true","false","false","false","false","[1,2,0]","111","001","0","","","","","","",""
"","","","","","image-keyboard-response","137","175760","0.0-112.0","612bb0cdecc9e45781bbf511","665500ab8938657b03fbdba8","6657927a04f7a32c8a3aad71","767","stimuli/01110012.jpg"," ","","feedback_trial","1","","","","","","","","","","","","","","","","","","","","",""
"","","","","","image-keyboard-response","138","176527","0.0-113.0","612bb0cdecc9e45781bbf511","665500ab8938657b03fbdba8","6657927a04f7a32c8a3aad71","765","stimuli/2111101.jpg","0","","prediction_trial","0","","true","","2","false","false","false","false","false","false","[1,2,0]","111","101","1","","","","","","",""
"","","","","","image-keyboard-response","139","176968","0.0-114.0","612bb0cdecc9e45781bbf511","665500ab8938657b03fbdba8","6657927a04f7a32c8a3aad71","439","stimuli/21111010.jpg"," ","","feedback_trial","1","","","","","","","","","","","","","","","","","","","","",""
"","","","","","image-keyboard-response","140","177656","0.0-115.0","612bb0cdecc9e45781bbf511","665500ab8938657b03fbdba8","6657927a04f7a32c8a3aad71","674","stimuli/0101111.jpg","1","","prediction_trial","0","","false","","0","false","false","false","false","false","false","[0,2]","101","111","0","","","","","","",""
"","","","","","image-keyboard-response","141","178040","0.0-116.0","612bb0cdecc9e45781bbf511","665500ab8938657b03fbdba8","6657927a04f7a32c8a3aad71","382","stimuli/01011110.jpg"," ","","feedback_trial","0","","","","","","","","","","","","","","","","","","","","",""
"","","","","","image-keyboard-response","142","178575","0.0-117.0","612bb0cdecc9e45781bbf511","665500ab8938657b03fbdba8","6657927a04f7a32c8a3aad71","533","stimuli/0001000.jpg","0","","prediction_trial","0","","true","","0","true","true","true","true","true","true","[0]","001","000","1","","","","","","",""
"","","","","","image-keyboard-response","143","178888","0.0-118.0","612bb0cdecc9e45781bbf511","665500ab8938657b03fbdba8","6657927a04f7a32c8a3aad71","311","stimuli/00010000.jpg"," ","","feedback_trial","0","","","","","","","","","","","","","","","","","","","","",""
"","","","","","image-keyboard-response","144","179344","0.0-119.0","612bb0cdecc9e45781bbf511","665500ab8938657b03fbdba8","6657927a04f7a32c8a3aad71","454","stimuli/0010000.jpg","0","","prediction_trial","0","","true","","0","true","true","true","true","true","true","[0]","010","000","1","","","","","","",""
"","","","","","image-keyboard-response","145","179631","0.0-120.0","612bb0cdecc9e45781bbf511","665500ab8938657b03fbdba8","6657927a04f7a32c8a3aad71","285","stimuli/00100000.jpg"," ","","feedback_trial","0","","","","","","","","","","","","","","","","","","","","",""
"","","","","","image-keyboard-response","146","180832","0.0-121.0","612bb0cdecc9e45781bbf511","665500ab8938657b03fbdba8","6657927a04f7a32c8a3aad71","1199","stimuli/0100110.jpg","1","","prediction_trial","0","","false","","0","false","false","false","true","false","false","[0]","100","110","0","","","","","","",""
"","","","","","image-keyboard-response","147","181274","0.0-122.0","612bb0cdecc9e45781bbf511","665500ab8938657b03fbdba8","6657927a04f7a32c8a3aad71","446","stimuli/01001100.jpg"," ","","feedback_trial","0","","","","","","","","","","","","","","","","","","","","",""
"","","","","","image-keyboard-response","148","181809","0.0-123.0","612bb0cdecc9e45781bbf511","665500ab8938657b03fbdba8","6657927a04f7a32c8a3aad71","534","stimuli/0100001.jpg","0","","prediction_trial","0","","true","","0","true","true","false","true","false","true","[0]","100","001","1","","","","","","",""
"","","","","","image-keyboard-response","149","182130","0.0-124.0","612bb0cdecc9e45781bbf511","665500ab8938657b03fbdba8","6657927a04f7a32c8a3aad71","307","stimuli/01000010.jpg"," ","","feedback_trial","0","","","","","","","","","","","","","","","","","","","","",""
"","","","","","image-keyboard-response","150","182729","0.0-125.0","612bb0cdecc9e45781bbf511","665500ab8938657b03fbdba8","6657927a04f7a32c8a3aad71","597","stimuli/0011000.jpg","0","","prediction_trial","0","","true","","0","true","true","true","true","true","true","[0]","011","000","1","","","","","","",""
"","","","","","image-keyboard-response","151","183042","0.0-126.0","612bb0cdecc9e45781bbf511","665500ab8938657b03fbdba8","6657927a04f7a32c8a3aad71","310","stimuli/00110000.jpg"," ","","feedback_trial","0","","","","","","","","","","","","","","","","","","","","",""
"","","","","","image-keyboard-response","152","185009","0.0-127.0","612bb0cdecc9e45781bbf511","665500ab8938657b03fbdba8","6657927a04f7a32c8a3aad71","1966","stimuli/0100101.jpg","2","","prediction_trial","0","","false","","0","false","false","false","true","false","false","[0]","100","101","0","","","","","","",""
"","","","","","image-keyboard-response","153","185481","0.0-128.0","612bb0cdecc9e45781bbf511","665500ab8938657b03fbdba8","6657927a04f7a32c8a3aad71","469","stimuli/01001010.jpg"," ","","feedback_trial","0","","","","","","","","","","","","","","","","","","","","",""
"","","","","","image-keyboard-response","154","186057","0.0-129.0","612bb0cdecc9e45781bbf511","665500ab8938657b03fbdba8","6657927a04f7a32c8a3aad71","574","stimuli/2010000.jpg","2","","prediction_trial","2","","true","","2","true","true","true","true","true","true","[2]","010","000","1","","","","","","",""
"","","","","","image-keyboard-response","155","186312","0.0-130.0","612bb0cdecc9e45781bbf511","665500ab8938657b03fbdba8","6657927a04f7a32c8a3aad71","253","stimuli/20100002.jpg"," ","","feedback_trial","2","","","","","","","","","","","","","","","","","","","","",""
"","","","","","image-keyboard-response","156","186840","0.0-131.0","612bb0cdecc9e45781bbf511","665500ab8938657b03fbdba8","6657927a04f7a32c8a3aad71","526","stimuli/0000011.jpg","0","","prediction_trial","0","","true","","0","true","true","true","true","true","true","[0]","000","011","1","","","","","","",""
"","","","","","image-keyboard-response","157","187226","0.0-132.0","612bb0cdecc9e45781bbf511","665500ab8938657b03fbdba8","6657927a04f7a32c8a3aad71","384","stimuli/00000110.jpg"," ","","feedback_trial","0","","","","","","","","","","","","","","","","","","","","",""
"","","","","","image-keyboard-response","158","187825","0.0-133.0","612bb0cdecc9e45781bbf511","665500ab8938657b03fbdba8","6657927a04f7a32c8a3aad71","586","stimuli/2001010.jpg","2","","prediction_trial","2","","true","","2","true","true","false","true","false","true","[2]","001","010","1","","","","","","",""
"","","","","","image-keyboard-response","159","188266","0.0-134.0","612bb0cdecc9e45781bbf511","665500ab8938657b03fbdba8","6657927a04f7a32c8a3aad71","438","stimuli/20010102.jpg"," ","","feedback_trial","2","","","","","","","","","","","","","","","","","","","","",""
"","","","","","image-keyboard-response","160","189649","0.0-135.0","612bb0cdecc9e45781bbf511","665500ab8938657b03fbdba8","6657927a04f7a32c8a3aad71","1381","stimuli/2000101.jpg","0","","prediction_trial","2","","false","","2","false","false","true","true","false","false","[2]","000","101","0","","","","","","",""
"","","","","","image-keyboard-response","161","190234","0.0-136.0","612bb0cdecc9e45781bbf511","665500ab8938657b03fbdba8","6657927a04f7a32c8a3aad71","583","stimuli/20001012.jpg"," ","","feedback_trial","2","","","","","","","","","","","","","","","","","","","","",""
"","","","","","image-keyboard-response","162","191074","0.0-137.0","612bb0cdecc9e45781bbf511","665500ab8938657b03fbdba8","6657927a04f7a32c8a3aad71","838","stimuli/1011001.jpg","1","","prediction_trial","2","","false","","1","true","true","false","false","false","false","[1,2]","011","001","0","","","","","","",""
"","","","","","image-keyboard-response","163","191466","0.0-138.0","612bb0cdecc9e45781bbf511","665500ab8938657b03fbdba8","6657927a04f7a32c8a3aad71","390","stimuli/10110012.jpg"," ","","feedback_trial","1","","","","","","","","","","","","","","","","","","","","",""
"","","","","","image-keyboard-response","164","192377","0.0-139.0","612bb0cdecc9e45781bbf511","665500ab8938657b03fbdba8","6657927a04f7a32c8a3aad71","909","stimuli/0110011.jpg","0","","prediction_trial","1","","false","","0","true","true","false","false","false","false","[0,1]","110","011","0","","","","","","",""
"","","","","","image-keyboard-response","165","192866","0.0-140.0","612bb0cdecc9e45781bbf511","665500ab8938657b03fbdba8","6657927a04f7a32c8a3aad71","487","stimuli/01100111.jpg"," ","","feedback_trial","0","","","","","","","","","","","","","","","","","","","","",""
"","","","","","image-keyboard-response","166","193441","0.0-141.0","612bb0cdecc9e45781bbf511","665500ab8938657b03fbdba8","6657927a04f7a32c8a3aad71","573","stimuli/0110000.jpg","0","","prediction_trial","1","","false","","0","true","true","false","false","false","false","[0,1]","110","000","0","","","","","","",""
"","","","","","image-keyboard-response","167","193848","0.0-142.0","612bb0cdecc9e45781bbf511","665500ab8938657b03fbdba8","6657927a04f7a32c8a3aad71","394","stimuli/01100001.jpg"," ","","feedback_trial","0","","","","","","","","","","","","","","","","","","","","",""
"","","","","","image-keyboard-response","168","194640","0.0-143.0","612bb0cdecc9e45781bbf511","665500ab8938657b03fbdba8","6657927a04f7a32c8a3aad71","790","stimuli/0011100.jpg","0","","prediction_trial","0","","true","","0","false","true","true","true","false","true","[0]","011","100","1","","","","","","",""
"","","","","","image-keyboard-response","169","194929","0.0-144.0","612bb0cdecc9e45781bbf511","665500ab8938657b03fbdba8","6657927a04f7a32c8a3aad71","287","stimuli/00111000.jpg"," ","","feedback_trial","0","","","","","","","","","","","","","","","","","","","","",""
"","","","","","image-keyboard-response","170","195585","0.0-145.0","612bb0cdecc9e45781bbf511","665500ab8938657b03fbdba8","6657927a04f7a32c8a3aad71","654","stimuli/0000111.jpg","1","","prediction_trial","0","","false","","0","false","false","true","true","false","false","[0]","000","111","0","","","","","","",""
"","","","","","image-keyboard-response","171","195955","0.0-146.0","612bb0cdecc9e45781bbf511","665500ab8938657b03fbdba8","6657927a04f7a32c8a3aad71","366","stimuli/00001110.jpg"," ","","feedback_trial","0","","","","","","","","","","","","","","","","","","","","",""
"","","","","","image-keyboard-response","172","196424","0.0-147.0","612bb0cdecc9e45781bbf511","665500ab8938657b03fbdba8","6657927a04f7a32c8a3aad71","469","stimuli/1110001.jpg","1","","prediction_trial","0","","false","","1","true","true","false","false","false","false","[0,1]","110","001","0","","","","","","",""
"","","","","","image-keyboard-response","173","196826","0.0-148.0","612bb0cdecc9e45781bbf511","665500ab8938657b03fbdba8","6657927a04f7a32c8a3aad71","399","stimuli/11100010.jpg"," ","","feedback_trial","0","","","","","","","","","","","","","","","","","","","","",""
"","","","","","image-keyboard-response","174","197282","0.0-149.0","612bb0cdecc9e45781bbf511","665500ab8938657b03fbdba8","6657927a04f7a32c8a3aad71","454","stimuli/1100000.jpg","1","","prediction_trial","1","","true","","1","true","true","true","true","true","true","[1]","100","000","1","","","","","","",""
"","","","","","image-keyboard-response","175","197601","0.0-150.0","612bb0cdecc9e45781bbf511","665500ab8938657b03fbdba8","6657927a04f7a32c8a3aad71","317","stimuli/11000001.jpg"," ","","feedback_trial","1","","","","","","","","","","","","","","","","","","","","",""
"","","","","","image-keyboard-response","176","198338","0.0-151.0","612bb0cdecc9e45781bbf511","665500ab8938657b03fbdba8","6657927a04f7a32c8a3aad71","724","stimuli/1101110.jpg","1","","prediction_trial","1","","true","","1","false","false","true","true","false","false","[1]","101","110","1","","","","","","",""
"","","","","","image-keyboard-response","177","198690","0.0-152.0","612bb0cdecc9e45781bbf511","665500ab8938657b03fbdba8","6657927a04f7a32c8a3aad71","350","stimuli/11011101.jpg"," ","","feedback_trial","1","","","","","","","","","","","","","","","","","","","","",""
"","","","","","image-keyboard-response","178","199345","0.0-153.0","612bb0cdecc9e45781bbf511","665500ab8938657b03fbdba8","6657927a04f7a32c8a3aad71","653","stimuli/1111111.jpg","1","","prediction_trial","0","","false","","1","false","false","false","false","false","false","[2,0,1]","111","111","0","","","","","","",""
"","","","","","image-keyboard-response","179","199714","0.0-154.0","612bb0cdecc9e45781bbf511","665500ab8938657b03fbdba8","6657927a04f7a32c8a3aad71","367","stimuli/11111110.jpg"," ","","feedback_trial","2","","","","","","","","","","","","","","","","","","","","",""
"","","","","","image-keyboard-response","180","200273","0.0-155.0","612bb0cdecc9e45781bbf511","665500ab8938657b03fbdba8","6657927a04f7a32c8a3aad71","557","stimuli/2110111.jpg","1","","prediction_trial","2","","false","","2","false","false","true","true","false","false","[2]","110","111","0","","","","","","",""
"","","","","","image-keyboard-response","181","200626","0.0-156.0","612bb0cdecc9e45781bbf511","665500ab8938657b03fbdba8","6657927a04f7a32c8a3aad71","350","stimuli/21101112.jpg"," ","","feedback_trial","2","","","","","","","","","","","","","","","","","","","","",""
"","","","","","image-keyboard-response","182","201598","0.0-157.0","612bb0cdecc9e45781bbf511","665500ab8938657b03fbdba8","6657927a04f7a32c8a3aad71","971","stimuli/2011100.jpg","2","","prediction_trial","1","","false","","2","true","true","false","false","false","false","[2,1]","011","100","0","","","","","","",""
"","","","","","image-keyboard-response","183","201882","0.0-158.0","612bb0cdecc9e45781bbf511","665500ab8938657b03fbdba8","6657927a04f7a32c8a3aad71","282","stimuli/20111001.jpg"," ","","feedback_trial","2","","","","","","","","","","","","","","","","","","","","",""
"","","","","","image-keyboard-response","184","202897","0.0-159.0","612bb0cdecc9e45781bbf511","665500ab8938657b03fbdba8","6657927a04f7a32c8a3aad71","1013","stimuli/2001101.jpg","2","","prediction_trial","2","","true","","2","false","false","false","true","false","false","[2]","001","101","1","","","","","","",""
"","","","","","image-keyboard-response","185","203394","0.0-160.0","612bb0cdecc9e45781bbf511","665500ab8938657b03fbdba8","6657927a04f7a32c8a3aad71","494","stimuli/20011012.jpg"," ","","feedback_trial","2","","","","","","","","","","","","","","","","","","","","",""
"","","","","","image-keyboard-response","186","204697","0.0-161.0","612bb0cdecc9e45781bbf511","665500ab8938657b03fbdba8","6657927a04f7a32c8a3aad71","1302","stimuli/1000100.jpg","1","","prediction_trial","1","","true","","1","true","true","true","true","true","true","[1]","000","100","1","","","","","","",""
"","","","","","image-keyboard-response","187","205041","0.0-162.0","612bb0cdecc9e45781bbf511","665500ab8938657b03fbdba8","6657927a04f7a32c8a3aad71","342","stimuli/10001001.jpg"," ","","feedback_trial","1","","","","","","","","","","","","","","","","","","","","",""
"","","","","","image-keyboard-response","188","205977","0.0-163.0","612bb0cdecc9e45781bbf511","665500ab8938657b03fbdba8","6657927a04f7a32c8a3aad71","934","stimuli/0101000.jpg","0","","prediction_trial","0","","true","","0","true","true","false","false","false","false","[0,2]","101","000","1","","","","","","",""
"","","","","","image-keyboard-response","189","206537","0.0-164.0","612bb0cdecc9e45781bbf511","665500ab8938657b03fbdba8","6657927a04f7a32c8a3aad71","557","stimuli/01010000.jpg"," ","","feedback_trial","0","","","","","","","","","","","","","","","","","","","","",""
"","","","","","image-keyboard-response","190","208082","0.0-165.0","612bb0cdecc9e45781bbf511","665500ab8938657b03fbdba8","6657927a04f7a32c8a3aad71","1543","stimuli/0111101.jpg","1","","prediction_trial","0","","false","","0","false","false","false","false","false","false","[1,2,0]","111","101","0","","","","","","",""
"","","","","","image-keyboard-response","191","208472","0.0-166.0","612bb0cdecc9e45781bbf511","665500ab8938657b03fbdba8","6657927a04f7a32c8a3aad71","388","stimuli/01111010.jpg"," ","","feedback_trial","1","","","","","","","","","","","","","","","","","","","","",""
"","","","","","image-keyboard-response","192","209033","0.0-167.0","612bb0cdecc9e45781bbf511","665500ab8938657b03fbdba8","6657927a04f7a32c8a3aad71","559","stimuli/2000100.jpg","2","","prediction_trial","2","","true","","2","true","true","true","true","true","true","[2]","000","100","1","","","","","","",""
"","","","","","image-keyboard-response","193","209465","0.0-168.0","612bb0cdecc9e45781bbf511","665500ab8938657b03fbdba8","6657927a04f7a32c8a3aad71","430","stimuli/20001002.jpg"," ","","feedback_trial","2","","","","","","","","","","","","","","","","","","","","",""
"","","","","","image-keyboard-response","194","210857","0.0-169.0","612bb0cdecc9e45781bbf511","665500ab8938657b03fbdba8","6657927a04f7a32c8a3aad71","1380","stimuli/1010011.jpg","0","","prediction_trial","1","","false","","1","false","false","false","true","false","false","[1]","010","011","0","","","","","","",""
"","","","","","image-keyboard-response","195","211593","0.0-170.0","612bb0cdecc9e45781bbf511","665500ab8938657b03fbdba8","6657927a04f7a32c8a3aad71","733","stimuli/10100111.jpg"," ","","feedback_trial","1","","","","","","","","","","","","","","","","","","","","",""
"","","","","","image-keyboard-response","196","212321","0.0-171.0","612bb0cdecc9e45781bbf511","665500ab8938657b03fbdba8","6657927a04f7a32c8a3aad71","725","stimuli/2100110.jpg","2","","prediction_trial","2","","true","","2","true","true","true","true","true","true","[2]","100","110","1","","","","","","",""
"","","","","","image-keyboard-response","197","212666","0.0-172.0","612bb0cdecc9e45781bbf511","665500ab8938657b03fbdba8","6657927a04f7a32c8a3aad71","343","stimuli/21001102.jpg"," ","","feedback_trial","2","","","","","","","","","","","","","","","","","","","","",""
"","","","","","image-keyboard-response","198","213233","0.0-173.0","612bb0cdecc9e45781bbf511","665500ab8938657b03fbdba8","6657927a04f7a32c8a3aad71","566","stimuli/2000000.jpg","2","","prediction_trial","2","","true","","2","true","true","true","true","true","true","[2]","000","000","1","","","","","","",""
"","","","","","image-keyboard-response","199","213601","0.0-174.0","612bb0cdecc9e45781bbf511","665500ab8938657b03fbdba8","6657927a04f7a32c8a3aad71","366","stimuli/20000002.jpg"," ","","feedback_trial","2","","","","","","","","","","","","","","","","","","","","",""
"","","","","","image-keyboard-response","200","214257","0.0-175.0","612bb0cdecc9e45781bbf511","665500ab8938657b03fbdba8","6657927a04f7a32c8a3aad71","653","stimuli/2111100.jpg","2","","prediction_trial","1","","false","","2","true","true","false","false","false","false","[2,0,1]","111","100","0","","","","","","",""
"","","","","","image-keyboard-response","201","214618","0.0-176.0","612bb0cdecc9e45781bbf511","665500ab8938657b03fbdba8","6657927a04f7a32c8a3aad71","359","stimuli/21111001.jpg"," ","","feedback_trial","2","","","","","","","","","","","","","","","","","","","","",""
"","","","","","image-keyboard-response","202","215105","0.0-177.0","612bb0cdecc9e45781bbf511","665500ab8938657b03fbdba8","6657927a04f7a32c8a3aad71","486","stimuli/1010100.jpg","1","","prediction_trial","1","","true","","1","true","true","false","true","false","true","[1]","010","100","1","","","","","","",""
"","","","","","image-keyboard-response","203","215489","0.0-178.0","612bb0cdecc9e45781bbf511","665500ab8938657b03fbdba8","6657927a04f7a32c8a3aad71","370","stimuli/10101001.jpg"," ","","feedback_trial","1","","","","","","","","","","","","","","","","","","","","",""
"","","","","","image-keyboard-response","204","216049","0.0-179.0","612bb0cdecc9e45781bbf511","665500ab8938657b03fbdba8","6657927a04f7a32c8a3aad71","558","stimuli/2100010.jpg","2","","prediction_trial","2","","true","","2","true","true","true","true","true","true","[2]","100","010","1","","","","","","",""
"","","","","","image-keyboard-response","205","216321","0.0-180.0","612bb0cdecc9e45781bbf511","665500ab8938657b03fbdba8","6657927a04f7a32c8a3aad71","269","stimuli/21000102.jpg"," ","","feedback_trial","2","","","","","","","","","","","","","","","","","","","","",""
"","","","","","image-keyboard-response","206","216785","0.0-181.0","612bb0cdecc9e45781bbf511","665500ab8938657b03fbdba8","6657927a04f7a32c8a3aad71","462","stimuli/1001100.jpg","1","","prediction_trial","1","","true","","1","true","true","true","true","true","true","[1]","001","100","1","","","","","","",""
"","","","","","image-keyboard-response","207","217130","0.0-182.0","612bb0cdecc9e45781bbf511","665500ab8938657b03fbdba8","6657927a04f7a32c8a3aad71","342","stimuli/10011001.jpg"," ","","feedback_trial","1","","","","","","","","","","","","","","","","","","","","",""
"","","","","","image-keyboard-response","208","217657","0.0-183.0","612bb0cdecc9e45781bbf511","665500ab8938657b03fbdba8","6657927a04f7a32c8a3aad71","526","stimuli/2011010.jpg","2","","prediction_trial","2","","true","","2","true","true","false","false","false","false","[2,1]","011","010","1","","","","","","",""
"","","","","","image-keyboard-response","209","218018","0.0-184.0","612bb0cdecc9e45781bbf511","665500ab8938657b03fbdba8","6657927a04f7a32c8a3aad71","358","stimuli/20110102.jpg"," ","","feedback_trial","2","","","","","","","","","","","","","","","","","","","","",""
"","","","","","image-keyboard-response","210","219073","0.0-185.0","612bb0cdecc9e45781bbf511","665500ab8938657b03fbdba8","6657927a04f7a32c8a3aad71","1053","stimuli/1011110.jpg","1","","prediction_trial","1","","true","","1","false","false","false","false","false","false","[2,1]","011","110","1","","","","","","",""
"","","","","","image-keyboard-response","211","219409","0.0-186.0","612bb0cdecc9e45781bbf511","665500ab8938657b03fbdba8","6657927a04f7a32c8a3aad71","334","stimuli/10111101.jpg"," ","","feedback_trial","2","","","","","","","","","","","","","","","","","","","","",""
"","","","","","image-keyboard-response","212","220513","0.0-187.0","612bb0cdecc9e45781bbf511","665500ab8938657b03fbdba8","6657927a04f7a32c8a3aad71","1088","stimuli/2111011.jpg","1","","prediction_trial","1","","true","","2","false","false","false","false","false","false","[2,0,1]","111","011","1","","","","","","",""
"","","","","","image-keyboard-response","213","221098","0.0-188.0","612bb0cdecc9e45781bbf511","665500ab8938657b03fbdba8","6657927a04f7a32c8a3aad71","582","stimuli/21110111.jpg"," ","","feedback_trial","2","","","","","","","","","","","","","","","","","","","","",""
"","","","","","image-keyboard-response","214","222369","0.0-189.0","612bb0cdecc9e45781bbf511","665500ab8938657b03fbdba8","6657927a04f7a32c8a3aad71","1269","stimuli/0100111.jpg","1","","prediction_trial","0","","false","","0","false","false","false","true","false","false","[0]","100","111","0","","","","","","",""
"","","","","","image-keyboard-response","215","222786","0.0-190.0","612bb0cdecc9e45781bbf511","665500ab8938657b03fbdba8","6657927a04f7a32c8a3aad71","415","stimuli/01001110.jpg"," ","","feedback_trial","0","","","","","","","","","","","","","","","","","","","","",""
"","","","","","image-keyboard-response","216","223737","0.0-191.0","612bb0cdecc9e45781bbf511","665500ab8938657b03fbdba8","6657927a04f7a32c8a3aad71","950","stimuli/2000011.jpg","1","","prediction_trial","2","","false","","2","false","false","true","true","false","false","[2]","000","011","0","","","","","","",""
"","","","","","image-keyboard-response","217","224129","0.0-192.0","612bb0cdecc9e45781bbf511","665500ab8938657b03fbdba8","6657927a04f7a32c8a3aad71","390","stimuli/20000112.jpg"," ","","feedback_trial","2","","","","","","","","","","","","","","","","","","","","",""
"","","","","","image-keyboard-response","218","224961","0.0-193.0","612bb0cdecc9e45781bbf511","665500ab8938657b03fbdba8","6657927a04f7a32c8a3aad71","830","stimuli/0110111.jpg","2","","prediction_trial","1","","false","","0","false","false","false","false","false","false","[1,0]","110","111","0","","","","","","",""
"","","","","","image-keyboard-response","219","225401","0.0-194.0","612bb0cdecc9e45781bbf511","665500ab8938657b03fbdba8","6657927a04f7a32c8a3aad71","438","stimuli/01101111.jpg"," ","","feedback_trial","1","","","","","","","","","","","","","","","","","","","","",""
"","","","","","image-keyboard-response","220","225921","0.0-195.0","612bb0cdecc9e45781bbf511","665500ab8938657b03fbdba8","6657927a04f7a32c8a3aad71","518","stimuli/1110010.jpg","1","","prediction_trial","0","","false","","1","false","true","false","false","false","false","[1,0]","110","010","0","","","","","","",""
"","","","","","image-keyboard-response","221","226666","0.0-196.0","612bb0cdecc9e45781bbf511","665500ab8938657b03fbdba8","6657927a04f7a32c8a3aad71","731","stimuli/11100100.jpg"," ","","feedback_trial","1","","","","","","","","","","","","","","","","","","","","",""
"","","","","","image-keyboard-response","222","227505","0.0-197.0","612bb0cdecc9e45781bbf511","665500ab8938657b03fbdba8","6657927a04f7a32c8a3aad71","837","stimuli/2000001.jpg","2","","prediction_trial","2","","true","","2","false","true","true","true","false","true","[2]","000","001","1","","","","","","",""
"","","","","","image-keyboard-response","223","227882","0.0-198.0","612bb0cdecc9e45781bbf511","665500ab8938657b03fbdba8","6657927a04f7a32c8a3aad71","375","stimuli/20000012.jpg"," ","","feedback_trial","2","","","","","","","","","","","","","","","","","","","","",""
"","","","","","image-keyboard-response","224","228745","0.0-199.0","612bb0cdecc9e45781bbf511","665500ab8938657b03fbdba8","6657927a04f7a32c8a3aad71","862","stimuli/2100011.jpg","2","","prediction_trial","2","","true","","2","false","false","true","true","false","false","[2]","100","011","1","","","","","","",""
"","","","","","image-keyboard-response","225","229090","0.0-200.0","612bb0cdecc9e45781bbf511","665500ab8938657b03fbdba8","6657927a04f7a32c8a3aad71","343","stimuli/21000112.jpg"," ","","feedback_trial","2","","","","","","","","","","","","","","","","","","","","",""
"","","","","","image-keyboard-response","226","229793","0.0-201.0","612bb0cdecc9e45781bbf511","665500ab8938657b03fbdba8","6657927a04f7a32c8a3aad71","701","stimuli/0101011.jpg","0","","prediction_trial","2","","false","","0","true","true","false","false","false","false","[0,2]","101","011","0","","","","","","",""
"","","","","","image-keyboard-response","227","230328","0.0-202.0","612bb0cdecc9e45781bbf511","665500ab8938657b03fbdba8","6657927a04f7a32c8a3aad71","533","stimuli/01010112.jpg"," ","","feedback_trial","0","","","","","","","","","","","","","","","","","","","","",""
"","","","","","image-keyboard-response","228","231839","0.0-203.0","612bb0cdecc9e45781bbf511","665500ab8938657b03fbdba8","6657927a04f7a32c8a3aad71","1508","stimuli/2110101.jpg","2","","prediction_trial","2","","true","","2","false","false","true","true","false","false","[2]","110","101","1","","","","","","",""
"","","","","","image-keyboard-response","229","232202","0.0-204.0","612bb0cdecc9e45781bbf511","665500ab8938657b03fbdba8","6657927a04f7a32c8a3aad71","361","stimuli/21101012.jpg"," ","","feedback_trial","2","","","","","","","","","","","","","","","","","","","","",""
"","","","","","image-keyboard-response","230","232761","0.0-205.0","612bb0cdecc9e45781bbf511","665500ab8938657b03fbdba8","6657927a04f7a32c8a3aad71","546","stimuli/2110010.jpg","2","","prediction_trial","2","","true","","2","true","true","true","true","true","true","[2]","110","010","1","","","","","","",""
"","","","","","image-keyboard-response","231","233082","0.0-206.0","612bb0cdecc9e45781bbf511","665500ab8938657b03fbdba8","6657927a04f7a32c8a3aad71","319","stimuli/21100102.jpg"," ","","feedback_trial","2","","","","","","","","","","","","","","","","","","","","",""
"","","","","","image-keyboard-response","232","234559","0.0-207.0","612bb0cdecc9e45781bbf511","665500ab8938657b03fbdba8","6657927a04f7a32c8a3aad71","1476","stimuli/0101101.jpg","2","","prediction_trial","0","","false","","0","false","false","false","false","false","false","[2,0]","101","101","0","","","","","","",""
"","","","","","image-keyboard-response","233","234976","0.0-208.0","612bb0cdecc9e45781bbf511","665500ab8938657b03fbdba8","6657927a04f7a32c8a3aad71","415","stimuli/01011010.jpg"," ","","feedback_trial","2","","","","","","","","","","","","","","","","","","","","",""
"","","","","","image-keyboard-response","234","235457","0.0-209.0","612bb0cdecc9e45781bbf511","665500ab8938657b03fbdba8","6657927a04f7a32c8a3aad71","479","stimuli/2001100.jpg","2","","prediction_trial","2","","true","","2","true","true","false","true","false","true","[2]","001","100","1","","","","","","",""
"","","","","","image-keyboard-response","235","235840","0.0-210.0","612bb0cdecc9e45781bbf511","665500ab8938657b03fbdba8","6657927a04f7a32c8a3aad71","381","stimuli/20011002.jpg"," ","","feedback_trial","2","","","","","","","","","","","","","","","","","","","","",""
"","","","","","image-keyboard-response","236","236401","0.0-211.0","612bb0cdecc9e45781bbf511","665500ab8938657b03fbdba8","6657927a04f7a32c8a3aad71","558","stimuli/2110110.jpg","2","","prediction_trial","2","","true","","2","true","true","true","true","true","true","[2]","110","110","1","","","","","","",""
"","","","","","image-keyboard-response","237","236729","0.0-212.0","612bb0cdecc9e45781bbf511","665500ab8938657b03fbdba8","6657927a04f7a32c8a3aad71","326","stimuli/21101102.jpg"," ","","feedback_trial","2","","","","","","","","","","","","","","","","","","","","",""
"","","","","","image-keyboard-response","238","237737","0.0-213.0","612bb0cdecc9e45781bbf511","665500ab8938657b03fbdba8","6657927a04f7a32c8a3aad71","1006","stimuli/2001001.jpg","2","","prediction_trial","2","","true","","2","false","true","false","true","false","true","[2]","001","001","1","","","","","","",""
"","","","","","image-keyboard-response","239","238081","0.0-214.0","612bb0cdecc9e45781bbf511","665500ab8938657b03fbdba8","6657927a04f7a32c8a3aad71","330","stimuli/20010012.jpg"," ","","feedback_trial","2","","","","","","","","","","","","","","","","","","","","",""
"","","","","","image-keyboard-response","240","238968","0.0-215.0","612bb0cdecc9e45781bbf511","665500ab8938657b03fbdba8","6657927a04f7a32c8a3aad71","885","stimuli/2010011.jpg","2","","prediction_trial","2","","true","","2","false","false","true","true","false","false","[2]","010","011","1","","","","","","",""
"","","","","","image-keyboard-response","241","239378","0.0-216.0","612bb0cdecc9e45781bbf511","665500ab8938657b03fbdba8","6657927a04f7a32c8a3aad71","408","stimuli/20100112.jpg"," ","","feedback_trial","2","","","","","","","","","","","","","","","","","","","","",""
"","","","","","image-keyboard-response","242","239897","0.0-217.0","612bb0cdecc9e45781bbf511","665500ab8938657b03fbdba8","6657927a04f7a32c8a3aad71","517","stimuli/2100000.jpg","2","","prediction_trial","2","","true","","2","true","true","true","true","true","true","[2]","100","000","1","","","","","","",""
"","","","","","image-keyboard-response","243","240194","0.0-218.0","612bb0cdecc9e45781bbf511","665500ab8938657b03fbdba8","6657927a04f7a32c8a3aad71","294","stimuli/21000002.jpg"," ","","feedback_trial","2","","","","","","","","","","","","","","","","","","","","",""
"","","","","","image-keyboard-response","244","240993","0.0-219.0","612bb0cdecc9e45781bbf511","665500ab8938657b03fbdba8","6657927a04f7a32c8a3aad71","797","stimuli/1101111.jpg","1","","prediction_trial","1","","true","","1","false","false","true","true","false","false","[1]","101","111","1","","","","","","",""
"","","","","","image-keyboard-response","245","241365","0.0-220.0","612bb0cdecc9e45781bbf511","665500ab8938657b03fbdba8","6657927a04f7a32c8a3aad71","358","stimuli/11011111.jpg"," ","","feedback_trial","1","","","","","","","","","","","","","","","","","","","","",""
"","","","","","image-keyboard-response","246","241956","0.0-221.0","612bb0cdecc9e45781bbf511","665500ab8938657b03fbdba8","6657927a04f7a32c8a3aad71","589","stimuli/0101001.jpg","0","","prediction_trial","2","","false","","0","true","true","false","false","false","false","[0,2]","101","001","0","","","","","","",""
"","","","","","image-keyboard-response","247","242405","0.0-222.0","612bb0cdecc9e45781bbf511","665500ab8938657b03fbdba8","6657927a04f7a32c8a3aad71","447","stimuli/01010012.jpg"," ","","feedback_trial","0","","","","","","","","","","","","","","","","","","","","",""
"","","","","","image-keyboard-response","248","243708","0.0-223.0","612bb0cdecc9e45781bbf511","665500ab8938657b03fbdba8","6657927a04f7a32c8a3aad71","1290","stimuli/0001101.jpg","0","","prediction_trial","0","","true","","0","false","false","true","true","false","false","[0]","001","101","1","","","","","","",""
"","","","","","image-keyboard-response","249","244093","0.0-224.0","612bb0cdecc9e45781bbf511","665500ab8938657b03fbdba8","6657927a04f7a32c8a3aad71","382","stimuli/00011010.jpg"," ","","feedback_trial","0","","","","","","","","","","","","","","","","","","","","",""
"","","","","","image-keyboard-response","250","244884","0.0-225.0","612bb0cdecc9e45781bbf511","665500ab8938657b03fbdba8","6657927a04f7a32c8a3aad71","790","stimuli/2100111.jpg","2","","prediction_trial","2","","true","","2","false","false","true","true","false","false","[2]","100","111","1","","","","","","",""
"","","","","","image-keyboard-response","251","245245","0.0-226.0","612bb0cdecc9e45781bbf511","665500ab8938657b03fbdba8","6657927a04f7a32c8a3aad71","358","stimuli/21001112.jpg"," ","","feedback_trial","2","","","","","","","","","","","","","","","","","","","","",""
"","","","","","image-keyboard-response","252","246077","0.0-227.0","612bb0cdecc9e45781bbf511","665500ab8938657b03fbdba8","6657927a04f7a32c8a3aad71","830","stimuli/2011101.jpg","0","","prediction_trial","2","","false","","2","false","false","false","false","false","false","[1,2]","011","101","0","","","","","","",""
"","","","","","image-keyboard-response","253","246732","0.0-228.0","612bb0cdecc9e45781bbf511","665500ab8938657b03fbdba8","6657927a04f7a32c8a3aad71","654","stimuli/20111012.jpg"," ","","feedback_trial","1","","","","","","","","","","","","","","","","","","","","",""
"","","","","","image-keyboard-response","254","247876","0.0-229.0","612bb0cdecc9e45781bbf511","665500ab8938657b03fbdba8","6657927a04f7a32c8a3aad71","1142","stimuli/2101101.jpg","0","","prediction_trial","0","","true","","2","false","false","false","false","false","false","[2,0]","101","101","1","","","","","","",""
"","","","","","image-keyboard-response","255","248230","0.0-230.0","612bb0cdecc9e45781bbf511","665500ab8938657b03fbdba8","6657927a04f7a32c8a3aad71","351","stimuli/21011010.jpg"," ","","feedback_trial","2","","","","","","","","","","","","","","","","","","","","",""
"","","","","","image-keyboard-response","256","248972","0.0-231.0","612bb0cdecc9e45781bbf511","665500ab8938657b03fbdba8","6657927a04f7a32c8a3aad71","741","stimuli/2101111.jpg","0","","prediction_trial","2","","false","","2","false","false","false","false","false","false","[0,2]","101","111","0","","","","","","",""
"","","","","","image-keyboard-response","257","249333","0.0-232.0","612bb0cdecc9e45781bbf511","665500ab8938657b03fbdba8","6657927a04f7a32c8a3aad71","348","stimuli/21011112.jpg"," ","","feedback_trial","0","","","","","","","","","","","","","","","","","","","","",""
"","","","","","image-keyboard-response","258","250125","0.0-233.0","612bb0cdecc9e45781bbf511","665500ab8938657b03fbdba8","6657927a04f7a32c8a3aad71","790","stimuli/1101001.jpg","1","","prediction_trial","1","","true","","1","true","true","true","true","true","true","[1]","101","001","1","","","","","","",""
"","","","","","image-keyboard-response","259","250469","0.0-234.0","612bb0cdecc9e45781bbf511","665500ab8938657b03fbdba8","6657927a04f7a32c8a3aad71","342","stimuli/11010011.jpg"," ","","feedback_trial","1","","","","","","","","","","","","","","","","","","","","",""
"","","","","","image-keyboard-response","260","251132","0.0-235.0","612bb0cdecc9e45781bbf511","665500ab8938657b03fbdba8","6657927a04f7a32c8a3aad71","661","stimuli/2111111.jpg","1","","prediction_trial","0","","false","","2","false","false","false","false","false","false","[1,0,2]","111","111","0","","","","","","",""
"","","","","","image-keyboard-response","261","251532","0.0-236.0","612bb0cdecc9e45781bbf511","665500ab8938657b03fbdba8","6657927a04f7a32c8a3aad71","397","stimuli/21111110.jpg"," ","","feedback_trial","1","","","","","","","","","","","","","","","","","","","","",""
"","","","","","image-keyboard-response","262","252196","0.0-237.0","612bb0cdecc9e45781bbf511","665500ab8938657b03fbdba8","6657927a04f7a32c8a3aad71","662","stimuli/1111001.jpg","1","","prediction_trial","2","","false","","1","true","true","false","false","false","false","[1,2,0]","111","001","0","","","","","","",""
"","","","","","image-keyboard-response","263","252556","0.0-238.0","612bb0cdecc9e45781bbf511","665500ab8938657b03fbdba8","6657927a04f7a32c8a3aad71","357","stimuli/11110012.jpg"," ","","feedback_trial","1","","","","","","","","","","","","","","","","","","","","",""
"","","","","","image-keyboard-response","264","253147","0.0-239.0","612bb0cdecc9e45781bbf511","665500ab8938657b03fbdba8","6657927a04f7a32c8a3aad71","589","stimuli/1011000.jpg","1","","prediction_trial","2","","false","","1","true","true","false","false","false","false","[1,2]","011","000","0","","","","","","",""
"","","","","","image-keyboard-response","265","253516","0.0-240.0","612bb0cdecc9e45781bbf511","665500ab8938657b03fbdba8","6657927a04f7a32c8a3aad71","366","stimuli/10110002.jpg"," ","","feedback_trial","1","","","","","","","","","","","","","","","","","","","","",""
"","","","","","image-keyboard-response","266","254036","0.0-241.0","612bb0cdecc9e45781bbf511","665500ab8938657b03fbdba8","6657927a04f7a32c8a3aad71","510","stimuli/1000000.jpg","1","","prediction_trial","1","","true","","1","true","true","true","true","true","true","[1]","000","000","1","","","","","","",""
"","","","","","image-keyboard-response","267","254315","0.0-242.0","612bb0cdecc9e45781bbf511","665500ab8938657b03fbdba8","6657927a04f7a32c8a3aad71","277","stimuli/10000001.jpg"," ","","feedback_trial","1","","","","","","","","","","","","","","","","","","","","",""
"","","","","","image-keyboard-response","268","254917","0.0-243.0","612bb0cdecc9e45781bbf511","665500ab8938657b03fbdba8","6657927a04f7a32c8a3aad71","600","stimuli/1111000.jpg","1","","prediction_trial","2","","false","","1","true","true","false","false","false","false","[2,0,1]","111","000","0","","","","","","",""
"","","","","","image-keyboard-response","269","255284","0.0-244.0","612bb0cdecc9e45781bbf511","665500ab8938657b03fbdba8","6657927a04f7a32c8a3aad71","366","stimuli/11110002.jpg"," ","","feedback_trial","2","","","","","","","","","","","","","","","","","","","","",""
"","","","","","image-keyboard-response","270","255908","0.0-245.0","612bb0cdecc9e45781bbf511","665500ab8938657b03fbdba8","6657927a04f7a32c8a3aad71","622","stimuli/1011011.jpg","1","","prediction_trial","1","","true","","1","false","false","false","false","false","false","[1,2]","011","011","1","","","","","","",""
"","","","","","image-keyboard-response","271","256229","0.0-246.0","612bb0cdecc9e45781bbf511","665500ab8938657b03fbdba8","6657927a04f7a32c8a3aad71","318","stimuli/10110111.jpg"," ","","feedback_trial","1","","","","","","","","","","","","","","","","","","","","",""
"","","","","","image-keyboard-response","272","256940","0.0-247.0","612bb0cdecc9e45781bbf511","665500ab8938657b03fbdba8","6657927a04f7a32c8a3aad71","710","stimuli/2101010.jpg","2","","prediction_trial","0","","false","","2","true","true","false","false","false","false","[0,2]","101","010","0","","","","","","",""
"","","","","","image-keyboard-response","273","257549","0.0-248.0","612bb0cdecc9e45781bbf511","665500ab8938657b03fbdba8","6657927a04f7a32c8a3aad71","606","stimuli/21010100.jpg"," ","","feedback_trial","0","","","","","","","","","","","","","","","","","","","","",""
"","","","","","image-keyboard-response","274","258124","0.0-249.0","612bb0cdecc9e45781bbf511","665500ab8938657b03fbdba8","6657927a04f7a32c8a3aad71","574","stimuli/1010000.jpg","1","","prediction_trial","1","","true","","1","true","true","false","true","false","true","[1]","010","000","1","","","","","","",""
"","","","","","image-keyboard-response","275","258493","0.0-250.0","612bb0cdecc9e45781bbf511","665500ab8938657b03fbdba8","6657927a04f7a32c8a3aad71","366","stimuli/10100001.jpg"," ","","feedback_trial","1","","","","","","","","","","","","","","","","","","","","",""
"","","","","","image-keyboard-response","276","259253","0.0-251.0","612bb0cdecc9e45781bbf511","665500ab8938657b03fbdba8","6657927a04f7a32c8a3aad71","757","stimuli/1110101.jpg","1","","prediction_trial","1","","true","","1","true","true","false","false","false","false","[1,0]","110","101","1","","","","","","",""
"","","","","","image-keyboard-response","277","259629","0.0-252.0","612bb0cdecc9e45781bbf511","665500ab8938657b03fbdba8","6657927a04f7a32c8a3aad71","374","stimuli/11101011.jpg"," ","","feedback_trial","1","","","","","","","","","","","","","","","","","","","","",""
"","","","","","image-keyboard-response","278","260252","0.0-253.0","612bb0cdecc9e45781bbf511","665500ab8938657b03fbdba8","6657927a04f7a32c8a3aad71","622","stimuli/0011010.jpg","0","","prediction_trial","0","","true","","0","true","true","true","true","true","true","[0]","011","010","1","","","","","","",""
"","","","","","image-keyboard-response","279","260564","0.0-254.0","612bb0cdecc9e45781bbf511","665500ab8938657b03fbdba8","6657927a04f7a32c8a3aad71","309","stimuli/00110100.jpg"," ","","feedback_trial","0","","","","","","","","","","","","","","","","","","","","",""
"","","","","","image-keyboard-response","280","261228","0.0-255.0","612bb0cdecc9e45781bbf511","665500ab8938657b03fbdba8","6657927a04f7a32c8a3aad71","662","stimuli/0111011.jpg","0","","prediction_trial","2","","false","","0","true","true","false","false","false","false","[0,2,1]","111","011","0","","","","","","",""
"","","","","","image-keyboard-response","281","261589","0.0-256.0","612bb0cdecc9e45781bbf511","665500ab8938657b03fbdba8","6657927a04f7a32c8a3aad71","359","stimuli/01110112.jpg"," ","","feedback_trial","0","","","","","","","","","","","","","","","","","","","","",""
"","","","","","image-keyboard-response","282","262547","0.0-257.0","612bb0cdecc9e45781bbf511","665500ab8938657b03fbdba8","6657927a04f7a32c8a3aad71","956","stimuli/1110011.jpg","1","","prediction_trial","0","","false","","1","false","false","false","false","false","false","[0,1]","110","011","0","","","","","","",""
"","","","","","image-keyboard-response","283","262949","0.0-258.0","612bb0cdecc9e45781bbf511","665500ab8938657b03fbdba8","6657927a04f7a32c8a3aad71","400","stimuli/11100110.jpg"," ","","feedback_trial","0","","","","","","","","","","","","","","","","","","","","",""
"","","","","","image-keyboard-response","284","265339","0.0-259.0","612bb0cdecc9e45781bbf511","665500ab8938657b03fbdba8","6657927a04f7a32c8a3aad71","2388","stimuli/2010101.jpg","2","","prediction_trial","2","","true","","2","false","false","true","true","false","false","[2]","010","101","1","","","","","","",""
"","","","","","image-keyboard-response","285","265708","0.0-260.0","612bb0cdecc9e45781bbf511","665500ab8938657b03fbdba8","6657927a04f7a32c8a3aad71","366","stimuli/20101012.jpg"," ","","feedback_trial","2","","","","","","","","","","","","","","","","","","","","",""
"","","","","","image-keyboard-response","286","266940","0.0-261.0","612bb0cdecc9e45781bbf511","665500ab8938657b03fbdba8","6657927a04f7a32c8a3aad71","1230","stimuli/2100001.jpg","2","","prediction_trial","2","","true","","2","false","true","true","true","false","true","[2]","100","001","1","","","","","","",""
"","","","","","image-keyboard-response","287","267396","0.0-262.0","612bb0cdecc9e45781bbf511","665500ab8938657b03fbdba8","6657927a04f7a32c8a3aad71","453","stimuli/21000012.jpg"," ","","feedback_trial","2","","","","","","","","","","","","","","","","","","","","",""
"","","","","","image-keyboard-response","288","268588","0.0-263.0","612bb0cdecc9e45781bbf511","665500ab8938657b03fbdba8","6657927a04f7a32c8a3aad71","1189","stimuli/1110111.jpg","2","","prediction_trial","1","","false","","1","false","false","false","false","false","false","[1,0]","110","111","0","","","","","","",""
"","","","","","image-keyboard-response","289","269060","0.0-264.0","612bb0cdecc9e45781bbf511","665500ab8938657b03fbdba8","6657927a04f7a32c8a3aad71","470","stimuli/11101111.jpg"," ","","feedback_trial","1","","","","","","","","","","","","","","","","","","","","",""
"","","","","","image-keyboard-response","290","269852","0.0-265.0","612bb0cdecc9e45781bbf511","665500ab8938657b03fbdba8","6657927a04f7a32c8a3aad71","790","stimuli/0100100.jpg","0","","prediction_trial","0","","true","","0","false","true","false","true","false","true","[0]","100","100","1","","","","","","",""
"","","","","","image-keyboard-response","291","270212","0.0-266.0","612bb0cdecc9e45781bbf511","665500ab8938657b03fbdba8","6657927a04f7a32c8a3aad71","358","stimuli/01001000.jpg"," ","","feedback_trial","0","","","","","","","","","","","","","","","","","","","","",""
"","","","","","image-keyboard-response","292","270821","0.0-267.0","612bb0cdecc9e45781bbf511","665500ab8938657b03fbdba8","6657927a04f7a32c8a3aad71","606","stimuli/2101110.jpg","2","","prediction_trial","0","","false","","2","true","true","false","false","false","false","[0,2]","101","110","0","","","","","","",""
"","","","","","image-keyboard-response","293","271228","0.0-268.0","612bb0cdecc9e45781bbf511","665500ab8938657b03fbdba8","6657927a04f7a32c8a3aad71","395","stimuli/21011100.jpg"," ","","feedback_trial","0","","","","","","","","","","","","","","","","","","","","",""
"","","","","","image-keyboard-response","294","271804","0.0-269.0","612bb0cdecc9e45781bbf511","665500ab8938657b03fbdba8","6657927a04f7a32c8a3aad71","574","stimuli/1001000.jpg","1","","prediction_trial","1","","true","","1","true","true","true","true","true","true","[1]","001","000","1","","","","","","",""
"","","","","","image-keyboard-response","295","272148","0.0-270.0","612bb0cdecc9e45781bbf511","665500ab8938657b03fbdba8","6657927a04f7a32c8a3aad71","342","stimuli/10010001.jpg"," ","","feedback_trial","1","","","","","","","","","","","","","","","","","","","","",""
"","","","","","image-keyboard-response","296","272700","0.0-271.0","612bb0cdecc9e45781bbf511","665500ab8938657b03fbdba8","6657927a04f7a32c8a3aad71","550","stimuli/0000000.jpg","0","","prediction_trial","0","","true","","0","true","true","true","true","true","true","[0]","000","000","1","","","","","","",""
"","","","","","image-keyboard-response","297","273077","0.0-272.0","612bb0cdecc9e45781bbf511","665500ab8938657b03fbdba8","6657927a04f7a32c8a3aad71","374","stimuli/00000000.jpg"," ","","feedback_trial","0","","","","","","","","","","","","","","","","","","","","",""
"","","","","","image-keyboard-response","298","273668","0.0-273.0","612bb0cdecc9e45781bbf511","665500ab8938657b03fbdba8","6657927a04f7a32c8a3aad71","589","stimuli/0110101.jpg","2","","prediction_trial","0","","false","","0","false","false","false","false","false","false","[0,1]","110","101","0","","","","","","",""
"","","","","","image-keyboard-response","299","274077","0.0-274.0","612bb0cdecc9e45781bbf511","665500ab8938657b03fbdba8","6657927a04f7a32c8a3aad71","407","stimuli/01101010.jpg"," ","","feedback_trial","0","","","","","","","","","","","","","","","","","","","","",""
"","","","","","image-keyboard-response","300","274604","0.0-275.0","612bb0cdecc9e45781bbf511","665500ab8938657b03fbdba8","6657927a04f7a32c8a3aad71","526","stimuli/2101000.jpg","2","","prediction_trial","2","","true","","2","true","true","false","false","false","false","[0,2]","101","000","1","","","","","","",""
"","","","","","image-keyboard-response","301","275131","0.0-276.0","612bb0cdecc9e45781bbf511","665500ab8938657b03fbdba8","6657927a04f7a32c8a3aad71","525","stimuli/21010002.jpg"," ","","feedback_trial","0","","","","","","","","","","","","","","","","","","","","",""
"","","","","","image-keyboard-response","302","275996","0.0-277.0","612bb0cdecc9e45781bbf511","665500ab8938657b03fbdba8","6657927a04f7a32c8a3aad71","853","stimuli/0100010.jpg","0","","prediction_trial","0","","true","","0","true","true","false","true","false","true","[0]","100","010","1","","","","","","",""
"","","","","","image-keyboard-response","303","276324","0.0-278.0","612bb0cdecc9e45781bbf511","665500ab8938657b03fbdba8","6657927a04f7a32c8a3aad71","326","stimuli/01000100.jpg"," ","","feedback_trial","0","","","","","","","","","","","","","","","","","","","","",""
"","","","","","image-keyboard-response","304","277020","0.0-279.0","612bb0cdecc9e45781bbf511","665500ab8938657b03fbdba8","6657927a04f7a32c8a3aad71","694","stimuli/1000001.jpg","1","","prediction_trial","1","","true","","1","true","true","true","true","true","true","[1]","000","001","1","","","","","","",""
"","","","","","image-keyboard-response","305","277309","0.0-280.0","612bb0cdecc9e45781bbf511","665500ab8938657b03fbdba8","6657927a04f7a32c8a3aad71","285","stimuli/10000011.jpg"," ","","feedback_trial","1","","","","","","","","","","","","","","","","","","","","",""
"","","","","","image-keyboard-response","306","277932","0.0-281.0","612bb0cdecc9e45781bbf511","665500ab8938657b03fbdba8","6657927a04f7a32c8a3aad71","621","stimuli/1010001.jpg","1","","prediction_trial","1","","true","","1","true","true","false","true","false","true","[1]","010","001","1","","","","","","",""
"","","","","","image-keyboard-response","307","278260","0.0-282.0","612bb0cdecc9e45781bbf511","665500ab8938657b03fbdba8","6657927a04f7a32c8a3aad71","326","stimuli/10100011.jpg"," ","","feedback_trial","1","","","","","","","","","","","","","","","","","","","","",""
"","","","","","image-keyboard-response","308","278940","0.0-283.0","612bb0cdecc9e45781bbf511","665500ab8938657b03fbdba8","6657927a04f7a32c8a3aad71","677","stimuli/2011111.jpg","0","","prediction_trial","1","","false","","2","false","false","false","false","false","false","[1,2]","011","111","0","","","","","","",""
"","","","","","image-keyboard-response","309","279380","0.0-284.0","612bb0cdecc9e45781bbf511","665500ab8938657b03fbdba8","6657927a04f7a32c8a3aad71","437","stimuli/20111111.jpg"," ","","feedback_trial","1","","","","","","","","","","","","","","","","","","","","",""
"","","","","","image-keyboard-response","310","280101","0.0-285.0","612bb0cdecc9e45781bbf511","665500ab8938657b03fbdba8","6657927a04f7a32c8a3aad71","718","stimuli/2010110.jpg","2","","prediction_trial","2","","true","","2","true","true","true","true","true","true","[2]","010","110","1","","","","","","",""
"","","","","","image-keyboard-response","311","280429","0.0-286.0","612bb0cdecc9e45781bbf511","665500ab8938657b03fbdba8","6657927a04f7a32c8a3aad71","316","stimuli/20101102.jpg"," ","","feedback_trial","2","","","","","","","","","","","","","","","","","","","","",""
"","","","","","image-keyboard-response","312","281213","0.0-287.0","612bb0cdecc9e45781bbf511","665500ab8938657b03fbdba8","6657927a04f7a32c8a3aad71","781","stimuli/0110010.jpg","0","","prediction_trial","0","","true","","0","true","true","false","false","false","false","[0,1]","110","010","1","","","","","","",""
"","","","","","image-keyboard-response","313","281605","0.0-288.0","612bb0cdecc9e45781bbf511","665500ab8938657b03fbdba8","6657927a04f7a32c8a3aad71","390","stimuli/01100100.jpg"," ","","feedback_trial","0","","","","","","","","","","","","","","","","","","","","",""
"","","","","","image-keyboard-response","314","282828","0.0-289.0","612bb0cdecc9e45781bbf511","665500ab8938657b03fbdba8","6657927a04f7a32c8a3aad71","1222","stimuli/1000110.jpg","1","","prediction_trial","1","","true","","1","false","false","true","true","false","false","[1]","000","110","1","","","","","","",""
"","","","","","image-keyboard-response","315","283164","0.0-290.0","612bb0cdecc9e45781bbf511","665500ab8938657b03fbdba8","6657927a04f7a32c8a3aad71","333","stimuli/10001101.jpg"," ","","feedback_trial","1","","","","","","","","","","","","","","","","","","","","",""
"","","","","","image-keyboard-response","316","283693","0.0-291.0","612bb0cdecc9e45781bbf511","665500ab8938657b03fbdba8","6657927a04f7a32c8a3aad71","526","stimuli/2101100.jpg","2","","prediction_trial","0","","false","","2","true","true","false","false","false","false","[2,0]","101","100","0","","","","","","",""
"","","","","","image-keyboard-response","317","284101","0.0-292.0","612bb0cdecc9e45781bbf511","665500ab8938657b03fbdba8","6657927a04f7a32c8a3aad71","406","stimuli/21011000.jpg"," ","","feedback_trial","2","","","","","","","","","","","","","","","","","","","","",""
"","","","","","survey-html-form","318","301305","0.0-293.0","612bb0cdecc9e45781bbf511","665500ab8938657b03fbdba8","6657927a04f7a32c8a3aad71","17200","","{""feedback"":""No additional comments. Thanks!"",""age"":""53"",""gender"":""Male"",""other_gender"":"""",""race"":""White"",""other_race"":"""",""ethnicity"":""Non-Hispanic""}","","exit_survey","","","","","","","","","","","","","","","","No additional comments. Thanks!","53","Non-Hispanic","Male","White","0.6180555555555556","0.6180555555555556"
