"success","timeout","failed_images","failed_audio","failed_video","trial_type","trial_index","time_elapsed","internal_node_id","prolific_id","prolific_study_id","prolific_session_id","rt","stimulus","response","view_history","trial","character_choice","stimulus_dict","accuracy","correct_response","ball_pos","ego_ball_visible","ego_can_infer","alter_ball_visible","alter_can_infer","collective_ball_visible","collective_can_infer","search_locations","alter_occluders","ego_occluders","accuracy_bool","feedback","age","ethnicity","gender","race","overall_accuracy","bonus"
"true","false","[]","[]","[]","preload","0","8379","0.0-0.0","63fd36ced691b83466652931","665500ab8938657b03fbdba8","6657826cf8e33e4325fa37d9","","","","","","","","","","","","","","","","","","","","","","","","","","",""
"true","","","","","fullscreen","1","12906","0.0-1.0","63fd36ced691b83466652931","665500ab8938657b03fbdba8","6657826cf8e33e4325fa37d9","","","","","","","","","","","","","","","","","","","","","","","","","","",""
"","","","","","html-button-response","2","49238","0.0-2.0","63fd36ced691b83466652931","665500ab8938657b03fbdba8","6657826cf8e33e4325fa37d9","36330","<p><b>Consent Form</b></p> <div style=""text-align:left;background-color:lightgrey; padding:20px; max-width:900px;""><p>Please consider this information carefully before deciding whether to participate in this research.</p> <p>The purpose of this research is to examine which factors influence social judgment and decision-making. You will be asked to make judgements about individuals and actions in social scenarios. We are simply interested in your judgement. The study will take less than 1 hour to complete, and you will receive less than $20 on Prolific. Your compensation and time commitment are specified in the study description. There are no anticipated risks associated with participating in this study. The effects of participating should be comparable to those you would ordinarily experience from viewing a computer monitor and using a mouse or keyboard for a similar amount of time. At the end of the study, we will provide an explanation of the questions that motivate this line of research and will describe the potential implications. </p><p> Your participation in this study is completely voluntary and you may refuse to participate or you may choose to withdraw at any time without penalty or loss of benefits to you which are otherwise entitled. Your participation in this study will remain confidential. No personally identifiable information will be associated with your data. Also, all analyses of the data will be averaged across all the participants, so your individual responses will never be specifically analyzed. </p><p> If you have questions or concerns about your participation or payment, or want to request a summary of research findings, please contact Dr. Jonathan Phillips at Jonathan.S.Phillips@dartmouth.edu. </p><p> Please save a copy of this form for your records. </p><p><b>Agreement: </b>The nature and purpose of this research have been sufficiently explained and I agree to participate in this study. I understand that I am free to withdraw at any time without incurring any penalty. Please consent by clicking the button below to continue. Otherwise, please exit the study at any time. </p>","0","","","","","","","","","","","","","","","","","","","","","","","",""
"","","","","","instructions","3","259853","0.0-3.0-0.0","63fd36ced691b83466652931","665500ab8938657b03fbdba8","6657826cf8e33e4325fa37d9","210613","","","[{""page_index"":0,""viewing_time"":1918},{""page_index"":1,""viewing_time"":10208},{""page_index"":2,""viewing_time"":11413},{""page_index"":3,""viewing_time"":15312},{""page_index"":4,""viewing_time"":40836},{""page_index"":5,""viewing_time"":5816},{""page_index"":6,""viewing_time"":12484},{""page_index"":7,""viewing_time"":7511},{""page_index"":8,""viewing_time"":41417},{""page_index"":9,""viewing_time"":6901},{""page_index"":10,""viewing_time"":20659},{""page_index"":11,""viewing_time"":21939},{""page_index"":12,""viewing_time"":12364},{""page_index"":13,""viewing_time"":1834}]","intro","","","","","","","","","","","","","","","","","","","","","",""
"","","","","","image-keyboard-response","4","264193","0.0-3.0-1.0","63fd36ced691b83466652931","665500ab8938657b03fbdba8","6657826cf8e33e4325fa37d9","4336","stimuli/0100110.jpg","0","","prediction_practice","0","{""filepath"":""stimuli/0100110.jpg"",""ball_pos"":0,""ego_ball_visible"":false,""ego_can_infer"":false,""alter_ball_visible"":false,""alter_can_infer"":true,""collective_ball_visible"":false,""collective_can_infer"":false,""search_locations"":[0],""alter_occluders"":""100"",""ego_occluders"":""110""}","true","","","","","","","","","","","","","","","","","","",""
"","","","","","image-keyboard-response","5","268086","0.0-3.0-2.0","63fd36ced691b83466652931","665500ab8938657b03fbdba8","6657826cf8e33e4325fa37d9","3891","stimuli/01001100.jpg"," ","","practrice_feedback","0","","","","","","","","","","","","","","","","","","","","",""
"","","","","","image-keyboard-response","6","270956","0.0-3.0-3.0","63fd36ced691b83466652931","665500ab8938657b03fbdba8","6657826cf8e33e4325fa37d9","2868","stimuli/0000100.jpg","0","","prediction_practice","0","{""filepath"":""stimuli/0000100.jpg"",""ball_pos"":0,""ego_ball_visible"":false,""ego_can_infer"":true,""alter_ball_visible"":true,""alter_can_infer"":true,""collective_ball_visible"":false,""collective_can_infer"":true,""search_locations"":[0],""alter_occluders"":""000"",""ego_occluders"":""100""}","true","","","","","","","","","","","","","","","","","","",""
"","","","","","image-keyboard-response","7","273860","0.0-3.0-4.0","63fd36ced691b83466652931","665500ab8938657b03fbdba8","6657826cf8e33e4325fa37d9","2902","stimuli/00001000.jpg"," ","","practrice_feedback","0","","","","","","","","","","","","","","","","","","","","",""
"","","","","","image-keyboard-response","8","275462","0.0-3.0-5.0","63fd36ced691b83466652931","665500ab8938657b03fbdba8","6657826cf8e33e4325fa37d9","1600","stimuli/0000011.jpg","0","","prediction_practice","0","{""filepath"":""stimuli/0000011.jpg"",""ball_pos"":0,""ego_ball_visible"":true,""ego_can_infer"":true,""alter_ball_visible"":true,""alter_can_infer"":true,""collective_ball_visible"":true,""collective_can_infer"":true,""search_locations"":[0],""alter_occluders"":""000"",""ego_occluders"":""011""}","true","","","","","","","","","","","","","","","","","","",""
"","","","","","image-keyboard-response","9","277063","0.0-3.0-6.0","63fd36ced691b83466652931","665500ab8938657b03fbdba8","6657826cf8e33e4325fa37d9","1599","stimuli/00000110.jpg"," ","","practrice_feedback","0","","","","","","","","","","","","","","","","","","","","",""
"","","","","","image-keyboard-response","10","280438","0.0-3.0-7.0","63fd36ced691b83466652931","665500ab8938657b03fbdba8","6657826cf8e33e4325fa37d9","3373","stimuli/1111110.jpg","1","","prediction_practice","1","{""filepath"":""stimuli/1111110.jpg"",""ball_pos"":1,""ego_ball_visible"":false,""ego_can_infer"":false,""alter_ball_visible"":false,""alter_can_infer"":false,""collective_ball_visible"":false,""collective_can_infer"":false,""search_locations"":[0,2,1],""alter_occluders"":""111"",""ego_occluders"":""110""}","true","","","","","","","","","","","","","","","","","","",""
"","","","","","image-keyboard-response","11","283801","0.0-3.0-8.0","63fd36ced691b83466652931","665500ab8938657b03fbdba8","6657826cf8e33e4325fa37d9","3361","stimuli/11111101.jpg"," ","","practrice_feedback","0","","","","","","","","","","","","","","","","","","","","",""
"","","","","","image-keyboard-response","12","286152","0.0-3.0-9.0","63fd36ced691b83466652931","665500ab8938657b03fbdba8","6657826cf8e33e4325fa37d9","2351","stimuli/2001011.jpg","2","","prediction_practice","2","{""filepath"":""stimuli/2001011.jpg"",""ball_pos"":2,""ego_ball_visible"":false,""ego_can_infer"":false,""alter_ball_visible"":false,""alter_can_infer"":true,""collective_ball_visible"":false,""collective_can_infer"":false,""search_locations"":[2],""alter_occluders"":""001"",""ego_occluders"":""011""}","true","","","","","","","","","","","","","","","","","","",""
"","","","","","image-keyboard-response","13","288127","0.0-3.0-10.0","63fd36ced691b83466652931","665500ab8938657b03fbdba8","6657826cf8e33e4325fa37d9","1973","stimuli/20010112.jpg"," ","","practrice_feedback","2","","","","","","","","","","","","","","","","","","","","",""
"","","","","","image-keyboard-response","14","289800","0.0-3.0-11.0","63fd36ced691b83466652931","665500ab8938657b03fbdba8","6657826cf8e33e4325fa37d9","1672","stimuli/0110110.jpg","1","","prediction_practice","0","{""filepath"":""stimuli/0110110.jpg"",""ball_pos"":0,""ego_ball_visible"":false,""ego_can_infer"":false,""alter_ball_visible"":false,""alter_can_infer"":false,""collective_ball_visible"":false,""collective_can_infer"":false,""search_locations"":[0,1],""alter_occluders"":""110"",""ego_occluders"":""110""}","false","","","","","","","","","","","","","","","","","","",""
"","","","","","image-keyboard-response","15","292008","0.0-3.0-12.0","63fd36ced691b83466652931","665500ab8938657b03fbdba8","6657826cf8e33e4325fa37d9","2206","stimuli/01101100.jpg"," ","","practrice_feedback","0","","","","","","","","","","","","","","","","","","","","",""
"","","","","","image-keyboard-response","16","294068","0.0-3.0-13.0","63fd36ced691b83466652931","665500ab8938657b03fbdba8","6657826cf8e33e4325fa37d9","2058","stimuli/0100111.jpg","1","","prediction_practice","0","{""filepath"":""stimuli/0100111.jpg"",""ball_pos"":0,""ego_ball_visible"":false,""ego_can_infer"":false,""alter_ball_visible"":false,""alter_can_infer"":true,""collective_ball_visible"":false,""collective_can_infer"":false,""search_locations"":[0],""alter_occluders"":""100"",""ego_occluders"":""111""}","false","","","","","","","","","","","","","","","","","","",""
"","","","","","image-keyboard-response","17","295329","0.0-3.0-14.0","63fd36ced691b83466652931","665500ab8938657b03fbdba8","6657826cf8e33e4325fa37d9","1259","stimuli/01001110.jpg"," ","","practrice_feedback","0","","","","","","","","","","","","","","","","","","","","",""
"","","","","","image-keyboard-response","18","300975","0.0-3.0-15.0","63fd36ced691b83466652931","665500ab8938657b03fbdba8","6657826cf8e33e4325fa37d9","5645","stimuli/0010111.jpg","2","","prediction_practice","0","{""filepath"":""stimuli/0010111.jpg"",""ball_pos"":0,""ego_ball_visible"":false,""ego_can_infer"":false,""alter_ball_visible"":true,""alter_can_infer"":true,""collective_ball_visible"":false,""collective_can_infer"":false,""search_locations"":[0],""alter_occluders"":""010"",""ego_occluders"":""111""}","false","","","","","","","","","","","","","","","","","","",""
"","","","","","image-keyboard-response","19","302251","0.0-3.0-16.0","63fd36ced691b83466652931","665500ab8938657b03fbdba8","6657826cf8e33e4325fa37d9","1274","stimuli/00101110.jpg"," ","","practrice_feedback","0","","","","","","","","","","","","","","","","","","","","",""
"","","","","","image-keyboard-response","20","306505","0.0-3.0-17.0","63fd36ced691b83466652931","665500ab8938657b03fbdba8","6657826cf8e33e4325fa37d9","4252","stimuli/1011010.jpg","1","","prediction_practice","2","{""filepath"":""stimuli/1011010.jpg"",""ball_pos"":1,""ego_ball_visible"":false,""ego_can_infer"":true,""alter_ball_visible"":false,""alter_can_infer"":false,""collective_ball_visible"":false,""collective_can_infer"":false,""search_locations"":[2,1],""alter_occluders"":""011"",""ego_occluders"":""010""}","false","","","","","","","","","","","","","","","","","","",""
"","","","","","image-keyboard-response","21","307616","0.0-3.0-18.0","63fd36ced691b83466652931","665500ab8938657b03fbdba8","6657826cf8e33e4325fa37d9","1108","stimuli/10110102.jpg"," ","","practrice_feedback","2","","","","","","","","","","","","","","","","","","","","",""
"","","","","","image-keyboard-response","22","309877","0.0-3.0-19.0","63fd36ced691b83466652931","665500ab8938657b03fbdba8","6657826cf8e33e4325fa37d9","2260","stimuli/0010010.jpg","0","","prediction_practice","0","{""filepath"":""stimuli/0010010.jpg"",""ball_pos"":0,""ego_ball_visible"":true,""ego_can_infer"":true,""alter_ball_visible"":true,""alter_can_infer"":true,""collective_ball_visible"":true,""collective_can_infer"":true,""search_locations"":[0],""alter_occluders"":""010"",""ego_occluders"":""010""}","true","","","","","","","","","","","","","","","","","","",""
"","","","","","image-keyboard-response","23","310490","0.0-3.0-20.0","63fd36ced691b83466652931","665500ab8938657b03fbdba8","6657826cf8e33e4325fa37d9","611","stimuli/00100100.jpg"," ","","practrice_feedback","0","","","","","","","","","","","","","","","","","","","","",""
"","","","","","html-button-response","24","323694","0.0-3.0-21.0","63fd36ced691b83466652931","665500ab8938657b03fbdba8","6657826cf8e33e4325fa37d9","13202","Now that you've had some practice, you'll be tested with a couple of easy trials. If you correctly predict Sam's choice, you'll move on to complete the experiment!","0","","","","","","","","","","","","","","","","","","","","","","","",""
"","","","","","image-keyboard-response","25","325909","0.0-3.0-22.0-0.0","63fd36ced691b83466652931","665500ab8938657b03fbdba8","6657826cf8e33e4325fa37d9","2214","stimuli/0000011.jpg","arrowleft","","comprehension_quiz","","","true","arrowleft","","","","","","","","","","","","","","","","","",""
"","","","","","image-keyboard-response","26","328383","0.0-3.0-22.0-1.0","63fd36ced691b83466652931","665500ab8938657b03fbdba8","6657826cf8e33e4325fa37d9","2471","stimuli/00000110.jpg"," ","","comprehension_quiz","","","true"," ","","","","","","","","","","","","","","","","","",""
"","","","","","image-keyboard-response","27","330966","0.0-3.0-22.0-2.0","63fd36ced691b83466652931","665500ab8938657b03fbdba8","6657826cf8e33e4325fa37d9","2581","stimuli/1010010.jpg","arrowdown","","comprehension_quiz","","","true","arrowdown","","","","","","","","","","","","","","","","","",""
"","","","","","image-keyboard-response","28","332696","0.0-3.0-22.0-3.0","63fd36ced691b83466652931","665500ab8938657b03fbdba8","6657826cf8e33e4325fa37d9","1728","stimuli/10100101.jpg"," ","","comprehension_quiz","","","true"," ","","","","","","","","","","","","","","","","","",""
"","","","","","html-button-response","29","336363","0.0-4.0","63fd36ced691b83466652931","665500ab8938657b03fbdba8","6657826cf8e33e4325fa37d9","3665","The experiment will now begin.","0","","","","","","","","","","","","","","","","","","","","","","","",""
"","","","","","image-keyboard-response","30","341537","0.0-5.0","63fd36ced691b83466652931","665500ab8938657b03fbdba8","6657826cf8e33e4325fa37d9","5171","stimuli/1110101.jpg","1","","prediction_trial","0","","false","","1","true","true","false","false","false","false","[0,1]","110","101","0","","","","","","",""
"","","","","","image-keyboard-response","31","343813","0.0-6.0","63fd36ced691b83466652931","665500ab8938657b03fbdba8","6657826cf8e33e4325fa37d9","2274","stimuli/11101010.jpg"," ","","feedback_trial","0","","","","","","","","","","","","","","","","","","","","",""
"","","","","","image-keyboard-response","32","348455","0.0-7.0","63fd36ced691b83466652931","665500ab8938657b03fbdba8","6657826cf8e33e4325fa37d9","4640","stimuli/1111010.jpg","1","","prediction_trial","0","","false","","1","false","true","false","false","false","false","[2,1,0]","111","010","0","","","","","","",""
"","","","","","image-keyboard-response","33","349520","0.0-8.0","63fd36ced691b83466652931","665500ab8938657b03fbdba8","6657826cf8e33e4325fa37d9","1063","stimuli/11110100.jpg"," ","","feedback_trial","2","","","","","","","","","","","","","","","","","","","","",""
"","","","","","image-keyboard-response","34","350787","0.0-9.0","63fd36ced691b83466652931","665500ab8938657b03fbdba8","6657826cf8e33e4325fa37d9","1264","stimuli/1100001.jpg","1","","prediction_trial","1","","true","","1","true","true","true","true","true","true","[1]","100","001","1","","","","","","",""
"","","","","","image-keyboard-response","35","351591","0.0-10.0","63fd36ced691b83466652931","665500ab8938657b03fbdba8","6657826cf8e33e4325fa37d9","801","stimuli/11000011.jpg"," ","","feedback_trial","1","","","","","","","","","","","","","","","","","","","","",""
"","","","","","image-keyboard-response","36","355374","0.0-11.0","63fd36ced691b83466652931","665500ab8938657b03fbdba8","6657826cf8e33e4325fa37d9","3781","stimuli/1000010.jpg","1","","prediction_trial","1","","true","","1","false","true","true","true","false","true","[1]","000","010","1","","","","","","",""
"","","","","","image-keyboard-response","37","356196","0.0-12.0","63fd36ced691b83466652931","665500ab8938657b03fbdba8","6657826cf8e33e4325fa37d9","820","stimuli/10000101.jpg"," ","","feedback_trial","1","","","","","","","","","","","","","","","","","","","","",""
"","","","","","image-keyboard-response","38","360406","0.0-13.0","63fd36ced691b83466652931","665500ab8938657b03fbdba8","6657826cf8e33e4325fa37d9","4209","stimuli/2011111.jpg","2","","prediction_trial","1","","false","","2","false","false","false","false","false","false","[1,2]","011","111","0","","","","","","",""
"","","","","","image-keyboard-response","39","361307","0.0-14.0","63fd36ced691b83466652931","665500ab8938657b03fbdba8","6657826cf8e33e4325fa37d9","899","stimuli/20111111.jpg"," ","","feedback_trial","1","","","","","","","","","","","","","","","","","","","","",""
"","","","","","image-keyboard-response","40","364273","0.0-15.0","63fd36ced691b83466652931","665500ab8938657b03fbdba8","6657826cf8e33e4325fa37d9","2964","stimuli/2000111.jpg","0","","prediction_trial","2","","false","","2","false","false","true","true","false","false","[2]","000","111","0","","","","","","",""
"","","","","","image-keyboard-response","41","365218","0.0-16.0","63fd36ced691b83466652931","665500ab8938657b03fbdba8","6657826cf8e33e4325fa37d9","943","stimuli/20001112.jpg"," ","","feedback_trial","2","","","","","","","","","","","","","","","","","","","","",""
"","","","","","image-keyboard-response","42","370112","0.0-17.0","63fd36ced691b83466652931","665500ab8938657b03fbdba8","6657826cf8e33e4325fa37d9","4893","stimuli/0010100.jpg","0","","prediction_trial","0","","true","","0","false","true","true","true","false","true","[0]","010","100","1","","","","","","",""
"","","","","","image-keyboard-response","43","370774","0.0-18.0","63fd36ced691b83466652931","665500ab8938657b03fbdba8","6657826cf8e33e4325fa37d9","661","stimuli/00101000.jpg"," ","","feedback_trial","0","","","","","","","","","","","","","","","","","","","","",""
"","","","","","image-keyboard-response","44","379620","0.0-19.0","63fd36ced691b83466652931","665500ab8938657b03fbdba8","6657826cf8e33e4325fa37d9","8844","stimuli/2101011.jpg","2","","prediction_trial","2","","true","","2","false","false","false","false","false","false","[0,2]","101","011","1","","","","","","",""
"","","","","","image-keyboard-response","45","380509","0.0-20.0","63fd36ced691b83466652931","665500ab8938657b03fbdba8","6657826cf8e33e4325fa37d9","886","stimuli/21010112.jpg"," ","","feedback_trial","0","","","","","","","","","","","","","","","","","","","","",""
"","","","","","image-keyboard-response","46","388373","0.0-21.0","63fd36ced691b83466652931","665500ab8938657b03fbdba8","6657826cf8e33e4325fa37d9","7866","stimuli/2011001.jpg","2","","prediction_trial","1","","false","","2","false","true","false","false","false","false","[1,2]","011","001","0","","","","","","",""
"","","","","","image-keyboard-response","47","389196","0.0-22.0","63fd36ced691b83466652931","665500ab8938657b03fbdba8","6657826cf8e33e4325fa37d9","821","stimuli/20110011.jpg"," ","","feedback_trial","1","","","","","","","","","","","","","","","","","","","","",""
"","","","","","image-keyboard-response","48","392550","0.0-23.0","63fd36ced691b83466652931","665500ab8938657b03fbdba8","6657826cf8e33e4325fa37d9","3352","stimuli/0010111.jpg","0","","prediction_trial","0","","true","","0","false","false","true","true","false","false","[0]","010","111","1","","","","","","",""
"","","","","","image-keyboard-response","49","393283","0.0-24.0","63fd36ced691b83466652931","665500ab8938657b03fbdba8","6657826cf8e33e4325fa37d9","732","stimuli/00101110.jpg"," ","","feedback_trial","0","","","","","","","","","","","","","","","","","","","","",""
"","","","","","image-keyboard-response","50","395021","0.0-25.0","63fd36ced691b83466652931","665500ab8938657b03fbdba8","6657826cf8e33e4325fa37d9","1736","stimuli/0010001.jpg","0","","prediction_trial","0","","true","","0","true","true","true","true","true","true","[0]","010","001","1","","","","","","",""
"","","","","","image-keyboard-response","51","395508","0.0-26.0","63fd36ced691b83466652931","665500ab8938657b03fbdba8","6657826cf8e33e4325fa37d9","485","stimuli/00100010.jpg"," ","","feedback_trial","0","","","","","","","","","","","","","","","","","","","","",""
"","","","","","image-keyboard-response","52","398317","0.0-27.0","63fd36ced691b83466652931","665500ab8938657b03fbdba8","6657826cf8e33e4325fa37d9","2806","stimuli/2001011.jpg","1","","prediction_trial","2","","false","","2","false","false","false","true","false","false","[2]","001","011","0","","","","","","",""
"","","","","","image-keyboard-response","53","399003","0.0-28.0","63fd36ced691b83466652931","665500ab8938657b03fbdba8","6657826cf8e33e4325fa37d9","684","stimuli/20010112.jpg"," ","","feedback_trial","2","","","","","","","","","","","","","","","","","","","","",""
"","","","","","image-keyboard-response","54","401974","0.0-29.0","63fd36ced691b83466652931","665500ab8938657b03fbdba8","6657826cf8e33e4325fa37d9","2970","stimuli/1111011.jpg","2","","prediction_trial","0","","false","","1","false","false","false","false","false","false","[0,2,1]","111","011","0","","","","","","",""
"","","","","","image-keyboard-response","55","402552","0.0-30.0","63fd36ced691b83466652931","665500ab8938657b03fbdba8","6657826cf8e33e4325fa37d9","576","stimuli/11110110.jpg"," ","","feedback_trial","0","","","","","","","","","","","","","","","","","","","","",""
"","","","","","image-keyboard-response","56","410321","0.0-31.0","63fd36ced691b83466652931","665500ab8938657b03fbdba8","6657826cf8e33e4325fa37d9","7767","stimuli/0011100.jpg","0","","prediction_trial","0","","true","","0","false","true","true","true","false","true","[0]","011","100","1","","","","","","",""
"","","","","","image-keyboard-response","57","410892","0.0-32.0","63fd36ced691b83466652931","665500ab8938657b03fbdba8","6657826cf8e33e4325fa37d9","570","stimuli/00111000.jpg"," ","","feedback_trial","0","","","","","","","","","","","","","","","","","","","","",""
"","","","","","image-keyboard-response","58","412967","0.0-33.0","63fd36ced691b83466652931","665500ab8938657b03fbdba8","6657826cf8e33e4325fa37d9","2073","stimuli/0110000.jpg","1","","prediction_trial","1","","true","","0","true","true","false","false","false","false","[1,0]","110","000","1","","","","","","",""
"","","","","","image-keyboard-response","59","413615","0.0-34.0","63fd36ced691b83466652931","665500ab8938657b03fbdba8","6657826cf8e33e4325fa37d9","647","stimuli/01100001.jpg"," ","","feedback_trial","1","","","","","","","","","","","","","","","","","","","","",""
"","","","","","image-keyboard-response","60","415357","0.0-35.0","63fd36ced691b83466652931","665500ab8938657b03fbdba8","6657826cf8e33e4325fa37d9","1741","stimuli/1001100.jpg","1","","prediction_trial","1","","true","","1","true","true","true","true","true","true","[1]","001","100","1","","","","","","",""
"","","","","","image-keyboard-response","61","415830","0.0-36.0","63fd36ced691b83466652931","665500ab8938657b03fbdba8","6657826cf8e33e4325fa37d9","471","stimuli/10011001.jpg"," ","","feedback_trial","1","","","","","","","","","","","","","","","","","","","","",""
"","","","","","image-keyboard-response","62","419226","0.0-37.0","63fd36ced691b83466652931","665500ab8938657b03fbdba8","6657826cf8e33e4325fa37d9","3393","stimuli/2010101.jpg","0","","prediction_trial","2","","false","","2","false","false","true","true","false","false","[2]","010","101","0","","","","","","",""
"","","","","","image-keyboard-response","63","419874","0.0-38.0","63fd36ced691b83466652931","665500ab8938657b03fbdba8","6657826cf8e33e4325fa37d9","645","stimuli/20101012.jpg"," ","","feedback_trial","2","","","","","","","","","","","","","","","","","","","","",""
"","","","","","image-keyboard-response","64","422830","0.0-39.0","63fd36ced691b83466652931","665500ab8938657b03fbdba8","6657826cf8e33e4325fa37d9","2955","stimuli/2100001.jpg","2","","prediction_trial","2","","true","","2","false","true","true","true","false","true","[2]","100","001","1","","","","","","",""
"","","","","","image-keyboard-response","65","423313","0.0-40.0","63fd36ced691b83466652931","665500ab8938657b03fbdba8","6657826cf8e33e4325fa37d9","481","stimuli/21000012.jpg"," ","","feedback_trial","2","","","","","","","","","","","","","","","","","","","","",""
"","","","","","image-keyboard-response","66","426164","0.0-41.0","63fd36ced691b83466652931","665500ab8938657b03fbdba8","6657826cf8e33e4325fa37d9","2849","stimuli/2011000.jpg","2","","prediction_trial","1","","false","","2","true","true","false","false","false","false","[2,1]","011","000","0","","","","","","",""
"","","","","","image-keyboard-response","67","426702","0.0-42.0","63fd36ced691b83466652931","665500ab8938657b03fbdba8","6657826cf8e33e4325fa37d9","536","stimuli/20110001.jpg"," ","","feedback_trial","2","","","","","","","","","","","","","","","","","","","","",""
"","","","","","image-keyboard-response","68","429354","0.0-43.0","63fd36ced691b83466652931","665500ab8938657b03fbdba8","6657826cf8e33e4325fa37d9","2649","stimuli/1011100.jpg","2","","prediction_trial","1","","false","","1","true","true","false","false","false","false","[1,2]","011","100","0","","","","","","",""
"","","","","","image-keyboard-response","69","429914","0.0-44.0","63fd36ced691b83466652931","665500ab8938657b03fbdba8","6657826cf8e33e4325fa37d9","559","stimuli/10111001.jpg"," ","","feedback_trial","1","","","","","","","","","","","","","","","","","","","","",""
"","","","","","image-keyboard-response","70","434127","0.0-45.0","63fd36ced691b83466652931","665500ab8938657b03fbdba8","6657826cf8e33e4325fa37d9","4212","stimuli/2100111.jpg","0","","prediction_trial","2","","false","","2","false","false","true","true","false","false","[2]","100","111","0","","","","","","",""
"","","","","","image-keyboard-response","71","434749","0.0-46.0","63fd36ced691b83466652931","665500ab8938657b03fbdba8","6657826cf8e33e4325fa37d9","621","stimuli/21001112.jpg"," ","","feedback_trial","2","","","","","","","","","","","","","","","","","","","","",""
"","","","","","image-keyboard-response","72","435835","0.0-47.0","63fd36ced691b83466652931","665500ab8938657b03fbdba8","6657826cf8e33e4325fa37d9","1085","stimuli/0000001.jpg","0","","prediction_trial","0","","true","","0","true","true","true","true","true","true","[0]","000","001","1","","","","","","",""
"","","","","","image-keyboard-response","73","436278","0.0-48.0","63fd36ced691b83466652931","665500ab8938657b03fbdba8","6657826cf8e33e4325fa37d9","440","stimuli/00000010.jpg"," ","","feedback_trial","0","","","","","","","","","","","","","","","","","","","","",""
"","","","","","image-keyboard-response","74","437907","0.0-49.0","63fd36ced691b83466652931","665500ab8938657b03fbdba8","6657826cf8e33e4325fa37d9","1627","stimuli/1110100.jpg","1","","prediction_trial","1","","true","","1","true","true","false","false","false","false","[0,1]","110","100","1","","","","","","",""
"","","","","","image-keyboard-response","75","438451","0.0-50.0","63fd36ced691b83466652931","665500ab8938657b03fbdba8","6657826cf8e33e4325fa37d9","543","stimuli/11101001.jpg"," ","","feedback_trial","0","","","","","","","","","","","","","","","","","","","","",""
"","","","","","image-keyboard-response","76","440682","0.0-51.0","63fd36ced691b83466652931","665500ab8938657b03fbdba8","6657826cf8e33e4325fa37d9","2228","stimuli/2001000.jpg","2","","prediction_trial","2","","true","","2","true","true","false","true","false","true","[2]","001","000","1","","","","","","",""
"","","","","","image-keyboard-response","77","441261","0.0-52.0","63fd36ced691b83466652931","665500ab8938657b03fbdba8","6657826cf8e33e4325fa37d9","578","stimuli/20010002.jpg"," ","","feedback_trial","2","","","","","","","","","","","","","","","","","","","","",""
"","","","","","image-keyboard-response","78","443168","0.0-53.0","63fd36ced691b83466652931","665500ab8938657b03fbdba8","6657826cf8e33e4325fa37d9","1905","stimuli/1000011.jpg","1","","prediction_trial","1","","true","","1","false","false","true","true","false","false","[1]","000","011","1","","","","","","",""
"","","","","","image-keyboard-response","79","443671","0.0-54.0","63fd36ced691b83466652931","665500ab8938657b03fbdba8","6657826cf8e33e4325fa37d9","500","stimuli/10000111.jpg"," ","","feedback_trial","1","","","","","","","","","","","","","","","","","","","","",""
"","","","","","image-keyboard-response","80","444771","0.0-55.0","63fd36ced691b83466652931","665500ab8938657b03fbdba8","6657826cf8e33e4325fa37d9","1098","stimuli/1101101.jpg","1","","prediction_trial","1","","true","","1","true","true","true","true","true","true","[1]","101","101","1","","","","","","",""
"","","","","","image-keyboard-response","81","445152","0.0-56.0","63fd36ced691b83466652931","665500ab8938657b03fbdba8","6657826cf8e33e4325fa37d9","379","stimuli/11011011.jpg"," ","","feedback_trial","1","","","","","","","","","","","","","","","","","","","","",""
"","","","","","image-keyboard-response","82","449019","0.0-57.0","63fd36ced691b83466652931","665500ab8938657b03fbdba8","6657826cf8e33e4325fa37d9","3861","stimuli/0000111.jpg","0","","prediction_trial","0","","true","","0","false","false","true","true","false","false","[0]","000","111","1","","","","","","",""
"","","","","","image-keyboard-response","83","449586","0.0-58.0","63fd36ced691b83466652931","665500ab8938657b03fbdba8","6657826cf8e33e4325fa37d9","565","stimuli/00001110.jpg"," ","","feedback_trial","0","","","","","","","","","","","","","","","","","","","","",""
"","","","","","image-keyboard-response","84","450889","0.0-59.0","63fd36ced691b83466652931","665500ab8938657b03fbdba8","6657826cf8e33e4325fa37d9","1302","stimuli/1101000.jpg","1","","prediction_trial","1","","true","","1","true","true","true","true","true","true","[1]","101","000","1","","","","","","",""
"","","","","","image-keyboard-response","85","451484","0.0-60.0","63fd36ced691b83466652931","665500ab8938657b03fbdba8","6657826cf8e33e4325fa37d9","593","stimuli/11010001.jpg"," ","","feedback_trial","1","","","","","","","","","","","","","","","","","","","","",""
"","","","","","image-keyboard-response","86","454510","0.0-61.0","63fd36ced691b83466652931","665500ab8938657b03fbdba8","6657826cf8e33e4325fa37d9","3025","stimuli/0011111.jpg","2","","prediction_trial","0","","false","","0","false","false","true","true","false","false","[0]","011","111","0","","","","","","",""
"","","","","","image-keyboard-response","87","455227","0.0-62.0","63fd36ced691b83466652931","665500ab8938657b03fbdba8","6657826cf8e33e4325fa37d9","715","stimuli/00111110.jpg"," ","","feedback_trial","0","","","","","","","","","","","","","","","","","","","","",""
"","","","","","image-keyboard-response","88","458707","0.0-63.0","63fd36ced691b83466652931","665500ab8938657b03fbdba8","6657826cf8e33e4325fa37d9","3478","stimuli/0001111.jpg","1","","prediction_trial","0","","false","","0","false","false","true","true","false","false","[0]","001","111","0","","","","","","",""
"","","","","","image-keyboard-response","89","459304","0.0-64.0","63fd36ced691b83466652931","665500ab8938657b03fbdba8","6657826cf8e33e4325fa37d9","596","stimuli/00011110.jpg"," ","","feedback_trial","0","","","","","","","","","","","","","","","","","","","","",""
"","","","","","image-keyboard-response","90","463832","0.0-65.0","63fd36ced691b83466652931","665500ab8938657b03fbdba8","6657826cf8e33e4325fa37d9","4526","stimuli/1010011.jpg","1","","prediction_trial","1","","true","","1","false","false","false","true","false","false","[1]","010","011","1","","","","","","",""
"","","","","","image-keyboard-response","91","464359","0.0-66.0","63fd36ced691b83466652931","665500ab8938657b03fbdba8","6657826cf8e33e4325fa37d9","525","stimuli/10100111.jpg"," ","","feedback_trial","1","","","","","","","","","","","","","","","","","","","","",""
"","","","","","image-keyboard-response","92","468370","0.0-67.0","63fd36ced691b83466652931","665500ab8938657b03fbdba8","6657826cf8e33e4325fa37d9","4010","stimuli/1110010.jpg","0","","prediction_trial","1","","false","","1","false","true","false","false","false","false","[1,0]","110","010","0","","","","","","",""
"","","","","","image-keyboard-response","93","469054","0.0-68.0","63fd36ced691b83466652931","665500ab8938657b03fbdba8","6657826cf8e33e4325fa37d9","682","stimuli/11100101.jpg"," ","","feedback_trial","1","","","","","","","","","","","","","","","","","","","","",""
"","","","","","image-keyboard-response","94","473425","0.0-69.0","63fd36ced691b83466652931","665500ab8938657b03fbdba8","6657826cf8e33e4325fa37d9","4370","stimuli/0011101.jpg","1","","prediction_trial","0","","false","","0","false","false","true","true","false","false","[0]","011","101","0","","","","","","",""
"","","","","","image-keyboard-response","95","474006","0.0-70.0","63fd36ced691b83466652931","665500ab8938657b03fbdba8","6657826cf8e33e4325fa37d9","579","stimuli/00111010.jpg"," ","","feedback_trial","0","","","","","","","","","","","","","","","","","","","","",""
"","","","","","image-keyboard-response","96","475572","0.0-71.0","63fd36ced691b83466652931","665500ab8938657b03fbdba8","6657826cf8e33e4325fa37d9","1565","stimuli/1001101.jpg","1","","prediction_trial","1","","true","","1","true","true","true","true","true","true","[1]","001","101","1","","","","","","",""
"","","","","","image-keyboard-response","97","476103","0.0-72.0","63fd36ced691b83466652931","665500ab8938657b03fbdba8","6657826cf8e33e4325fa37d9","530","stimuli/10011011.jpg"," ","","feedback_trial","1","","","","","","","","","","","","","","","","","","","","",""
"","","","","","image-keyboard-response","98","478730","0.0-73.0","63fd36ced691b83466652931","665500ab8938657b03fbdba8","6657826cf8e33e4325fa37d9","2625","stimuli/0010110.jpg","0","","prediction_trial","0","","true","","0","false","false","true","true","false","false","[0]","010","110","1","","","","","","",""
"","","","","","image-keyboard-response","99","479281","0.0-74.0","63fd36ced691b83466652931","665500ab8938657b03fbdba8","6657826cf8e33e4325fa37d9","550","stimuli/00101100.jpg"," ","","feedback_trial","0","","","","","","","","","","","","","","","","","","","","",""
"","","","","","image-keyboard-response","100","482502","0.0-75.0","63fd36ced691b83466652931","665500ab8938657b03fbdba8","6657826cf8e33e4325fa37d9","3219","stimuli/2111101.jpg","2","","prediction_trial","2","","true","","2","false","false","false","false","false","false","[1,2,0]","111","101","1","","","","","","",""
"","","","","","image-keyboard-response","101","483038","0.0-76.0","63fd36ced691b83466652931","665500ab8938657b03fbdba8","6657826cf8e33e4325fa37d9","535","stimuli/21111012.jpg"," ","","feedback_trial","1","","","","","","","","","","","","","","","","","","","","",""
"","","","","","image-keyboard-response","102","486712","0.0-77.0","63fd36ced691b83466652931","665500ab8938657b03fbdba8","6657826cf8e33e4325fa37d9","3672","stimuli/2110111.jpg","2","","prediction_trial","2","","true","","2","false","false","true","true","false","false","[2]","110","111","1","","","","","","",""
"","","","","","image-keyboard-response","103","487205","0.0-78.0","63fd36ced691b83466652931","665500ab8938657b03fbdba8","6657826cf8e33e4325fa37d9","491","stimuli/21101112.jpg"," ","","feedback_trial","2","","","","","","","","","","","","","","","","","","","","",""
"","","","","","image-keyboard-response","104","492666","0.0-79.0","63fd36ced691b83466652931","665500ab8938657b03fbdba8","6657826cf8e33e4325fa37d9","5459","stimuli/0111000.jpg","1","","prediction_trial","1","","true","","0","true","true","false","false","false","false","[0,1,2]","111","000","1","","","","","","",""
"","","","","","image-keyboard-response","105","493254","0.0-80.0","63fd36ced691b83466652931","665500ab8938657b03fbdba8","6657826cf8e33e4325fa37d9","586","stimuli/01110001.jpg"," ","","feedback_trial","0","","","","","","","","","","","","","","","","","","","","",""
"","","","","","image-keyboard-response","106","496064","0.0-81.0","63fd36ced691b83466652931","665500ab8938657b03fbdba8","6657826cf8e33e4325fa37d9","2808","stimuli/0100001.jpg","0","","prediction_trial","0","","true","","0","true","true","false","true","false","true","[0]","100","001","1","","","","","","",""
"","","","","","image-keyboard-response","107","496553","0.0-82.0","63fd36ced691b83466652931","665500ab8938657b03fbdba8","6657826cf8e33e4325fa37d9","487","stimuli/01000010.jpg"," ","","feedback_trial","0","","","","","","","","","","","","","","","","","","","","",""
"","","","","","image-keyboard-response","108","501670","0.0-83.0","63fd36ced691b83466652931","665500ab8938657b03fbdba8","6657826cf8e33e4325fa37d9","5115","stimuli/0111010.jpg","1","","prediction_trial","0","","false","","0","true","true","false","false","false","false","[1,0,2]","111","010","0","","","","","","",""
"","","","","","image-keyboard-response","109","502300","0.0-84.0","63fd36ced691b83466652931","665500ab8938657b03fbdba8","6657826cf8e33e4325fa37d9","629","stimuli/01110100.jpg"," ","","feedback_trial","1","","","","","","","","","","","","","","","","","","","","",""
"","","","","","image-keyboard-response","110","504811","0.0-85.0","63fd36ced691b83466652931","665500ab8938657b03fbdba8","6657826cf8e33e4325fa37d9","2509","stimuli/1011110.jpg","0","","prediction_trial","1","","false","","1","false","false","false","false","false","false","[2,1]","011","110","0","","","","","","",""
"","","","","","image-keyboard-response","111","505339","0.0-86.0","63fd36ced691b83466652931","665500ab8938657b03fbdba8","6657826cf8e33e4325fa37d9","525","stimuli/10111101.jpg"," ","","feedback_trial","2","","","","","","","","","","","","","","","","","","","","",""
"","","","","","image-keyboard-response","112","508125","0.0-87.0","63fd36ced691b83466652931","665500ab8938657b03fbdba8","6657826cf8e33e4325fa37d9","2785","stimuli/1110111.jpg","1","","prediction_trial","0","","false","","1","false","false","false","false","false","false","[1,0]","110","111","0","","","","","","",""
"","","","","","image-keyboard-response","113","508859","0.0-88.0","63fd36ced691b83466652931","665500ab8938657b03fbdba8","6657826cf8e33e4325fa37d9","732","stimuli/11101110.jpg"," ","","feedback_trial","1","","","","","","","","","","","","","","","","","","","","",""
"","","","","","image-keyboard-response","114","510095","0.0-89.0","63fd36ced691b83466652931","665500ab8938657b03fbdba8","6657826cf8e33e4325fa37d9","1238","stimuli/0001001.jpg","0","","prediction_trial","0","","true","","0","true","true","true","true","true","true","[0]","001","001","1","","","","","","",""
"","","","","","image-keyboard-response","115","510586","0.0-90.0","63fd36ced691b83466652931","665500ab8938657b03fbdba8","6657826cf8e33e4325fa37d9","490","stimuli/00010010.jpg"," ","","feedback_trial","0","","","","","","","","","","","","","","","","","","","","",""
"","","","","","image-keyboard-response","116","513030","0.0-91.0","63fd36ced691b83466652931","665500ab8938657b03fbdba8","6657826cf8e33e4325fa37d9","2442","stimuli/0001100.jpg","0","","prediction_trial","0","","true","","0","false","true","true","true","false","true","[0]","001","100","1","","","","","","",""
"","","","","","image-keyboard-response","117","513529","0.0-92.0","63fd36ced691b83466652931","665500ab8938657b03fbdba8","6657826cf8e33e4325fa37d9","498","stimuli/00011000.jpg"," ","","feedback_trial","0","","","","","","","","","","","","","","","","","","","","",""
"","","","","","image-keyboard-response","118","515467","0.0-93.0","63fd36ced691b83466652931","665500ab8938657b03fbdba8","6657826cf8e33e4325fa37d9","1936","stimuli/2110001.jpg","2","","prediction_trial","2","","true","","2","false","true","true","true","false","true","[2]","110","001","1","","","","","","",""
"","","","","","image-keyboard-response","119","515875","0.0-94.0","63fd36ced691b83466652931","665500ab8938657b03fbdba8","6657826cf8e33e4325fa37d9","406","stimuli/21100012.jpg"," ","","feedback_trial","2","","","","","","","","","","","","","","","","","","","","",""
"","","","","","image-keyboard-response","120","517646","0.0-95.0","63fd36ced691b83466652931","665500ab8938657b03fbdba8","6657826cf8e33e4325fa37d9","1769","stimuli/2111000.jpg","1","","prediction_trial","2","","false","","2","true","true","false","false","false","false","[1,2,0]","111","000","0","","","","","","",""
"","","","","","image-keyboard-response","121","518743","0.0-96.0","63fd36ced691b83466652931","665500ab8938657b03fbdba8","6657826cf8e33e4325fa37d9","1095","stimuli/21110002.jpg"," ","","feedback_trial","1","","","","","","","","","","","","","","","","","","","","",""
"","","","","","image-keyboard-response","122","521222","0.0-97.0","63fd36ced691b83466652931","665500ab8938657b03fbdba8","6657826cf8e33e4325fa37d9","2477","stimuli/1101110.jpg","1","","prediction_trial","1","","true","","1","false","false","true","true","false","false","[1]","101","110","1","","","","","","",""
"","","","","","image-keyboard-response","123","521799","0.0-98.0","63fd36ced691b83466652931","665500ab8938657b03fbdba8","6657826cf8e33e4325fa37d9","575","stimuli/11011101.jpg"," ","","feedback_trial","1","","","","","","","","","","","","","","","","","","","","",""
"","","","","","image-keyboard-response","124","524072","0.0-99.0","63fd36ced691b83466652931","665500ab8938657b03fbdba8","6657826cf8e33e4325fa37d9","2271","stimuli/1100010.jpg","1","","prediction_trial","1","","true","","1","false","true","true","true","false","true","[1]","100","010","1","","","","","","",""
"","","","","","image-keyboard-response","125","524492","0.0-100.0","63fd36ced691b83466652931","665500ab8938657b03fbdba8","6657826cf8e33e4325fa37d9","418","stimuli/11000101.jpg"," ","","feedback_trial","1","","","","","","","","","","","","","","","","","","","","",""
"","","","","","image-keyboard-response","126","528455","0.0-101.0","63fd36ced691b83466652931","665500ab8938657b03fbdba8","6657826cf8e33e4325fa37d9","3961","stimuli/2101110.jpg","2","","prediction_trial","0","","false","","2","true","true","false","false","false","false","[2,0]","101","110","0","","","","","","",""
"","","","","","image-keyboard-response","127","529110","0.0-102.0","63fd36ced691b83466652931","665500ab8938657b03fbdba8","6657826cf8e33e4325fa37d9","653","stimuli/21011100.jpg"," ","","feedback_trial","2","","","","","","","","","","","","","","","","","","","","",""
"","","","","","image-keyboard-response","128","531766","0.0-103.0","63fd36ced691b83466652931","665500ab8938657b03fbdba8","6657826cf8e33e4325fa37d9","2653","stimuli/0000101.jpg","2","","prediction_trial","0","","false","","0","false","false","true","true","false","false","[0]","000","101","0","","","","","","",""
"","","","","","image-keyboard-response","129","532410","0.0-104.0","63fd36ced691b83466652931","665500ab8938657b03fbdba8","6657826cf8e33e4325fa37d9","642","stimuli/00001010.jpg"," ","","feedback_trial","0","","","","","","","","","","","","","","","","","","","","",""
"","","","","","image-keyboard-response","130","535473","0.0-105.0","63fd36ced691b83466652931","665500ab8938657b03fbdba8","6657826cf8e33e4325fa37d9","3061","stimuli/0111101.jpg","0","","prediction_trial","1","","false","","0","false","false","false","false","false","false","[1,2,0]","111","101","0","","","","","","",""
"","","","","","image-keyboard-response","131","536219","0.0-106.0","63fd36ced691b83466652931","665500ab8938657b03fbdba8","6657826cf8e33e4325fa37d9","744","stimuli/01111011.jpg"," ","","feedback_trial","1","","","","","","","","","","","","","","","","","","","","",""
"","","","","","image-keyboard-response","132","540008","0.0-107.0","63fd36ced691b83466652931","665500ab8938657b03fbdba8","6657826cf8e33e4325fa37d9","3788","stimuli/2111110.jpg","1","","prediction_trial","1","","true","","2","true","true","false","false","false","false","[2,0,1]","111","110","1","","","","","","",""
"","","","","","image-keyboard-response","133","540577","0.0-108.0","63fd36ced691b83466652931","665500ab8938657b03fbdba8","6657826cf8e33e4325fa37d9","567","stimuli/21111101.jpg"," ","","feedback_trial","2","","","","","","","","","","","","","","","","","","","","",""
"","","","","","image-keyboard-response","134","544242","0.0-109.0","63fd36ced691b83466652931","665500ab8938657b03fbdba8","6657826cf8e33e4325fa37d9","3663","stimuli/1110000.jpg","1","","prediction_trial","0","","false","","1","true","true","false","false","false","false","[0,1]","110","000","0","","","","","","",""
"","","","","","image-keyboard-response","135","544827","0.0-110.0","63fd36ced691b83466652931","665500ab8938657b03fbdba8","6657826cf8e33e4325fa37d9","582","stimuli/11100000.jpg"," ","","feedback_trial","0","","","","","","","","","","","","","","","","","","","","",""
"","","","","","image-keyboard-response","136","546000","0.0-111.0","63fd36ced691b83466652931","665500ab8938657b03fbdba8","6657826cf8e33e4325fa37d9","1172","stimuli/0001011.jpg","0","","prediction_trial","0","","true","","0","true","true","true","true","true","true","[0]","001","011","1","","","","","","",""
"","","","","","image-keyboard-response","137","546372","0.0-112.0","63fd36ced691b83466652931","665500ab8938657b03fbdba8","6657826cf8e33e4325fa37d9","370","stimuli/00010110.jpg"," ","","feedback_trial","0","","","","","","","","","","","","","","","","","","","","",""
"","","","","","image-keyboard-response","138","548458","0.0-113.0","63fd36ced691b83466652931","665500ab8938657b03fbdba8","6657826cf8e33e4325fa37d9","2084","stimuli/1011111.jpg","0","","prediction_trial","2","","false","","1","false","false","false","false","false","false","[1,2]","011","111","0","","","","","","",""
"","","","","","image-keyboard-response","139","549015","0.0-114.0","63fd36ced691b83466652931","665500ab8938657b03fbdba8","6657826cf8e33e4325fa37d9","556","stimuli/10111112.jpg"," ","","feedback_trial","1","","","","","","","","","","","","","","","","","","","","",""
"","","","","","image-keyboard-response","140","554090","0.0-115.0","63fd36ced691b83466652931","665500ab8938657b03fbdba8","6657826cf8e33e4325fa37d9","5073","stimuli/0110010.jpg","0","","prediction_trial","1","","false","","0","true","true","false","false","false","false","[0,1]","110","010","0","","","","","","",""
"","","","","","image-keyboard-response","141","554670","0.0-116.0","63fd36ced691b83466652931","665500ab8938657b03fbdba8","6657826cf8e33e4325fa37d9","577","stimuli/01100101.jpg"," ","","feedback_trial","0","","","","","","","","","","","","","","","","","","","","",""
"","","","","","image-keyboard-response","142","555580","0.0-117.0","63fd36ced691b83466652931","665500ab8938657b03fbdba8","6657826cf8e33e4325fa37d9","909","stimuli/0011000.jpg","0","","prediction_trial","0","","true","","0","true","true","true","true","true","true","[0]","011","000","1","","","","","","",""
"","","","","","image-keyboard-response","143","555931","0.0-118.0","63fd36ced691b83466652931","665500ab8938657b03fbdba8","6657826cf8e33e4325fa37d9","349","stimuli/00110000.jpg"," ","","feedback_trial","0","","","","","","","","","","","","","","","","","","","","",""
"","","","","","image-keyboard-response","144","556937","0.0-119.0","63fd36ced691b83466652931","665500ab8938657b03fbdba8","6657826cf8e33e4325fa37d9","1003","stimuli/1000100.jpg","1","","prediction_trial","1","","true","","1","true","true","true","true","true","true","[1]","000","100","1","","","","","","",""
"","","","","","image-keyboard-response","145","557405","0.0-120.0","63fd36ced691b83466652931","665500ab8938657b03fbdba8","6657826cf8e33e4325fa37d9","467","stimuli/10001001.jpg"," ","","feedback_trial","1","","","","","","","","","","","","","","","","","","","","",""
"","","","","","image-keyboard-response","146","559523","0.0-121.0","63fd36ced691b83466652931","665500ab8938657b03fbdba8","6657826cf8e33e4325fa37d9","2117","stimuli/1000111.jpg","2","","prediction_trial","1","","false","","1","false","false","true","true","false","false","[1]","000","111","0","","","","","","",""
"","","","","","image-keyboard-response","147","560054","0.0-122.0","63fd36ced691b83466652931","665500ab8938657b03fbdba8","6657826cf8e33e4325fa37d9","530","stimuli/10001111.jpg"," ","","feedback_trial","1","","","","","","","","","","","","","","","","","","","","",""
"","","","","","image-keyboard-response","148","563756","0.0-123.0","63fd36ced691b83466652931","665500ab8938657b03fbdba8","6657826cf8e33e4325fa37d9","3699","stimuli/2011011.jpg","1","","prediction_trial","2","","false","","2","false","false","false","false","false","false","[2,1]","011","011","0","","","","","","",""
"","","","","","image-keyboard-response","149","564342","0.0-124.0","63fd36ced691b83466652931","665500ab8938657b03fbdba8","6657826cf8e33e4325fa37d9","584","stimuli/20110112.jpg"," ","","feedback_trial","2","","","","","","","","","","","","","","","","","","","","",""
"","","","","","image-keyboard-response","150","566820","0.0-125.0","63fd36ced691b83466652931","665500ab8938657b03fbdba8","6657826cf8e33e4325fa37d9","2477","stimuli/2111001.jpg","0","","prediction_trial","0","","true","","2","false","true","false","false","false","false","[2,1,0]","111","001","1","","","","","","",""
"","","","","","image-keyboard-response","151","567284","0.0-126.0","63fd36ced691b83466652931","665500ab8938657b03fbdba8","6657826cf8e33e4325fa37d9","462","stimuli/21110010.jpg"," ","","feedback_trial","2","","","","","","","","","","","","","","","","","","","","",""
"","","","","","image-keyboard-response","152","568463","0.0-127.0","63fd36ced691b83466652931","665500ab8938657b03fbdba8","6657826cf8e33e4325fa37d9","1177","stimuli/2100010.jpg","2","","prediction_trial","2","","true","","2","true","true","true","true","true","true","[2]","100","010","1","","","","","","",""
"","","","","","image-keyboard-response","153","568893","0.0-128.0","63fd36ced691b83466652931","665500ab8938657b03fbdba8","6657826cf8e33e4325fa37d9","428","stimuli/21000102.jpg"," ","","feedback_trial","2","","","","","","","","","","","","","","","","","","","","",""
"","","","","","image-keyboard-response","154","573243","0.0-129.0","63fd36ced691b83466652931","665500ab8938657b03fbdba8","6657826cf8e33e4325fa37d9","4350","stimuli/2101001.jpg","2","","prediction_trial","2","","true","","2","false","true","false","false","false","false","[2,0]","101","001","1","","","","","","",""
"","","","","","image-keyboard-response","155","573733","0.0-130.0","63fd36ced691b83466652931","665500ab8938657b03fbdba8","6657826cf8e33e4325fa37d9","488","stimuli/21010012.jpg"," ","","feedback_trial","2","","","","","","","","","","","","","","","","","","","","",""
"","","","","","image-keyboard-response","156","574847","0.0-131.0","63fd36ced691b83466652931","665500ab8938657b03fbdba8","6657826cf8e33e4325fa37d9","1113","stimuli/0010010.jpg","0","","prediction_trial","0","","true","","0","true","true","true","true","true","true","[0]","010","010","1","","","","","","",""
"","","","","","image-keyboard-response","157","575176","0.0-132.0","63fd36ced691b83466652931","665500ab8938657b03fbdba8","6657826cf8e33e4325fa37d9","326","stimuli/00100100.jpg"," ","","feedback_trial","0","","","","","","","","","","","","","","","","","","","","",""
"","","","","","image-keyboard-response","158","576242","0.0-133.0","63fd36ced691b83466652931","665500ab8938657b03fbdba8","6657826cf8e33e4325fa37d9","1065","stimuli/0001010.jpg","0","","prediction_trial","0","","true","","0","true","true","true","true","true","true","[0]","001","010","1","","","","","","",""
"","","","","","image-keyboard-response","159","576554","0.0-134.0","63fd36ced691b83466652931","665500ab8938657b03fbdba8","6657826cf8e33e4325fa37d9","311","stimuli/00010100.jpg"," ","","feedback_trial","0","","","","","","","","","","","","","","","","","","","","",""
"","","","","","image-keyboard-response","160","578855","0.0-135.0","63fd36ced691b83466652931","665500ab8938657b03fbdba8","6657826cf8e33e4325fa37d9","2299","stimuli/2011100.jpg","2","","prediction_trial","1","","false","","2","true","true","false","false","false","false","[2,1]","011","100","0","","","","","","",""
"","","","","","image-keyboard-response","161","579526","0.0-136.0","63fd36ced691b83466652931","665500ab8938657b03fbdba8","6657826cf8e33e4325fa37d9","669","stimuli/20111001.jpg"," ","","feedback_trial","2","","","","","","","","","","","","","","","","","","","","",""
"","","","","","image-keyboard-response","162","582049","0.0-137.0","63fd36ced691b83466652931","665500ab8938657b03fbdba8","6657826cf8e33e4325fa37d9","2522","stimuli/0110100.jpg","1","","prediction_trial","0","","false","","0","false","true","false","false","false","false","[0,1]","110","100","0","","","","","","",""
"","","","","","image-keyboard-response","163","582563","0.0-138.0","63fd36ced691b83466652931","665500ab8938657b03fbdba8","6657826cf8e33e4325fa37d9","512","stimuli/01101000.jpg"," ","","feedback_trial","0","","","","","","","","","","","","","","","","","","","","",""
"","","","","","image-keyboard-response","164","585468","0.0-139.0","63fd36ced691b83466652931","665500ab8938657b03fbdba8","6657826cf8e33e4325fa37d9","2903","stimuli/0101011.jpg","2","","prediction_trial","0","","false","","0","true","true","false","false","false","false","[2,0]","101","011","0","","","","","","",""
"","","","","","image-keyboard-response","165","586210","0.0-140.0","63fd36ced691b83466652931","665500ab8938657b03fbdba8","6657826cf8e33e4325fa37d9","740","stimuli/01010110.jpg"," ","","feedback_trial","2","","","","","","","","","","","","","","","","","","","","",""
"","","","","","image-keyboard-response","166","589432","0.0-141.0","63fd36ced691b83466652931","665500ab8938657b03fbdba8","6657826cf8e33e4325fa37d9","3220","stimuli/1111101.jpg","0","","prediction_trial","0","","true","","1","true","true","false","false","false","false","[0,1,2]","111","101","1","","","","","","",""
"","","","","","image-keyboard-response","167","589937","0.0-142.0","63fd36ced691b83466652931","665500ab8938657b03fbdba8","6657826cf8e33e4325fa37d9","503","stimuli/11111010.jpg"," ","","feedback_trial","0","","","","","","","","","","","","","","","","","","","","",""
"","","","","","image-keyboard-response","168","591526","0.0-143.0","63fd36ced691b83466652931","665500ab8938657b03fbdba8","6657826cf8e33e4325fa37d9","1587","stimuli/0110111.jpg","1","","prediction_trial","1","","true","","0","false","false","false","false","false","false","[0,1]","110","111","1","","","","","","",""
"","","","","","image-keyboard-response","169","592043","0.0-144.0","63fd36ced691b83466652931","665500ab8938657b03fbdba8","6657826cf8e33e4325fa37d9","516","stimuli/01101111.jpg"," ","","feedback_trial","0","","","","","","","","","","","","","","","","","","","","",""
"","","","","","image-keyboard-response","170","596891","0.0-145.0","63fd36ced691b83466652931","665500ab8938657b03fbdba8","6657826cf8e33e4325fa37d9","4846","stimuli/2011101.jpg","0","","prediction_trial","2","","false","","2","false","false","false","false","false","false","[1,2]","011","101","0","","","","","","",""
"","","","","","image-keyboard-response","171","597764","0.0-146.0","63fd36ced691b83466652931","665500ab8938657b03fbdba8","6657826cf8e33e4325fa37d9","871","stimuli/20111012.jpg"," ","","feedback_trial","1","","","","","","","","","","","","","","","","","","","","",""
"","","","","","image-keyboard-response","172","599581","0.0-147.0","63fd36ced691b83466652931","665500ab8938657b03fbdba8","6657826cf8e33e4325fa37d9","1815","stimuli/2101101.jpg","2","","prediction_trial","0","","false","","2","false","false","false","false","false","false","[0,2]","101","101","0","","","","","","",""
"","","","","","image-keyboard-response","173","600233","0.0-148.0","63fd36ced691b83466652931","665500ab8938657b03fbdba8","6657826cf8e33e4325fa37d9","650","stimuli/21011010.jpg"," ","","feedback_trial","0","","","","","","","","","","","","","","","","","","","","",""
"","","","","","image-keyboard-response","174","603736","0.0-149.0","63fd36ced691b83466652931","665500ab8938657b03fbdba8","6657826cf8e33e4325fa37d9","3501","stimuli/2001101.jpg","2","","prediction_trial","2","","true","","2","false","false","false","true","false","false","[2]","001","101","1","","","","","","",""
"","","","","","image-keyboard-response","175","604279","0.0-150.0","63fd36ced691b83466652931","665500ab8938657b03fbdba8","6657826cf8e33e4325fa37d9","541","stimuli/20011012.jpg"," ","","feedback_trial","2","","","","","","","","","","","","","","","","","","","","",""
"","","","","","image-keyboard-response","176","606324","0.0-151.0","63fd36ced691b83466652931","665500ab8938657b03fbdba8","6657826cf8e33e4325fa37d9","2043","stimuli/1101111.jpg","0","","prediction_trial","1","","false","","1","false","false","true","true","false","false","[1]","101","111","0","","","","","","",""
"","","","","","image-keyboard-response","177","607712","0.0-152.0","63fd36ced691b83466652931","665500ab8938657b03fbdba8","6657826cf8e33e4325fa37d9","1386","stimuli/11011111.jpg"," ","","feedback_trial","1","","","","","","","","","","","","","","","","","","","","",""
"","","","","","image-keyboard-response","178","610364","0.0-153.0","63fd36ced691b83466652931","665500ab8938657b03fbdba8","6657826cf8e33e4325fa37d9","2650","stimuli/1101010.jpg","1","","prediction_trial","1","","true","","1","false","true","true","true","false","true","[1]","101","010","1","","","","","","",""
"","","","","","image-keyboard-response","179","610903","0.0-154.0","63fd36ced691b83466652931","665500ab8938657b03fbdba8","6657826cf8e33e4325fa37d9","539","stimuli/11010101.jpg"," ","","feedback_trial","1","","","","","","","","","","","","","","","","","","","","",""
"","","","","","image-keyboard-response","180","613510","0.0-155.0","63fd36ced691b83466652931","665500ab8938657b03fbdba8","6657826cf8e33e4325fa37d9","2605","stimuli/1010001.jpg","1","","prediction_trial","1","","true","","1","true","true","false","true","false","true","[1]","010","001","1","","","","","","",""
"","","","","","image-keyboard-response","181","614014","0.0-156.0","63fd36ced691b83466652931","665500ab8938657b03fbdba8","6657826cf8e33e4325fa37d9","502","stimuli/10100011.jpg"," ","","feedback_trial","1","","","","","","","","","","","","","","","","","","","","",""
"","","","","","image-keyboard-response","182","615091","0.0-157.0","63fd36ced691b83466652931","665500ab8938657b03fbdba8","6657826cf8e33e4325fa37d9","1075","stimuli/0010000.jpg","0","","prediction_trial","0","","true","","0","true","true","true","true","true","true","[0]","010","000","1","","","","","","",""
"","","","","","image-keyboard-response","183","615486","0.0-158.0","63fd36ced691b83466652931","665500ab8938657b03fbdba8","6657826cf8e33e4325fa37d9","393","stimuli/00100000.jpg"," ","","feedback_trial","0","","","","","","","","","","","","","","","","","","","","",""
"","","","","","image-keyboard-response","184","616358","0.0-159.0","63fd36ced691b83466652931","665500ab8938657b03fbdba8","6657826cf8e33e4325fa37d9","870","stimuli/0000011.jpg","0","","prediction_trial","0","","true","","0","true","true","true","true","true","true","[0]","000","011","1","","","","","","",""
"","","","","","image-keyboard-response","185","616718","0.0-160.0","63fd36ced691b83466652931","665500ab8938657b03fbdba8","6657826cf8e33e4325fa37d9","358","stimuli/00000110.jpg"," ","","feedback_trial","0","","","","","","","","","","","","","","","","","","","","",""
"","","","","","image-keyboard-response","186","620513","0.0-161.0","63fd36ced691b83466652931","665500ab8938657b03fbdba8","6657826cf8e33e4325fa37d9","3794","stimuli/2001111.jpg","1","","prediction_trial","2","","false","","2","false","false","false","true","false","false","[2]","001","111","0","","","","","","",""
"","","","","","image-keyboard-response","187","621227","0.0-162.0","63fd36ced691b83466652931","665500ab8938657b03fbdba8","6657826cf8e33e4325fa37d9","712","stimuli/20011112.jpg"," ","","feedback_trial","2","","","","","","","","","","","","","","","","","","","","",""
"","","","","","image-keyboard-response","188","622677","0.0-163.0","63fd36ced691b83466652931","665500ab8938657b03fbdba8","6657826cf8e33e4325fa37d9","1449","stimuli/2000001.jpg","2","","prediction_trial","2","","true","","2","false","true","true","true","false","true","[2]","000","001","1","","","","","","",""
"","","","","","image-keyboard-response","189","623040","0.0-164.0","63fd36ced691b83466652931","665500ab8938657b03fbdba8","6657826cf8e33e4325fa37d9","362","stimuli/20000012.jpg"," ","","feedback_trial","2","","","","","","","","","","","","","","","","","","","","",""
"","","","","","image-keyboard-response","190","624677","0.0-165.0","63fd36ced691b83466652931","665500ab8938657b03fbdba8","6657826cf8e33e4325fa37d9","1635","stimuli/1010110.jpg","0","","prediction_trial","1","","false","","1","false","false","false","true","false","false","[1]","010","110","0","","","","","","",""
"","","","","","image-keyboard-response","191","625432","0.0-166.0","63fd36ced691b83466652931","665500ab8938657b03fbdba8","6657826cf8e33e4325fa37d9","754","stimuli/10101101.jpg"," ","","feedback_trial","1","","","","","","","","","","","","","","","","","","","","",""
"","","","","","image-keyboard-response","192","627674","0.0-167.0","63fd36ced691b83466652931","665500ab8938657b03fbdba8","6657826cf8e33e4325fa37d9","2239","stimuli/1111000.jpg","0","","prediction_trial","1","","false","","1","true","true","false","false","false","false","[0,2,1]","111","000","0","","","","","","",""
"","","","","","image-keyboard-response","193","628269","0.0-168.0","63fd36ced691b83466652931","665500ab8938657b03fbdba8","6657826cf8e33e4325fa37d9","592","stimuli/11110001.jpg"," ","","feedback_trial","0","","","","","","","","","","","","","","","","","","","","",""
"","","","","","image-keyboard-response","194","629400","0.0-169.0","63fd36ced691b83466652931","665500ab8938657b03fbdba8","6657826cf8e33e4325fa37d9","1130","stimuli/1100100.jpg","1","","prediction_trial","1","","true","","1","true","true","true","true","true","true","[1]","100","100","1","","","","","","",""
"","","","","","image-keyboard-response","195","629837","0.0-170.0","63fd36ced691b83466652931","665500ab8938657b03fbdba8","6657826cf8e33e4325fa37d9","435","stimuli/11001001.jpg"," ","","feedback_trial","1","","","","","","","","","","","","","","","","","","","","",""
"","","","","","image-keyboard-response","196","630971","0.0-171.0","63fd36ced691b83466652931","665500ab8938657b03fbdba8","6657826cf8e33e4325fa37d9","1132","stimuli/0001000.jpg","0","","prediction_trial","0","","true","","0","true","true","true","true","true","true","[0]","001","000","1","","","","","","",""
"","","","","","image-keyboard-response","197","631333","0.0-172.0","63fd36ced691b83466652931","665500ab8938657b03fbdba8","6657826cf8e33e4325fa37d9","360","stimuli/00010000.jpg"," ","","feedback_trial","0","","","","","","","","","","","","","","","","","","","","",""
"","","","","","image-keyboard-response","198","632886","0.0-173.0","63fd36ced691b83466652931","665500ab8938657b03fbdba8","6657826cf8e33e4325fa37d9","1552","stimuli/1010000.jpg","1","","prediction_trial","1","","true","","1","true","true","false","true","false","true","[1]","010","000","1","","","","","","",""
"","","","","","image-keyboard-response","199","633242","0.0-174.0","63fd36ced691b83466652931","665500ab8938657b03fbdba8","6657826cf8e33e4325fa37d9","361","stimuli/10100001.jpg"," ","","feedback_trial","1","","","","","","","","","","","","","","","","","","","","",""
"","","","","","image-keyboard-response","200","634853","0.0-175.0","63fd36ced691b83466652931","665500ab8938657b03fbdba8","6657826cf8e33e4325fa37d9","1609","stimuli/1010100.jpg","1","","prediction_trial","1","","true","","1","true","true","false","true","false","true","[1]","010","100","1","","","","","","",""
"","","","","","image-keyboard-response","201","635252","0.0-176.0","63fd36ced691b83466652931","665500ab8938657b03fbdba8","6657826cf8e33e4325fa37d9","397","stimuli/10101001.jpg"," ","","feedback_trial","1","","","","","","","","","","","","","","","","","","","","",""
"","","","","","image-keyboard-response","202","638324","0.0-177.0","63fd36ced691b83466652931","665500ab8938657b03fbdba8","6657826cf8e33e4325fa37d9","3070","stimuli/0110101.jpg","2","","prediction_trial","1","","false","","0","false","false","false","false","false","false","[1,0]","110","101","0","","","","","","",""
"","","","","","image-keyboard-response","203","639827","0.0-178.0","63fd36ced691b83466652931","665500ab8938657b03fbdba8","6657826cf8e33e4325fa37d9","1501","stimuli/01101011.jpg"," ","","feedback_trial","1","","","","","","","","","","","","","","","","","","","","",""
"","","","","","image-keyboard-response","204","642388","0.0-179.0","63fd36ced691b83466652931","665500ab8938657b03fbdba8","6657826cf8e33e4325fa37d9","2560","stimuli/0100000.jpg","0","","prediction_trial","0","","true","","0","true","true","false","true","false","true","[0]","100","000","1","","","","","","",""
"","","","","","image-keyboard-response","205","642809","0.0-180.0","63fd36ced691b83466652931","665500ab8938657b03fbdba8","6657826cf8e33e4325fa37d9","420","stimuli/01000000.jpg"," ","","feedback_trial","0","","","","","","","","","","","","","","","","","","","","",""
"","","","","","image-keyboard-response","206","644751","0.0-181.0","63fd36ced691b83466652931","665500ab8938657b03fbdba8","6657826cf8e33e4325fa37d9","1941","stimuli/0000110.jpg","1","","prediction_trial","0","","false","","0","false","false","true","true","false","false","[0]","000","110","0","","","","","","",""
"","","","","","image-keyboard-response","207","645364","0.0-182.0","63fd36ced691b83466652931","665500ab8938657b03fbdba8","6657826cf8e33e4325fa37d9","611","stimuli/00001100.jpg"," ","","feedback_trial","0","","","","","","","","","","","","","","","","","","","","",""
"","","","","","image-keyboard-response","208","646723","0.0-183.0","63fd36ced691b83466652931","665500ab8938657b03fbdba8","6657826cf8e33e4325fa37d9","1357","stimuli/0011010.jpg","0","","prediction_trial","0","","true","","0","true","true","true","true","true","true","[0]","011","010","1","","","","","","",""
"","","","","","image-keyboard-response","209","647314","0.0-184.0","63fd36ced691b83466652931","665500ab8938657b03fbdba8","6657826cf8e33e4325fa37d9","590","stimuli/00110100.jpg"," ","","feedback_trial","0","","","","","","","","","","","","","","","","","","","","",""
"","","","","","image-keyboard-response","210","650355","0.0-185.0","63fd36ced691b83466652931","665500ab8938657b03fbdba8","6657826cf8e33e4325fa37d9","3039","stimuli/0111100.jpg","1","","prediction_trial","2","","false","","0","false","true","false","false","false","false","[2,1,0]","111","100","0","","","","","","",""
"","","","","","image-keyboard-response","211","650938","0.0-186.0","63fd36ced691b83466652931","665500ab8938657b03fbdba8","6657826cf8e33e4325fa37d9","580","stimuli/01111002.jpg"," ","","feedback_trial","2","","","","","","","","","","","","","","","","","","","","",""
"","","","","","image-keyboard-response","212","653268","0.0-187.0","63fd36ced691b83466652931","665500ab8938657b03fbdba8","6657826cf8e33e4325fa37d9","2329","stimuli/2111111.jpg","0","","prediction_trial","1","","false","","2","false","false","false","false","false","false","[2,1,0]","111","111","0","","","","","","",""
"","","","","","image-keyboard-response","213","653885","0.0-188.0","63fd36ced691b83466652931","665500ab8938657b03fbdba8","6657826cf8e33e4325fa37d9","615","stimuli/21111111.jpg"," ","","feedback_trial","2","","","","","","","","","","","","","","","","","","","","",""
"","","","","","image-keyboard-response","214","655253","0.0-189.0","63fd36ced691b83466652931","665500ab8938657b03fbdba8","6657826cf8e33e4325fa37d9","1366","stimuli/1000000.jpg","1","","prediction_trial","1","","true","","1","true","true","true","true","true","true","[1]","000","000","1","","","","","","",""
"","","","","","image-keyboard-response","215","655822","0.0-190.0","63fd36ced691b83466652931","665500ab8938657b03fbdba8","6657826cf8e33e4325fa37d9","567","stimuli/10000001.jpg"," ","","feedback_trial","1","","","","","","","","","","","","","","","","","","","","",""
"","","","","","image-keyboard-response","216","659706","0.0-191.0","63fd36ced691b83466652931","665500ab8938657b03fbdba8","6657826cf8e33e4325fa37d9","3883","stimuli/0001101.jpg","0","","prediction_trial","0","","true","","0","false","false","true","true","false","false","[0]","001","101","1","","","","","","",""
"","","","","","image-keyboard-response","217","660215","0.0-192.0","63fd36ced691b83466652931","665500ab8938657b03fbdba8","6657826cf8e33e4325fa37d9","506","stimuli/00011010.jpg"," ","","feedback_trial","0","","","","","","","","","","","","","","","","","","","","",""
"","","","","","image-keyboard-response","218","664745","0.0-193.0","63fd36ced691b83466652931","665500ab8938657b03fbdba8","6657826cf8e33e4325fa37d9","4528","stimuli/1110011.jpg","1","","prediction_trial","0","","false","","1","false","false","false","false","false","false","[0,1]","110","011","0","","","","","","",""
"","","","","","image-keyboard-response","219","666253","0.0-194.0","63fd36ced691b83466652931","665500ab8938657b03fbdba8","6657826cf8e33e4325fa37d9","1505","stimuli/11100110.jpg"," ","","feedback_trial","0","","","","","","","","","","","","","","","","","","","","",""
"","","","","","image-keyboard-response","220","670002","0.0-195.0","63fd36ced691b83466652931","665500ab8938657b03fbdba8","6657826cf8e33e4325fa37d9","3747","stimuli/2111011.jpg","2","","prediction_trial","0","","false","","2","false","false","false","false","false","false","[2,0,1]","111","011","0","","","","","","",""
"","","","","","image-keyboard-response","221","670980","0.0-196.0","63fd36ced691b83466652931","665500ab8938657b03fbdba8","6657826cf8e33e4325fa37d9","976","stimuli/21110110.jpg"," ","","feedback_trial","2","","","","","","","","","","","","","","","","","","","","",""
"","","","","","image-keyboard-response","222","675812","0.0-197.0","63fd36ced691b83466652931","665500ab8938657b03fbdba8","6657826cf8e33e4325fa37d9","4830","stimuli/0100110.jpg","1","","prediction_trial","0","","false","","0","false","false","false","true","false","false","[0]","100","110","0","","","","","","",""
"","","","","","image-keyboard-response","223","676495","0.0-198.0","63fd36ced691b83466652931","665500ab8938657b03fbdba8","6657826cf8e33e4325fa37d9","682","stimuli/01001100.jpg"," ","","feedback_trial","0","","","","","","","","","","","","","","","","","","","","",""
"","","","","","image-keyboard-response","224","677496","0.0-199.0","63fd36ced691b83466652931","665500ab8938657b03fbdba8","6657826cf8e33e4325fa37d9","999","stimuli/2100000.jpg","2","","prediction_trial","2","","true","","2","true","true","true","true","true","true","[2]","100","000","1","","","","","","",""
"","","","","","image-keyboard-response","225","677962","0.0-200.0","63fd36ced691b83466652931","665500ab8938657b03fbdba8","6657826cf8e33e4325fa37d9","464","stimuli/21000002.jpg"," ","","feedback_trial","2","","","","","","","","","","","","","","","","","","","","",""
"","","","","","image-keyboard-response","226","679462","0.0-201.0","63fd36ced691b83466652931","665500ab8938657b03fbdba8","6657826cf8e33e4325fa37d9","1498","stimuli/0111011.jpg","1","","prediction_trial","1","","true","","0","true","true","false","false","false","false","[0,1,2]","111","011","1","","","","","","",""
"","","","","","image-keyboard-response","227","680061","0.0-202.0","63fd36ced691b83466652931","665500ab8938657b03fbdba8","6657826cf8e33e4325fa37d9","597","stimuli/01110111.jpg"," ","","feedback_trial","0","","","","","","","","","","","","","","","","","","","","",""
"","","","","","image-keyboard-response","228","681695","0.0-203.0","63fd36ced691b83466652931","665500ab8938657b03fbdba8","6657826cf8e33e4325fa37d9","1633","stimuli/1001110.jpg","1","","prediction_trial","1","","true","","1","false","false","true","true","false","false","[1]","001","110","1","","","","","","",""
"","","","","","image-keyboard-response","229","682177","0.0-204.0","63fd36ced691b83466652931","665500ab8938657b03fbdba8","6657826cf8e33e4325fa37d9","480","stimuli/10011101.jpg"," ","","feedback_trial","1","","","","","","","","","","","","","","","","","","","","",""
"","","","","","image-keyboard-response","230","683419","0.0-205.0","63fd36ced691b83466652931","665500ab8938657b03fbdba8","6657826cf8e33e4325fa37d9","1241","stimuli/0100011.jpg","0","","prediction_trial","0","","true","","0","true","true","false","true","false","true","[0]","100","011","1","","","","","","",""
"","","","","","image-keyboard-response","231","683820","0.0-206.0","63fd36ced691b83466652931","665500ab8938657b03fbdba8","6657826cf8e33e4325fa37d9","400","stimuli/01000110.jpg"," ","","feedback_trial","0","","","","","","","","","","","","","","","","","","","","",""
"","","","","","image-keyboard-response","232","684871","0.0-207.0","63fd36ced691b83466652931","665500ab8938657b03fbdba8","6657826cf8e33e4325fa37d9","1049","stimuli/2110100.jpg","2","","prediction_trial","2","","true","","2","true","true","true","true","true","true","[2]","110","100","1","","","","","","",""
"","","","","","image-keyboard-response","233","685334","0.0-208.0","63fd36ced691b83466652931","665500ab8938657b03fbdba8","6657826cf8e33e4325fa37d9","460","stimuli/21101002.jpg"," ","","feedback_trial","2","","","","","","","","","","","","","","","","","","","","",""
"","","","","","image-keyboard-response","234","688176","0.0-209.0","63fd36ced691b83466652931","665500ab8938657b03fbdba8","6657826cf8e33e4325fa37d9","2841","stimuli/2010111.jpg","0","","prediction_trial","2","","false","","2","false","false","true","true","false","false","[2]","010","111","0","","","","","","",""
"","","","","","image-keyboard-response","235","688874","0.0-210.0","63fd36ced691b83466652931","665500ab8938657b03fbdba8","6657826cf8e33e4325fa37d9","697","stimuli/20101112.jpg"," ","","feedback_trial","2","","","","","","","","","","","","","","","","","","","","",""
"","","","","","image-keyboard-response","236","692197","0.0-211.0","63fd36ced691b83466652931","665500ab8938657b03fbdba8","6657826cf8e33e4325fa37d9","3321","stimuli/1111100.jpg","0","","prediction_trial","0","","true","","1","true","true","false","false","false","false","[1,2,0]","111","100","1","","","","","","",""
"","","","","","image-keyboard-response","237","692668","0.0-212.0","63fd36ced691b83466652931","665500ab8938657b03fbdba8","6657826cf8e33e4325fa37d9","470","stimuli/11111000.jpg"," ","","feedback_trial","1","","","","","","","","","","","","","","","","","","","","",""
"","","","","","image-keyboard-response","238","695991","0.0-213.0","63fd36ced691b83466652931","665500ab8938657b03fbdba8","6657826cf8e33e4325fa37d9","3306","stimuli/1001011.jpg","2","","prediction_trial","1","","false","","1","false","false","true","true","false","false","[1]","001","011","0","","","","","","",""
"","","","","","image-keyboard-response","239","696577","0.0-214.0","63fd36ced691b83466652931","665500ab8938657b03fbdba8","6657826cf8e33e4325fa37d9","584","stimuli/10010111.jpg"," ","","feedback_trial","1","","","","","","","","","","","","","","","","","","","","",""
"","","","","","image-keyboard-response","240","699795","0.0-215.0","63fd36ced691b83466652931","665500ab8938657b03fbdba8","6657826cf8e33e4325fa37d9","3216","stimuli/2010011.jpg","1","","prediction_trial","2","","false","","2","false","false","true","true","false","false","[2]","010","011","0","","","","","","",""
"","","","","","image-keyboard-response","241","700308","0.0-216.0","63fd36ced691b83466652931","665500ab8938657b03fbdba8","6657826cf8e33e4325fa37d9","511","stimuli/20100112.jpg"," ","","feedback_trial","2","","","","","","","","","","","","","","","","","","","","",""
"","","","","","image-keyboard-response","242","701040","0.0-217.0","63fd36ced691b83466652931","665500ab8938657b03fbdba8","6657826cf8e33e4325fa37d9","729","stimuli/2110010.jpg","2","","prediction_trial","2","","true","","2","true","true","true","true","true","true","[2]","110","010","1","","","","","","",""
"","","","","","image-keyboard-response","243","701505","0.0-218.0","63fd36ced691b83466652931","665500ab8938657b03fbdba8","6657826cf8e33e4325fa37d9","463","stimuli/21100102.jpg"," ","","feedback_trial","2","","","","","","","","","","","","","","","","","","","","",""
"","","","","","image-keyboard-response","244","703616","0.0-219.0","63fd36ced691b83466652931","665500ab8938657b03fbdba8","6657826cf8e33e4325fa37d9","2109","stimuli/0111110.jpg","0","","prediction_trial","0","","true","","0","false","false","false","false","false","false","[2,0,1]","111","110","1","","","","","","",""
"","","","","","image-keyboard-response","245","704063","0.0-220.0","63fd36ced691b83466652931","665500ab8938657b03fbdba8","6657826cf8e33e4325fa37d9","446","stimuli/01111100.jpg"," ","","feedback_trial","2","","","","","","","","","","","","","","","","","","","","",""
"","","","","","image-keyboard-response","246","707944","0.0-221.0","63fd36ced691b83466652931","665500ab8938657b03fbdba8","6657826cf8e33e4325fa37d9","3878","stimuli/1111001.jpg","2","","prediction_trial","0","","false","","1","true","true","false","false","false","false","[0,2,1]","111","001","0","","","","","","",""
"","","","","","image-keyboard-response","247","708879","0.0-222.0","63fd36ced691b83466652931","665500ab8938657b03fbdba8","6657826cf8e33e4325fa37d9","933","stimuli/11110010.jpg"," ","","feedback_trial","0","","","","","","","","","","","","","","","","","","","","",""
"","","","","","image-keyboard-response","248","711738","0.0-223.0","63fd36ced691b83466652931","665500ab8938657b03fbdba8","6657826cf8e33e4325fa37d9","2858","stimuli/1101011.jpg","2","","prediction_trial","1","","false","","1","false","false","true","true","false","false","[1]","101","011","0","","","","","","",""
"","","","","","image-keyboard-response","249","712423","0.0-224.0","63fd36ced691b83466652931","665500ab8938657b03fbdba8","6657826cf8e33e4325fa37d9","683","stimuli/11010111.jpg"," ","","feedback_trial","1","","","","","","","","","","","","","","","","","","","","",""
"","","","","","image-keyboard-response","250","714763","0.0-225.0","63fd36ced691b83466652931","665500ab8938657b03fbdba8","6657826cf8e33e4325fa37d9","2339","stimuli/2101010.jpg","2","","prediction_trial","2","","true","","2","true","true","false","false","false","false","[0,2]","101","010","1","","","","","","",""
"","","","","","image-keyboard-response","251","715255","0.0-226.0","63fd36ced691b83466652931","665500ab8938657b03fbdba8","6657826cf8e33e4325fa37d9","490","stimuli/21010102.jpg"," ","","feedback_trial","0","","","","","","","","","","","","","","","","","","","","",""
"","","","","","image-keyboard-response","252","718171","0.0-227.0","63fd36ced691b83466652931","665500ab8938657b03fbdba8","6657826cf8e33e4325fa37d9","2914","stimuli/0010101.jpg","0","","prediction_trial","0","","true","","0","false","false","true","true","false","false","[0]","010","101","1","","","","","","",""
"","","","","","image-keyboard-response","253","718650","0.0-228.0","63fd36ced691b83466652931","665500ab8938657b03fbdba8","6657826cf8e33e4325fa37d9","478","stimuli/00101010.jpg"," ","","feedback_trial","0","","","","","","","","","","","","","","","","","","","","",""
"","","","","","image-keyboard-response","254","719943","0.0-229.0","63fd36ced691b83466652931","665500ab8938657b03fbdba8","6657826cf8e33e4325fa37d9","1291","stimuli/2010110.jpg","2","","prediction_trial","2","","true","","2","true","true","true","true","true","true","[2]","010","110","1","","","","","","",""
"","","","","","image-keyboard-response","255","720301","0.0-230.0","63fd36ced691b83466652931","665500ab8938657b03fbdba8","6657826cf8e33e4325fa37d9","355","stimuli/20101102.jpg"," ","","feedback_trial","2","","","","","","","","","","","","","","","","","","","","",""
"","","","","","image-keyboard-response","256","721624","0.0-231.0","63fd36ced691b83466652931","665500ab8938657b03fbdba8","6657826cf8e33e4325fa37d9","1322","stimuli/2100110.jpg","2","","prediction_trial","2","","true","","2","true","true","true","true","true","true","[2]","100","110","1","","","","","","",""
"","","","","","image-keyboard-response","257","722040","0.0-232.0","63fd36ced691b83466652931","665500ab8938657b03fbdba8","6657826cf8e33e4325fa37d9","414","stimuli/21001102.jpg"," ","","feedback_trial","2","","","","","","","","","","","","","","","","","","","","",""
"","","","","","image-keyboard-response","258","728582","0.0-233.0","63fd36ced691b83466652931","665500ab8938657b03fbdba8","6657826cf8e33e4325fa37d9","6540","stimuli/2100101.jpg","2","","prediction_trial","2","","true","","2","false","false","true","true","false","false","[2]","100","101","1","","","","","","",""
"","","","","","image-keyboard-response","259","729106","0.0-234.0","63fd36ced691b83466652931","665500ab8938657b03fbdba8","6657826cf8e33e4325fa37d9","522","stimuli/21001012.jpg"," ","","feedback_trial","2","","","","","","","","","","","","","","","","","","","","",""
"","","","","","image-keyboard-response","260","731233","0.0-235.0","63fd36ced691b83466652931","665500ab8938657b03fbdba8","6657826cf8e33e4325fa37d9","2125","stimuli/1011101.jpg","1","","prediction_trial","1","","true","","1","true","true","false","false","false","false","[2,1]","011","101","1","","","","","","",""
"","","","","","image-keyboard-response","261","731758","0.0-236.0","63fd36ced691b83466652931","665500ab8938657b03fbdba8","6657826cf8e33e4325fa37d9","523","stimuli/10111011.jpg"," ","","feedback_trial","2","","","","","","","","","","","","","","","","","","","","",""
"","","","","","image-keyboard-response","262","732927","0.0-237.0","63fd36ced691b83466652931","665500ab8938657b03fbdba8","6657826cf8e33e4325fa37d9","1168","stimuli/1001000.jpg","1","","prediction_trial","1","","true","","1","true","true","true","true","true","true","[1]","001","000","1","","","","","","",""
"","","","","","image-keyboard-response","263","733441","0.0-238.0","63fd36ced691b83466652931","665500ab8938657b03fbdba8","6657826cf8e33e4325fa37d9","512","stimuli/10010001.jpg"," ","","feedback_trial","1","","","","","","","","","","","","","","","","","","","","",""
"","","","","","image-keyboard-response","264","735179","0.0-239.0","63fd36ced691b83466652931","665500ab8938657b03fbdba8","6657826cf8e33e4325fa37d9","1736","stimuli/1011011.jpg","1","","prediction_trial","1","","true","","1","false","false","false","false","false","false","[1,2]","011","011","1","","","","","","",""
"","","","","","image-keyboard-response","265","735671","0.0-240.0","63fd36ced691b83466652931","665500ab8938657b03fbdba8","6657826cf8e33e4325fa37d9","490","stimuli/10110111.jpg"," ","","feedback_trial","1","","","","","","","","","","","","","","","","","","","","",""
"","","","","","image-keyboard-response","266","741185","0.0-241.0","63fd36ced691b83466652931","665500ab8938657b03fbdba8","6657826cf8e33e4325fa37d9","5513","stimuli/1100111.jpg","0","","prediction_trial","1","","false","","1","false","false","true","true","false","false","[1]","100","111","0","","","","","","",""
"","","","","","image-keyboard-response","267","741778","0.0-242.0","63fd36ced691b83466652931","665500ab8938657b03fbdba8","6657826cf8e33e4325fa37d9","590","stimuli/11001111.jpg"," ","","feedback_trial","1","","","","","","","","","","","","","","","","","","","","",""
"","","","","","image-keyboard-response","268","742704","0.0-243.0","63fd36ced691b83466652931","665500ab8938657b03fbdba8","6657826cf8e33e4325fa37d9","924","stimuli/0000010.jpg","0","","prediction_trial","0","","true","","0","true","true","true","true","true","true","[0]","000","010","1","","","","","","",""
"","","","","","image-keyboard-response","269","743103","0.0-244.0","63fd36ced691b83466652931","665500ab8938657b03fbdba8","6657826cf8e33e4325fa37d9","397","stimuli/00000100.jpg"," ","","feedback_trial","0","","","","","","","","","","","","","","","","","","","","",""
"","","","","","image-keyboard-response","270","744224","0.0-245.0","63fd36ced691b83466652931","665500ab8938657b03fbdba8","6657826cf8e33e4325fa37d9","1120","stimuli/0011001.jpg","0","","prediction_trial","0","","true","","0","true","true","true","true","true","true","[0]","011","001","1","","","","","","",""
"","","","","","image-keyboard-response","271","744637","0.0-246.0","63fd36ced691b83466652931","665500ab8938657b03fbdba8","6657826cf8e33e4325fa37d9","411","stimuli/00110010.jpg"," ","","feedback_trial","0","","","","","","","","","","","","","","","","","","","","",""
"","","","","","image-keyboard-response","272","748115","0.0-247.0","63fd36ced691b83466652931","665500ab8938657b03fbdba8","6657826cf8e33e4325fa37d9","3477","stimuli/0011110.jpg","1","","prediction_trial","0","","false","","0","false","false","true","true","false","false","[0]","011","110","0","","","","","","",""
"","","","","","image-keyboard-response","273","749197","0.0-248.0","63fd36ced691b83466652931","665500ab8938657b03fbdba8","6657826cf8e33e4325fa37d9","1080","stimuli/00111100.jpg"," ","","feedback_trial","0","","","","","","","","","","","","","","","","","","","","",""
"","","","","","image-keyboard-response","274","753489","0.0-249.0","63fd36ced691b83466652931","665500ab8938657b03fbdba8","6657826cf8e33e4325fa37d9","4291","stimuli/2101111.jpg","2","","prediction_trial","2","","true","","2","false","false","false","false","false","false","[2,0]","101","111","1","","","","","","",""
"","","","","","image-keyboard-response","275","754060","0.0-250.0","63fd36ced691b83466652931","665500ab8938657b03fbdba8","6657826cf8e33e4325fa37d9","569","stimuli/21011112.jpg"," ","","feedback_trial","2","","","","","","","","","","","","","","","","","","","","",""
"","","","","","image-keyboard-response","276","757536","0.0-251.0","63fd36ced691b83466652931","665500ab8938657b03fbdba8","6657826cf8e33e4325fa37d9","3477","stimuli/1000110.jpg","1","","prediction_trial","1","","true","","1","false","false","true","true","false","false","[1]","000","110","1","","","","","","",""
"","","","","","image-keyboard-response","277","758033","0.0-252.0","63fd36ced691b83466652931","665500ab8938657b03fbdba8","6657826cf8e33e4325fa37d9","496","stimuli/10001101.jpg"," ","","feedback_trial","1","","","","","","","","","","","","","","","","","","","","",""
"","","","","","image-keyboard-response","278","760363","0.0-253.0","63fd36ced691b83466652931","665500ab8938657b03fbdba8","6657826cf8e33e4325fa37d9","2328","stimuli/2101000.jpg","0","","prediction_trial","0","","true","","2","true","true","false","false","false","false","[2,0]","101","000","1","","","","","","",""
"","","","","","image-keyboard-response","279","760777","0.0-254.0","63fd36ced691b83466652931","665500ab8938657b03fbdba8","6657826cf8e33e4325fa37d9","412","stimuli/21010000.jpg"," ","","feedback_trial","2","","","","","","","","","","","","","","","","","","","","",""
"","","","","","image-keyboard-response","280","762438","0.0-255.0","63fd36ced691b83466652931","665500ab8938657b03fbdba8","6657826cf8e33e4325fa37d9","1659","stimuli/1100011.jpg","1","","prediction_trial","1","","true","","1","false","false","true","true","false","false","[1]","100","011","1","","","","","","",""
"","","","","","image-keyboard-response","281","763018","0.0-256.0","63fd36ced691b83466652931","665500ab8938657b03fbdba8","6657826cf8e33e4325fa37d9","579","stimuli/11000111.jpg"," ","","feedback_trial","1","","","","","","","","","","","","","","","","","","","","",""
"","","","","","image-keyboard-response","282","767261","0.0-257.0","63fd36ced691b83466652931","665500ab8938657b03fbdba8","6657826cf8e33e4325fa37d9","4241","stimuli/2110011.jpg","2","","prediction_trial","2","","true","","2","false","false","true","true","false","false","[2]","110","011","1","","","","","","",""
"","","","","","image-keyboard-response","283","767720","0.0-258.0","63fd36ced691b83466652931","665500ab8938657b03fbdba8","6657826cf8e33e4325fa37d9","457","stimuli/21100112.jpg"," ","","feedback_trial","2","","","","","","","","","","","","","","","","","","","","",""
"","","","","","image-keyboard-response","284","768914","0.0-259.0","63fd36ced691b83466652931","665500ab8938657b03fbdba8","6657826cf8e33e4325fa37d9","1192","stimuli/1101001.jpg","1","","prediction_trial","1","","true","","1","true","true","true","true","true","true","[1]","101","001","1","","","","","","",""
"","","","","","image-keyboard-response","285","769266","0.0-260.0","63fd36ced691b83466652931","665500ab8938657b03fbdba8","6657826cf8e33e4325fa37d9","350","stimuli/11010011.jpg"," ","","feedback_trial","1","","","","","","","","","","","","","","","","","","","","",""
"","","","","","image-keyboard-response","286","771590","0.0-261.0","63fd36ced691b83466652931","665500ab8938657b03fbdba8","6657826cf8e33e4325fa37d9","2323","stimuli/2101100.jpg","0","","prediction_trial","2","","false","","2","true","true","false","false","false","false","[2,0]","101","100","0","","","","","","",""
"","","","","","image-keyboard-response","287","772395","0.0-262.0","63fd36ced691b83466652931","665500ab8938657b03fbdba8","6657826cf8e33e4325fa37d9","803","stimuli/21011002.jpg"," ","","feedback_trial","2","","","","","","","","","","","","","","","","","","","","",""
"","","","","","image-keyboard-response","288","774577","0.0-263.0","63fd36ced691b83466652931","665500ab8938657b03fbdba8","6657826cf8e33e4325fa37d9","2181","stimuli/1000101.jpg","1","","prediction_trial","1","","true","","1","true","true","true","true","true","true","[1]","000","101","1","","","","","","",""
"","","","","","image-keyboard-response","289","774952","0.0-264.0","63fd36ced691b83466652931","665500ab8938657b03fbdba8","6657826cf8e33e4325fa37d9","373","stimuli/10001011.jpg"," ","","feedback_trial","1","","","","","","","","","","","","","","","","","","","","",""
"","","","","","image-keyboard-response","290","777224","0.0-265.0","63fd36ced691b83466652931","665500ab8938657b03fbdba8","6657826cf8e33e4325fa37d9","2270","stimuli/2001100.jpg","2","","prediction_trial","2","","true","","2","true","true","false","true","false","true","[2]","001","100","1","","","","","","",""
"","","","","","image-keyboard-response","291","777670","0.0-266.0","63fd36ced691b83466652931","665500ab8938657b03fbdba8","6657826cf8e33e4325fa37d9","445","stimuli/20011002.jpg"," ","","feedback_trial","2","","","","","","","","","","","","","","","","","","","","",""
"","","","","","image-keyboard-response","292","782062","0.0-267.0","63fd36ced691b83466652931","665500ab8938657b03fbdba8","6657826cf8e33e4325fa37d9","4390","stimuli/1111110.jpg","2","","prediction_trial","1","","false","","1","false","false","false","false","false","false","[0,2,1]","111","110","0","","","","","","",""
"","","","","","image-keyboard-response","293","782655","0.0-268.0","63fd36ced691b83466652931","665500ab8938657b03fbdba8","6657826cf8e33e4325fa37d9","591","stimuli/11111101.jpg"," ","","feedback_trial","0","","","","","","","","","","","","","","","","","","","","",""
"","","","","","image-keyboard-response","294","783855","0.0-269.0","63fd36ced691b83466652931","665500ab8938657b03fbdba8","6657826cf8e33e4325fa37d9","1198","stimuli/2110110.jpg","2","","prediction_trial","2","","true","","2","true","true","true","true","true","true","[2]","110","110","1","","","","","","",""
"","","","","","image-keyboard-response","295","784278","0.0-270.0","63fd36ced691b83466652931","665500ab8938657b03fbdba8","6657826cf8e33e4325fa37d9","422","stimuli/21101102.jpg"," ","","feedback_trial","2","","","","","","","","","","","","","","","","","","","","",""
"","","","","","image-keyboard-response","296","786558","0.0-271.0","63fd36ced691b83466652931","665500ab8938657b03fbdba8","6657826cf8e33e4325fa37d9","2277","stimuli/2010001.jpg","2","","prediction_trial","2","","true","","2","false","true","true","true","false","true","[2]","010","001","1","","","","","","",""
"","","","","","image-keyboard-response","297","786972","0.0-272.0","63fd36ced691b83466652931","665500ab8938657b03fbdba8","6657826cf8e33e4325fa37d9","413","stimuli/20100012.jpg"," ","","feedback_trial","2","","","","","","","","","","","","","","","","","","","","",""
"","","","","","image-keyboard-response","298","789248","0.0-273.0","63fd36ced691b83466652931","665500ab8938657b03fbdba8","6657826cf8e33e4325fa37d9","2274","stimuli/2100011.jpg","1","","prediction_trial","2","","false","","2","false","false","true","true","false","false","[2]","100","011","0","","","","","","",""
"","","","","","image-keyboard-response","299","789859","0.0-274.0","63fd36ced691b83466652931","665500ab8938657b03fbdba8","6657826cf8e33e4325fa37d9","609","stimuli/21000112.jpg"," ","","feedback_trial","2","","","","","","","","","","","","","","","","","","","","",""
"","","","","","image-keyboard-response","300","790720","0.0-275.0","63fd36ced691b83466652931","665500ab8938657b03fbdba8","6657826cf8e33e4325fa37d9","859","stimuli/2110000.jpg","2","","prediction_trial","2","","true","","2","true","true","true","true","true","true","[2]","110","000","1","","","","","","",""
"","","","","","image-keyboard-response","301","791179","0.0-276.0","63fd36ced691b83466652931","665500ab8938657b03fbdba8","6657826cf8e33e4325fa37d9","457","stimuli/21100002.jpg"," ","","feedback_trial","2","","","","","","","","","","","","","","","","","","","","",""
"","","","","","image-keyboard-response","302","796758","0.0-277.0","63fd36ced691b83466652931","665500ab8938657b03fbdba8","6657826cf8e33e4325fa37d9","5577","stimuli/1011000.jpg","1","","prediction_trial","1","","true","","1","true","true","false","false","false","false","[2,1]","011","000","1","","","","","","",""
"","","","","","image-keyboard-response","303","797392","0.0-278.0","63fd36ced691b83466652931","665500ab8938657b03fbdba8","6657826cf8e33e4325fa37d9","633","stimuli/10110001.jpg"," ","","feedback_trial","2","","","","","","","","","","","","","","","","","","","","",""
"","","","","","image-keyboard-response","304","800104","0.0-279.0","63fd36ced691b83466652931","665500ab8938657b03fbdba8","6657826cf8e33e4325fa37d9","2710","stimuli/1100110.jpg","0","","prediction_trial","1","","false","","1","false","false","true","true","false","false","[1]","100","110","0","","","","","","",""
"","","","","","image-keyboard-response","305","800693","0.0-280.0","63fd36ced691b83466652931","665500ab8938657b03fbdba8","6657826cf8e33e4325fa37d9","588","stimuli/11001101.jpg"," ","","feedback_trial","1","","","","","","","","","","","","","","","","","","","","",""
"","","","","","image-keyboard-response","306","801942","0.0-281.0","63fd36ced691b83466652931","665500ab8938657b03fbdba8","6657826cf8e33e4325fa37d9","1247","stimuli/2010010.jpg","2","","prediction_trial","2","","true","","2","true","true","true","true","true","true","[2]","010","010","1","","","","","","",""
"","","","","","image-keyboard-response","307","802324","0.0-282.0","63fd36ced691b83466652931","665500ab8938657b03fbdba8","6657826cf8e33e4325fa37d9","380","stimuli/20100102.jpg"," ","","feedback_trial","2","","","","","","","","","","","","","","","","","","","","",""
"","","","","","image-keyboard-response","308","804346","0.0-283.0","63fd36ced691b83466652931","665500ab8938657b03fbdba8","6657826cf8e33e4325fa37d9","2020","stimuli/1010111.jpg","0","","prediction_trial","1","","false","","1","false","false","false","true","false","false","[1]","010","111","0","","","","","","",""
"","","","","","image-keyboard-response","309","804995","0.0-284.0","63fd36ced691b83466652931","665500ab8938657b03fbdba8","6657826cf8e33e4325fa37d9","647","stimuli/10101111.jpg"," ","","feedback_trial","1","","","","","","","","","","","","","","","","","","","","",""
"","","","","","image-keyboard-response","310","810685","0.0-285.0","63fd36ced691b83466652931","665500ab8938657b03fbdba8","6657826cf8e33e4325fa37d9","5688","stimuli/0101010.jpg","0","","prediction_trial","0","","true","","0","true","true","false","false","false","false","[0,2]","101","010","1","","","","","","",""
"","","","","","image-keyboard-response","311","811157","0.0-286.0","63fd36ced691b83466652931","665500ab8938657b03fbdba8","6657826cf8e33e4325fa37d9","471","stimuli/01010100.jpg"," ","","feedback_trial","0","","","","","","","","","","","","","","","","","","","","",""
"","","","","","image-keyboard-response","312","813376","0.0-287.0","63fd36ced691b83466652931","665500ab8938657b03fbdba8","6657826cf8e33e4325fa37d9","2217","stimuli/1111111.jpg","2","","prediction_trial","2","","true","","1","false","false","false","false","false","false","[2,1,0]","111","111","1","","","","","","",""
"","","","","","image-keyboard-response","313","813853","0.0-288.0","63fd36ced691b83466652931","665500ab8938657b03fbdba8","6657826cf8e33e4325fa37d9","475","stimuli/11111112.jpg"," ","","feedback_trial","2","","","","","","","","","","","","","","","","","","","","",""
"","","","","","image-keyboard-response","314","816284","0.0-289.0","63fd36ced691b83466652931","665500ab8938657b03fbdba8","6657826cf8e33e4325fa37d9","2430","stimuli/0110011.jpg","0","","prediction_trial","1","","false","","0","true","true","false","false","false","false","[1,0]","110","011","0","","","","","","",""
"","","","","","image-keyboard-response","315","816824","0.0-290.0","63fd36ced691b83466652931","665500ab8938657b03fbdba8","6657826cf8e33e4325fa37d9","538","stimuli/01100111.jpg"," ","","feedback_trial","1","","","","","","","","","","","","","","","","","","","","",""
"","","","","","image-keyboard-response","316","818977","0.0-291.0","63fd36ced691b83466652931","665500ab8938657b03fbdba8","6657826cf8e33e4325fa37d9","2147","stimuli/1010101.jpg","1","","prediction_trial","1","","true","","1","true","true","false","true","false","true","[1]","010","101","1","","","","","","",""
"","","","","","image-keyboard-response","317","819443","0.0-292.0","63fd36ced691b83466652931","665500ab8938657b03fbdba8","6657826cf8e33e4325fa37d9","464","stimuli/10101011.jpg"," ","","feedback_trial","1","","","","","","","","","","","","","","","","","","","","",""
"","","","","","survey-html-form","318","924783","0.0-293.0","63fd36ced691b83466652931","665500ab8938657b03fbdba8","6657826cf8e33e4325fa37d9","105338","","{""feedback"":""Influencing factors included which baskets Tom could see and how likely it was that Tom could see the ball, even if I could not."",""age"":""57"",""gender"":""Male"",""other_gender"":"""",""race"":""White"",""other_race"":"""",""ethnicity"":""Non-Hispanic""}","","exit_survey","","","","","","","","","","","","","","","","Influencing factors included which baskets Tom could see and how likely it was that Tom could see the ball, even if I could not.","57","Non-Hispanic","Male","White","0.6111111111111112","0.6111111111111112"
