"success","timeout","failed_images","failed_audio","failed_video","trial_type","trial_index","time_elapsed","internal_node_id","prolific_id","prolific_study_id","prolific_session_id","rt","stimulus","response","view_history","trial","character_choice","stimulus_dict","accuracy","correct_response","ball_pos","ego_ball_visible","ego_can_infer","alter_ball_visible","alter_can_infer","collective_ball_visible","collective_can_infer","search_locations","alter_occluders","ego_occluders","accuracy_bool","feedback","age","ethnicity","gender","race","overall_accuracy","bonus"
"true","false","[]","[]","[]","preload","0","2864","0.0-0.0","62d44d484a28cd313e2c3ba4","665500ab8938657b03fbdba8","66577c451650a5472427efff","","","","","","","","","","","","","","","","","","","","","","","","","","",""
"true","","","","","fullscreen","1","5953","0.0-1.0","62d44d484a28cd313e2c3ba4","665500ab8938657b03fbdba8","66577c451650a5472427efff","","","","","","","","","","","","","","","","","","","","","","","","","","",""
"","","","","","html-button-response","2","22437","0.0-2.0","62d44d484a28cd313e2c3ba4","665500ab8938657b03fbdba8","66577c451650a5472427efff","16483","<p><b>Consent Form</b></p> <div style=""text-align:left;background-color:lightgrey; padding:20px; max-width:900px;""><p>Please consider this information carefully before deciding whether to participate in this research.</p> <p>The purpose of this research is to examine which factors influence social judgment and decision-making. You will be asked to make judgements about individuals and actions in social scenarios. We are simply interested in your judgement. The study will take less than 1 hour to complete, and you will receive less than $20 on Prolific. Your compensation and time commitment are specified in the study description. There are no anticipated risks associated with participating in this study. The effects of participating should be comparable to those you would ordinarily experience from viewing a computer monitor and using a mouse or keyboard for a similar amount of time. At the end of the study, we will provide an explanation of the questions that motivate this line of research and will describe the potential implications. </p><p> Your participation in this study is completely voluntary and you may refuse to participate or you may choose to withdraw at any time without penalty or loss of benefits to you which are otherwise entitled. Your participation in this study will remain confidential. No personally identifiable information will be associated with your data. Also, all analyses of the data will be averaged across all the participants, so your individual responses will never be specifically analyzed. </p><p> If you have questions or concerns about your participation or payment, or want to request a summary of research findings, please contact Dr. Jonathan Phillips at Jonathan.S.Phillips@dartmouth.edu. </p><p> Please save a copy of this form for your records. </p><p><b>Agreement: </b>The nature and purpose of this research have been sufficiently explained and I agree to participate in this study. I understand that I am free to withdraw at any time without incurring any penalty. Please consent by clicking the button below to continue. Otherwise, please exit the study at any time. </p>","0","","","","","","","","","","","","","","","","","","","","","","","",""
"","","","","","instructions","3","80782","0.0-3.0-0.0","62d44d484a28cd313e2c3ba4","665500ab8938657b03fbdba8","66577c451650a5472427efff","58343","","","[{""page_index"":0,""viewing_time"":1800},{""page_index"":1,""viewing_time"":4174},{""page_index"":2,""viewing_time"":2657},{""page_index"":3,""viewing_time"":4992},{""page_index"":4,""viewing_time"":4912},{""page_index"":5,""viewing_time"":4391},{""page_index"":6,""viewing_time"":5133},{""page_index"":7,""viewing_time"":2708},{""page_index"":8,""viewing_time"":3018},{""page_index"":9,""viewing_time"":1614},{""page_index"":10,""viewing_time"":9222},{""page_index"":11,""viewing_time"":6876},{""page_index"":12,""viewing_time"":4847},{""page_index"":13,""viewing_time"":2001}]","intro","","","","","","","","","","","","","","","","","","","","","",""
"","","","","","image-keyboard-response","4","82714","0.0-3.0-1.0","62d44d484a28cd313e2c3ba4","665500ab8938657b03fbdba8","66577c451650a5472427efff","1918","stimuli/0010010.jpg","0","","prediction_practice","0","{""filepath"":""stimuli/0010010.jpg"",""ball_pos"":0,""ego_ball_visible"":true,""ego_can_infer"":true,""alter_ball_visible"":true,""alter_can_infer"":true,""collective_ball_visible"":true,""collective_can_infer"":true,""search_locations"":[0],""alter_occluders"":""010"",""ego_occluders"":""010""}","true","","","","","","","","","","","","","","","","","","",""
"","","","","","image-keyboard-response","5","85078","0.0-3.0-2.0","62d44d484a28cd313e2c3ba4","665500ab8938657b03fbdba8","66577c451650a5472427efff","2363","stimuli/00100100.jpg"," ","","practrice_feedback","0","","","","","","","","","","","","","","","","","","","","",""
"","","","","","image-keyboard-response","6","87479","0.0-3.0-3.0","62d44d484a28cd313e2c3ba4","665500ab8938657b03fbdba8","66577c451650a5472427efff","2399","stimuli/2110011.jpg","2","","prediction_practice","2","{""filepath"":""stimuli/2110011.jpg"",""ball_pos"":2,""ego_ball_visible"":false,""ego_can_infer"":false,""alter_ball_visible"":true,""alter_can_infer"":true,""collective_ball_visible"":false,""collective_can_infer"":false,""search_locations"":[2],""alter_occluders"":""110"",""ego_occluders"":""011""}","true","","","","","","","","","","","","","","","","","","",""
"","","","","","image-keyboard-response","7","89023","0.0-3.0-4.0","62d44d484a28cd313e2c3ba4","665500ab8938657b03fbdba8","66577c451650a5472427efff","1541","stimuli/21100112.jpg"," ","","practrice_feedback","2","","","","","","","","","","","","","","","","","","","","",""
"","","","","","image-keyboard-response","8","90751","0.0-3.0-5.0","62d44d484a28cd313e2c3ba4","665500ab8938657b03fbdba8","66577c451650a5472427efff","1727","stimuli/0011010.jpg","0","","prediction_practice","0","{""filepath"":""stimuli/0011010.jpg"",""ball_pos"":0,""ego_ball_visible"":true,""ego_can_infer"":true,""alter_ball_visible"":true,""alter_can_infer"":true,""collective_ball_visible"":true,""collective_can_infer"":true,""search_locations"":[0],""alter_occluders"":""011"",""ego_occluders"":""010""}","true","","","","","","","","","","","","","","","","","","",""
"","","","","","image-keyboard-response","9","91950","0.0-3.0-6.0","62d44d484a28cd313e2c3ba4","665500ab8938657b03fbdba8","66577c451650a5472427efff","1198","stimuli/00110100.jpg"," ","","practrice_feedback","0","","","","","","","","","","","","","","","","","","","","",""
"","","","","","image-keyboard-response","10","95855","0.0-3.0-7.0","62d44d484a28cd313e2c3ba4","665500ab8938657b03fbdba8","66577c451650a5472427efff","3904","stimuli/1111110.jpg","1","","prediction_practice","1","{""filepath"":""stimuli/1111110.jpg"",""ball_pos"":1,""ego_ball_visible"":false,""ego_can_infer"":false,""alter_ball_visible"":false,""alter_can_infer"":false,""collective_ball_visible"":false,""collective_can_infer"":false,""search_locations"":[1,2,0],""alter_occluders"":""111"",""ego_occluders"":""110""}","true","","","","","","","","","","","","","","","","","","",""
"","","","","","image-keyboard-response","11","97134","0.0-3.0-8.0","62d44d484a28cd313e2c3ba4","665500ab8938657b03fbdba8","66577c451650a5472427efff","1278","stimuli/11111101.jpg"," ","","practrice_feedback","1","","","","","","","","","","","","","","","","","","","","",""
"","","","","","image-keyboard-response","12","100239","0.0-3.0-9.0","62d44d484a28cd313e2c3ba4","665500ab8938657b03fbdba8","66577c451650a5472427efff","3104","stimuli/1010111.jpg","2","","prediction_practice","1","{""filepath"":""stimuli/1010111.jpg"",""ball_pos"":1,""ego_ball_visible"":false,""ego_can_infer"":false,""alter_ball_visible"":false,""alter_can_infer"":true,""collective_ball_visible"":false,""collective_can_infer"":false,""search_locations"":[1],""alter_occluders"":""010"",""ego_occluders"":""111""}","false","","","","","","","","","","","","","","","","","","",""
"","","","","","image-keyboard-response","13","101302","0.0-3.0-10.0","62d44d484a28cd313e2c3ba4","665500ab8938657b03fbdba8","66577c451650a5472427efff","1062","stimuli/10101111.jpg"," ","","practrice_feedback","1","","","","","","","","","","","","","","","","","","","","",""
"","","","","","image-keyboard-response","14","104817","0.0-3.0-11.0","62d44d484a28cd313e2c3ba4","665500ab8938657b03fbdba8","66577c451650a5472427efff","3514","stimuli/1100010.jpg","1","","prediction_practice","1","{""filepath"":""stimuli/1100010.jpg"",""ball_pos"":1,""ego_ball_visible"":false,""ego_can_infer"":true,""alter_ball_visible"":true,""alter_can_infer"":true,""collective_ball_visible"":false,""collective_can_infer"":true,""search_locations"":[1],""alter_occluders"":""100"",""ego_occluders"":""010""}","true","","","","","","","","","","","","","","","","","","",""
"","","","","","image-keyboard-response","15","105880","0.0-3.0-12.0","62d44d484a28cd313e2c3ba4","665500ab8938657b03fbdba8","66577c451650a5472427efff","1062","stimuli/11000101.jpg"," ","","practrice_feedback","1","","","","","","","","","","","","","","","","","","","","",""
"","","","","","image-keyboard-response","16","108265","0.0-3.0-13.0","62d44d484a28cd313e2c3ba4","665500ab8938657b03fbdba8","66577c451650a5472427efff","2384","stimuli/0110000.jpg","0","","prediction_practice","1","{""filepath"":""stimuli/0110000.jpg"",""ball_pos"":0,""ego_ball_visible"":true,""ego_can_infer"":true,""alter_ball_visible"":false,""alter_can_infer"":false,""collective_ball_visible"":false,""collective_can_infer"":false,""search_locations"":[1,0],""alter_occluders"":""110"",""ego_occluders"":""000""}","false","","","","","","","","","","","","","","","","","","",""
"","","","","","image-keyboard-response","17","109528","0.0-3.0-14.0","62d44d484a28cd313e2c3ba4","665500ab8938657b03fbdba8","66577c451650a5472427efff","1262","stimuli/01100001.jpg"," ","","practrice_feedback","1","","","","","","","","","","","","","","","","","","","","",""
"","","","","","image-keyboard-response","18","111329","0.0-3.0-15.0","62d44d484a28cd313e2c3ba4","665500ab8938657b03fbdba8","66577c451650a5472427efff","1801","stimuli/1101111.jpg","2","","prediction_practice","1","{""filepath"":""stimuli/1101111.jpg"",""ball_pos"":1,""ego_ball_visible"":false,""ego_can_infer"":false,""alter_ball_visible"":true,""alter_can_infer"":true,""collective_ball_visible"":false,""collective_can_infer"":false,""search_locations"":[1],""alter_occluders"":""101"",""ego_occluders"":""111""}","false","","","","","","","","","","","","","","","","","","",""
"","","","","","image-keyboard-response","19","112328","0.0-3.0-16.0","62d44d484a28cd313e2c3ba4","665500ab8938657b03fbdba8","66577c451650a5472427efff","997","stimuli/11011111.jpg"," ","","practrice_feedback","1","","","","","","","","","","","","","","","","","","","","",""
"","","","","","image-keyboard-response","20","114585","0.0-3.0-17.0","62d44d484a28cd313e2c3ba4","665500ab8938657b03fbdba8","66577c451650a5472427efff","2257","stimuli/0100111.jpg","1","","prediction_practice","0","{""filepath"":""stimuli/0100111.jpg"",""ball_pos"":0,""ego_ball_visible"":false,""ego_can_infer"":false,""alter_ball_visible"":false,""alter_can_infer"":true,""collective_ball_visible"":false,""collective_can_infer"":false,""search_locations"":[0],""alter_occluders"":""100"",""ego_occluders"":""111""}","false","","","","","","","","","","","","","","","","","","",""
"","","","","","image-keyboard-response","21","115687","0.0-3.0-18.0","62d44d484a28cd313e2c3ba4","665500ab8938657b03fbdba8","66577c451650a5472427efff","1101","stimuli/01001110.jpg"," ","","practrice_feedback","0","","","","","","","","","","","","","","","","","","","","",""
"","","","","","image-keyboard-response","22","119852","0.0-3.0-19.0","62d44d484a28cd313e2c3ba4","665500ab8938657b03fbdba8","66577c451650a5472427efff","4164","stimuli/0001101.jpg","0","","prediction_practice","0","{""filepath"":""stimuli/0001101.jpg"",""ball_pos"":0,""ego_ball_visible"":false,""ego_can_infer"":false,""alter_ball_visible"":true,""alter_can_infer"":true,""collective_ball_visible"":false,""collective_can_infer"":false,""search_locations"":[0],""alter_occluders"":""001"",""ego_occluders"":""101""}","true","","","","","","","","","","","","","","","","","","",""
"","","","","","image-keyboard-response","23","120922","0.0-3.0-20.0","62d44d484a28cd313e2c3ba4","665500ab8938657b03fbdba8","66577c451650a5472427efff","1068","stimuli/00011010.jpg"," ","","practrice_feedback","0","","","","","","","","","","","","","","","","","","","","",""
"","","","","","html-button-response","24","127080","0.0-3.0-21.0","62d44d484a28cd313e2c3ba4","665500ab8938657b03fbdba8","66577c451650a5472427efff","6158","Now that you've had some practice, you'll be tested with a couple of easy trials. If you correctly predict Sam's choice, you'll move on to complete the experiment!","0","","","","","","","","","","","","","","","","","","","","","","","",""
"","","","","","image-keyboard-response","25","128628","0.0-3.0-22.0-0.0","62d44d484a28cd313e2c3ba4","665500ab8938657b03fbdba8","66577c451650a5472427efff","1547","stimuli/0000011.jpg","arrowleft","","comprehension_quiz","","","true","arrowleft","","","","","","","","","","","","","","","","","",""
"","","","","","image-keyboard-response","26","129962","0.0-3.0-22.0-1.0","62d44d484a28cd313e2c3ba4","665500ab8938657b03fbdba8","66577c451650a5472427efff","1333","stimuli/00000110.jpg"," ","","comprehension_quiz","","","true"," ","","","","","","","","","","","","","","","","","",""
"","","","","","image-keyboard-response","27","131978","0.0-3.0-22.0-2.0","62d44d484a28cd313e2c3ba4","665500ab8938657b03fbdba8","66577c451650a5472427efff","2015","stimuli/1010010.jpg","arrowdown","","comprehension_quiz","","","true","arrowdown","","","","","","","","","","","","","","","","","",""
"","","","","","image-keyboard-response","28","133145","0.0-3.0-22.0-3.0","62d44d484a28cd313e2c3ba4","665500ab8938657b03fbdba8","66577c451650a5472427efff","1165","stimuli/10100101.jpg"," ","","comprehension_quiz","","","true"," ","","","","","","","","","","","","","","","","","",""
"","","","","","html-button-response","29","135388","0.0-4.0","62d44d484a28cd313e2c3ba4","665500ab8938657b03fbdba8","66577c451650a5472427efff","2241","The experiment will now begin.","0","","","","","","","","","","","","","","","","","","","","","","","",""
"","","","","","image-keyboard-response","30","139508","0.0-5.0","62d44d484a28cd313e2c3ba4","665500ab8938657b03fbdba8","66577c451650a5472427efff","4120","stimuli/2001110.jpg","2","","prediction_trial","2","","true","","2","true","true","false","true","false","true","[2]","001","110","1","","","","","","",""
"","","","","","image-keyboard-response","31","140537","0.0-6.0","62d44d484a28cd313e2c3ba4","665500ab8938657b03fbdba8","66577c451650a5472427efff","1025","stimuli/20011102.jpg"," ","","feedback_trial","2","","","","","","","","","","","","","","","","","","","","",""
"","","","","","image-keyboard-response","32","141915","0.0-7.0","62d44d484a28cd313e2c3ba4","665500ab8938657b03fbdba8","66577c451650a5472427efff","1377","stimuli/1000101.jpg","1","","prediction_trial","1","","true","","1","true","true","true","true","true","true","[1]","000","101","1","","","","","","",""
"","","","","","image-keyboard-response","33","142928","0.0-8.0","62d44d484a28cd313e2c3ba4","665500ab8938657b03fbdba8","66577c451650a5472427efff","1013","stimuli/10001011.jpg"," ","","feedback_trial","1","","","","","","","","","","","","","","","","","","","","",""
"","","","","","image-keyboard-response","34","147909","0.0-9.0","62d44d484a28cd313e2c3ba4","665500ab8938657b03fbdba8","66577c451650a5472427efff","4980","stimuli/2011110.jpg","1","","prediction_trial","2","","false","","2","true","true","false","false","false","false","[2,1]","011","110","0","","","","","","",""
"","","","","","image-keyboard-response","35","148971","0.0-10.0","62d44d484a28cd313e2c3ba4","665500ab8938657b03fbdba8","66577c451650a5472427efff","1061","stimuli/20111102.jpg"," ","","feedback_trial","2","","","","","","","","","","","","","","","","","","","","",""
"","","","","","image-keyboard-response","36","151732","0.0-11.0","62d44d484a28cd313e2c3ba4","665500ab8938657b03fbdba8","66577c451650a5472427efff","2760","stimuli/1101001.jpg","1","","prediction_trial","1","","true","","1","true","true","true","true","true","true","[1]","101","001","1","","","","","","",""
"","","","","","image-keyboard-response","37","152651","0.0-12.0","62d44d484a28cd313e2c3ba4","665500ab8938657b03fbdba8","66577c451650a5472427efff","918","stimuli/11010011.jpg"," ","","feedback_trial","1","","","","","","","","","","","","","","","","","","","","",""
"","","","","","image-keyboard-response","38","153948","0.0-13.0","62d44d484a28cd313e2c3ba4","665500ab8938657b03fbdba8","66577c451650a5472427efff","1296","stimuli/0001001.jpg","0","","prediction_trial","0","","true","","0","true","true","true","true","true","true","[0]","001","001","1","","","","","","",""
"","","","","","image-keyboard-response","39","154659","0.0-14.0","62d44d484a28cd313e2c3ba4","665500ab8938657b03fbdba8","66577c451650a5472427efff","710","stimuli/00010010.jpg"," ","","feedback_trial","0","","","","","","","","","","","","","","","","","","","","",""
"","","","","","image-keyboard-response","40","158308","0.0-15.0","62d44d484a28cd313e2c3ba4","665500ab8938657b03fbdba8","66577c451650a5472427efff","3648","stimuli/2101110.jpg","2","","prediction_trial","0","","false","","2","true","true","false","false","false","false","[0,2]","101","110","0","","","","","","",""
"","","","","","image-keyboard-response","41","159146","0.0-16.0","62d44d484a28cd313e2c3ba4","665500ab8938657b03fbdba8","66577c451650a5472427efff","838","stimuli/21011100.jpg"," ","","feedback_trial","0","","","","","","","","","","","","","","","","","","","","",""
"","","","","","image-keyboard-response","42","161284","0.0-17.0","62d44d484a28cd313e2c3ba4","665500ab8938657b03fbdba8","66577c451650a5472427efff","2136","stimuli/1111001.jpg","1","","prediction_trial","1","","true","","1","true","true","false","false","false","false","[0,2,1]","111","001","1","","","","","","",""
"","","","","","image-keyboard-response","43","162146","0.0-18.0","62d44d484a28cd313e2c3ba4","665500ab8938657b03fbdba8","66577c451650a5472427efff","861","stimuli/11110011.jpg"," ","","feedback_trial","0","","","","","","","","","","","","","","","","","","","","",""
"","","","","","image-keyboard-response","44","164548","0.0-19.0","62d44d484a28cd313e2c3ba4","665500ab8938657b03fbdba8","66577c451650a5472427efff","2400","stimuli/1011001.jpg","1","","prediction_trial","2","","false","","1","true","true","false","false","false","false","[1,2]","011","001","0","","","","","","",""
"","","","","","image-keyboard-response","45","165346","0.0-20.0","62d44d484a28cd313e2c3ba4","665500ab8938657b03fbdba8","66577c451650a5472427efff","797","stimuli/10110012.jpg"," ","","feedback_trial","1","","","","","","","","","","","","","","","","","","","","",""
"","","","","","image-keyboard-response","46","167898","0.0-21.0","62d44d484a28cd313e2c3ba4","665500ab8938657b03fbdba8","66577c451650a5472427efff","2551","stimuli/1010111.jpg","2","","prediction_trial","1","","false","","1","false","false","false","true","false","false","[1]","010","111","0","","","","","","",""
"","","","","","image-keyboard-response","47","168874","0.0-22.0","62d44d484a28cd313e2c3ba4","665500ab8938657b03fbdba8","66577c451650a5472427efff","975","stimuli/10101111.jpg"," ","","feedback_trial","1","","","","","","","","","","","","","","","","","","","","",""
"","","","","","image-keyboard-response","48","171900","0.0-23.0","62d44d484a28cd313e2c3ba4","665500ab8938657b03fbdba8","66577c451650a5472427efff","3024","stimuli/0100111.jpg","0","","prediction_trial","0","","true","","0","false","false","false","true","false","false","[0]","100","111","1","","","","","","",""
"","","","","","image-keyboard-response","49","172898","0.0-24.0","62d44d484a28cd313e2c3ba4","665500ab8938657b03fbdba8","66577c451650a5472427efff","998","stimuli/01001110.jpg"," ","","feedback_trial","0","","","","","","","","","","","","","","","","","","","","",""
"","","","","","image-keyboard-response","50","174099","0.0-25.0","62d44d484a28cd313e2c3ba4","665500ab8938657b03fbdba8","66577c451650a5472427efff","1200","stimuli/0000010.jpg","0","","prediction_trial","0","","true","","0","true","true","true","true","true","true","[0]","000","010","1","","","","","","",""
"","","","","","image-keyboard-response","51","175082","0.0-26.0","62d44d484a28cd313e2c3ba4","665500ab8938657b03fbdba8","66577c451650a5472427efff","982","stimuli/00000100.jpg"," ","","feedback_trial","0","","","","","","","","","","","","","","","","","","","","",""
"","","","","","image-keyboard-response","52","178755","0.0-27.0","62d44d484a28cd313e2c3ba4","665500ab8938657b03fbdba8","66577c451650a5472427efff","3672","stimuli/1100010.jpg","1","","prediction_trial","1","","true","","1","false","true","true","true","false","true","[1]","100","010","1","","","","","","",""
"","","","","","image-keyboard-response","53","179578","0.0-28.0","62d44d484a28cd313e2c3ba4","665500ab8938657b03fbdba8","66577c451650a5472427efff","822","stimuli/11000101.jpg"," ","","feedback_trial","1","","","","","","","","","","","","","","","","","","","","",""
"","","","","","image-keyboard-response","54","183348","0.0-29.0","62d44d484a28cd313e2c3ba4","665500ab8938657b03fbdba8","66577c451650a5472427efff","3769","stimuli/1010011.jpg","2","","prediction_trial","1","","false","","1","false","false","false","true","false","false","[1]","010","011","0","","","","","","",""
"","","","","","image-keyboard-response","55","184242","0.0-30.0","62d44d484a28cd313e2c3ba4","665500ab8938657b03fbdba8","66577c451650a5472427efff","893","stimuli/10100111.jpg"," ","","feedback_trial","1","","","","","","","","","","","","","","","","","","","","",""
"","","","","","image-keyboard-response","56","188221","0.0-31.0","62d44d484a28cd313e2c3ba4","665500ab8938657b03fbdba8","66577c451650a5472427efff","3978","stimuli/2100001.jpg","2","","prediction_trial","2","","true","","2","false","true","true","true","false","true","[2]","100","001","1","","","","","","",""
"","","","","","image-keyboard-response","57","189044","0.0-32.0","62d44d484a28cd313e2c3ba4","665500ab8938657b03fbdba8","66577c451650a5472427efff","821","stimuli/21000012.jpg"," ","","feedback_trial","2","","","","","","","","","","","","","","","","","","","","",""
"","","","","","image-keyboard-response","58","191358","0.0-33.0","62d44d484a28cd313e2c3ba4","665500ab8938657b03fbdba8","66577c451650a5472427efff","2313","stimuli/1110111.jpg","2","","prediction_trial","1","","false","","1","false","false","false","false","false","false","[1,0]","110","111","0","","","","","","",""
"","","","","","image-keyboard-response","59","192251","0.0-34.0","62d44d484a28cd313e2c3ba4","665500ab8938657b03fbdba8","66577c451650a5472427efff","891","stimuli/11101111.jpg"," ","","feedback_trial","1","","","","","","","","","","","","","","","","","","","","",""
"","","","","","image-keyboard-response","60","193693","0.0-35.0","62d44d484a28cd313e2c3ba4","665500ab8938657b03fbdba8","66577c451650a5472427efff","1441","stimuli/2110001.jpg","2","","prediction_trial","2","","true","","2","false","true","true","true","false","true","[2]","110","001","1","","","","","","",""
"","","","","","image-keyboard-response","61","194491","0.0-36.0","62d44d484a28cd313e2c3ba4","665500ab8938657b03fbdba8","66577c451650a5472427efff","797","stimuli/21100012.jpg"," ","","feedback_trial","2","","","","","","","","","","","","","","","","","","","","",""
"","","","","","image-keyboard-response","62","196092","0.0-37.0","62d44d484a28cd313e2c3ba4","665500ab8938657b03fbdba8","66577c451650a5472427efff","1600","stimuli/0010010.jpg","0","","prediction_trial","0","","true","","0","true","true","true","true","true","true","[0]","010","010","1","","","","","","",""
"","","","","","image-keyboard-response","63","196828","0.0-38.0","62d44d484a28cd313e2c3ba4","665500ab8938657b03fbdba8","66577c451650a5472427efff","734","stimuli/00100100.jpg"," ","","feedback_trial","0","","","","","","","","","","","","","","","","","","","","",""
"","","","","","image-keyboard-response","64","197900","0.0-39.0","62d44d484a28cd313e2c3ba4","665500ab8938657b03fbdba8","66577c451650a5472427efff","1071","stimuli/1000000.jpg","1","","prediction_trial","1","","true","","1","true","true","true","true","true","true","[1]","000","000","1","","","","","","",""
"","","","","","image-keyboard-response","65","198667","0.0-40.0","62d44d484a28cd313e2c3ba4","665500ab8938657b03fbdba8","66577c451650a5472427efff","767","stimuli/10000001.jpg"," ","","feedback_trial","1","","","","","","","","","","","","","","","","","","","","",""
"","","","","","image-keyboard-response","66","201470","0.0-41.0","62d44d484a28cd313e2c3ba4","665500ab8938657b03fbdba8","66577c451650a5472427efff","2802","stimuli/2010011.jpg","2","","prediction_trial","2","","true","","2","false","false","true","true","false","false","[2]","010","011","1","","","","","","",""
"","","","","","image-keyboard-response","67","202635","0.0-42.0","62d44d484a28cd313e2c3ba4","665500ab8938657b03fbdba8","66577c451650a5472427efff","1164","stimuli/20100112.jpg"," ","","feedback_trial","2","","","","","","","","","","","","","","","","","","","","",""
"","","","","","image-keyboard-response","68","204557","0.0-43.0","62d44d484a28cd313e2c3ba4","665500ab8938657b03fbdba8","66577c451650a5472427efff","1921","stimuli/2011111.jpg","0","","prediction_trial","2","","false","","2","false","false","false","false","false","false","[1,2]","011","111","0","","","","","","",""
"","","","","","image-keyboard-response","69","205563","0.0-44.0","62d44d484a28cd313e2c3ba4","665500ab8938657b03fbdba8","66577c451650a5472427efff","1005","stimuli/20111112.jpg"," ","","feedback_trial","1","","","","","","","","","","","","","","","","","","","","",""
"","","","","","image-keyboard-response","70","207669","0.0-45.0","62d44d484a28cd313e2c3ba4","665500ab8938657b03fbdba8","66577c451650a5472427efff","2104","stimuli/1011011.jpg","1","","prediction_trial","2","","false","","1","false","false","false","false","false","false","[1,2]","011","011","0","","","","","","",""
"","","","","","image-keyboard-response","71","208723","0.0-46.0","62d44d484a28cd313e2c3ba4","665500ab8938657b03fbdba8","66577c451650a5472427efff","1053","stimuli/10110112.jpg"," ","","feedback_trial","1","","","","","","","","","","","","","","","","","","","","",""
"","","","","","image-keyboard-response","72","211220","0.0-47.0","62d44d484a28cd313e2c3ba4","665500ab8938657b03fbdba8","66577c451650a5472427efff","2496","stimuli/2001100.jpg","2","","prediction_trial","2","","true","","2","true","true","false","true","false","true","[2]","001","100","1","","","","","","",""
"","","","","","image-keyboard-response","73","212355","0.0-48.0","62d44d484a28cd313e2c3ba4","665500ab8938657b03fbdba8","66577c451650a5472427efff","1133","stimuli/20011002.jpg"," ","","feedback_trial","2","","","","","","","","","","","","","","","","","","","","",""
"","","","","","image-keyboard-response","74","216388","0.0-49.0","62d44d484a28cd313e2c3ba4","665500ab8938657b03fbdba8","66577c451650a5472427efff","4032","stimuli/1010101.jpg","1","","prediction_trial","1","","true","","1","true","true","false","true","false","true","[1]","010","101","1","","","","","","",""
"","","","","","image-keyboard-response","75","217051","0.0-50.0","62d44d484a28cd313e2c3ba4","665500ab8938657b03fbdba8","66577c451650a5472427efff","662","stimuli/10101011.jpg"," ","","feedback_trial","1","","","","","","","","","","","","","","","","","","","","",""
"","","","","","image-keyboard-response","76","219108","0.0-51.0","62d44d484a28cd313e2c3ba4","665500ab8938657b03fbdba8","66577c451650a5472427efff","2056","stimuli/2010101.jpg","0","","prediction_trial","2","","false","","2","false","false","true","true","false","false","[2]","010","101","0","","","","","","",""
"","","","","","image-keyboard-response","77","220011","0.0-52.0","62d44d484a28cd313e2c3ba4","665500ab8938657b03fbdba8","66577c451650a5472427efff","902","stimuli/20101012.jpg"," ","","feedback_trial","2","","","","","","","","","","","","","","","","","","","","",""
"","","","","","image-keyboard-response","78","221220","0.0-53.0","62d44d484a28cd313e2c3ba4","665500ab8938657b03fbdba8","66577c451650a5472427efff","1208","stimuli/2110000.jpg","2","","prediction_trial","2","","true","","2","true","true","true","true","true","true","[2]","110","000","1","","","","","","",""
"","","","","","image-keyboard-response","79","222043","0.0-54.0","62d44d484a28cd313e2c3ba4","665500ab8938657b03fbdba8","66577c451650a5472427efff","822","stimuli/21100002.jpg"," ","","feedback_trial","2","","","","","","","","","","","","","","","","","","","","",""
"","","","","","image-keyboard-response","80","223076","0.0-55.0","62d44d484a28cd313e2c3ba4","665500ab8938657b03fbdba8","66577c451650a5472427efff","1032","stimuli/0011000.jpg","0","","prediction_trial","0","","true","","0","true","true","true","true","true","true","[0]","011","000","1","","","","","","",""
"","","","","","image-keyboard-response","81","223635","0.0-56.0","62d44d484a28cd313e2c3ba4","665500ab8938657b03fbdba8","66577c451650a5472427efff","558","stimuli/00110000.jpg"," ","","feedback_trial","0","","","","","","","","","","","","","","","","","","","","",""
"","","","","","image-keyboard-response","82","224556","0.0-57.0","62d44d484a28cd313e2c3ba4","665500ab8938657b03fbdba8","66577c451650a5472427efff","920","stimuli/0010001.jpg","0","","prediction_trial","0","","true","","0","true","true","true","true","true","true","[0]","010","001","1","","","","","","",""
"","","","","","image-keyboard-response","83","225011","0.0-58.0","62d44d484a28cd313e2c3ba4","665500ab8938657b03fbdba8","66577c451650a5472427efff","454","stimuli/00100010.jpg"," ","","feedback_trial","0","","","","","","","","","","","","","","","","","","","","",""
"","","","","","image-keyboard-response","84","228276","0.0-59.0","62d44d484a28cd313e2c3ba4","665500ab8938657b03fbdba8","66577c451650a5472427efff","3264","stimuli/0110011.jpg","1","","prediction_trial","0","","false","","0","true","true","false","false","false","false","[1,0]","110","011","0","","","","","","",""
"","","","","","image-keyboard-response","85","229027","0.0-60.0","62d44d484a28cd313e2c3ba4","665500ab8938657b03fbdba8","66577c451650a5472427efff","750","stimuli/01100110.jpg"," ","","feedback_trial","1","","","","","","","","","","","","","","","","","","","","",""
"","","","","","image-keyboard-response","86","231947","0.0-61.0","62d44d484a28cd313e2c3ba4","665500ab8938657b03fbdba8","66577c451650a5472427efff","2920","stimuli/2001010.jpg","2","","prediction_trial","2","","true","","2","true","true","false","true","false","true","[2]","001","010","1","","","","","","",""
"","","","","","image-keyboard-response","87","232546","0.0-62.0","62d44d484a28cd313e2c3ba4","665500ab8938657b03fbdba8","66577c451650a5472427efff","598","stimuli/20010102.jpg"," ","","feedback_trial","2","","","","","","","","","","","","","","","","","","","","",""
"","","","","","image-keyboard-response","88","234196","0.0-63.0","62d44d484a28cd313e2c3ba4","665500ab8938657b03fbdba8","66577c451650a5472427efff","1649","stimuli/2111000.jpg","2","","prediction_trial","1","","false","","2","true","true","false","false","false","false","[0,1,2]","111","000","0","","","","","","",""
"","","","","","image-keyboard-response","89","234978","0.0-64.0","62d44d484a28cd313e2c3ba4","665500ab8938657b03fbdba8","66577c451650a5472427efff","781","stimuli/21110001.jpg"," ","","feedback_trial","0","","","","","","","","","","","","","","","","","","","","",""
"","","","","","image-keyboard-response","90","237196","0.0-65.0","62d44d484a28cd313e2c3ba4","665500ab8938657b03fbdba8","66577c451650a5472427efff","2216","stimuli/2100011.jpg","1","","prediction_trial","2","","false","","2","false","false","true","true","false","false","[2]","100","011","0","","","","","","",""
"","","","","","image-keyboard-response","91","238082","0.0-66.0","62d44d484a28cd313e2c3ba4","665500ab8938657b03fbdba8","66577c451650a5472427efff","886","stimuli/21000112.jpg"," ","","feedback_trial","2","","","","","","","","","","","","","","","","","","","","",""
"","","","","","image-keyboard-response","92","238996","0.0-67.0","62d44d484a28cd313e2c3ba4","665500ab8938657b03fbdba8","66577c451650a5472427efff","913","stimuli/1001000.jpg","1","","prediction_trial","1","","true","","1","true","true","true","true","true","true","[1]","001","000","1","","","","","","",""
"","","","","","image-keyboard-response","93","239650","0.0-68.0","62d44d484a28cd313e2c3ba4","665500ab8938657b03fbdba8","66577c451650a5472427efff","653","stimuli/10010001.jpg"," ","","feedback_trial","1","","","","","","","","","","","","","","","","","","","","",""
"","","","","","image-keyboard-response","94","241916","0.0-69.0","62d44d484a28cd313e2c3ba4","665500ab8938657b03fbdba8","66577c451650a5472427efff","2265","stimuli/1110000.jpg","1","","prediction_trial","1","","true","","1","true","true","false","false","false","false","[1,0]","110","000","1","","","","","","",""
"","","","","","image-keyboard-response","95","242594","0.0-70.0","62d44d484a28cd313e2c3ba4","665500ab8938657b03fbdba8","66577c451650a5472427efff","677","stimuli/11100001.jpg"," ","","feedback_trial","1","","","","","","","","","","","","","","","","","","","","",""
"","","","","","image-keyboard-response","96","244749","0.0-71.0","62d44d484a28cd313e2c3ba4","665500ab8938657b03fbdba8","66577c451650a5472427efff","2148","stimuli/2110101.jpg","2","","prediction_trial","2","","true","","2","false","false","true","true","false","false","[2]","110","101","1","","","","","","",""
"","","","","","image-keyboard-response","97","245482","0.0-72.0","62d44d484a28cd313e2c3ba4","665500ab8938657b03fbdba8","66577c451650a5472427efff","732","stimuli/21101012.jpg"," ","","feedback_trial","2","","","","","","","","","","","","","","","","","","","","",""
"","","","","","image-keyboard-response","98","246804","0.0-73.0","62d44d484a28cd313e2c3ba4","665500ab8938657b03fbdba8","66577c451650a5472427efff","1321","stimuli/0000000.jpg","0","","prediction_trial","0","","true","","0","true","true","true","true","true","true","[0]","000","000","1","","","","","","",""
"","","","","","image-keyboard-response","99","247490","0.0-74.0","62d44d484a28cd313e2c3ba4","665500ab8938657b03fbdba8","66577c451650a5472427efff","685","stimuli/00000000.jpg"," ","","feedback_trial","0","","","","","","","","","","","","","","","","","","","","",""
"","","","","","image-keyboard-response","100","248659","0.0-75.0","62d44d484a28cd313e2c3ba4","665500ab8938657b03fbdba8","66577c451650a5472427efff","1168","stimuli/2110111.jpg","2","","prediction_trial","2","","true","","2","false","false","true","true","false","false","[2]","110","111","1","","","","","","",""
"","","","","","image-keyboard-response","101","249458","0.0-76.0","62d44d484a28cd313e2c3ba4","665500ab8938657b03fbdba8","66577c451650a5472427efff","798","stimuli/21101112.jpg"," ","","feedback_trial","2","","","","","","","","","","","","","","","","","","","","",""
"","","","","","image-keyboard-response","102","250403","0.0-77.0","62d44d484a28cd313e2c3ba4","665500ab8938657b03fbdba8","66577c451650a5472427efff","944","stimuli/2010000.jpg","2","","prediction_trial","2","","true","","2","true","true","true","true","true","true","[2]","010","000","1","","","","","","",""
"","","","","","image-keyboard-response","103","250946","0.0-78.0","62d44d484a28cd313e2c3ba4","665500ab8938657b03fbdba8","66577c451650a5472427efff","542","stimuli/20100002.jpg"," ","","feedback_trial","2","","","","","","","","","","","","","","","","","","","","",""
"","","","","","image-keyboard-response","104","251717","0.0-79.0","62d44d484a28cd313e2c3ba4","665500ab8938657b03fbdba8","66577c451650a5472427efff","770","stimuli/0011011.jpg","0","","prediction_trial","0","","true","","0","true","true","true","true","true","true","[0]","011","011","1","","","","","","",""
"","","","","","image-keyboard-response","105","252178","0.0-80.0","62d44d484a28cd313e2c3ba4","665500ab8938657b03fbdba8","66577c451650a5472427efff","460","stimuli/00110110.jpg"," ","","feedback_trial","0","","","","","","","","","","","","","","","","","","","","",""
"","","","","","image-keyboard-response","106","253604","0.0-81.0","62d44d484a28cd313e2c3ba4","665500ab8938657b03fbdba8","66577c451650a5472427efff","1425","stimuli/2001011.jpg","2","","prediction_trial","2","","true","","2","false","false","false","true","false","false","[2]","001","011","1","","","","","","",""
"","","","","","image-keyboard-response","107","254330","0.0-82.0","62d44d484a28cd313e2c3ba4","665500ab8938657b03fbdba8","66577c451650a5472427efff","725","stimuli/20010112.jpg"," ","","feedback_trial","2","","","","","","","","","","","","","","","","","","","","",""
"","","","","","image-keyboard-response","108","256195","0.0-83.0","62d44d484a28cd313e2c3ba4","665500ab8938657b03fbdba8","66577c451650a5472427efff","1864","stimuli/2111101.jpg","2","","prediction_trial","2","","true","","2","false","false","false","false","false","false","[1,2,0]","111","101","1","","","","","","",""
"","","","","","image-keyboard-response","109","257042","0.0-84.0","62d44d484a28cd313e2c3ba4","665500ab8938657b03fbdba8","66577c451650a5472427efff","845","stimuli/21111012.jpg"," ","","feedback_trial","1","","","","","","","","","","","","","","","","","","","","",""
"","","","","","image-keyboard-response","110","258843","0.0-85.0","62d44d484a28cd313e2c3ba4","665500ab8938657b03fbdba8","66577c451650a5472427efff","1800","stimuli/2101001.jpg","2","","prediction_trial","2","","true","","2","false","true","false","false","false","false","[0,2]","101","001","1","","","","","","",""
"","","","","","image-keyboard-response","111","259594","0.0-86.0","62d44d484a28cd313e2c3ba4","665500ab8938657b03fbdba8","66577c451650a5472427efff","750","stimuli/21010012.jpg"," ","","feedback_trial","0","","","","","","","","","","","","","","","","","","","","",""
"","","","","","image-keyboard-response","112","260843","0.0-87.0","62d44d484a28cd313e2c3ba4","665500ab8938657b03fbdba8","66577c451650a5472427efff","1248","stimuli/0111111.jpg","1","","prediction_trial","0","","false","","0","false","false","false","false","false","false","[1,0,2]","111","111","0","","","","","","",""
"","","","","","image-keyboard-response","113","261586","0.0-88.0","62d44d484a28cd313e2c3ba4","665500ab8938657b03fbdba8","66577c451650a5472427efff","742","stimuli/01111110.jpg"," ","","feedback_trial","1","","","","","","","","","","","","","","","","","","","","",""
"","","","","","image-keyboard-response","114","263820","0.0-89.0","62d44d484a28cd313e2c3ba4","665500ab8938657b03fbdba8","66577c451650a5472427efff","2234","stimuli/2011100.jpg","2","","prediction_trial","2","","true","","2","true","true","false","false","false","false","[2,1]","011","100","1","","","","","","",""
"","","","","","image-keyboard-response","115","264426","0.0-90.0","62d44d484a28cd313e2c3ba4","665500ab8938657b03fbdba8","66577c451650a5472427efff","604","stimuli/20111002.jpg"," ","","feedback_trial","2","","","","","","","","","","","","","","","","","","","","",""
"","","","","","image-keyboard-response","116","265571","0.0-91.0","62d44d484a28cd313e2c3ba4","665500ab8938657b03fbdba8","66577c451650a5472427efff","1144","stimuli/0111000.jpg","0","","prediction_trial","0","","true","","0","true","true","false","false","false","false","[2,0,1]","111","000","1","","","","","","",""
"","","","","","image-keyboard-response","117","266362","0.0-92.0","62d44d484a28cd313e2c3ba4","665500ab8938657b03fbdba8","66577c451650a5472427efff","790","stimuli/01110000.jpg"," ","","feedback_trial","2","","","","","","","","","","","","","","","","","","","","",""
"","","","","","image-keyboard-response","118","268410","0.0-93.0","62d44d484a28cd313e2c3ba4","665500ab8938657b03fbdba8","66577c451650a5472427efff","2048","stimuli/2010001.jpg","2","","prediction_trial","2","","true","","2","false","true","true","true","false","true","[2]","010","001","1","","","","","","",""
"","","","","","image-keyboard-response","119","269081","0.0-94.0","62d44d484a28cd313e2c3ba4","665500ab8938657b03fbdba8","66577c451650a5472427efff","670","stimuli/20100012.jpg"," ","","feedback_trial","2","","","","","","","","","","","","","","","","","","","","",""
"","","","","","image-keyboard-response","120","270379","0.0-95.0","62d44d484a28cd313e2c3ba4","665500ab8938657b03fbdba8","66577c451650a5472427efff","1296","stimuli/1110100.jpg","1","","prediction_trial","1","","true","","1","true","true","false","false","false","false","[0,1]","110","100","1","","","","","","",""
"","","","","","image-keyboard-response","121","271105","0.0-96.0","62d44d484a28cd313e2c3ba4","665500ab8938657b03fbdba8","66577c451650a5472427efff","726","stimuli/11101001.jpg"," ","","feedback_trial","0","","","","","","","","","","","","","","","","","","","","",""
"","","","","","image-keyboard-response","122","272700","0.0-97.0","62d44d484a28cd313e2c3ba4","665500ab8938657b03fbdba8","66577c451650a5472427efff","1588","stimuli/0100011.jpg","0","","prediction_trial","0","","true","","0","true","true","false","true","false","true","[0]","100","011","1","","","","","","",""
"","","","","","image-keyboard-response","123","273305","0.0-98.0","62d44d484a28cd313e2c3ba4","665500ab8938657b03fbdba8","66577c451650a5472427efff","603","stimuli/01000110.jpg"," ","","feedback_trial","0","","","","","","","","","","","","","","","","","","","","",""
"","","","","","image-keyboard-response","124","275314","0.0-99.0","62d44d484a28cd313e2c3ba4","665500ab8938657b03fbdba8","66577c451650a5472427efff","2008","stimuli/1101110.jpg","1","","prediction_trial","1","","true","","1","false","false","true","true","false","false","[1]","101","110","1","","","","","","",""
"","","","","","image-keyboard-response","125","276081","0.0-100.0","62d44d484a28cd313e2c3ba4","665500ab8938657b03fbdba8","66577c451650a5472427efff","766","stimuli/11011101.jpg"," ","","feedback_trial","1","","","","","","","","","","","","","","","","","","","","",""
"","","","","","image-keyboard-response","126","277483","0.0-101.0","62d44d484a28cd313e2c3ba4","665500ab8938657b03fbdba8","66577c451650a5472427efff","1400","stimuli/0000111.jpg","1","","prediction_trial","0","","false","","0","false","false","true","true","false","false","[0]","000","111","0","","","","","","",""
"","","","","","image-keyboard-response","127","278193","0.0-102.0","62d44d484a28cd313e2c3ba4","665500ab8938657b03fbdba8","66577c451650a5472427efff","709","stimuli/00001110.jpg"," ","","feedback_trial","0","","","","","","","","","","","","","","","","","","","","",""
"","","","","","image-keyboard-response","128","279234","0.0-103.0","62d44d484a28cd313e2c3ba4","665500ab8938657b03fbdba8","66577c451650a5472427efff","1040","stimuli/1001101.jpg","1","","prediction_trial","1","","true","","1","true","true","true","true","true","true","[1]","001","101","1","","","","","","",""
"","","","","","image-keyboard-response","129","280049","0.0-104.0","62d44d484a28cd313e2c3ba4","665500ab8938657b03fbdba8","66577c451650a5472427efff","813","stimuli/10011011.jpg"," ","","feedback_trial","1","","","","","","","","","","","","","","","","","","","","",""
"","","","","","image-keyboard-response","130","280730","0.0-105.0","62d44d484a28cd313e2c3ba4","665500ab8938657b03fbdba8","66577c451650a5472427efff","681","stimuli/2010110.jpg","2","","prediction_trial","2","","true","","2","true","true","true","true","true","true","[2]","010","110","1","","","","","","",""
"","","","","","image-keyboard-response","131","281273","0.0-106.0","62d44d484a28cd313e2c3ba4","665500ab8938657b03fbdba8","66577c451650a5472427efff","541","stimuli/20101102.jpg"," ","","feedback_trial","2","","","","","","","","","","","","","","","","","","","","",""
"","","","","","image-keyboard-response","132","283091","0.0-107.0","62d44d484a28cd313e2c3ba4","665500ab8938657b03fbdba8","66577c451650a5472427efff","1817","stimuli/2101100.jpg","2","","prediction_trial","2","","true","","2","true","true","false","false","false","false","[0,2]","101","100","1","","","","","","",""
"","","","","","image-keyboard-response","133","283825","0.0-108.0","62d44d484a28cd313e2c3ba4","665500ab8938657b03fbdba8","66577c451650a5472427efff","733","stimuli/21011002.jpg"," ","","feedback_trial","0","","","","","","","","","","","","","","","","","","","","",""
"","","","","","image-keyboard-response","134","285451","0.0-109.0","62d44d484a28cd313e2c3ba4","665500ab8938657b03fbdba8","66577c451650a5472427efff","1625","stimuli/1110011.jpg","2","","prediction_trial","1","","false","","1","false","false","false","false","false","false","[1,0]","110","011","0","","","","","","",""
"","","","","","image-keyboard-response","135","286145","0.0-110.0","62d44d484a28cd313e2c3ba4","665500ab8938657b03fbdba8","66577c451650a5472427efff","693","stimuli/11100111.jpg"," ","","feedback_trial","1","","","","","","","","","","","","","","","","","","","","",""
"","","","","","image-keyboard-response","136","288538","0.0-111.0","62d44d484a28cd313e2c3ba4","665500ab8938657b03fbdba8","66577c451650a5472427efff","2393","stimuli/1110010.jpg","1","","prediction_trial","1","","true","","1","false","true","false","false","false","false","[1,0]","110","010","1","","","","","","",""
"","","","","","image-keyboard-response","137","289297","0.0-112.0","62d44d484a28cd313e2c3ba4","665500ab8938657b03fbdba8","66577c451650a5472427efff","757","stimuli/11100101.jpg"," ","","feedback_trial","1","","","","","","","","","","","","","","","","","","","","",""
"","","","","","image-keyboard-response","138","291010","0.0-113.0","62d44d484a28cd313e2c3ba4","665500ab8938657b03fbdba8","66577c451650a5472427efff","1712","stimuli/1011000.jpg","1","","prediction_trial","1","","true","","1","true","true","false","false","false","false","[2,1]","011","000","1","","","","","","",""
"","","","","","image-keyboard-response","139","291577","0.0-114.0","62d44d484a28cd313e2c3ba4","665500ab8938657b03fbdba8","66577c451650a5472427efff","565","stimuli/10110001.jpg"," ","","feedback_trial","2","","","","","","","","","","","","","","","","","","","","",""
"","","","","","image-keyboard-response","140","292346","0.0-115.0","62d44d484a28cd313e2c3ba4","665500ab8938657b03fbdba8","66577c451650a5472427efff","768","stimuli/2000100.jpg","2","","prediction_trial","2","","true","","2","true","true","true","true","true","true","[2]","000","100","1","","","","","","",""
"","","","","","image-keyboard-response","141","292841","0.0-116.0","62d44d484a28cd313e2c3ba4","665500ab8938657b03fbdba8","66577c451650a5472427efff","494","stimuli/20001002.jpg"," ","","feedback_trial","2","","","","","","","","","","","","","","","","","","","","",""
"","","","","","image-keyboard-response","142","298096","0.0-117.0","62d44d484a28cd313e2c3ba4","665500ab8938657b03fbdba8","66577c451650a5472427efff","5255","stimuli/2101111.jpg","1","","prediction_trial","0","","false","","2","false","false","false","false","false","false","[2,0]","101","111","0","","","","","","",""
"","","","","","image-keyboard-response","143","298631","0.0-118.0","62d44d484a28cd313e2c3ba4","665500ab8938657b03fbdba8","66577c451650a5472427efff","533","stimuli/21011110.jpg"," ","","feedback_trial","2","","","","","","","","","","","","","","","","","","","","",""
"","","","","","image-keyboard-response","144","300896","0.0-119.0","62d44d484a28cd313e2c3ba4","665500ab8938657b03fbdba8","66577c451650a5472427efff","2265","stimuli/1111011.jpg","2","","prediction_trial","0","","false","","1","false","false","false","false","false","false","[2,1,0]","111","011","0","","","","","","",""
"","","","","","image-keyboard-response","145","301503","0.0-120.0","62d44d484a28cd313e2c3ba4","665500ab8938657b03fbdba8","66577c451650a5472427efff","606","stimuli/11110110.jpg"," ","","feedback_trial","2","","","","","","","","","","","","","","","","","","","","",""
"","","","","","image-keyboard-response","146","303568","0.0-121.0","62d44d484a28cd313e2c3ba4","665500ab8938657b03fbdba8","66577c451650a5472427efff","2064","stimuli/1100011.jpg","1","","prediction_trial","1","","true","","1","false","false","true","true","false","false","[1]","100","011","1","","","","","","",""
"","","","","","image-keyboard-response","147","304270","0.0-122.0","62d44d484a28cd313e2c3ba4","665500ab8938657b03fbdba8","66577c451650a5472427efff","702","stimuli/11000111.jpg"," ","","feedback_trial","1","","","","","","","","","","","","","","","","","","","","",""
"","","","","","image-keyboard-response","148","305657","0.0-123.0","62d44d484a28cd313e2c3ba4","665500ab8938657b03fbdba8","66577c451650a5472427efff","1385","stimuli/1001111.jpg","1","","prediction_trial","1","","true","","1","false","false","true","true","false","false","[1]","001","111","1","","","","","","",""
"","","","","","image-keyboard-response","149","306126","0.0-124.0","62d44d484a28cd313e2c3ba4","665500ab8938657b03fbdba8","66577c451650a5472427efff","469","stimuli/10011111.jpg"," ","","feedback_trial","1","","","","","","","","","","","","","","","","","","","","",""
"","","","","","image-keyboard-response","150","306847","0.0-125.0","62d44d484a28cd313e2c3ba4","665500ab8938657b03fbdba8","66577c451650a5472427efff","719","stimuli/0000001.jpg","0","","prediction_trial","0","","true","","0","true","true","true","true","true","true","[0]","000","001","1","","","","","","",""
"","","","","","image-keyboard-response","151","307406","0.0-126.0","62d44d484a28cd313e2c3ba4","665500ab8938657b03fbdba8","66577c451650a5472427efff","558","stimuli/00000010.jpg"," ","","feedback_trial","0","","","","","","","","","","","","","","","","","","","","",""
"","","","","","image-keyboard-response","152","308608","0.0-127.0","62d44d484a28cd313e2c3ba4","665500ab8938657b03fbdba8","66577c451650a5472427efff","1200","stimuli/1111100.jpg","1","","prediction_trial","0","","false","","1","true","true","false","false","false","false","[0,1,2]","111","100","0","","","","","","",""
"","","","","","image-keyboard-response","153","309278","0.0-128.0","62d44d484a28cd313e2c3ba4","665500ab8938657b03fbdba8","66577c451650a5472427efff","669","stimuli/11111000.jpg"," ","","feedback_trial","0","","","","","","","","","","","","","","","","","","","","",""
"","","","","","image-keyboard-response","154","310392","0.0-129.0","62d44d484a28cd313e2c3ba4","665500ab8938657b03fbdba8","66577c451650a5472427efff","1113","stimuli/2111110.jpg","2","","prediction_trial","1","","false","","2","true","true","false","false","false","false","[1,2,0]","111","110","0","","","","","","",""
"","","","","","image-keyboard-response","155","311062","0.0-130.0","62d44d484a28cd313e2c3ba4","665500ab8938657b03fbdba8","66577c451650a5472427efff","670","stimuli/21111101.jpg"," ","","feedback_trial","1","","","","","","","","","","","","","","","","","","","","",""
"","","","","","image-keyboard-response","156","312385","0.0-131.0","62d44d484a28cd313e2c3ba4","665500ab8938657b03fbdba8","66577c451650a5472427efff","1322","stimuli/1010001.jpg","1","","prediction_trial","1","","true","","1","true","true","false","true","false","true","[1]","010","001","1","","","","","","",""
"","","","","","image-keyboard-response","157","313006","0.0-132.0","62d44d484a28cd313e2c3ba4","665500ab8938657b03fbdba8","66577c451650a5472427efff","618","stimuli/10100011.jpg"," ","","feedback_trial","1","","","","","","","","","","","","","","","","","","","","",""
"","","","","","image-keyboard-response","158","315079","0.0-133.0","62d44d484a28cd313e2c3ba4","665500ab8938657b03fbdba8","66577c451650a5472427efff","2072","stimuli/0101010.jpg","0","","prediction_trial","0","","true","","0","true","true","false","false","false","false","[2,0]","101","010","1","","","","","","",""
"","","","","","image-keyboard-response","159","315678","0.0-134.0","62d44d484a28cd313e2c3ba4","665500ab8938657b03fbdba8","66577c451650a5472427efff","598","stimuli/01010100.jpg"," ","","feedback_trial","2","","","","","","","","","","","","","","","","","","","","",""
"","","","","","image-keyboard-response","160","317343","0.0-135.0","62d44d484a28cd313e2c3ba4","665500ab8938657b03fbdba8","66577c451650a5472427efff","1664","stimuli/0101001.jpg","0","","prediction_trial","0","","true","","0","true","true","false","false","false","false","[2,0]","101","001","1","","","","","","",""
"","","","","","image-keyboard-response","161","317918","0.0-136.0","62d44d484a28cd313e2c3ba4","665500ab8938657b03fbdba8","66577c451650a5472427efff","573","stimuli/01010010.jpg"," ","","feedback_trial","2","","","","","","","","","","","","","","","","","","","","",""
"","","","","","image-keyboard-response","162","319119","0.0-137.0","62d44d484a28cd313e2c3ba4","665500ab8938657b03fbdba8","66577c451650a5472427efff","1200","stimuli/2110011.jpg","2","","prediction_trial","2","","true","","2","false","false","true","true","false","false","[2]","110","011","1","","","","","","",""
"","","","","","image-keyboard-response","163","319814","0.0-138.0","62d44d484a28cd313e2c3ba4","665500ab8938657b03fbdba8","66577c451650a5472427efff","694","stimuli/21100112.jpg"," ","","feedback_trial","2","","","","","","","","","","","","","","","","","","","","",""
"","","","","","image-keyboard-response","164","320671","0.0-139.0","62d44d484a28cd313e2c3ba4","665500ab8938657b03fbdba8","66577c451650a5472427efff","856","stimuli/1101100.jpg","1","","prediction_trial","1","","true","","1","true","true","true","true","true","true","[1]","101","100","1","","","","","","",""
"","","","","","image-keyboard-response","165","321182","0.0-140.0","62d44d484a28cd313e2c3ba4","665500ab8938657b03fbdba8","66577c451650a5472427efff","510","stimuli/11011001.jpg"," ","","feedback_trial","1","","","","","","","","","","","","","","","","","","","","",""
"","","","","","image-keyboard-response","166","322711","0.0-141.0","62d44d484a28cd313e2c3ba4","665500ab8938657b03fbdba8","66577c451650a5472427efff","1529","stimuli/2100101.jpg","2","","prediction_trial","2","","true","","2","false","false","true","true","false","false","[2]","100","101","1","","","","","","",""
"","","","","","image-keyboard-response","167","323406","0.0-142.0","62d44d484a28cd313e2c3ba4","665500ab8938657b03fbdba8","66577c451650a5472427efff","694","stimuli/21001012.jpg"," ","","feedback_trial","2","","","","","","","","","","","","","","","","","","","","",""
"","","","","","image-keyboard-response","168","324264","0.0-143.0","62d44d484a28cd313e2c3ba4","665500ab8938657b03fbdba8","66577c451650a5472427efff","857","stimuli/1100001.jpg","1","","prediction_trial","1","","true","","1","true","true","true","true","true","true","[1]","100","001","1","","","","","","",""
"","","","","","image-keyboard-response","169","324861","0.0-144.0","62d44d484a28cd313e2c3ba4","665500ab8938657b03fbdba8","66577c451650a5472427efff","596","stimuli/11000011.jpg"," ","","feedback_trial","1","","","","","","","","","","","","","","","","","","","","",""
"","","","","","image-keyboard-response","170","325631","0.0-145.0","62d44d484a28cd313e2c3ba4","665500ab8938657b03fbdba8","66577c451650a5472427efff","769","stimuli/2000000.jpg","2","","prediction_trial","2","","true","","2","true","true","true","true","true","true","[2]","000","000","1","","","","","","",""
"","","","","","image-keyboard-response","171","326333","0.0-146.0","62d44d484a28cd313e2c3ba4","665500ab8938657b03fbdba8","66577c451650a5472427efff","702","stimuli/20000002.jpg"," ","","feedback_trial","2","","","","","","","","","","","","","","","","","","","","",""
"","","","","","image-keyboard-response","172","327575","0.0-147.0","62d44d484a28cd313e2c3ba4","665500ab8938657b03fbdba8","66577c451650a5472427efff","1241","stimuli/1001110.jpg","1","","prediction_trial","1","","true","","1","false","false","true","true","false","false","[1]","001","110","1","","","","","","",""
"","","","","","image-keyboard-response","173","328262","0.0-148.0","62d44d484a28cd313e2c3ba4","665500ab8938657b03fbdba8","66577c451650a5472427efff","685","stimuli/10011101.jpg"," ","","feedback_trial","1","","","","","","","","","","","","","","","","","","","","",""
"","","","","","image-keyboard-response","174","329391","0.0-149.0","62d44d484a28cd313e2c3ba4","665500ab8938657b03fbdba8","66577c451650a5472427efff","1128","stimuli/0101110.jpg","1","","prediction_trial","2","","false","","0","false","false","false","false","false","false","[2,0]","101","110","0","","","","","","",""
"","","","","","image-keyboard-response","175","330550","0.0-150.0","62d44d484a28cd313e2c3ba4","665500ab8938657b03fbdba8","66577c451650a5472427efff","1158","stimuli/01011102.jpg"," ","","feedback_trial","2","","","","","","","","","","","","","","","","","","","","",""
"","","","","","image-keyboard-response","176","332792","0.0-151.0","62d44d484a28cd313e2c3ba4","665500ab8938657b03fbdba8","66577c451650a5472427efff","2242","stimuli/0111101.jpg","2","","prediction_trial","0","","false","","0","false","false","false","false","false","false","[1,2,0]","111","101","0","","","","","","",""
"","","","","","image-keyboard-response","177","333485","0.0-152.0","62d44d484a28cd313e2c3ba4","665500ab8938657b03fbdba8","66577c451650a5472427efff","691","stimuli/01111010.jpg"," ","","feedback_trial","1","","","","","","","","","","","","","","","","","","","","",""
"","","","","","image-keyboard-response","178","334344","0.0-153.0","62d44d484a28cd313e2c3ba4","665500ab8938657b03fbdba8","66577c451650a5472427efff","858","stimuli/2110100.jpg","2","","prediction_trial","2","","true","","2","true","true","true","true","true","true","[2]","110","100","1","","","","","","",""
"","","","","","image-keyboard-response","179","334917","0.0-154.0","62d44d484a28cd313e2c3ba4","665500ab8938657b03fbdba8","66577c451650a5472427efff","572","stimuli/21101002.jpg"," ","","feedback_trial","2","","","","","","","","","","","","","","","","","","","","",""
"","","","","","image-keyboard-response","180","335694","0.0-155.0","62d44d484a28cd313e2c3ba4","665500ab8938657b03fbdba8","66577c451650a5472427efff","776","stimuli/2000110.jpg","2","","prediction_trial","2","","true","","2","true","true","true","true","true","true","[2]","000","110","1","","","","","","",""
"","","","","","image-keyboard-response","181","336181","0.0-156.0","62d44d484a28cd313e2c3ba4","665500ab8938657b03fbdba8","66577c451650a5472427efff","486","stimuli/20001102.jpg"," ","","feedback_trial","2","","","","","","","","","","","","","","","","","","","","",""
"","","","","","image-keyboard-response","182","338190","0.0-157.0","62d44d484a28cd313e2c3ba4","665500ab8938657b03fbdba8","66577c451650a5472427efff","2008","stimuli/1001011.jpg","1","","prediction_trial","1","","true","","1","false","false","true","true","false","false","[1]","001","011","1","","","","","","",""
"","","","","","image-keyboard-response","183","338901","0.0-158.0","62d44d484a28cd313e2c3ba4","665500ab8938657b03fbdba8","66577c451650a5472427efff","710","stimuli/10010111.jpg"," ","","feedback_trial","1","","","","","","","","","","","","","","","","","","","","",""
"","","","","","image-keyboard-response","184","340174","0.0-159.0","62d44d484a28cd313e2c3ba4","665500ab8938657b03fbdba8","66577c451650a5472427efff","1272","stimuli/2000111.jpg","2","","prediction_trial","2","","true","","2","false","false","true","true","false","false","[2]","000","111","1","","","","","","",""
"","","","","","image-keyboard-response","185","341173","0.0-160.0","62d44d484a28cd313e2c3ba4","665500ab8938657b03fbdba8","66577c451650a5472427efff","998","stimuli/20001112.jpg"," ","","feedback_trial","2","","","","","","","","","","","","","","","","","","","","",""
"","","","","","image-keyboard-response","186","342823","0.0-161.0","62d44d484a28cd313e2c3ba4","665500ab8938657b03fbdba8","66577c451650a5472427efff","1648","stimuli/2000101.jpg","2","","prediction_trial","2","","true","","2","false","false","true","true","false","false","[2]","000","101","1","","","","","","",""
"","","","","","image-keyboard-response","187","343453","0.0-162.0","62d44d484a28cd313e2c3ba4","665500ab8938657b03fbdba8","66577c451650a5472427efff","630","stimuli/20001012.jpg"," ","","feedback_trial","2","","","","","","","","","","","","","","","","","","","","",""
"","","","","","image-keyboard-response","188","344718","0.0-163.0","62d44d484a28cd313e2c3ba4","665500ab8938657b03fbdba8","66577c451650a5472427efff","1264","stimuli/1000110.jpg","0","","prediction_trial","1","","false","","1","false","false","true","true","false","false","[1]","000","110","0","","","","","","",""
"","","","","","image-keyboard-response","189","345445","0.0-164.0","62d44d484a28cd313e2c3ba4","665500ab8938657b03fbdba8","66577c451650a5472427efff","726","stimuli/10001101.jpg"," ","","feedback_trial","1","","","","","","","","","","","","","","","","","","","","",""
"","","","","","image-keyboard-response","190","346830","0.0-165.0","62d44d484a28cd313e2c3ba4","665500ab8938657b03fbdba8","66577c451650a5472427efff","1384","stimuli/0010111.jpg","1","","prediction_trial","0","","false","","0","false","false","true","true","false","false","[0]","010","111","0","","","","","","",""
"","","","","","image-keyboard-response","191","347469","0.0-166.0","62d44d484a28cd313e2c3ba4","665500ab8938657b03fbdba8","66577c451650a5472427efff","638","stimuli/00101110.jpg"," ","","feedback_trial","0","","","","","","","","","","","","","","","","","","","","",""
"","","","","","image-keyboard-response","192","348430","0.0-167.0","62d44d484a28cd313e2c3ba4","665500ab8938657b03fbdba8","66577c451650a5472427efff","960","stimuli/1101000.jpg","1","","prediction_trial","1","","true","","1","true","true","true","true","true","true","[1]","101","000","1","","","","","","",""
"","","","","","image-keyboard-response","193","349261","0.0-168.0","62d44d484a28cd313e2c3ba4","665500ab8938657b03fbdba8","66577c451650a5472427efff","830","stimuli/11010001.jpg"," ","","feedback_trial","1","","","","","","","","","","","","","","","","","","","","",""
"","","","","","image-keyboard-response","194","350111","0.0-169.0","62d44d484a28cd313e2c3ba4","665500ab8938657b03fbdba8","66577c451650a5472427efff","849","stimuli/2100010.jpg","2","","prediction_trial","2","","true","","2","true","true","true","true","true","true","[2]","100","010","1","","","","","","",""
"","","","","","image-keyboard-response","195","350669","0.0-170.0","62d44d484a28cd313e2c3ba4","665500ab8938657b03fbdba8","66577c451650a5472427efff","557","stimuli/21000102.jpg"," ","","feedback_trial","2","","","","","","","","","","","","","","","","","","","","",""
"","","","","","image-keyboard-response","196","352686","0.0-171.0","62d44d484a28cd313e2c3ba4","665500ab8938657b03fbdba8","66577c451650a5472427efff","2016","stimuli/1010110.jpg","0","","prediction_trial","1","","false","","1","false","false","false","true","false","false","[1]","010","110","0","","","","","","",""
"","","","","","image-keyboard-response","197","353261","0.0-172.0","62d44d484a28cd313e2c3ba4","665500ab8938657b03fbdba8","66577c451650a5472427efff","574","stimuli/10101101.jpg"," ","","feedback_trial","1","","","","","","","","","","","","","","","","","","","","",""
"","","","","","image-keyboard-response","198","354462","0.0-173.0","62d44d484a28cd313e2c3ba4","665500ab8938657b03fbdba8","66577c451650a5472427efff","1200","stimuli/1101011.jpg","1","","prediction_trial","1","","true","","1","false","false","true","true","false","false","[1]","101","011","1","","","","","","",""
"","","","","","image-keyboard-response","199","355165","0.0-174.0","62d44d484a28cd313e2c3ba4","665500ab8938657b03fbdba8","66577c451650a5472427efff","702","stimuli/11010111.jpg"," ","","feedback_trial","1","","","","","","","","","","","","","","","","","","","","",""
"","","","","","image-keyboard-response","200","356463","0.0-175.0","62d44d484a28cd313e2c3ba4","665500ab8938657b03fbdba8","66577c451650a5472427efff","1297","stimuli/0110010.jpg","0","","prediction_trial","0","","true","","0","true","true","false","false","false","false","[0,1]","110","010","1","","","","","","",""
"","","","","","image-keyboard-response","201","357141","0.0-176.0","62d44d484a28cd313e2c3ba4","665500ab8938657b03fbdba8","66577c451650a5472427efff","677","stimuli/01100100.jpg"," ","","feedback_trial","0","","","","","","","","","","","","","","","","","","","","",""
"","","","","","image-keyboard-response","202","358278","0.0-177.0","62d44d484a28cd313e2c3ba4","665500ab8938657b03fbdba8","66577c451650a5472427efff","1136","stimuli/2100000.jpg","2","","prediction_trial","2","","true","","2","true","true","true","true","true","true","[2]","100","000","1","","","","","","",""
"","","","","","image-keyboard-response","203","358877","0.0-178.0","62d44d484a28cd313e2c3ba4","665500ab8938657b03fbdba8","66577c451650a5472427efff","598","stimuli/21000002.jpg"," ","","feedback_trial","2","","","","","","","","","","","","","","","","","","","","",""
"","","","","","image-keyboard-response","204","360870","0.0-179.0","62d44d484a28cd313e2c3ba4","665500ab8938657b03fbdba8","66577c451650a5472427efff","1993","stimuli/2010111.jpg","2","","prediction_trial","2","","true","","2","false","false","true","true","false","false","[2]","010","111","1","","","","","","",""
"","","","","","image-keyboard-response","205","361581","0.0-180.0","62d44d484a28cd313e2c3ba4","665500ab8938657b03fbdba8","66577c451650a5472427efff","710","stimuli/20101112.jpg"," ","","feedback_trial","2","","","","","","","","","","","","","","","","","","","","",""
"","","","","","image-keyboard-response","206","362990","0.0-181.0","62d44d484a28cd313e2c3ba4","665500ab8938657b03fbdba8","66577c451650a5472427efff","1408","stimuli/0001110.jpg","1","","prediction_trial","0","","false","","0","false","false","true","true","false","false","[0]","001","110","0","","","","","","",""
"","","","","","image-keyboard-response","207","363653","0.0-182.0","62d44d484a28cd313e2c3ba4","665500ab8938657b03fbdba8","66577c451650a5472427efff","662","stimuli/00011100.jpg"," ","","feedback_trial","0","","","","","","","","","","","","","","","","","","","","",""
"","","","","","image-keyboard-response","208","365230","0.0-183.0","62d44d484a28cd313e2c3ba4","665500ab8938657b03fbdba8","66577c451650a5472427efff","1576","stimuli/2000011.jpg","2","","prediction_trial","2","","true","","2","false","false","true","true","false","false","[2]","000","011","1","","","","","","",""
"","","","","","image-keyboard-response","209","365965","0.0-184.0","62d44d484a28cd313e2c3ba4","665500ab8938657b03fbdba8","66577c451650a5472427efff","734","stimuli/20000112.jpg"," ","","feedback_trial","2","","","","","","","","","","","","","","","","","","","","",""
"","","","","","image-keyboard-response","210","367383","0.0-185.0","62d44d484a28cd313e2c3ba4","665500ab8938657b03fbdba8","66577c451650a5472427efff","1418","stimuli/0100100.jpg","0","","prediction_trial","0","","true","","0","false","true","false","true","false","true","[0]","100","100","1","","","","","","",""
"","","","","","image-keyboard-response","211","368124","0.0-186.0","62d44d484a28cd313e2c3ba4","665500ab8938657b03fbdba8","66577c451650a5472427efff","740","stimuli/01001000.jpg"," ","","feedback_trial","0","","","","","","","","","","","","","","","","","","","","",""
"","","","","","image-keyboard-response","212","369029","0.0-187.0","62d44d484a28cd313e2c3ba4","665500ab8938657b03fbdba8","66577c451650a5472427efff","904","stimuli/2100110.jpg","2","","prediction_trial","2","","true","","2","true","true","true","true","true","true","[2]","100","110","1","","","","","","",""
"","","","","","image-keyboard-response","213","369572","0.0-188.0","62d44d484a28cd313e2c3ba4","665500ab8938657b03fbdba8","66577c451650a5472427efff","542","stimuli/21001102.jpg"," ","","feedback_trial","2","","","","","","","","","","","","","","","","","","","","",""
"","","","","","image-keyboard-response","214","371470","0.0-189.0","62d44d484a28cd313e2c3ba4","665500ab8938657b03fbdba8","66577c451650a5472427efff","1896","stimuli/0110001.jpg","1","","prediction_trial","0","","false","","0","true","true","false","false","false","false","[0,1]","110","001","0","","","","","","",""
"","","","","","image-keyboard-response","215","372100","0.0-190.0","62d44d484a28cd313e2c3ba4","665500ab8938657b03fbdba8","66577c451650a5472427efff","629","stimuli/01100010.jpg"," ","","feedback_trial","0","","","","","","","","","","","","","","","","","","","","",""
"","","","","","image-keyboard-response","216","374327","0.0-191.0","62d44d484a28cd313e2c3ba4","665500ab8938657b03fbdba8","66577c451650a5472427efff","2226","stimuli/0011110.jpg","0","","prediction_trial","0","","true","","0","false","false","true","true","false","false","[0]","011","110","1","","","","","","",""
"","","","","","image-keyboard-response","217","374924","0.0-192.0","62d44d484a28cd313e2c3ba4","665500ab8938657b03fbdba8","66577c451650a5472427efff","595","stimuli/00111100.jpg"," ","","feedback_trial","0","","","","","","","","","","","","","","","","","","","","",""
"","","","","","image-keyboard-response","218","375766","0.0-193.0","62d44d484a28cd313e2c3ba4","665500ab8938657b03fbdba8","66577c451650a5472427efff","840","stimuli/0000011.jpg","0","","prediction_trial","0","","true","","0","true","true","true","true","true","true","[0]","000","011","1","","","","","","",""
"","","","","","image-keyboard-response","219","376364","0.0-194.0","62d44d484a28cd313e2c3ba4","665500ab8938657b03fbdba8","66577c451650a5472427efff","598","stimuli/00000110.jpg"," ","","feedback_trial","0","","","","","","","","","","","","","","","","","","","","",""
"","","","","","image-keyboard-response","220","377454","0.0-195.0","62d44d484a28cd313e2c3ba4","665500ab8938657b03fbdba8","66577c451650a5472427efff","1088","stimuli/1111000.jpg","1","","prediction_trial","2","","false","","1","true","true","false","false","false","false","[2,0,1]","111","000","0","","","","","","",""
"","","","","","image-keyboard-response","221","378044","0.0-196.0","62d44d484a28cd313e2c3ba4","665500ab8938657b03fbdba8","66577c451650a5472427efff","590","stimuli/11110002.jpg"," ","","feedback_trial","2","","","","","","","","","","","","","","","","","","","","",""
"","","","","","image-keyboard-response","222","379262","0.0-197.0","62d44d484a28cd313e2c3ba4","665500ab8938657b03fbdba8","66577c451650a5472427efff","1216","stimuli/0110000.jpg","0","","prediction_trial","1","","false","","0","true","true","false","false","false","false","[1,0]","110","000","0","","","","","","",""
"","","","","","image-keyboard-response","223","379828","0.0-198.0","62d44d484a28cd313e2c3ba4","665500ab8938657b03fbdba8","66577c451650a5472427efff","565","stimuli/01100001.jpg"," ","","feedback_trial","1","","","","","","","","","","","","","","","","","","","","",""
"","","","","","image-keyboard-response","224","380773","0.0-199.0","62d44d484a28cd313e2c3ba4","665500ab8938657b03fbdba8","66577c451650a5472427efff","944","stimuli/1000100.jpg","1","","prediction_trial","1","","true","","1","true","true","true","true","true","true","[1]","000","100","1","","","","","","",""
"","","","","","image-keyboard-response","225","381364","0.0-200.0","62d44d484a28cd313e2c3ba4","665500ab8938657b03fbdba8","66577c451650a5472427efff","590","stimuli/10001001.jpg"," ","","feedback_trial","1","","","","","","","","","","","","","","","","","","","","",""
"","","","","","image-keyboard-response","226","382278","0.0-201.0","62d44d484a28cd313e2c3ba4","665500ab8938657b03fbdba8","66577c451650a5472427efff","912","stimuli/1011110.jpg","0","","prediction_trial","1","","false","","1","false","false","false","false","false","false","[1,2]","011","110","0","","","","","","",""
"","","","","","image-keyboard-response","227","383244","0.0-202.0","62d44d484a28cd313e2c3ba4","665500ab8938657b03fbdba8","66577c451650a5472427efff","965","stimuli/10111101.jpg"," ","","feedback_trial","1","","","","","","","","","","","","","","","","","","","","",""
"","","","","","image-keyboard-response","228","384150","0.0-203.0","62d44d484a28cd313e2c3ba4","665500ab8938657b03fbdba8","66577c451650a5472427efff","904","stimuli/0011001.jpg","0","","prediction_trial","0","","true","","0","true","true","true","true","true","true","[0]","011","001","1","","","","","","",""
"","","","","","image-keyboard-response","229","384700","0.0-204.0","62d44d484a28cd313e2c3ba4","665500ab8938657b03fbdba8","66577c451650a5472427efff","550","stimuli/00110010.jpg"," ","","feedback_trial","0","","","","","","","","","","","","","","","","","","","","",""
"","","","","","image-keyboard-response","230","386279","0.0-205.0","62d44d484a28cd313e2c3ba4","665500ab8938657b03fbdba8","66577c451650a5472427efff","1578","stimuli/0101101.jpg","2","","prediction_trial","0","","false","","0","false","false","false","false","false","false","[0,2]","101","101","0","","","","","","",""
"","","","","","image-keyboard-response","231","386988","0.0-206.0","62d44d484a28cd313e2c3ba4","665500ab8938657b03fbdba8","66577c451650a5472427efff","708","stimuli/01011010.jpg"," ","","feedback_trial","0","","","","","","","","","","","","","","","","","","","","",""
"","","","","","image-keyboard-response","232","388565","0.0-207.0","62d44d484a28cd313e2c3ba4","665500ab8938657b03fbdba8","66577c451650a5472427efff","1576","stimuli/2111001.jpg","2","","prediction_trial","1","","false","","2","false","true","false","false","false","false","[0,2,1]","111","001","0","","","","","","",""
"","","","","","image-keyboard-response","233","389308","0.0-208.0","62d44d484a28cd313e2c3ba4","665500ab8938657b03fbdba8","66577c451650a5472427efff","742","stimuli/21110011.jpg"," ","","feedback_trial","0","","","","","","","","","","","","","","","","","","","","",""
"","","","","","image-keyboard-response","234","391093","0.0-209.0","62d44d484a28cd313e2c3ba4","665500ab8938657b03fbdba8","66577c451650a5472427efff","1784","stimuli/2011101.jpg","0","","prediction_trial","1","","false","","2","false","false","false","false","false","false","[1,2]","011","101","0","","","","","","",""
"","","","","","image-keyboard-response","235","392492","0.0-210.0","62d44d484a28cd313e2c3ba4","665500ab8938657b03fbdba8","66577c451650a5472427efff","1398","stimuli/20111011.jpg"," ","","feedback_trial","1","","","","","","","","","","","","","","","","","","","","",""
"","","","","","image-keyboard-response","236","393668","0.0-211.0","62d44d484a28cd313e2c3ba4","665500ab8938657b03fbdba8","66577c451650a5472427efff","1175","stimuli/2100100.jpg","2","","prediction_trial","2","","true","","2","true","true","true","true","true","true","[2]","100","100","1","","","","","","",""
"","","","","","image-keyboard-response","237","394348","0.0-212.0","62d44d484a28cd313e2c3ba4","665500ab8938657b03fbdba8","66577c451650a5472427efff","678","stimuli/21001002.jpg"," ","","feedback_trial","2","","","","","","","","","","","","","","","","","","","","",""
"","","","","","image-keyboard-response","238","396776","0.0-213.0","62d44d484a28cd313e2c3ba4","665500ab8938657b03fbdba8","66577c451650a5472427efff","2427","stimuli/1011010.jpg","1","","prediction_trial","1","","true","","1","false","true","false","false","false","false","[1,2]","011","010","1","","","","","","",""
"","","","","","image-keyboard-response","239","397476","0.0-214.0","62d44d484a28cd313e2c3ba4","665500ab8938657b03fbdba8","66577c451650a5472427efff","699","stimuli/10110101.jpg"," ","","feedback_trial","1","","","","","","","","","","","","","","","","","","","","",""
"","","","","","image-keyboard-response","240","399413","0.0-215.0","62d44d484a28cd313e2c3ba4","665500ab8938657b03fbdba8","66577c451650a5472427efff","1936","stimuli/0011111.jpg","1","","prediction_trial","0","","false","","0","false","false","true","true","false","false","[0]","011","111","0","","","","","","",""
"","","","","","image-keyboard-response","241","400244","0.0-216.0","62d44d484a28cd313e2c3ba4","665500ab8938657b03fbdba8","66577c451650a5472427efff","830","stimuli/00111110.jpg"," ","","feedback_trial","0","","","","","","","","","","","","","","","","","","","","",""
"","","","","","image-keyboard-response","242","401741","0.0-217.0","62d44d484a28cd313e2c3ba4","665500ab8938657b03fbdba8","66577c451650a5472427efff","1496","stimuli/1000111.jpg","2","","prediction_trial","1","","false","","1","false","false","true","true","false","false","[1]","000","111","0","","","","","","",""
"","","","","","image-keyboard-response","243","402547","0.0-218.0","62d44d484a28cd313e2c3ba4","665500ab8938657b03fbdba8","66577c451650a5472427efff","806","stimuli/10001111.jpg"," ","","feedback_trial","1","","","","","","","","","","","","","","","","","","","","",""
"","","","","","image-keyboard-response","244","403813","0.0-219.0","62d44d484a28cd313e2c3ba4","665500ab8938657b03fbdba8","66577c451650a5472427efff","1264","stimuli/1111110.jpg","1","","prediction_trial","0","","false","","1","false","false","false","false","false","false","[1,2,0]","111","110","0","","","","","","",""
"","","","","","image-keyboard-response","245","404499","0.0-220.0","62d44d484a28cd313e2c3ba4","665500ab8938657b03fbdba8","66577c451650a5472427efff","686","stimuli/11111100.jpg"," ","","feedback_trial","1","","","","","","","","","","","","","","","","","","","","",""
"","","","","","image-keyboard-response","246","406069","0.0-221.0","62d44d484a28cd313e2c3ba4","665500ab8938657b03fbdba8","66577c451650a5472427efff","1568","stimuli/0011101.jpg","0","","prediction_trial","0","","true","","0","false","false","true","true","false","false","[0]","011","101","1","","","","","","",""
"","","","","","image-keyboard-response","247","406812","0.0-222.0","62d44d484a28cd313e2c3ba4","665500ab8938657b03fbdba8","66577c451650a5472427efff","742","stimuli/00111010.jpg"," ","","feedback_trial","0","","","","","","","","","","","","","","","","","","","","",""
"","","","","","image-keyboard-response","248","407973","0.0-223.0","62d44d484a28cd313e2c3ba4","665500ab8938657b03fbdba8","66577c451650a5472427efff","1160","stimuli/1010000.jpg","1","","prediction_trial","1","","true","","1","true","true","false","true","false","true","[1]","010","000","1","","","","","","",""
"","","","","","image-keyboard-response","249","408579","0.0-224.0","62d44d484a28cd313e2c3ba4","665500ab8938657b03fbdba8","66577c451650a5472427efff","606","stimuli/10100001.jpg"," ","","feedback_trial","1","","","","","","","","","","","","","","","","","","","","",""
"","","","","","image-keyboard-response","250","409724","0.0-225.0","62d44d484a28cd313e2c3ba4","665500ab8938657b03fbdba8","66577c451650a5472427efff","1144","stimuli/2001000.jpg","2","","prediction_trial","2","","true","","2","true","true","false","true","false","true","[2]","001","000","1","","","","","","",""
"","","","","","image-keyboard-response","251","410347","0.0-226.0","62d44d484a28cd313e2c3ba4","665500ab8938657b03fbdba8","66577c451650a5472427efff","622","stimuli/20010002.jpg"," ","","feedback_trial","2","","","","","","","","","","","","","","","","","","","","",""
"","","","","","image-keyboard-response","252","412181","0.0-227.0","62d44d484a28cd313e2c3ba4","665500ab8938657b03fbdba8","66577c451650a5472427efff","1832","stimuli/2101000.jpg","2","","prediction_trial","2","","true","","2","true","true","false","false","false","false","[0,2]","101","000","1","","","","","","",""
"","","","","","image-keyboard-response","253","412835","0.0-228.0","62d44d484a28cd313e2c3ba4","665500ab8938657b03fbdba8","66577c451650a5472427efff","653","stimuli/21010002.jpg"," ","","feedback_trial","0","","","","","","","","","","","","","","","","","","","","",""
"","","","","","image-keyboard-response","254","413773","0.0-229.0","62d44d484a28cd313e2c3ba4","665500ab8938657b03fbdba8","66577c451650a5472427efff","937","stimuli/2010010.jpg","2","","prediction_trial","2","","true","","2","true","true","true","true","true","true","[2]","010","010","1","","","","","","",""
"","","","","","image-keyboard-response","255","414299","0.0-230.0","62d44d484a28cd313e2c3ba4","665500ab8938657b03fbdba8","66577c451650a5472427efff","526","stimuli/20100102.jpg"," ","","feedback_trial","2","","","","","","","","","","","","","","","","","","","","",""
"","","","","","image-keyboard-response","256","415844","0.0-231.0","62d44d484a28cd313e2c3ba4","665500ab8938657b03fbdba8","66577c451650a5472427efff","1544","stimuli/2011010.jpg","2","","prediction_trial","2","","true","","2","true","true","false","false","false","false","[1,2]","011","010","1","","","","","","",""
"","","","","","image-keyboard-response","257","416379","0.0-232.0","62d44d484a28cd313e2c3ba4","665500ab8938657b03fbdba8","66577c451650a5472427efff","534","stimuli/20110102.jpg"," ","","feedback_trial","1","","","","","","","","","","","","","","","","","","","","",""
"","","","","","image-keyboard-response","258","417324","0.0-233.0","62d44d484a28cd313e2c3ba4","665500ab8938657b03fbdba8","66577c451650a5472427efff","944","stimuli/1100000.jpg","1","","prediction_trial","1","","true","","1","true","true","true","true","true","true","[1]","100","000","1","","","","","","",""
"","","","","","image-keyboard-response","259","417827","0.0-234.0","62d44d484a28cd313e2c3ba4","665500ab8938657b03fbdba8","66577c451650a5472427efff","502","stimuli/11000001.jpg"," ","","feedback_trial","1","","","","","","","","","","","","","","","","","","","","",""
"","","","","","image-keyboard-response","260","418940","0.0-235.0","62d44d484a28cd313e2c3ba4","665500ab8938657b03fbdba8","66577c451650a5472427efff","1112","stimuli/1101111.jpg","1","","prediction_trial","1","","true","","1","false","false","true","true","false","false","[1]","101","111","1","","","","","","",""
"","","","","","image-keyboard-response","261","419587","0.0-236.0","62d44d484a28cd313e2c3ba4","665500ab8938657b03fbdba8","66577c451650a5472427efff","646","stimuli/11011111.jpg"," ","","feedback_trial","1","","","","","","","","","","","","","","","","","","","","",""
"","","","","","image-keyboard-response","262","420732","0.0-237.0","62d44d484a28cd313e2c3ba4","665500ab8938657b03fbdba8","66577c451650a5472427efff","1144","stimuli/0110101.jpg","2","","prediction_trial","1","","false","","0","false","false","false","false","false","false","[1,0]","110","101","0","","","","","","",""
"","","","","","image-keyboard-response","263","421355","0.0-238.0","62d44d484a28cd313e2c3ba4","665500ab8938657b03fbdba8","66577c451650a5472427efff","622","stimuli/01101011.jpg"," ","","feedback_trial","1","","","","","","","","","","","","","","","","","","","","",""
"","","","","","image-keyboard-response","264","422692","0.0-239.0","62d44d484a28cd313e2c3ba4","665500ab8938657b03fbdba8","66577c451650a5472427efff","1336","stimuli/0111100.jpg","0","","prediction_trial","0","","true","","0","false","true","false","false","false","false","[1,0,2]","111","100","1","","","","","","",""
"","","","","","image-keyboard-response","265","423235","0.0-240.0","62d44d484a28cd313e2c3ba4","665500ab8938657b03fbdba8","66577c451650a5472427efff","542","stimuli/01111000.jpg"," ","","feedback_trial","1","","","","","","","","","","","","","","","","","","","","",""
"","","","","","image-keyboard-response","266","424476","0.0-241.0","62d44d484a28cd313e2c3ba4","665500ab8938657b03fbdba8","66577c451650a5472427efff","1240","stimuli/0101111.jpg","1","","prediction_trial","2","","false","","0","false","false","false","false","false","false","[2,0]","101","111","0","","","","","","",""
"","","","","","image-keyboard-response","267","425099","0.0-242.0","62d44d484a28cd313e2c3ba4","665500ab8938657b03fbdba8","66577c451650a5472427efff","622","stimuli/01011112.jpg"," ","","feedback_trial","2","","","","","","","","","","","","","","","","","","","","",""
"","","","","","image-keyboard-response","268","425988","0.0-243.0","62d44d484a28cd313e2c3ba4","665500ab8938657b03fbdba8","66577c451650a5472427efff","888","stimuli/0001011.jpg","0","","prediction_trial","0","","true","","0","true","true","true","true","true","true","[0]","001","011","1","","","","","","",""
"","","","","","image-keyboard-response","269","426523","0.0-244.0","62d44d484a28cd313e2c3ba4","665500ab8938657b03fbdba8","66577c451650a5472427efff","534","stimuli/00010110.jpg"," ","","feedback_trial","0","","","","","","","","","","","","","","","","","","","","",""
"","","","","","image-keyboard-response","270","427950","0.0-245.0","62d44d484a28cd313e2c3ba4","665500ab8938657b03fbdba8","66577c451650a5472427efff","1426","stimuli/1100111.jpg","1","","prediction_trial","1","","true","","1","false","false","true","true","false","false","[1]","100","111","1","","","","","","",""
"","","","","","image-keyboard-response","271","428563","0.0-246.0","62d44d484a28cd313e2c3ba4","665500ab8938657b03fbdba8","66577c451650a5472427efff","612","stimuli/11001111.jpg"," ","","feedback_trial","1","","","","","","","","","","","","","","","","","","","","",""
"","","","","","image-keyboard-response","272","430380","0.0-247.0","62d44d484a28cd313e2c3ba4","665500ab8938657b03fbdba8","66577c451650a5472427efff","1816","stimuli/2001111.jpg","1","","prediction_trial","2","","false","","2","false","false","false","true","false","false","[2]","001","111","0","","","","","","",""
"","","","","","image-keyboard-response","273","431163","0.0-248.0","62d44d484a28cd313e2c3ba4","665500ab8938657b03fbdba8","66577c451650a5472427efff","781","stimuli/20011112.jpg"," ","","feedback_trial","2","","","","","","","","","","","","","","","","","","","","",""
"","","","","","image-keyboard-response","274","432324","0.0-249.0","62d44d484a28cd313e2c3ba4","665500ab8938657b03fbdba8","66577c451650a5472427efff","1160","stimuli/0011010.jpg","0","","prediction_trial","0","","true","","0","true","true","true","true","true","true","[0]","011","010","1","","","","","","",""
"","","","","","image-keyboard-response","275","432971","0.0-250.0","62d44d484a28cd313e2c3ba4","665500ab8938657b03fbdba8","66577c451650a5472427efff","645","stimuli/00110100.jpg"," ","","feedback_trial","0","","","","","","","","","","","","","","","","","","","","",""
"","","","","","image-keyboard-response","276","434509","0.0-251.0","62d44d484a28cd313e2c3ba4","665500ab8938657b03fbdba8","66577c451650a5472427efff","1538","stimuli/2101011.jpg","1","","prediction_trial","0","","false","","2","false","false","false","false","false","false","[2,0]","101","011","0","","","","","","",""
"","","","","","image-keyboard-response","277","435307","0.0-252.0","62d44d484a28cd313e2c3ba4","665500ab8938657b03fbdba8","66577c451650a5472427efff","796","stimuli/21010110.jpg"," ","","feedback_trial","2","","","","","","","","","","","","","","","","","","","","",""
"","","","","","image-keyboard-response","278","436484","0.0-253.0","62d44d484a28cd313e2c3ba4","665500ab8938657b03fbdba8","66577c451650a5472427efff","1176","stimuli/1001100.jpg","1","","prediction_trial","1","","true","","1","true","true","true","true","true","true","[1]","001","100","1","","","","","","",""
"","","","","","image-keyboard-response","279","437235","0.0-254.0","62d44d484a28cd313e2c3ba4","665500ab8938657b03fbdba8","66577c451650a5472427efff","750","stimuli/10011001.jpg"," ","","feedback_trial","1","","","","","","","","","","","","","","","","","","","","",""
"","","","","","image-keyboard-response","280","438524","0.0-255.0","62d44d484a28cd313e2c3ba4","665500ab8938657b03fbdba8","66577c451650a5472427efff","1288","stimuli/1011100.jpg","1","","prediction_trial","2","","false","","1","true","true","false","false","false","false","[1,2]","011","100","0","","","","","","",""
"","","","","","image-keyboard-response","281","439210","0.0-256.0","62d44d484a28cd313e2c3ba4","665500ab8938657b03fbdba8","66577c451650a5472427efff","685","stimuli/10111002.jpg"," ","","feedback_trial","1","","","","","","","","","","","","","","","","","","","","",""
"","","","","","image-keyboard-response","282","440060","0.0-257.0","62d44d484a28cd313e2c3ba4","665500ab8938657b03fbdba8","66577c451650a5472427efff","849","stimuli/2010100.jpg","2","","prediction_trial","2","","true","","2","true","true","true","true","true","true","[2]","010","100","1","","","","","","",""
"","","","","","image-keyboard-response","283","440595","0.0-258.0","62d44d484a28cd313e2c3ba4","665500ab8938657b03fbdba8","66577c451650a5472427efff","534","stimuli/20101002.jpg"," ","","feedback_trial","2","","","","","","","","","","","","","","","","","","","","",""
"","","","","","image-keyboard-response","284","442188","0.0-259.0","62d44d484a28cd313e2c3ba4","665500ab8938657b03fbdba8","66577c451650a5472427efff","1592","stimuli/2100111.jpg","1","","prediction_trial","2","","false","","2","false","false","true","true","false","false","[2]","100","111","0","","","","","","",""
"","","","","","image-keyboard-response","285","443099","0.0-260.0","62d44d484a28cd313e2c3ba4","665500ab8938657b03fbdba8","66577c451650a5472427efff","909","stimuli/21001112.jpg"," ","","feedback_trial","2","","","","","","","","","","","","","","","","","","","","",""
"","","","","","image-keyboard-response","286","444827","0.0-261.0","62d44d484a28cd313e2c3ba4","665500ab8938657b03fbdba8","66577c451650a5472427efff","1727","stimuli/1011101.jpg","1","","prediction_trial","1","","true","","1","true","true","false","false","false","false","[2,1]","011","101","1","","","","","","",""
"","","","","","image-keyboard-response","287","445442","0.0-262.0","62d44d484a28cd313e2c3ba4","665500ab8938657b03fbdba8","66577c451650a5472427efff","614","stimuli/10111011.jpg"," ","","feedback_trial","2","","","","","","","","","","","","","","","","","","","","",""
"","","","","","image-keyboard-response","288","446941","0.0-263.0","62d44d484a28cd313e2c3ba4","665500ab8938657b03fbdba8","66577c451650a5472427efff","1498","stimuli/0100000.jpg","0","","prediction_trial","0","","true","","0","true","true","false","true","false","true","[0]","100","000","1","","","","","","",""
"","","","","","image-keyboard-response","289","447658","0.0-264.0","62d44d484a28cd313e2c3ba4","665500ab8938657b03fbdba8","66577c451650a5472427efff","716","stimuli/01000000.jpg"," ","","feedback_trial","0","","","","","","","","","","","","","","","","","","","","",""
"","","","","","image-keyboard-response","290","449148","0.0-265.0","62d44d484a28cd313e2c3ba4","665500ab8938657b03fbdba8","66577c451650a5472427efff","1489","stimuli/0100101.jpg","1","","prediction_trial","0","","false","","0","false","false","false","true","false","false","[0]","100","101","0","","","","","","",""
"","","","","","image-keyboard-response","291","449994","0.0-266.0","62d44d484a28cd313e2c3ba4","665500ab8938657b03fbdba8","66577c451650a5472427efff","845","stimuli/01001010.jpg"," ","","feedback_trial","0","","","","","","","","","","","","","","","","","","","","",""
"","","","","","image-keyboard-response","292","451595","0.0-267.0","62d44d484a28cd313e2c3ba4","665500ab8938657b03fbdba8","66577c451650a5472427efff","1600","stimuli/1100101.jpg","1","","prediction_trial","1","","true","","1","true","true","true","true","true","true","[1]","100","101","1","","","","","","",""
"","","","","","image-keyboard-response","293","452178","0.0-268.0","62d44d484a28cd313e2c3ba4","665500ab8938657b03fbdba8","66577c451650a5472427efff","582","stimuli/11001011.jpg"," ","","feedback_trial","1","","","","","","","","","","","","","","","","","","","","",""
"","","","","","image-keyboard-response","294","453435","0.0-269.0","62d44d484a28cd313e2c3ba4","665500ab8938657b03fbdba8","66577c451650a5472427efff","1256","stimuli/0111001.jpg","0","","prediction_trial","0","","true","","0","true","true","false","false","false","false","[1,2,0]","111","001","1","","","","","","",""
"","","","","","image-keyboard-response","295","453946","0.0-270.0","62d44d484a28cd313e2c3ba4","665500ab8938657b03fbdba8","66577c451650a5472427efff","510","stimuli/01110010.jpg"," ","","feedback_trial","1","","","","","","","","","","","","","","","","","","","","",""
"","","","","","image-keyboard-response","296","455523","0.0-271.0","62d44d484a28cd313e2c3ba4","665500ab8938657b03fbdba8","66577c451650a5472427efff","1576","stimuli/0111110.jpg","1","","prediction_trial","0","","false","","0","false","false","false","false","false","false","[1,0,2]","111","110","0","","","","","","",""
"","","","","","image-keyboard-response","297","456098","0.0-272.0","62d44d484a28cd313e2c3ba4","665500ab8938657b03fbdba8","66577c451650a5472427efff","573","stimuli/01111100.jpg"," ","","feedback_trial","1","","","","","","","","","","","","","","","","","","","","",""
"","","","","","image-keyboard-response","298","457301","0.0-273.0","62d44d484a28cd313e2c3ba4","665500ab8938657b03fbdba8","66577c451650a5472427efff","1202","stimuli/1111010.jpg","1","","prediction_trial","2","","false","","1","false","true","false","false","false","false","[1,0,2]","111","010","0","","","","","","",""
"","","","","","image-keyboard-response","299","457889","0.0-274.0","62d44d484a28cd313e2c3ba4","665500ab8938657b03fbdba8","66577c451650a5472427efff","588","stimuli/11110102.jpg"," ","","feedback_trial","1","","","","","","","","","","","","","","","","","","","","",""
"","","","","","image-keyboard-response","300","459725","0.0-275.0","62d44d484a28cd313e2c3ba4","665500ab8938657b03fbdba8","66577c451650a5472427efff","1835","stimuli/1000011.jpg","2","","prediction_trial","1","","false","","1","false","false","true","true","false","false","[1]","000","011","0","","","","","","",""
"","","","","","image-keyboard-response","301","460394","0.0-276.0","62d44d484a28cd313e2c3ba4","665500ab8938657b03fbdba8","66577c451650a5472427efff","668","stimuli/10000111.jpg"," ","","feedback_trial","1","","","","","","","","","","","","","","","","","","","","",""
"","","","","","image-keyboard-response","302","461858","0.0-277.0","62d44d484a28cd313e2c3ba4","665500ab8938657b03fbdba8","66577c451650a5472427efff","1464","stimuli/1001010.jpg","1","","prediction_trial","1","","true","","1","false","true","true","true","false","true","[1]","001","010","1","","","","","","",""
"","","","","","image-keyboard-response","303","462346","0.0-278.0","62d44d484a28cd313e2c3ba4","665500ab8938657b03fbdba8","66577c451650a5472427efff","487","stimuli/10010101.jpg"," ","","feedback_trial","1","","","","","","","","","","","","","","","","","","","","",""
"","","","","","image-keyboard-response","304","463779","0.0-279.0","62d44d484a28cd313e2c3ba4","665500ab8938657b03fbdba8","66577c451650a5472427efff","1432","stimuli/1110001.jpg","1","","prediction_trial","1","","true","","1","true","true","false","false","false","false","[0,1]","110","001","1","","","","","","",""
"","","","","","image-keyboard-response","305","464666","0.0-280.0","62d44d484a28cd313e2c3ba4","665500ab8938657b03fbdba8","66577c451650a5472427efff","886","stimuli/11100011.jpg"," ","","feedback_trial","0","","","","","","","","","","","","","","","","","","","","",""
"","","","","","image-keyboard-response","306","465739","0.0-281.0","62d44d484a28cd313e2c3ba4","665500ab8938657b03fbdba8","66577c451650a5472427efff","1072","stimuli/0010011.jpg","0","","prediction_trial","0","","true","","0","true","true","true","true","true","true","[0]","010","011","1","","","","","","",""
"","","","","","image-keyboard-response","307","466282","0.0-282.0","62d44d484a28cd313e2c3ba4","665500ab8938657b03fbdba8","66577c451650a5472427efff","542","stimuli/00100110.jpg"," ","","feedback_trial","0","","","","","","","","","","","","","","","","","","","","",""
"","","","","","image-keyboard-response","308","467211","0.0-283.0","62d44d484a28cd313e2c3ba4","665500ab8938657b03fbdba8","66577c451650a5472427efff","928","stimuli/0010101.jpg","2","","prediction_trial","0","","false","","0","false","false","true","true","false","false","[0]","010","101","0","","","","","","",""
"","","","","","image-keyboard-response","309","467986","0.0-284.0","62d44d484a28cd313e2c3ba4","665500ab8938657b03fbdba8","66577c451650a5472427efff","774","stimuli/00101010.jpg"," ","","feedback_trial","0","","","","","","","","","","","","","","","","","","","","",""
"","","","","","image-keyboard-response","310","469475","0.0-285.0","62d44d484a28cd313e2c3ba4","665500ab8938657b03fbdba8","66577c451650a5472427efff","1488","stimuli/0001111.jpg","1","","prediction_trial","0","","false","","0","false","false","true","true","false","false","[0]","001","111","0","","","","","","",""
"","","","","","image-keyboard-response","311","470346","0.0-286.0","62d44d484a28cd313e2c3ba4","665500ab8938657b03fbdba8","66577c451650a5472427efff","870","stimuli/00011110.jpg"," ","","feedback_trial","0","","","","","","","","","","","","","","","","","","","","",""
"","","","","","image-keyboard-response","312","471787","0.0-287.0","62d44d484a28cd313e2c3ba4","665500ab8938657b03fbdba8","66577c451650a5472427efff","1440","stimuli/1001001.jpg","1","","prediction_trial","1","","true","","1","true","true","true","true","true","true","[1]","001","001","1","","","","","","",""
"","","","","","image-keyboard-response","313","472289","0.0-288.0","62d44d484a28cd313e2c3ba4","665500ab8938657b03fbdba8","66577c451650a5472427efff","502","stimuli/10010011.jpg"," ","","feedback_trial","1","","","","","","","","","","","","","","","","","","","","",""
"","","","","","image-keyboard-response","314","473947","0.0-289.0","62d44d484a28cd313e2c3ba4","665500ab8938657b03fbdba8","66577c451650a5472427efff","1656","stimuli/1010010.jpg","0","","prediction_trial","1","","false","","1","false","true","false","true","false","true","[1]","010","010","0","","","","","","",""
"","","","","","image-keyboard-response","315","474634","0.0-290.0","62d44d484a28cd313e2c3ba4","665500ab8938657b03fbdba8","66577c451650a5472427efff","686","stimuli/10100101.jpg"," ","","feedback_trial","1","","","","","","","","","","","","","","","","","","","","",""
"","","","","","image-keyboard-response","316","477514","0.0-291.0","62d44d484a28cd313e2c3ba4","665500ab8938657b03fbdba8","66577c451650a5472427efff","2880","stimuli/1000010.jpg","1","","prediction_trial","1","","true","","1","false","true","true","true","false","true","[1]","000","010","1","","","","","","",""
"","","","","","image-keyboard-response","317","478066","0.0-292.0","62d44d484a28cd313e2c3ba4","665500ab8938657b03fbdba8","66577c451650a5472427efff","550","stimuli/10000101.jpg"," ","","feedback_trial","1","","","","","","","","","","","","","","","","","","","","",""
"","","","","","survey-html-form","318","554513","0.0-293.0","62d44d484a28cd313e2c3ba4","665500ab8938657b03fbdba8","66577c451650a5472427efff","76448","","{""feedback"":""If it was visible to both of us, I knew he'd pick the basket with the ball. If he could see two empty baskets, I knew he'd pick the third. sometimes I just had to guess."",""age"":""54"",""gender"":""Female"",""other_gender"":"""",""race"":""White"",""other_race"":"""",""ethnicity"":""Non-Hispanic""}","","exit_survey","","","","","","","","","","","","","","","","If it was visible to both of us, I knew he'd pick the basket with the ball. If he could see two empty baskets, I knew he'd pick the third. sometimes I just had to guess.","54","Non-Hispanic","Female","White","0.6666666666666666","0.6666666666666666"
