"success","timeout","failed_images","failed_audio","failed_video","trial_type","trial_index","time_elapsed","internal_node_id","prolific_id","prolific_study_id","prolific_session_id","rt","stimulus","response","view_history","trial","character_choice","stimulus_dict","accuracy","correct_response","ball_pos","ego_ball_visible","ego_can_infer","alter_ball_visible","alter_can_infer","collective_ball_visible","collective_can_infer","search_locations","alter_occluders","ego_occluders","accuracy_bool","feedback","age","ethnicity","gender","race","overall_accuracy","bonus"
"true","false","[]","[]","[]","preload","0","4242","0.0-0.0","607f7f18d84d010ea2cd8664","665500ab8938657b03fbdba8","665792f03dafe137eff134bd","","","","","","","","","","","","","","","","","","","","","","","","","","",""
"true","","","","","fullscreen","1","6975","0.0-1.0","607f7f18d84d010ea2cd8664","665500ab8938657b03fbdba8","665792f03dafe137eff134bd","","","","","","","","","","","","","","","","","","","","","","","","","","",""
"","","","","","html-button-response","2","11138","0.0-2.0","607f7f18d84d010ea2cd8664","665500ab8938657b03fbdba8","665792f03dafe137eff134bd","4161","<p><b>Consent Form</b></p> <div style=""text-align:left;background-color:lightgrey; padding:20px; max-width:900px;""><p>Please consider this information carefully before deciding whether to participate in this research.</p> <p>The purpose of this research is to examine which factors influence social judgment and decision-making. You will be asked to make judgements about individuals and actions in social scenarios. We are simply interested in your judgement. The study will take less than 1 hour to complete, and you will receive less than $20 on Prolific. Your compensation and time commitment are specified in the study description. There are no anticipated risks associated with participating in this study. The effects of participating should be comparable to those you would ordinarily experience from viewing a computer monitor and using a mouse or keyboard for a similar amount of time. At the end of the study, we will provide an explanation of the questions that motivate this line of research and will describe the potential implications. </p><p> Your participation in this study is completely voluntary and you may refuse to participate or you may choose to withdraw at any time without penalty or loss of benefits to you which are otherwise entitled. Your participation in this study will remain confidential. No personally identifiable information will be associated with your data. Also, all analyses of the data will be averaged across all the participants, so your individual responses will never be specifically analyzed. </p><p> If you have questions or concerns about your participation or payment, or want to request a summary of research findings, please contact Dr. Jonathan Phillips at Jonathan.S.Phillips@dartmouth.edu. </p><p> Please save a copy of this form for your records. </p><p><b>Agreement: </b>The nature and purpose of this research have been sufficiently explained and I agree to participate in this study. I understand that I am free to withdraw at any time without incurring any penalty. Please consent by clicking the button below to continue. Otherwise, please exit the study at any time. </p>","0","","","","","","","","","","","","","","","","","","","","","","","",""
"","","","","","instructions","3","86521","0.0-3.0-0.0","607f7f18d84d010ea2cd8664","665500ab8938657b03fbdba8","665792f03dafe137eff134bd","75368","","","[{""page_index"":0,""viewing_time"":1799},{""page_index"":1,""viewing_time"":2583},{""page_index"":2,""viewing_time"":2953},{""page_index"":3,""viewing_time"":5641},{""page_index"":4,""viewing_time"":3816},{""page_index"":5,""viewing_time"":4440},{""page_index"":6,""viewing_time"":4521},{""page_index"":7,""viewing_time"":4832},{""page_index"":8,""viewing_time"":5018},{""page_index"":9,""viewing_time"":2631},{""page_index"":10,""viewing_time"":15450},{""page_index"":11,""viewing_time"":10234},{""page_index"":12,""viewing_time"":9137},{""page_index"":13,""viewing_time"":2312}]","intro","","","","","","","","","","","","","","","","","","","","","",""
"","","","","","image-keyboard-response","4","90373","0.0-3.0-1.0","607f7f18d84d010ea2cd8664","665500ab8938657b03fbdba8","665792f03dafe137eff134bd","3849","stimuli/2111010.jpg","2","","prediction_practice","2","{""filepath"":""stimuli/2111010.jpg"",""ball_pos"":2,""ego_ball_visible"":true,""ego_can_infer"":true,""alter_ball_visible"":false,""alter_can_infer"":false,""collective_ball_visible"":false,""collective_can_infer"":false,""search_locations"":[1,0,2],""alter_occluders"":""111"",""ego_occluders"":""010""}","true","","","","","","","","","","","","","","","","","","",""
"","","","","","image-keyboard-response","5","92254","0.0-3.0-2.0","607f7f18d84d010ea2cd8664","665500ab8938657b03fbdba8","665792f03dafe137eff134bd","1881","stimuli/21110102.jpg"," ","","practrice_feedback","1","","","","","","","","","","","","","","","","","","","","",""
"","","","","","image-keyboard-response","6","96321","0.0-3.0-3.0","607f7f18d84d010ea2cd8664","665500ab8938657b03fbdba8","665792f03dafe137eff134bd","4066","stimuli/2011101.jpg","0","","prediction_practice","1","{""filepath"":""stimuli/2011101.jpg"",""ball_pos"":2,""ego_ball_visible"":false,""ego_can_infer"":false,""alter_ball_visible"":false,""alter_can_infer"":false,""collective_ball_visible"":false,""collective_can_infer"":false,""search_locations"":[1,2],""alter_occluders"":""011"",""ego_occluders"":""101""}","false","","","","","","","","","","","","","","","","","","",""
"","","","","","image-keyboard-response","7","107278","0.0-3.0-4.0","607f7f18d84d010ea2cd8664","665500ab8938657b03fbdba8","665792f03dafe137eff134bd","10956","stimuli/20111011.jpg"," ","","practrice_feedback","1","","","","","","","","","","","","","","","","","","","","",""
"","","","","","image-keyboard-response","8","110424","0.0-3.0-5.0","607f7f18d84d010ea2cd8664","665500ab8938657b03fbdba8","665792f03dafe137eff134bd","3145","stimuli/2001001.jpg","2","","prediction_practice","2","{""filepath"":""stimuli/2001001.jpg"",""ball_pos"":2,""ego_ball_visible"":false,""ego_can_infer"":true,""alter_ball_visible"":false,""alter_can_infer"":true,""collective_ball_visible"":false,""collective_can_infer"":true,""search_locations"":[2],""alter_occluders"":""001"",""ego_occluders"":""001""}","true","","","","","","","","","","","","","","","","","","",""
"","","","","","image-keyboard-response","9","111551","0.0-3.0-6.0","607f7f18d84d010ea2cd8664","665500ab8938657b03fbdba8","665792f03dafe137eff134bd","1127","stimuli/20010012.jpg"," ","","practrice_feedback","2","","","","","","","","","","","","","","","","","","","","",""
"","","","","","image-keyboard-response","10","115013","0.0-3.0-7.0","607f7f18d84d010ea2cd8664","665500ab8938657b03fbdba8","665792f03dafe137eff134bd","3461","stimuli/1000111.jpg","1","","prediction_practice","1","{""filepath"":""stimuli/1000111.jpg"",""ball_pos"":1,""ego_ball_visible"":false,""ego_can_infer"":false,""alter_ball_visible"":true,""alter_can_infer"":true,""collective_ball_visible"":false,""collective_can_infer"":false,""search_locations"":[1],""alter_occluders"":""000"",""ego_occluders"":""111""}","true","","","","","","","","","","","","","","","","","","",""
"","","","","","image-keyboard-response","11","116181","0.0-3.0-8.0","607f7f18d84d010ea2cd8664","665500ab8938657b03fbdba8","665792f03dafe137eff134bd","1168","stimuli/10001111.jpg"," ","","practrice_feedback","1","","","","","","","","","","","","","","","","","","","","",""
"","","","","","image-keyboard-response","12","118025","0.0-3.0-9.0","607f7f18d84d010ea2cd8664","665500ab8938657b03fbdba8","665792f03dafe137eff134bd","1842","stimuli/2001000.jpg","2","","prediction_practice","2","{""filepath"":""stimuli/2001000.jpg"",""ball_pos"":2,""ego_ball_visible"":true,""ego_can_infer"":true,""alter_ball_visible"":false,""alter_can_infer"":true,""collective_ball_visible"":false,""collective_can_infer"":true,""search_locations"":[2],""alter_occluders"":""001"",""ego_occluders"":""000""}","true","","","","","","","","","","","","","","","","","","",""
"","","","","","image-keyboard-response","13","118776","0.0-3.0-10.0","607f7f18d84d010ea2cd8664","665500ab8938657b03fbdba8","665792f03dafe137eff134bd","750","stimuli/20010002.jpg"," ","","practrice_feedback","2","","","","","","","","","","","","","","","","","","","","",""
"","","","","","image-keyboard-response","14","120623","0.0-3.0-11.0","607f7f18d84d010ea2cd8664","665500ab8938657b03fbdba8","665792f03dafe137eff134bd","1845","stimuli/1101000.jpg","1","","prediction_practice","1","{""filepath"":""stimuli/1101000.jpg"",""ball_pos"":1,""ego_ball_visible"":true,""ego_can_infer"":true,""alter_ball_visible"":true,""alter_can_infer"":true,""collective_ball_visible"":true,""collective_can_infer"":true,""search_locations"":[1],""alter_occluders"":""101"",""ego_occluders"":""000""}","true","","","","","","","","","","","","","","","","","","",""
"","","","","","image-keyboard-response","15","121212","0.0-3.0-12.0","607f7f18d84d010ea2cd8664","665500ab8938657b03fbdba8","665792f03dafe137eff134bd","587","stimuli/11010001.jpg"," ","","practrice_feedback","1","","","","","","","","","","","","","","","","","","","","",""
"","","","","","image-keyboard-response","16","122921","0.0-3.0-13.0","607f7f18d84d010ea2cd8664","665500ab8938657b03fbdba8","665792f03dafe137eff134bd","1707","stimuli/1010001.jpg","1","","prediction_practice","1","{""filepath"":""stimuli/1010001.jpg"",""ball_pos"":1,""ego_ball_visible"":true,""ego_can_infer"":true,""alter_ball_visible"":false,""alter_can_infer"":true,""collective_ball_visible"":false,""collective_can_infer"":true,""search_locations"":[1],""alter_occluders"":""010"",""ego_occluders"":""001""}","true","","","","","","","","","","","","","","","","","","",""
"","","","","","image-keyboard-response","17","124087","0.0-3.0-14.0","607f7f18d84d010ea2cd8664","665500ab8938657b03fbdba8","665792f03dafe137eff134bd","1165","stimuli/10100011.jpg"," ","","practrice_feedback","1","","","","","","","","","","","","","","","","","","","","",""
"","","","","","image-keyboard-response","18","126935","0.0-3.0-15.0","607f7f18d84d010ea2cd8664","665500ab8938657b03fbdba8","665792f03dafe137eff134bd","2847","stimuli/1101010.jpg","1","","prediction_practice","1","{""filepath"":""stimuli/1101010.jpg"",""ball_pos"":1,""ego_ball_visible"":false,""ego_can_infer"":true,""alter_ball_visible"":true,""alter_can_infer"":true,""collective_ball_visible"":false,""collective_can_infer"":true,""search_locations"":[1],""alter_occluders"":""101"",""ego_occluders"":""010""}","true","","","","","","","","","","","","","","","","","","",""
"","","","","","image-keyboard-response","19","127817","0.0-3.0-16.0","607f7f18d84d010ea2cd8664","665500ab8938657b03fbdba8","665792f03dafe137eff134bd","882","stimuli/11010101.jpg"," ","","practrice_feedback","1","","","","","","","","","","","","","","","","","","","","",""
"","","","","","image-keyboard-response","20","129794","0.0-3.0-17.0","607f7f18d84d010ea2cd8664","665500ab8938657b03fbdba8","665792f03dafe137eff134bd","1975","stimuli/0011000.jpg","0","","prediction_practice","0","{""filepath"":""stimuli/0011000.jpg"",""ball_pos"":0,""ego_ball_visible"":true,""ego_can_infer"":true,""alter_ball_visible"":true,""alter_can_infer"":true,""collective_ball_visible"":true,""collective_can_infer"":true,""search_locations"":[0],""alter_occluders"":""011"",""ego_occluders"":""000""}","true","","","","","","","","","","","","","","","","","","",""
"","","","","","image-keyboard-response","21","130616","0.0-3.0-18.0","607f7f18d84d010ea2cd8664","665500ab8938657b03fbdba8","665792f03dafe137eff134bd","821","stimuli/00110000.jpg"," ","","practrice_feedback","0","","","","","","","","","","","","","","","","","","","","",""
"","","","","","image-keyboard-response","22","132227","0.0-3.0-19.0","607f7f18d84d010ea2cd8664","665500ab8938657b03fbdba8","665792f03dafe137eff134bd","1610","stimuli/0110000.jpg","0","","prediction_practice","0","{""filepath"":""stimuli/0110000.jpg"",""ball_pos"":0,""ego_ball_visible"":true,""ego_can_infer"":true,""alter_ball_visible"":false,""alter_can_infer"":false,""collective_ball_visible"":false,""collective_can_infer"":false,""search_locations"":[0,1],""alter_occluders"":""110"",""ego_occluders"":""000""}","true","","","","","","","","","","","","","","","","","","",""
"","","","","","image-keyboard-response","23","133094","0.0-3.0-20.0","607f7f18d84d010ea2cd8664","665500ab8938657b03fbdba8","665792f03dafe137eff134bd","866","stimuli/01100000.jpg"," ","","practrice_feedback","0","","","","","","","","","","","","","","","","","","","","",""
"","","","","","html-button-response","24","142531","0.0-3.0-21.0","607f7f18d84d010ea2cd8664","665500ab8938657b03fbdba8","665792f03dafe137eff134bd","9436","Now that you've had some practice, you'll be tested with a couple of easy trials. If you correctly predict Sam's choice, you'll move on to complete the experiment!","0","","","","","","","","","","","","","","","","","","","","","","","",""
"","","","","","image-keyboard-response","25","144174","0.0-3.0-22.0-0.0","607f7f18d84d010ea2cd8664","665500ab8938657b03fbdba8","665792f03dafe137eff134bd","1643","stimuli/0000011.jpg","arrowleft","","comprehension_quiz","","","true","arrowleft","","","","","","","","","","","","","","","","","",""
"","","","","","image-keyboard-response","26","145099","0.0-3.0-22.0-1.0","607f7f18d84d010ea2cd8664","665500ab8938657b03fbdba8","665792f03dafe137eff134bd","924","stimuli/00000110.jpg"," ","","comprehension_quiz","","","true"," ","","","","","","","","","","","","","","","","","",""
"","","","","","image-keyboard-response","27","146919","0.0-3.0-22.0-2.0","607f7f18d84d010ea2cd8664","665500ab8938657b03fbdba8","665792f03dafe137eff134bd","1811","stimuli/1010010.jpg","arrowdown","","comprehension_quiz","","","true","arrowdown","","","","","","","","","","","","","","","","","",""
"","","","","","image-keyboard-response","28","147828","0.0-3.0-22.0-3.0","607f7f18d84d010ea2cd8664","665500ab8938657b03fbdba8","665792f03dafe137eff134bd","907","stimuli/10100101.jpg"," ","","comprehension_quiz","","","true"," ","","","","","","","","","","","","","","","","","",""
"","","","","","html-button-response","29","150027","0.0-4.0","607f7f18d84d010ea2cd8664","665500ab8938657b03fbdba8","665792f03dafe137eff134bd","2196","The experiment will now begin.","0","","","","","","","","","","","","","","","","","","","","","","","",""
"","","","","","image-keyboard-response","30","152144","0.0-5.0","607f7f18d84d010ea2cd8664","665500ab8938657b03fbdba8","665792f03dafe137eff134bd","2116","stimuli/0100010.jpg","0","","prediction_trial","0","","true","","0","true","true","false","true","false","true","[0]","100","010","1","","","","","","",""
"","","","","","image-keyboard-response","31","153216","0.0-6.0","607f7f18d84d010ea2cd8664","665500ab8938657b03fbdba8","665792f03dafe137eff134bd","1083","stimuli/01000100.jpg"," ","","feedback_trial","0","","","","","","","","","","","","","","","","","","","","",""
"","","","","","image-keyboard-response","32","154373","0.0-7.0","607f7f18d84d010ea2cd8664","665500ab8938657b03fbdba8","665792f03dafe137eff134bd","1155","stimuli/2010100.jpg","2","","prediction_trial","2","","true","","2","true","true","true","true","true","true","[2]","010","100","1","","","","","","",""
"","","","","","image-keyboard-response","33","155119","0.0-8.0","607f7f18d84d010ea2cd8664","665500ab8938657b03fbdba8","665792f03dafe137eff134bd","745","stimuli/20101002.jpg"," ","","feedback_trial","2","","","","","","","","","","","","","","","","","","","","",""
"","","","","","image-keyboard-response","34","156564","0.0-9.0","607f7f18d84d010ea2cd8664","665500ab8938657b03fbdba8","665792f03dafe137eff134bd","1444","stimuli/2100010.jpg","2","","prediction_trial","2","","true","","2","true","true","true","true","true","true","[2]","100","010","1","","","","","","",""
"","","","","","image-keyboard-response","35","157232","0.0-10.0","607f7f18d84d010ea2cd8664","665500ab8938657b03fbdba8","665792f03dafe137eff134bd","665","stimuli/21000102.jpg"," ","","feedback_trial","2","","","","","","","","","","","","","","","","","","","","",""
"","","","","","image-keyboard-response","36","159678","0.0-11.0","607f7f18d84d010ea2cd8664","665500ab8938657b03fbdba8","665792f03dafe137eff134bd","2445","stimuli/1100110.jpg","1","","prediction_trial","1","","true","","1","false","false","true","true","false","false","[1]","100","110","1","","","","","","",""
"","","","","","image-keyboard-response","37","160564","0.0-12.0","607f7f18d84d010ea2cd8664","665500ab8938657b03fbdba8","665792f03dafe137eff134bd","885","stimuli/11001101.jpg"," ","","feedback_trial","1","","","","","","","","","","","","","","","","","","","","",""
"","","","","","image-keyboard-response","38","161913","0.0-13.0","607f7f18d84d010ea2cd8664","665500ab8938657b03fbdba8","665792f03dafe137eff134bd","1349","stimuli/1010010.jpg","1","","prediction_trial","1","","true","","1","false","true","false","true","false","true","[1]","010","010","1","","","","","","",""
"","","","","","image-keyboard-response","39","162688","0.0-14.0","607f7f18d84d010ea2cd8664","665500ab8938657b03fbdba8","665792f03dafe137eff134bd","774","stimuli/10100101.jpg"," ","","feedback_trial","1","","","","","","","","","","","","","","","","","","","","",""
"","","","","","image-keyboard-response","40","164061","0.0-15.0","607f7f18d84d010ea2cd8664","665500ab8938657b03fbdba8","665792f03dafe137eff134bd","1373","stimuli/2111001.jpg","2","","prediction_trial","0","","false","","2","false","true","false","false","false","false","[0,2,1]","111","001","0","","","","","","",""
"","","","","","image-keyboard-response","41","173098","0.0-16.0","607f7f18d84d010ea2cd8664","665500ab8938657b03fbdba8","665792f03dafe137eff134bd","9035","stimuli/21110010.jpg"," ","","feedback_trial","0","","","","","","","","","","","","","","","","","","","","",""
"","","","","","image-keyboard-response","42","176136","0.0-17.0","607f7f18d84d010ea2cd8664","665500ab8938657b03fbdba8","665792f03dafe137eff134bd","3038","stimuli/2000111.jpg","1","","prediction_trial","2","","false","","2","false","false","true","true","false","false","[2]","000","111","0","","","","","","",""
"","","","","","image-keyboard-response","43","177717","0.0-18.0","607f7f18d84d010ea2cd8664","665500ab8938657b03fbdba8","665792f03dafe137eff134bd","1580","stimuli/20001112.jpg"," ","","feedback_trial","2","","","","","","","","","","","","","","","","","","","","",""
"","","","","","image-keyboard-response","44","179574","0.0-19.0","607f7f18d84d010ea2cd8664","665500ab8938657b03fbdba8","665792f03dafe137eff134bd","1856","stimuli/1110110.jpg","1","","prediction_trial","1","","true","","1","false","false","false","false","false","false","[0,1]","110","110","1","","","","","","",""
"","","","","","image-keyboard-response","45","180504","0.0-20.0","607f7f18d84d010ea2cd8664","665500ab8938657b03fbdba8","665792f03dafe137eff134bd","930","stimuli/11101101.jpg"," ","","feedback_trial","0","","","","","","","","","","","","","","","","","","","","",""
"","","","","","image-keyboard-response","46","189123","0.0-21.0","607f7f18d84d010ea2cd8664","665500ab8938657b03fbdba8","665792f03dafe137eff134bd","8610","stimuli/0011110.jpg","1","","prediction_trial","0","","false","","0","false","false","true","true","false","false","[0]","011","110","0","","","","","","",""
"","","","","","image-keyboard-response","47","192379","0.0-22.0","607f7f18d84d010ea2cd8664","665500ab8938657b03fbdba8","665792f03dafe137eff134bd","3255","stimuli/00111100.jpg"," ","","feedback_trial","0","","","","","","","","","","","","","","","","","","","","",""
"","","","","","image-keyboard-response","48","194338","0.0-23.0","607f7f18d84d010ea2cd8664","665500ab8938657b03fbdba8","665792f03dafe137eff134bd","1958","stimuli/0110011.jpg","0","","prediction_trial","0","","true","","0","true","true","false","false","false","false","[1,0]","110","011","1","","","","","","",""
"","","","","","image-keyboard-response","49","195024","0.0-24.0","607f7f18d84d010ea2cd8664","665500ab8938657b03fbdba8","665792f03dafe137eff134bd","685","stimuli/01100110.jpg"," ","","feedback_trial","1","","","","","","","","","","","","","","","","","","","","",""
"","","","","","image-keyboard-response","50","196284","0.0-25.0","607f7f18d84d010ea2cd8664","665500ab8938657b03fbdba8","665792f03dafe137eff134bd","1259","stimuli/0000011.jpg","0","","prediction_trial","0","","true","","0","true","true","true","true","true","true","[0]","000","011","1","","","","","","",""
"","","","","","image-keyboard-response","51","196691","0.0-26.0","607f7f18d84d010ea2cd8664","665500ab8938657b03fbdba8","665792f03dafe137eff134bd","407","stimuli/00000110.jpg"," ","","feedback_trial","0","","","","","","","","","","","","","","","","","","","","",""
"","","","","","image-keyboard-response","52","197798","0.0-27.0","607f7f18d84d010ea2cd8664","665500ab8938657b03fbdba8","665792f03dafe137eff134bd","1106","stimuli/2110000.jpg","2","","prediction_trial","2","","true","","2","true","true","true","true","true","true","[2]","110","000","1","","","","","","",""
"","","","","","image-keyboard-response","53","198267","0.0-28.0","607f7f18d84d010ea2cd8664","665500ab8938657b03fbdba8","665792f03dafe137eff134bd","469","stimuli/21100002.jpg"," ","","feedback_trial","2","","","","","","","","","","","","","","","","","","","","",""
"","","","","","image-keyboard-response","54","199994","0.0-29.0","607f7f18d84d010ea2cd8664","665500ab8938657b03fbdba8","665792f03dafe137eff134bd","1726","stimuli/0010110.jpg","1","","prediction_trial","0","","false","","0","false","false","true","true","false","false","[0]","010","110","0","","","","","","",""
"","","","","","image-keyboard-response","55","200963","0.0-30.0","607f7f18d84d010ea2cd8664","665500ab8938657b03fbdba8","665792f03dafe137eff134bd","966","stimuli/00101100.jpg"," ","","feedback_trial","0","","","","","","","","","","","","","","","","","","","","",""
"","","","","","image-keyboard-response","56","203760","0.0-31.0","607f7f18d84d010ea2cd8664","665500ab8938657b03fbdba8","665792f03dafe137eff134bd","2795","stimuli/0011100.jpg","0","","prediction_trial","0","","true","","0","false","true","true","true","false","true","[0]","011","100","1","","","","","","",""
"","","","","","image-keyboard-response","57","204425","0.0-32.0","607f7f18d84d010ea2cd8664","665500ab8938657b03fbdba8","665792f03dafe137eff134bd","664","stimuli/00111000.jpg"," ","","feedback_trial","0","","","","","","","","","","","","","","","","","","","","",""
"","","","","","image-keyboard-response","58","205725","0.0-33.0","607f7f18d84d010ea2cd8664","665500ab8938657b03fbdba8","665792f03dafe137eff134bd","1299","stimuli/2101001.jpg","2","","prediction_trial","0","","false","","2","false","true","false","false","false","false","[0,2]","101","001","0","","","","","","",""
"","","","","","image-keyboard-response","59","209539","0.0-34.0","607f7f18d84d010ea2cd8664","665500ab8938657b03fbdba8","665792f03dafe137eff134bd","3813","stimuli/21010010.jpg"," ","","feedback_trial","0","","","","","","","","","","","","","","","","","","","","",""
"","","","","","image-keyboard-response","60","211844","0.0-35.0","607f7f18d84d010ea2cd8664","665500ab8938657b03fbdba8","665792f03dafe137eff134bd","2304","stimuli/0011010.jpg","0","","prediction_trial","0","","true","","0","true","true","true","true","true","true","[0]","011","010","1","","","","","","",""
"","","","","","image-keyboard-response","61","212704","0.0-36.0","607f7f18d84d010ea2cd8664","665500ab8938657b03fbdba8","665792f03dafe137eff134bd","859","stimuli/00110100.jpg"," ","","feedback_trial","0","","","","","","","","","","","","","","","","","","","","",""
"","","","","","image-keyboard-response","62","213745","0.0-37.0","607f7f18d84d010ea2cd8664","665500ab8938657b03fbdba8","665792f03dafe137eff134bd","1035","stimuli/2010000.jpg","2","","prediction_trial","2","","true","","2","true","true","true","true","true","true","[2]","010","000","1","","","","","","",""
"","","","","","image-keyboard-response","63","214478","0.0-38.0","607f7f18d84d010ea2cd8664","665500ab8938657b03fbdba8","665792f03dafe137eff134bd","732","stimuli/20100002.jpg"," ","","feedback_trial","2","","","","","","","","","","","","","","","","","","","","",""
"","","","","","image-keyboard-response","64","215530","0.0-39.0","607f7f18d84d010ea2cd8664","665500ab8938657b03fbdba8","665792f03dafe137eff134bd","1052","stimuli/1100100.jpg","1","","prediction_trial","1","","true","","1","true","true","true","true","true","true","[1]","100","100","1","","","","","","",""
"","","","","","image-keyboard-response","65","216237","0.0-40.0","607f7f18d84d010ea2cd8664","665500ab8938657b03fbdba8","665792f03dafe137eff134bd","705","stimuli/11001001.jpg"," ","","feedback_trial","1","","","","","","","","","","","","","","","","","","","","",""
"","","","","","image-keyboard-response","66","219631","0.0-41.0","607f7f18d84d010ea2cd8664","665500ab8938657b03fbdba8","665792f03dafe137eff134bd","3393","stimuli/2011011.jpg","2","","prediction_trial","1","","false","","2","false","false","false","false","false","false","[2,1]","011","011","0","","","","","","",""
"","","","","","image-keyboard-response","67","220538","0.0-42.0","607f7f18d84d010ea2cd8664","665500ab8938657b03fbdba8","665792f03dafe137eff134bd","905","stimuli/20110111.jpg"," ","","feedback_trial","2","","","","","","","","","","","","","","","","","","","","",""
"","","","","","image-keyboard-response","68","221755","0.0-43.0","607f7f18d84d010ea2cd8664","665500ab8938657b03fbdba8","665792f03dafe137eff134bd","1215","stimuli/2010110.jpg","2","","prediction_trial","2","","true","","2","true","true","true","true","true","true","[2]","010","110","1","","","","","","",""
"","","","","","image-keyboard-response","69","222663","0.0-44.0","607f7f18d84d010ea2cd8664","665500ab8938657b03fbdba8","665792f03dafe137eff134bd","906","stimuli/20101102.jpg"," ","","feedback_trial","2","","","","","","","","","","","","","","","","","","","","",""
"","","","","","image-keyboard-response","70","227110","0.0-45.0","607f7f18d84d010ea2cd8664","665500ab8938657b03fbdba8","665792f03dafe137eff134bd","4434","stimuli/0001110.jpg","1","","prediction_trial","0","","false","","0","false","false","true","true","false","false","[0]","001","110","0","","","","","","",""
"","","","","","image-keyboard-response","71","228266","0.0-46.0","607f7f18d84d010ea2cd8664","665500ab8938657b03fbdba8","665792f03dafe137eff134bd","1153","stimuli/00011100.jpg"," ","","feedback_trial","0","","","","","","","","","","","","","","","","","","","","",""
"","","","","","image-keyboard-response","72","229520","0.0-47.0","607f7f18d84d010ea2cd8664","665500ab8938657b03fbdba8","665792f03dafe137eff134bd","1252","stimuli/0010001.jpg","0","","prediction_trial","0","","true","","0","true","true","true","true","true","true","[0]","010","001","1","","","","","","",""
"","","","","","image-keyboard-response","73","230038","0.0-48.0","607f7f18d84d010ea2cd8664","665500ab8938657b03fbdba8","665792f03dafe137eff134bd","516","stimuli/00100010.jpg"," ","","feedback_trial","0","","","","","","","","","","","","","","","","","","","","",""
"","","","","","image-keyboard-response","74","233239","0.0-49.0","607f7f18d84d010ea2cd8664","665500ab8938657b03fbdba8","665792f03dafe137eff134bd","3200","stimuli/0100100.jpg","0","","prediction_trial","0","","true","","0","false","true","false","true","false","true","[0]","100","100","1","","","","","","",""
"","","","","","image-keyboard-response","75","233873","0.0-50.0","607f7f18d84d010ea2cd8664","665500ab8938657b03fbdba8","665792f03dafe137eff134bd","631","stimuli/01001000.jpg"," ","","feedback_trial","0","","","","","","","","","","","","","","","","","","","","",""
"","","","","","image-keyboard-response","76","235363","0.0-51.0","607f7f18d84d010ea2cd8664","665500ab8938657b03fbdba8","665792f03dafe137eff134bd","1488","stimuli/0101101.jpg","2","","prediction_trial","2","","true","","0","false","false","false","false","false","false","[0,2]","101","101","1","","","","","","",""
"","","","","","image-keyboard-response","77","235922","0.0-52.0","607f7f18d84d010ea2cd8664","665500ab8938657b03fbdba8","665792f03dafe137eff134bd","557","stimuli/01011012.jpg"," ","","feedback_trial","0","","","","","","","","","","","","","","","","","","","","",""
"","","","","","image-keyboard-response","78","237333","0.0-53.0","607f7f18d84d010ea2cd8664","665500ab8938657b03fbdba8","665792f03dafe137eff134bd","1408","stimuli/1000100.jpg","1","","prediction_trial","1","","true","","1","true","true","true","true","true","true","[1]","000","100","1","","","","","","",""
"","","","","","image-keyboard-response","79","237752","0.0-54.0","607f7f18d84d010ea2cd8664","665500ab8938657b03fbdba8","665792f03dafe137eff134bd","417","stimuli/10001001.jpg"," ","","feedback_trial","1","","","","","","","","","","","","","","","","","","","","",""
"","","","","","image-keyboard-response","80","238791","0.0-55.0","607f7f18d84d010ea2cd8664","665500ab8938657b03fbdba8","665792f03dafe137eff134bd","1037","stimuli/2001010.jpg","2","","prediction_trial","2","","true","","2","true","true","false","true","false","true","[2]","001","010","1","","","","","","",""
"","","","","","image-keyboard-response","81","239120","0.0-56.0","607f7f18d84d010ea2cd8664","665500ab8938657b03fbdba8","665792f03dafe137eff134bd","327","stimuli/20010102.jpg"," ","","feedback_trial","2","","","","","","","","","","","","","","","","","","","","",""
"","","","","","image-keyboard-response","82","240643","0.0-57.0","607f7f18d84d010ea2cd8664","665500ab8938657b03fbdba8","665792f03dafe137eff134bd","1522","stimuli/2001111.jpg","1","","prediction_trial","2","","false","","2","false","false","false","true","false","false","[2]","001","111","0","","","","","","",""
"","","","","","image-keyboard-response","83","241150","0.0-58.0","607f7f18d84d010ea2cd8664","665500ab8938657b03fbdba8","665792f03dafe137eff134bd","504","stimuli/20011112.jpg"," ","","feedback_trial","2","","","","","","","","","","","","","","","","","","","","",""
"","","","","","image-keyboard-response","84","242434","0.0-59.0","607f7f18d84d010ea2cd8664","665500ab8938657b03fbdba8","665792f03dafe137eff134bd","1282","stimuli/1001001.jpg","1","","prediction_trial","1","","true","","1","true","true","true","true","true","true","[1]","001","001","1","","","","","","",""
"","","","","","image-keyboard-response","85","242779","0.0-60.0","607f7f18d84d010ea2cd8664","665500ab8938657b03fbdba8","665792f03dafe137eff134bd","342","stimuli/10010011.jpg"," ","","feedback_trial","1","","","","","","","","","","","","","","","","","","","","",""
"","","","","","image-keyboard-response","86","244345","0.0-61.0","607f7f18d84d010ea2cd8664","665500ab8938657b03fbdba8","665792f03dafe137eff134bd","1564","stimuli/1000001.jpg","1","","prediction_trial","1","","true","","1","true","true","true","true","true","true","[1]","000","001","1","","","","","","",""
"","","","","","image-keyboard-response","87","244720","0.0-62.0","607f7f18d84d010ea2cd8664","665500ab8938657b03fbdba8","665792f03dafe137eff134bd","372","stimuli/10000011.jpg"," ","","feedback_trial","1","","","","","","","","","","","","","","","","","","","","",""
"","","","","","image-keyboard-response","88","245754","0.0-63.0","607f7f18d84d010ea2cd8664","665500ab8938657b03fbdba8","665792f03dafe137eff134bd","1022","stimuli/1010001.jpg","1","","prediction_trial","1","","true","","1","true","true","false","true","false","true","[1]","010","001","1","","","","","","",""
"","","","","","image-keyboard-response","89","246127","0.0-64.0","607f7f18d84d010ea2cd8664","665500ab8938657b03fbdba8","665792f03dafe137eff134bd","370","stimuli/10100011.jpg"," ","","feedback_trial","1","","","","","","","","","","","","","","","","","","","","",""
"","","","","","image-keyboard-response","90","248193","0.0-65.0","607f7f18d84d010ea2cd8664","665500ab8938657b03fbdba8","665792f03dafe137eff134bd","2064","stimuli/1000111.jpg","0","","prediction_trial","1","","false","","1","false","false","true","true","false","false","[1]","000","111","0","","","","","","",""
"","","","","","image-keyboard-response","91","249291","0.0-66.0","607f7f18d84d010ea2cd8664","665500ab8938657b03fbdba8","665792f03dafe137eff134bd","1096","stimuli/10001111.jpg"," ","","feedback_trial","1","","","","","","","","","","","","","","","","","","","","",""
"","","","","","image-keyboard-response","92","251030","0.0-67.0","607f7f18d84d010ea2cd8664","665500ab8938657b03fbdba8","665792f03dafe137eff134bd","1737","stimuli/2001011.jpg","1","","prediction_trial","2","","false","","2","false","false","false","true","false","false","[2]","001","011","0","","","","","","",""
"","","","","","image-keyboard-response","93","251932","0.0-68.0","607f7f18d84d010ea2cd8664","665500ab8938657b03fbdba8","665792f03dafe137eff134bd","899","stimuli/20010112.jpg"," ","","feedback_trial","2","","","","","","","","","","","","","","","","","","","","",""
"","","","","","image-keyboard-response","94","253088","0.0-69.0","607f7f18d84d010ea2cd8664","665500ab8938657b03fbdba8","665792f03dafe137eff134bd","1154","stimuli/2100000.jpg","2","","prediction_trial","2","","true","","2","true","true","true","true","true","true","[2]","100","000","1","","","","","","",""
"","","","","","image-keyboard-response","95","253715","0.0-70.0","607f7f18d84d010ea2cd8664","665500ab8938657b03fbdba8","665792f03dafe137eff134bd","625","stimuli/21000002.jpg"," ","","feedback_trial","2","","","","","","","","","","","","","","","","","","","","",""
"","","","","","image-keyboard-response","96","255717","0.0-71.0","607f7f18d84d010ea2cd8664","665500ab8938657b03fbdba8","665792f03dafe137eff134bd","2000","stimuli/0001100.jpg","0","","prediction_trial","0","","true","","0","false","true","true","true","false","true","[0]","001","100","1","","","","","","",""
"","","","","","image-keyboard-response","97","256351","0.0-72.0","607f7f18d84d010ea2cd8664","665500ab8938657b03fbdba8","665792f03dafe137eff134bd","631","stimuli/00011000.jpg"," ","","feedback_trial","0","","","","","","","","","","","","","","","","","","","","",""
"","","","","","image-keyboard-response","98","257339","0.0-73.0","607f7f18d84d010ea2cd8664","665500ab8938657b03fbdba8","665792f03dafe137eff134bd","986","stimuli/1010000.jpg","1","","prediction_trial","1","","true","","1","true","true","false","true","false","true","[1]","010","000","1","","","","","","",""
"","","","","","image-keyboard-response","99","257785","0.0-74.0","607f7f18d84d010ea2cd8664","665500ab8938657b03fbdba8","665792f03dafe137eff134bd","444","stimuli/10100001.jpg"," ","","feedback_trial","1","","","","","","","","","","","","","","","","","","","","",""
"","","","","","image-keyboard-response","100","259158","0.0-75.0","607f7f18d84d010ea2cd8664","665500ab8938657b03fbdba8","665792f03dafe137eff134bd","1370","stimuli/0101100.jpg","0","","prediction_trial","2","","false","","0","false","true","false","false","false","false","[2,0]","101","100","0","","","","","","",""
"","","","","","image-keyboard-response","101","260549","0.0-76.0","607f7f18d84d010ea2cd8664","665500ab8938657b03fbdba8","665792f03dafe137eff134bd","1388","stimuli/01011002.jpg"," ","","feedback_trial","2","","","","","","","","","","","","","","","","","","","","",""
"","","","","","image-keyboard-response","102","261953","0.0-77.0","607f7f18d84d010ea2cd8664","665500ab8938657b03fbdba8","665792f03dafe137eff134bd","1404","stimuli/0111010.jpg","0","","prediction_trial","2","","false","","0","true","true","false","false","false","false","[1,2,0]","111","010","0","","","","","","",""
"","","","","","image-keyboard-response","103","271688","0.0-78.0","607f7f18d84d010ea2cd8664","665500ab8938657b03fbdba8","665792f03dafe137eff134bd","9733","stimuli/01110102.jpg"," ","","feedback_trial","1","","","","","","","","","","","","","","","","","","","","",""
"","","","","","image-keyboard-response","104","274176","0.0-79.0","607f7f18d84d010ea2cd8664","665500ab8938657b03fbdba8","665792f03dafe137eff134bd","2490","stimuli/1000101.jpg","1","","prediction_trial","1","","true","","1","true","true","true","true","true","true","[1]","000","101","1","","","","","","",""
"","","","","","image-keyboard-response","105","275046","0.0-80.0","607f7f18d84d010ea2cd8664","665500ab8938657b03fbdba8","665792f03dafe137eff134bd","867","stimuli/10001011.jpg"," ","","feedback_trial","1","","","","","","","","","","","","","","","","","","","","",""
"","","","","","image-keyboard-response","106","278576","0.0-81.0","607f7f18d84d010ea2cd8664","665500ab8938657b03fbdba8","665792f03dafe137eff134bd","3527","stimuli/2101101.jpg","0","","prediction_trial","2","","false","","2","false","false","false","false","false","false","[2,0]","101","101","0","","","","","","",""
"","","","","","image-keyboard-response","107","279855","0.0-82.0","607f7f18d84d010ea2cd8664","665500ab8938657b03fbdba8","665792f03dafe137eff134bd","1278","stimuli/21011012.jpg"," ","","feedback_trial","2","","","","","","","","","","","","","","","","","","","","",""
"","","","","","image-keyboard-response","108","286349","0.0-83.0","607f7f18d84d010ea2cd8664","665500ab8938657b03fbdba8","665792f03dafe137eff134bd","6493","stimuli/2100101.jpg","0","","prediction_trial","2","","false","","2","false","false","true","true","false","false","[2]","100","101","0","","","","","","",""
"","","","","","image-keyboard-response","109","287355","0.0-84.0","607f7f18d84d010ea2cd8664","665500ab8938657b03fbdba8","665792f03dafe137eff134bd","1004","stimuli/21001012.jpg"," ","","feedback_trial","2","","","","","","","","","","","","","","","","","","","","",""
"","","","","","image-keyboard-response","110","292534","0.0-85.0","607f7f18d84d010ea2cd8664","665500ab8938657b03fbdba8","665792f03dafe137eff134bd","5177","stimuli/2000101.jpg","2","","prediction_trial","2","","true","","2","false","false","true","true","false","false","[2]","000","101","1","","","","","","",""
"","","","","","image-keyboard-response","111","293234","0.0-86.0","607f7f18d84d010ea2cd8664","665500ab8938657b03fbdba8","665792f03dafe137eff134bd","697","stimuli/20001012.jpg"," ","","feedback_trial","2","","","","","","","","","","","","","","","","","","","","",""
"","","","","","image-keyboard-response","112","295372","0.0-87.0","607f7f18d84d010ea2cd8664","665500ab8938657b03fbdba8","665792f03dafe137eff134bd","2136","stimuli/0010111.jpg","2","","prediction_trial","0","","false","","0","false","false","true","true","false","false","[0]","010","111","0","","","","","","",""
"","","","","","image-keyboard-response","113","296321","0.0-88.0","607f7f18d84d010ea2cd8664","665500ab8938657b03fbdba8","665792f03dafe137eff134bd","947","stimuli/00101110.jpg"," ","","feedback_trial","0","","","","","","","","","","","","","","","","","","","","",""
"","","","","","image-keyboard-response","114","300208","0.0-89.0","607f7f18d84d010ea2cd8664","665500ab8938657b03fbdba8","665792f03dafe137eff134bd","3885","stimuli/1111011.jpg","0","","prediction_trial","2","","false","","1","false","false","false","false","false","false","[0,2,1]","111","011","0","","","","","","",""
"","","","","","image-keyboard-response","115","301306","0.0-90.0","607f7f18d84d010ea2cd8664","665500ab8938657b03fbdba8","665792f03dafe137eff134bd","1095","stimuli/11110112.jpg"," ","","feedback_trial","0","","","","","","","","","","","","","","","","","","","","",""
"","","","","","image-keyboard-response","116","306287","0.0-91.0","607f7f18d84d010ea2cd8664","665500ab8938657b03fbdba8","665792f03dafe137eff134bd","4979","stimuli/0110101.jpg","2","","prediction_trial","1","","false","","0","false","false","false","false","false","false","[0,1]","110","101","0","","","","","","",""
"","","","","","image-keyboard-response","117","307367","0.0-92.0","607f7f18d84d010ea2cd8664","665500ab8938657b03fbdba8","665792f03dafe137eff134bd","1077","stimuli/01101011.jpg"," ","","feedback_trial","0","","","","","","","","","","","","","","","","","","","","",""
"","","","","","image-keyboard-response","118","311476","0.0-93.0","607f7f18d84d010ea2cd8664","665500ab8938657b03fbdba8","665792f03dafe137eff134bd","4107","stimuli/0011001.jpg","0","","prediction_trial","0","","true","","0","true","true","true","true","true","true","[0]","011","001","1","","","","","","",""
"","","","","","image-keyboard-response","119","312133","0.0-94.0","607f7f18d84d010ea2cd8664","665500ab8938657b03fbdba8","665792f03dafe137eff134bd","655","stimuli/00110010.jpg"," ","","feedback_trial","0","","","","","","","","","","","","","","","","","","","","",""
"","","","","","image-keyboard-response","120","313956","0.0-95.0","607f7f18d84d010ea2cd8664","665500ab8938657b03fbdba8","665792f03dafe137eff134bd","1821","stimuli/1011010.jpg","1","","prediction_trial","2","","false","","1","false","true","false","false","false","false","[2,1]","011","010","0","","","","","","",""
"","","","","","image-keyboard-response","121","314990","0.0-96.0","607f7f18d84d010ea2cd8664","665500ab8938657b03fbdba8","665792f03dafe137eff134bd","1031","stimuli/10110102.jpg"," ","","feedback_trial","2","","","","","","","","","","","","","","","","","","","","",""
"","","","","","image-keyboard-response","122","318036","0.0-97.0","607f7f18d84d010ea2cd8664","665500ab8938657b03fbdba8","665792f03dafe137eff134bd","3043","stimuli/2111011.jpg","2","","prediction_trial","2","","true","","2","false","false","false","false","false","false","[0,1,2]","111","011","1","","","","","","",""
"","","","","","image-keyboard-response","123","318644","0.0-98.0","607f7f18d84d010ea2cd8664","665500ab8938657b03fbdba8","665792f03dafe137eff134bd","606","stimuli/21110112.jpg"," ","","feedback_trial","0","","","","","","","","","","","","","","","","","","","","",""
"","","","","","image-keyboard-response","124","320004","0.0-99.0","607f7f18d84d010ea2cd8664","665500ab8938657b03fbdba8","665792f03dafe137eff134bd","1357","stimuli/0010000.jpg","0","","prediction_trial","0","","true","","0","true","true","true","true","true","true","[0]","010","000","1","","","","","","",""
"","","","","","image-keyboard-response","125","320318","0.0-100.0","607f7f18d84d010ea2cd8664","665500ab8938657b03fbdba8","665792f03dafe137eff134bd","312","stimuli/00100000.jpg"," ","","feedback_trial","0","","","","","","","","","","","","","","","","","","","","",""
"","","","","","image-keyboard-response","126","323163","0.0-101.0","607f7f18d84d010ea2cd8664","665500ab8938657b03fbdba8","665792f03dafe137eff134bd","2842","stimuli/1001010.jpg","1","","prediction_trial","1","","true","","1","false","true","true","true","false","true","[1]","001","010","1","","","","","","",""
"","","","","","image-keyboard-response","127","323861","0.0-102.0","607f7f18d84d010ea2cd8664","665500ab8938657b03fbdba8","665792f03dafe137eff134bd","695","stimuli/10010101.jpg"," ","","feedback_trial","1","","","","","","","","","","","","","","","","","","","","",""
"","","","","","image-keyboard-response","128","325214","0.0-103.0","607f7f18d84d010ea2cd8664","665500ab8938657b03fbdba8","665792f03dafe137eff134bd","1351","stimuli/2000010.jpg","2","","prediction_trial","2","","true","","2","true","true","true","true","true","true","[2]","000","010","1","","","","","","",""
"","","","","","image-keyboard-response","129","325900","0.0-104.0","607f7f18d84d010ea2cd8664","665500ab8938657b03fbdba8","665792f03dafe137eff134bd","685","stimuli/20000102.jpg"," ","","feedback_trial","2","","","","","","","","","","","","","","","","","","","","",""
"","","","","","image-keyboard-response","130","329637","0.0-105.0","607f7f18d84d010ea2cd8664","665500ab8938657b03fbdba8","665792f03dafe137eff134bd","3735","stimuli/2010101.jpg","2","","prediction_trial","2","","true","","2","false","false","true","true","false","false","[2]","010","101","1","","","","","","",""
"","","","","","image-keyboard-response","131","330376","0.0-106.0","607f7f18d84d010ea2cd8664","665500ab8938657b03fbdba8","665792f03dafe137eff134bd","737","stimuli/20101012.jpg"," ","","feedback_trial","2","","","","","","","","","","","","","","","","","","","","",""
"","","","","","image-keyboard-response","132","331511","0.0-107.0","607f7f18d84d010ea2cd8664","665500ab8938657b03fbdba8","665792f03dafe137eff134bd","1132","stimuli/1110100.jpg","1","","prediction_trial","0","","false","","1","true","true","false","false","false","false","[0,1]","110","100","0","","","","","","",""
"","","","","","image-keyboard-response","133","332582","0.0-108.0","607f7f18d84d010ea2cd8664","665500ab8938657b03fbdba8","665792f03dafe137eff134bd","1068","stimuli/11101000.jpg"," ","","feedback_trial","0","","","","","","","","","","","","","","","","","","","","",""
"","","","","","image-keyboard-response","134","338903","0.0-109.0","607f7f18d84d010ea2cd8664","665500ab8938657b03fbdba8","665792f03dafe137eff134bd","6316","stimuli/1101010.jpg","1","","prediction_trial","1","","true","","1","false","true","true","true","false","true","[1]","101","010","1","","","","","","",""
"","","","","","image-keyboard-response","135","339632","0.0-110.0","607f7f18d84d010ea2cd8664","665500ab8938657b03fbdba8","665792f03dafe137eff134bd","727","stimuli/11010101.jpg"," ","","feedback_trial","1","","","","","","","","","","","","","","","","","","","","",""
"","","","","","image-keyboard-response","136","340741","0.0-111.0","607f7f18d84d010ea2cd8664","665500ab8938657b03fbdba8","665792f03dafe137eff134bd","1107","stimuli/2000000.jpg","2","","prediction_trial","2","","true","","2","true","true","true","true","true","true","[2]","000","000","1","","","","","","",""
"","","","","","image-keyboard-response","137","341522","0.0-112.0","607f7f18d84d010ea2cd8664","665500ab8938657b03fbdba8","665792f03dafe137eff134bd","780","stimuli/20000002.jpg"," ","","feedback_trial","2","","","","","","","","","","","","","","","","","","","","",""
"","","","","","image-keyboard-response","138","343027","0.0-113.0","607f7f18d84d010ea2cd8664","665500ab8938657b03fbdba8","665792f03dafe137eff134bd","1502","stimuli/0111011.jpg","0","","prediction_trial","2","","false","","0","true","true","false","false","false","false","[2,1,0]","111","011","0","","","","","","",""
"","","","","","image-keyboard-response","139","344308","0.0-114.0","607f7f18d84d010ea2cd8664","665500ab8938657b03fbdba8","665792f03dafe137eff134bd","1279","stimuli/01110112.jpg"," ","","feedback_trial","2","","","","","","","","","","","","","","","","","","","","",""
"","","","","","image-keyboard-response","140","351012","0.0-115.0","607f7f18d84d010ea2cd8664","665500ab8938657b03fbdba8","665792f03dafe137eff134bd","6702","stimuli/2001101.jpg","0","","prediction_trial","2","","false","","2","false","false","false","true","false","false","[2]","001","101","0","","","","","","",""
"","","","","","image-keyboard-response","141","351715","0.0-116.0","607f7f18d84d010ea2cd8664","665500ab8938657b03fbdba8","665792f03dafe137eff134bd","701","stimuli/20011012.jpg"," ","","feedback_trial","2","","","","","","","","","","","","","","","","","","","","",""
"","","","","","image-keyboard-response","142","353703","0.0-117.0","607f7f18d84d010ea2cd8664","665500ab8938657b03fbdba8","665792f03dafe137eff134bd","1975","stimuli/2110001.jpg","2","","prediction_trial","2","","true","","2","false","true","true","true","false","true","[2]","110","001","1","","","","","","",""
"","","","","","image-keyboard-response","143","354187","0.0-118.0","607f7f18d84d010ea2cd8664","665500ab8938657b03fbdba8","665792f03dafe137eff134bd","481","stimuli/21100012.jpg"," ","","feedback_trial","2","","","","","","","","","","","","","","","","","","","","",""
"","","","","","image-keyboard-response","144","358670","0.0-119.0","607f7f18d84d010ea2cd8664","665500ab8938657b03fbdba8","665792f03dafe137eff134bd","4481","stimuli/1000110.jpg","1","","prediction_trial","1","","true","","1","false","false","true","true","false","false","[1]","000","110","1","","","","","","",""
"","","","","","image-keyboard-response","145","359224","0.0-120.0","607f7f18d84d010ea2cd8664","665500ab8938657b03fbdba8","665792f03dafe137eff134bd","552","stimuli/10001101.jpg"," ","","feedback_trial","1","","","","","","","","","","","","","","","","","","","","",""
"","","","","","image-keyboard-response","146","360916","0.0-121.0","607f7f18d84d010ea2cd8664","665500ab8938657b03fbdba8","665792f03dafe137eff134bd","1690","stimuli/1011011.jpg","2","","prediction_trial","2","","true","","1","false","false","false","false","false","false","[1,2]","011","011","1","","","","","","",""
"","","","","","image-keyboard-response","147","361585","0.0-122.0","607f7f18d84d010ea2cd8664","665500ab8938657b03fbdba8","665792f03dafe137eff134bd","666","stimuli/10110112.jpg"," ","","feedback_trial","1","","","","","","","","","","","","","","","","","","","","",""
"","","","","","image-keyboard-response","148","362934","0.0-123.0","607f7f18d84d010ea2cd8664","665500ab8938657b03fbdba8","665792f03dafe137eff134bd","1348","stimuli/0000001.jpg","0","","prediction_trial","0","","true","","0","true","true","true","true","true","true","[0]","000","001","1","","","","","","",""
"","","","","","image-keyboard-response","149","363402","0.0-124.0","607f7f18d84d010ea2cd8664","665500ab8938657b03fbdba8","665792f03dafe137eff134bd","466","stimuli/00000010.jpg"," ","","feedback_trial","0","","","","","","","","","","","","","","","","","","","","",""
"","","","","","image-keyboard-response","150","366253","0.0-125.0","607f7f18d84d010ea2cd8664","665500ab8938657b03fbdba8","665792f03dafe137eff134bd","2850","stimuli/1111110.jpg","1","","prediction_trial","0","","false","","1","false","false","false","false","false","false","[1,2,0]","111","110","0","","","","","","",""
"","","","","","image-keyboard-response","151","366957","0.0-126.0","607f7f18d84d010ea2cd8664","665500ab8938657b03fbdba8","665792f03dafe137eff134bd","700","stimuli/11111100.jpg"," ","","feedback_trial","1","","","","","","","","","","","","","","","","","","","","",""
"","","","","","image-keyboard-response","152","367875","0.0-127.0","607f7f18d84d010ea2cd8664","665500ab8938657b03fbdba8","665792f03dafe137eff134bd","916","stimuli/2011100.jpg","2","","prediction_trial","1","","false","","2","true","true","false","false","false","false","[2,1]","011","100","0","","","","","","",""
"","","","","","image-keyboard-response","153","370206","0.0-128.0","607f7f18d84d010ea2cd8664","665500ab8938657b03fbdba8","665792f03dafe137eff134bd","2330","stimuli/20111001.jpg"," ","","feedback_trial","2","","","","","","","","","","","","","","","","","","","","",""
"","","","","","image-keyboard-response","154","373391","0.0-129.0","607f7f18d84d010ea2cd8664","665500ab8938657b03fbdba8","665792f03dafe137eff134bd","3182","stimuli/2101000.jpg","2","","prediction_trial","0","","false","","2","true","true","false","false","false","false","[2,0]","101","000","0","","","","","","",""
"","","","","","image-keyboard-response","155","374435","0.0-130.0","607f7f18d84d010ea2cd8664","665500ab8938657b03fbdba8","665792f03dafe137eff134bd","1042","stimuli/21010000.jpg"," ","","feedback_trial","2","","","","","","","","","","","","","","","","","","","","",""
"","","","","","image-keyboard-response","156","378562","0.0-131.0","607f7f18d84d010ea2cd8664","665500ab8938657b03fbdba8","665792f03dafe137eff134bd","4125","stimuli/2111100.jpg","2","","prediction_trial","0","","false","","2","true","true","false","false","false","false","[0,1,2]","111","100","0","","","","","","",""
"","","","","","image-keyboard-response","157","379406","0.0-132.0","607f7f18d84d010ea2cd8664","665500ab8938657b03fbdba8","665792f03dafe137eff134bd","842","stimuli/21111000.jpg"," ","","feedback_trial","0","","","","","","","","","","","","","","","","","","","","",""
"","","","","","image-keyboard-response","158","380702","0.0-133.0","607f7f18d84d010ea2cd8664","665500ab8938657b03fbdba8","665792f03dafe137eff134bd","1294","stimuli/1110001.jpg","1","","prediction_trial","1","","true","","1","true","true","false","false","false","false","[1,0]","110","001","1","","","","","","",""
"","","","","","image-keyboard-response","159","381316","0.0-134.0","607f7f18d84d010ea2cd8664","665500ab8938657b03fbdba8","665792f03dafe137eff134bd","612","stimuli/11100011.jpg"," ","","feedback_trial","1","","","","","","","","","","","","","","","","","","","","",""
"","","","","","image-keyboard-response","160","382199","0.0-135.0","607f7f18d84d010ea2cd8664","665500ab8938657b03fbdba8","665792f03dafe137eff134bd","880","stimuli/1011000.jpg","1","","prediction_trial","2","","false","","1","true","true","false","false","false","false","[2,1]","011","000","0","","","","","","",""
"","","","","","image-keyboard-response","161","382915","0.0-136.0","607f7f18d84d010ea2cd8664","665500ab8938657b03fbdba8","665792f03dafe137eff134bd","714","stimuli/10110002.jpg"," ","","feedback_trial","2","","","","","","","","","","","","","","","","","","","","",""
"","","","","","image-keyboard-response","162","384161","0.0-137.0","607f7f18d84d010ea2cd8664","665500ab8938657b03fbdba8","665792f03dafe137eff134bd","1244","stimuli/2111110.jpg","2","","prediction_trial","0","","false","","2","true","true","false","false","false","false","[1,0,2]","111","110","0","","","","","","",""
"","","","","","image-keyboard-response","163","384823","0.0-138.0","607f7f18d84d010ea2cd8664","665500ab8938657b03fbdba8","665792f03dafe137eff134bd","660","stimuli/21111100.jpg"," ","","feedback_trial","1","","","","","","","","","","","","","","","","","","","","",""
"","","","","","image-keyboard-response","164","387153","0.0-139.0","607f7f18d84d010ea2cd8664","665500ab8938657b03fbdba8","665792f03dafe137eff134bd","2328","stimuli/2010011.jpg","2","","prediction_trial","2","","true","","2","false","false","true","true","false","false","[2]","010","011","1","","","","","","",""
"","","","","","image-keyboard-response","165","387885","0.0-140.0","607f7f18d84d010ea2cd8664","665500ab8938657b03fbdba8","665792f03dafe137eff134bd","730","stimuli/20100112.jpg"," ","","feedback_trial","2","","","","","","","","","","","","","","","","","","","","",""
"","","","","","image-keyboard-response","166","392128","0.0-141.0","607f7f18d84d010ea2cd8664","665500ab8938657b03fbdba8","665792f03dafe137eff134bd","4241","stimuli/0101000.jpg","0","","prediction_trial","0","","true","","0","true","true","false","false","false","false","[2,0]","101","000","1","","","","","","",""
"","","","","","image-keyboard-response","167","392892","0.0-142.0","607f7f18d84d010ea2cd8664","665500ab8938657b03fbdba8","665792f03dafe137eff134bd","762","stimuli/01010000.jpg"," ","","feedback_trial","2","","","","","","","","","","","","","","","","","","","","",""
"","","","","","image-keyboard-response","168","394600","0.0-143.0","607f7f18d84d010ea2cd8664","665500ab8938657b03fbdba8","665792f03dafe137eff134bd","1705","stimuli/1001101.jpg","1","","prediction_trial","1","","true","","1","true","true","true","true","true","true","[1]","001","101","1","","","","","","",""
"","","","","","image-keyboard-response","169","395566","0.0-144.0","607f7f18d84d010ea2cd8664","665500ab8938657b03fbdba8","665792f03dafe137eff134bd","955","stimuli/10011011.jpg"," ","","feedback_trial","1","","","","","","","","","","","","","","","","","","","","",""
"","","","","","image-keyboard-response","170","396384","0.0-145.0","607f7f18d84d010ea2cd8664","665500ab8938657b03fbdba8","665792f03dafe137eff134bd","816","stimuli/1001000.jpg","1","","prediction_trial","1","","true","","1","true","true","true","true","true","true","[1]","001","000","1","","","","","","",""
"","","","","","image-keyboard-response","171","396912","0.0-146.0","607f7f18d84d010ea2cd8664","665500ab8938657b03fbdba8","665792f03dafe137eff134bd","525","stimuli/10010001.jpg"," ","","feedback_trial","1","","","","","","","","","","","","","","","","","","","","",""
"","","","","","image-keyboard-response","172","400981","0.0-147.0","607f7f18d84d010ea2cd8664","665500ab8938657b03fbdba8","665792f03dafe137eff134bd","4059","stimuli/1110111.jpg","1","","prediction_trial","1","","true","","1","false","false","false","false","false","false","[1,0]","110","111","1","","","","","","",""
"","","","","","image-keyboard-response","173","401640","0.0-148.0","607f7f18d84d010ea2cd8664","665500ab8938657b03fbdba8","665792f03dafe137eff134bd","658","stimuli/11101111.jpg"," ","","feedback_trial","1","","","","","","","","","","","","","","","","","","","","",""
"","","","","","image-keyboard-response","174","403232","0.0-149.0","607f7f18d84d010ea2cd8664","665500ab8938657b03fbdba8","665792f03dafe137eff134bd","1589","stimuli/2111101.jpg","2","","prediction_trial","2","","true","","2","false","false","false","false","false","false","[0,1,2]","111","101","1","","","","","","",""
"","","","","","image-keyboard-response","175","403865","0.0-150.0","607f7f18d84d010ea2cd8664","665500ab8938657b03fbdba8","665792f03dafe137eff134bd","631","stimuli/21111012.jpg"," ","","feedback_trial","0","","","","","","","","","","","","","","","","","","","","",""
"","","","","","image-keyboard-response","176","411291","0.0-151.0","607f7f18d84d010ea2cd8664","665500ab8938657b03fbdba8","665792f03dafe137eff134bd","7424","stimuli/2110101.jpg","2","","prediction_trial","2","","true","","2","false","false","true","true","false","false","[2]","110","101","1","","","","","","",""
"","","","","","image-keyboard-response","177","411935","0.0-152.0","607f7f18d84d010ea2cd8664","665500ab8938657b03fbdba8","665792f03dafe137eff134bd","642","stimuli/21101012.jpg"," ","","feedback_trial","2","","","","","","","","","","","","","","","","","","","","",""
"","","","","","image-keyboard-response","178","414249","0.0-153.0","607f7f18d84d010ea2cd8664","665500ab8938657b03fbdba8","665792f03dafe137eff134bd","2302","stimuli/1000010.jpg","1","","prediction_trial","1","","true","","1","false","true","true","true","false","true","[1]","000","010","1","","","","","","",""
"","","","","","image-keyboard-response","179","414896","0.0-154.0","607f7f18d84d010ea2cd8664","665500ab8938657b03fbdba8","665792f03dafe137eff134bd","645","stimuli/10000101.jpg"," ","","feedback_trial","1","","","","","","","","","","","","","","","","","","","","",""
"","","","","","image-keyboard-response","180","421349","0.0-155.0","607f7f18d84d010ea2cd8664","665500ab8938657b03fbdba8","665792f03dafe137eff134bd","6451","stimuli/2010001.jpg","2","","prediction_trial","2","","true","","2","false","true","true","true","false","true","[2]","010","001","1","","","","","","",""
"","","","","","image-keyboard-response","181","422025","0.0-156.0","607f7f18d84d010ea2cd8664","665500ab8938657b03fbdba8","665792f03dafe137eff134bd","674","stimuli/20100012.jpg"," ","","feedback_trial","2","","","","","","","","","","","","","","","","","","","","",""
"","","","","","image-keyboard-response","182","426418","0.0-157.0","607f7f18d84d010ea2cd8664","665500ab8938657b03fbdba8","665792f03dafe137eff134bd","4392","stimuli/2101110.jpg","2","","prediction_trial","0","","false","","2","true","true","false","false","false","false","[2,0]","101","110","0","","","","","","",""
"","","","","","image-keyboard-response","183","427024","0.0-158.0","607f7f18d84d010ea2cd8664","665500ab8938657b03fbdba8","665792f03dafe137eff134bd","605","stimuli/21011100.jpg"," ","","feedback_trial","2","","","","","","","","","","","","","","","","","","","","",""
"","","","","","image-keyboard-response","184","428350","0.0-159.0","607f7f18d84d010ea2cd8664","665500ab8938657b03fbdba8","665792f03dafe137eff134bd","1323","stimuli/0011011.jpg","0","","prediction_trial","0","","true","","0","true","true","true","true","true","true","[0]","011","011","1","","","","","","",""
"","","","","","image-keyboard-response","185","428749","0.0-160.0","607f7f18d84d010ea2cd8664","665500ab8938657b03fbdba8","665792f03dafe137eff134bd","397","stimuli/00110110.jpg"," ","","feedback_trial","0","","","","","","","","","","","","","","","","","","","","",""
"","","","","","image-keyboard-response","186","430517","0.0-161.0","607f7f18d84d010ea2cd8664","665500ab8938657b03fbdba8","665792f03dafe137eff134bd","1765","stimuli/1010100.jpg","1","","prediction_trial","1","","true","","1","true","true","false","true","false","true","[1]","010","100","1","","","","","","",""
"","","","","","image-keyboard-response","187","431390","0.0-162.0","607f7f18d84d010ea2cd8664","665500ab8938657b03fbdba8","665792f03dafe137eff134bd","870","stimuli/10101001.jpg"," ","","feedback_trial","1","","","","","","","","","","","","","","","","","","","","",""
"","","","","","image-keyboard-response","188","434510","0.0-163.0","607f7f18d84d010ea2cd8664","665500ab8938657b03fbdba8","665792f03dafe137eff134bd","3117","stimuli/1011111.jpg","0","","prediction_trial","2","","false","","1","false","false","false","false","false","false","[2,1]","011","111","0","","","","","","",""
"","","","","","image-keyboard-response","189","435244","0.0-164.0","607f7f18d84d010ea2cd8664","665500ab8938657b03fbdba8","665792f03dafe137eff134bd","732","stimuli/10111112.jpg"," ","","feedback_trial","2","","","","","","","","","","","","","","","","","","","","",""
"","","","","","image-keyboard-response","190","438320","0.0-165.0","607f7f18d84d010ea2cd8664","665500ab8938657b03fbdba8","665792f03dafe137eff134bd","3074","stimuli/2010010.jpg","2","","prediction_trial","2","","true","","2","true","true","true","true","true","true","[2]","010","010","1","","","","","","",""
"","","","","","image-keyboard-response","191","439012","0.0-166.0","607f7f18d84d010ea2cd8664","665500ab8938657b03fbdba8","665792f03dafe137eff134bd","690","stimuli/20100102.jpg"," ","","feedback_trial","2","","","","","","","","","","","","","","","","","","","","",""
"","","","","","image-keyboard-response","192","443477","0.0-167.0","607f7f18d84d010ea2cd8664","665500ab8938657b03fbdba8","665792f03dafe137eff134bd","4463","stimuli/0111100.jpg","0","","prediction_trial","0","","true","","0","false","true","false","false","false","false","[0,2,1]","111","100","1","","","","","","",""
"","","","","","image-keyboard-response","193","444084","0.0-168.0","607f7f18d84d010ea2cd8664","665500ab8938657b03fbdba8","665792f03dafe137eff134bd","605","stimuli/01111000.jpg"," ","","feedback_trial","0","","","","","","","","","","","","","","","","","","","","",""
"","","","","","image-keyboard-response","194","447094","0.0-169.0","607f7f18d84d010ea2cd8664","665500ab8938657b03fbdba8","665792f03dafe137eff134bd","3007","stimuli/0000100.jpg","0","","prediction_trial","0","","true","","0","false","true","true","true","false","true","[0]","000","100","1","","","","","","",""
"","","","","","image-keyboard-response","195","447647","0.0-170.0","607f7f18d84d010ea2cd8664","665500ab8938657b03fbdba8","665792f03dafe137eff134bd","551","stimuli/00001000.jpg"," ","","feedback_trial","0","","","","","","","","","","","","","","","","","","","","",""
"","","","","","image-keyboard-response","196","453831","0.0-171.0","607f7f18d84d010ea2cd8664","665500ab8938657b03fbdba8","665792f03dafe137eff134bd","6170","stimuli/1101110.jpg","1","","prediction_trial","1","","true","","1","false","false","true","true","false","false","[1]","101","110","1","","","","","","",""
"","","","","","image-keyboard-response","197","454423","0.0-172.0","607f7f18d84d010ea2cd8664","665500ab8938657b03fbdba8","665792f03dafe137eff134bd","589","stimuli/11011101.jpg"," ","","feedback_trial","1","","","","","","","","","","","","","","","","","","","","",""
"","","","","","image-keyboard-response","198","458938","0.0-173.0","607f7f18d84d010ea2cd8664","665500ab8938657b03fbdba8","665792f03dafe137eff134bd","4513","stimuli/1111010.jpg","1","","prediction_trial","1","","true","","1","false","true","false","false","false","false","[1,2,0]","111","010","1","","","","","","",""
"","","","","","image-keyboard-response","199","459590","0.0-174.0","607f7f18d84d010ea2cd8664","665500ab8938657b03fbdba8","665792f03dafe137eff134bd","650","stimuli/11110101.jpg"," ","","feedback_trial","1","","","","","","","","","","","","","","","","","","","","",""
"","","","","","image-keyboard-response","200","461653","0.0-175.0","607f7f18d84d010ea2cd8664","665500ab8938657b03fbdba8","665792f03dafe137eff134bd","2064","stimuli/2000011.jpg","1","","prediction_trial","2","","false","","2","false","false","true","true","false","false","[2]","000","011","0","","","","","","",""
"","","","","","image-keyboard-response","201","462308","0.0-176.0","607f7f18d84d010ea2cd8664","665500ab8938657b03fbdba8","665792f03dafe137eff134bd","653","stimuli/20000112.jpg"," ","","feedback_trial","2","","","","","","","","","","","","","","","","","","","","",""
"","","","","","image-keyboard-response","202","463568","0.0-177.0","607f7f18d84d010ea2cd8664","665500ab8938657b03fbdba8","665792f03dafe137eff134bd","1259","stimuli/2011000.jpg","2","","prediction_trial","2","","true","","2","true","true","false","false","false","false","[2,1]","011","000","1","","","","","","",""
"","","","","","image-keyboard-response","203","464132","0.0-178.0","607f7f18d84d010ea2cd8664","665500ab8938657b03fbdba8","665792f03dafe137eff134bd","562","stimuli/20110002.jpg"," ","","feedback_trial","2","","","","","","","","","","","","","","","","","","","","",""
"","","","","","image-keyboard-response","204","468801","0.0-179.0","607f7f18d84d010ea2cd8664","665500ab8938657b03fbdba8","665792f03dafe137eff134bd","4666","stimuli/0110110.jpg","1","","prediction_trial","0","","false","","0","false","false","false","false","false","false","[1,0]","110","110","0","","","","","","",""
"","","","","","image-keyboard-response","205","469511","0.0-180.0","607f7f18d84d010ea2cd8664","665500ab8938657b03fbdba8","665792f03dafe137eff134bd","707","stimuli/01101100.jpg"," ","","feedback_trial","1","","","","","","","","","","","","","","","","","","","","",""
"","","","","","image-keyboard-response","206","472615","0.0-181.0","607f7f18d84d010ea2cd8664","665500ab8938657b03fbdba8","665792f03dafe137eff134bd","3102","stimuli/1001011.jpg","1","","prediction_trial","1","","true","","1","false","false","true","true","false","false","[1]","001","011","1","","","","","","",""
"","","","","","image-keyboard-response","207","473368","0.0-182.0","607f7f18d84d010ea2cd8664","665500ab8938657b03fbdba8","665792f03dafe137eff134bd","751","stimuli/10010111.jpg"," ","","feedback_trial","1","","","","","","","","","","","","","","","","","","","","",""
"","","","","","image-keyboard-response","208","479010","0.0-183.0","607f7f18d84d010ea2cd8664","665500ab8938657b03fbdba8","665792f03dafe137eff134bd","5639","stimuli/0011101.jpg","1","","prediction_trial","0","","false","","0","false","false","true","true","false","false","[0]","011","101","0","","","","","","",""
"","","","","","image-keyboard-response","209","479848","0.0-184.0","607f7f18d84d010ea2cd8664","665500ab8938657b03fbdba8","665792f03dafe137eff134bd","836","stimuli/00111010.jpg"," ","","feedback_trial","0","","","","","","","","","","","","","","","","","","","","",""
"","","","","","image-keyboard-response","210","482506","0.0-185.0","607f7f18d84d010ea2cd8664","665500ab8938657b03fbdba8","665792f03dafe137eff134bd","2655","stimuli/1011101.jpg","1","","prediction_trial","1","","true","","1","true","true","false","false","false","false","[1,2]","011","101","1","","","","","","",""
"","","","","","image-keyboard-response","211","483041","0.0-186.0","607f7f18d84d010ea2cd8664","665500ab8938657b03fbdba8","665792f03dafe137eff134bd","533","stimuli/10111011.jpg"," ","","feedback_trial","1","","","","","","","","","","","","","","","","","","","","",""
"","","","","","image-keyboard-response","212","485980","0.0-187.0","607f7f18d84d010ea2cd8664","665500ab8938657b03fbdba8","665792f03dafe137eff134bd","2937","stimuli/0011111.jpg","0","","prediction_trial","0","","true","","0","false","false","true","true","false","false","[0]","011","111","1","","","","","","",""
"","","","","","image-keyboard-response","213","486654","0.0-188.0","607f7f18d84d010ea2cd8664","665500ab8938657b03fbdba8","665792f03dafe137eff134bd","672","stimuli/00111110.jpg"," ","","feedback_trial","0","","","","","","","","","","","","","","","","","","","","",""
"","","","","","image-keyboard-response","214","488781","0.0-189.0","607f7f18d84d010ea2cd8664","665500ab8938657b03fbdba8","665792f03dafe137eff134bd","2124","stimuli/0100000.jpg","0","","prediction_trial","0","","true","","0","true","true","false","true","false","true","[0]","100","000","1","","","","","","",""
"","","","","","image-keyboard-response","215","489328","0.0-190.0","607f7f18d84d010ea2cd8664","665500ab8938657b03fbdba8","665792f03dafe137eff134bd","544","stimuli/01000000.jpg"," ","","feedback_trial","0","","","","","","","","","","","","","","","","","","","","",""
"","","","","","image-keyboard-response","216","491643","0.0-191.0","607f7f18d84d010ea2cd8664","665500ab8938657b03fbdba8","665792f03dafe137eff134bd","2313","stimuli/1010111.jpg","1","","prediction_trial","1","","true","","1","false","false","false","true","false","false","[1]","010","111","1","","","","","","",""
"","","","","","image-keyboard-response","217","492187","0.0-192.0","607f7f18d84d010ea2cd8664","665500ab8938657b03fbdba8","665792f03dafe137eff134bd","541","stimuli/10101111.jpg"," ","","feedback_trial","1","","","","","","","","","","","","","","","","","","","","",""
"","","","","","image-keyboard-response","218","496675","0.0-193.0","607f7f18d84d010ea2cd8664","665500ab8938657b03fbdba8","665792f03dafe137eff134bd","4486","stimuli/1110011.jpg","1","","prediction_trial","0","","false","","1","false","false","false","false","false","false","[1,0]","110","011","0","","","","","","",""
"","","","","","image-keyboard-response","219","497435","0.0-194.0","607f7f18d84d010ea2cd8664","665500ab8938657b03fbdba8","665792f03dafe137eff134bd","758","stimuli/11100110.jpg"," ","","feedback_trial","1","","","","","","","","","","","","","","","","","","","","",""
"","","","","","image-keyboard-response","220","499382","0.0-195.0","607f7f18d84d010ea2cd8664","665500ab8938657b03fbdba8","665792f03dafe137eff134bd","1944","stimuli/2100100.jpg","2","","prediction_trial","2","","true","","2","true","true","true","true","true","true","[2]","100","100","1","","","","","","",""
"","","","","","image-keyboard-response","221","500271","0.0-196.0","607f7f18d84d010ea2cd8664","665500ab8938657b03fbdba8","665792f03dafe137eff134bd","886","stimuli/21001002.jpg"," ","","feedback_trial","2","","","","","","","","","","","","","","","","","","","","",""
"","","","","","image-keyboard-response","222","504293","0.0-197.0","607f7f18d84d010ea2cd8664","665500ab8938657b03fbdba8","665792f03dafe137eff134bd","4021","stimuli/1001110.jpg","0","","prediction_trial","1","","false","","1","false","false","true","true","false","false","[1]","001","110","0","","","","","","",""
"","","","","","image-keyboard-response","223","505428","0.0-198.0","607f7f18d84d010ea2cd8664","665500ab8938657b03fbdba8","665792f03dafe137eff134bd","1131","stimuli/10011101.jpg"," ","","feedback_trial","1","","","","","","","","","","","","","","","","","","","","",""
"","","","","","image-keyboard-response","224","508654","0.0-199.0","607f7f18d84d010ea2cd8664","665500ab8938657b03fbdba8","665792f03dafe137eff134bd","3224","stimuli/1100010.jpg","1","","prediction_trial","1","","true","","1","false","true","true","true","false","true","[1]","100","010","1","","","","","","",""
"","","","","","image-keyboard-response","225","509428","0.0-200.0","607f7f18d84d010ea2cd8664","665500ab8938657b03fbdba8","665792f03dafe137eff134bd","771","stimuli/11000101.jpg"," ","","feedback_trial","1","","","","","","","","","","","","","","","","","","","","",""
"","","","","","image-keyboard-response","226","511830","0.0-201.0","607f7f18d84d010ea2cd8664","665500ab8938657b03fbdba8","665792f03dafe137eff134bd","2400","stimuli/1110010.jpg","1","","prediction_trial","0","","false","","1","false","true","false","false","false","false","[1,0]","110","010","0","","","","","","",""
"","","","","","image-keyboard-response","227","512906","0.0-202.0","607f7f18d84d010ea2cd8664","665500ab8938657b03fbdba8","665792f03dafe137eff134bd","1073","stimuli/11100100.jpg"," ","","feedback_trial","1","","","","","","","","","","","","","","","","","","","","",""
"","","","","","image-keyboard-response","228","514346","0.0-203.0","607f7f18d84d010ea2cd8664","665500ab8938657b03fbdba8","665792f03dafe137eff134bd","1437","stimuli/2110010.jpg","2","","prediction_trial","2","","true","","2","true","true","true","true","true","true","[2]","110","010","1","","","","","","",""
"","","","","","image-keyboard-response","229","514951","0.0-204.0","607f7f18d84d010ea2cd8664","665500ab8938657b03fbdba8","665792f03dafe137eff134bd","603","stimuli/21100102.jpg"," ","","feedback_trial","2","","","","","","","","","","","","","","","","","","","","",""
"","","","","","image-keyboard-response","230","516517","0.0-205.0","607f7f18d84d010ea2cd8664","665500ab8938657b03fbdba8","665792f03dafe137eff134bd","1563","stimuli/0110000.jpg","0","","prediction_trial","0","","true","","0","true","true","false","false","false","false","[0,1]","110","000","1","","","","","","",""
"","","","","","image-keyboard-response","231","516944","0.0-206.0","607f7f18d84d010ea2cd8664","665500ab8938657b03fbdba8","665792f03dafe137eff134bd","425","stimuli/01100000.jpg"," ","","feedback_trial","0","","","","","","","","","","","","","","","","","","","","",""
"","","","","","image-keyboard-response","232","517934","0.0-207.0","607f7f18d84d010ea2cd8664","665500ab8938657b03fbdba8","665792f03dafe137eff134bd","975","stimuli/2000100.jpg","2","","prediction_trial","2","","true","","2","true","true","true","true","true","true","[2]","000","100","1","","","","","","",""
"","","","","","image-keyboard-response","233","518353","0.0-208.0","607f7f18d84d010ea2cd8664","665500ab8938657b03fbdba8","665792f03dafe137eff134bd","417","stimuli/20001002.jpg"," ","","feedback_trial","2","","","","","","","","","","","","","","","","","","","","",""
"","","","","","image-keyboard-response","234","519364","0.0-209.0","607f7f18d84d010ea2cd8664","665500ab8938657b03fbdba8","665792f03dafe137eff134bd","1008","stimuli/2011010.jpg","2","","prediction_trial","2","","true","","2","true","true","false","false","false","false","[2,1]","011","010","1","","","","","","",""
"","","","","","image-keyboard-response","235","519973","0.0-210.0","607f7f18d84d010ea2cd8664","665500ab8938657b03fbdba8","665792f03dafe137eff134bd","606","stimuli/20110102.jpg"," ","","feedback_trial","2","","","","","","","","","","","","","","","","","","","","",""
"","","","","","image-keyboard-response","236","521197","0.0-211.0","607f7f18d84d010ea2cd8664","665500ab8938657b03fbdba8","665792f03dafe137eff134bd","1222","stimuli/1110101.jpg","1","","prediction_trial","0","","false","","1","true","true","false","false","false","false","[1,0]","110","101","0","","","","","","",""
"","","","","","image-keyboard-response","237","521950","0.0-212.0","607f7f18d84d010ea2cd8664","665500ab8938657b03fbdba8","665792f03dafe137eff134bd","747","stimuli/11101010.jpg"," ","","feedback_trial","1","","","","","","","","","","","","","","","","","","","","",""
"","","","","","image-keyboard-response","238","528187","0.0-213.0","607f7f18d84d010ea2cd8664","665500ab8938657b03fbdba8","665792f03dafe137eff134bd","6235","stimuli/2101011.jpg","1","","prediction_trial","0","","false","","2","false","false","false","false","false","false","[2,0]","101","011","0","","","","","","",""
"","","","","","image-keyboard-response","239","529622","0.0-214.0","607f7f18d84d010ea2cd8664","665500ab8938657b03fbdba8","665792f03dafe137eff134bd","1433","stimuli/21010110.jpg"," ","","feedback_trial","2","","","","","","","","","","","","","","","","","","","","",""
"","","","","","image-keyboard-response","240","532798","0.0-215.0","607f7f18d84d010ea2cd8664","665500ab8938657b03fbdba8","665792f03dafe137eff134bd","3173","stimuli/1110000.jpg","1","","prediction_trial","0","","false","","1","true","true","false","false","false","false","[1,0]","110","000","0","","","","","","",""
"","","","","","image-keyboard-response","241","534219","0.0-216.0","607f7f18d84d010ea2cd8664","665500ab8938657b03fbdba8","665792f03dafe137eff134bd","1417","stimuli/11100000.jpg"," ","","feedback_trial","1","","","","","","","","","","","","","","","","","","","","",""
"","","","","","image-keyboard-response","242","535584","0.0-217.0","607f7f18d84d010ea2cd8664","665500ab8938657b03fbdba8","665792f03dafe137eff134bd","1363","stimuli/0001010.jpg","0","","prediction_trial","0","","true","","0","true","true","true","true","true","true","[0]","001","010","1","","","","","","",""
"","","","","","image-keyboard-response","243","536568","0.0-218.0","607f7f18d84d010ea2cd8664","665500ab8938657b03fbdba8","665792f03dafe137eff134bd","981","stimuli/00010100.jpg"," ","","feedback_trial","0","","","","","","","","","","","","","","","","","","","","",""
"","","","","","image-keyboard-response","244","537748","0.0-219.0","607f7f18d84d010ea2cd8664","665500ab8938657b03fbdba8","665792f03dafe137eff134bd","1178","stimuli/0001011.jpg","0","","prediction_trial","0","","true","","0","true","true","true","true","true","true","[0]","001","011","1","","","","","","",""
"","","","","","image-keyboard-response","245","538549","0.0-220.0","607f7f18d84d010ea2cd8664","665500ab8938657b03fbdba8","665792f03dafe137eff134bd","798","stimuli/00010110.jpg"," ","","feedback_trial","0","","","","","","","","","","","","","","","","","","","","",""
"","","","","","image-keyboard-response","246","541607","0.0-221.0","607f7f18d84d010ea2cd8664","665500ab8938657b03fbdba8","665792f03dafe137eff134bd","3056","stimuli/2100111.jpg","1","","prediction_trial","2","","false","","2","false","false","true","true","false","false","[2]","100","111","0","","","","","","",""
"","","","","","image-keyboard-response","247","542423","0.0-222.0","607f7f18d84d010ea2cd8664","665500ab8938657b03fbdba8","665792f03dafe137eff134bd","815","stimuli/21001112.jpg"," ","","feedback_trial","2","","","","","","","","","","","","","","","","","","","","",""
"","","","","","image-keyboard-response","248","543934","0.0-223.0","607f7f18d84d010ea2cd8664","665500ab8938657b03fbdba8","665792f03dafe137eff134bd","1508","stimuli/0011000.jpg","0","","prediction_trial","0","","true","","0","true","true","true","true","true","true","[0]","011","000","1","","","","","","",""
"","","","","","image-keyboard-response","249","544577","0.0-224.0","607f7f18d84d010ea2cd8664","665500ab8938657b03fbdba8","665792f03dafe137eff134bd","640","stimuli/00110000.jpg"," ","","feedback_trial","0","","","","","","","","","","","","","","","","","","","","",""
"","","","","","image-keyboard-response","250","545373","0.0-225.0","607f7f18d84d010ea2cd8664","665500ab8938657b03fbdba8","665792f03dafe137eff134bd","792","stimuli/2000110.jpg","2","","prediction_trial","2","","true","","2","true","true","true","true","true","true","[2]","000","110","1","","","","","","",""
"","","","","","image-keyboard-response","251","545814","0.0-226.0","607f7f18d84d010ea2cd8664","665500ab8938657b03fbdba8","665792f03dafe137eff134bd","439","stimuli/20001102.jpg"," ","","feedback_trial","2","","","","","","","","","","","","","","","","","","","","",""
"","","","","","image-keyboard-response","252","546694","0.0-227.0","607f7f18d84d010ea2cd8664","665500ab8938657b03fbdba8","665792f03dafe137eff134bd","877","stimuli/0001000.jpg","0","","prediction_trial","0","","true","","0","true","true","true","true","true","true","[0]","001","000","1","","","","","","",""
"","","","","","image-keyboard-response","253","547052","0.0-228.0","607f7f18d84d010ea2cd8664","665500ab8938657b03fbdba8","665792f03dafe137eff134bd","356","stimuli/00010000.jpg"," ","","feedback_trial","0","","","","","","","","","","","","","","","","","","","","",""
"","","","","","image-keyboard-response","254","547886","0.0-229.0","607f7f18d84d010ea2cd8664","665500ab8938657b03fbdba8","665792f03dafe137eff134bd","832","stimuli/1011001.jpg","1","","prediction_trial","2","","false","","1","true","true","false","false","false","false","[1,2]","011","001","0","","","","","","",""
"","","","","","image-keyboard-response","255","548504","0.0-230.0","607f7f18d84d010ea2cd8664","665500ab8938657b03fbdba8","665792f03dafe137eff134bd","615","stimuli/10110012.jpg"," ","","feedback_trial","1","","","","","","","","","","","","","","","","","","","","",""
"","","","","","image-keyboard-response","256","550924","0.0-231.0","607f7f18d84d010ea2cd8664","665500ab8938657b03fbdba8","665792f03dafe137eff134bd","2418","stimuli/2101111.jpg","2","","prediction_trial","2","","true","","2","false","false","false","false","false","false","[0,2]","101","111","1","","","","","","",""
"","","","","","image-keyboard-response","257","551844","0.0-232.0","607f7f18d84d010ea2cd8664","665500ab8938657b03fbdba8","665792f03dafe137eff134bd","918","stimuli/21011112.jpg"," ","","feedback_trial","0","","","","","","","","","","","","","","","","","","","","",""
"","","","","","image-keyboard-response","258","557606","0.0-233.0","607f7f18d84d010ea2cd8664","665500ab8938657b03fbdba8","665792f03dafe137eff134bd","5759","stimuli/1010110.jpg","1","","prediction_trial","1","","true","","1","false","false","false","true","false","false","[1]","010","110","1","","","","","","",""
"","","","","","image-keyboard-response","259","558388","0.0-234.0","607f7f18d84d010ea2cd8664","665500ab8938657b03fbdba8","665792f03dafe137eff134bd","779","stimuli/10101101.jpg"," ","","feedback_trial","1","","","","","","","","","","","","","","","","","","","","",""
"","","","","","image-keyboard-response","260","559956","0.0-235.0","607f7f18d84d010ea2cd8664","665500ab8938657b03fbdba8","665792f03dafe137eff134bd","1565","stimuli/2110110.jpg","2","","prediction_trial","2","","true","","2","true","true","true","true","true","true","[2]","110","110","1","","","","","","",""
"","","","","","image-keyboard-response","261","560484","0.0-236.0","607f7f18d84d010ea2cd8664","665500ab8938657b03fbdba8","665792f03dafe137eff134bd","525","stimuli/21101102.jpg"," ","","feedback_trial","2","","","","","","","","","","","","","","","","","","","","",""
"","","","","","image-keyboard-response","262","562229","0.0-237.0","607f7f18d84d010ea2cd8664","665500ab8938657b03fbdba8","665792f03dafe137eff134bd","1743","stimuli/0111111.jpg","0","","prediction_trial","1","","false","","0","false","false","false","false","false","false","[1,2,0]","111","111","0","","","","","","",""
"","","","","","image-keyboard-response","263","562933","0.0-238.0","607f7f18d84d010ea2cd8664","665500ab8938657b03fbdba8","665792f03dafe137eff134bd","703","stimuli/01111111.jpg"," ","","feedback_trial","1","","","","","","","","","","","","","","","","","","","","",""
"","","","","","image-keyboard-response","264","565334","0.0-239.0","607f7f18d84d010ea2cd8664","665500ab8938657b03fbdba8","665792f03dafe137eff134bd","2399","stimuli/1010011.jpg","1","","prediction_trial","1","","true","","1","false","false","false","true","false","false","[1]","010","011","1","","","","","","",""
"","","","","","image-keyboard-response","265","566071","0.0-240.0","607f7f18d84d010ea2cd8664","665500ab8938657b03fbdba8","665792f03dafe137eff134bd","735","stimuli/10100111.jpg"," ","","feedback_trial","1","","","","","","","","","","","","","","","","","","","","",""
"","","","","","image-keyboard-response","266","572153","0.0-241.0","607f7f18d84d010ea2cd8664","665500ab8938657b03fbdba8","665792f03dafe137eff134bd","6080","stimuli/0001111.jpg","1","","prediction_trial","0","","false","","0","false","false","true","true","false","false","[0]","001","111","0","","","","","","",""
"","","","","","image-keyboard-response","267","573023","0.0-242.0","607f7f18d84d010ea2cd8664","665500ab8938657b03fbdba8","665792f03dafe137eff134bd","868","stimuli/00011110.jpg"," ","","feedback_trial","0","","","","","","","","","","","","","","","","","","","","",""
"","","","","","image-keyboard-response","268","574594","0.0-243.0","607f7f18d84d010ea2cd8664","665500ab8938657b03fbdba8","665792f03dafe137eff134bd","1557","stimuli/2110111.jpg","2","","prediction_trial","2","","true","","2","false","false","true","true","false","false","[2]","110","111","1","","","","","","",""
"","","","","","image-keyboard-response","269","575358","0.0-244.0","607f7f18d84d010ea2cd8664","665500ab8938657b03fbdba8","665792f03dafe137eff134bd","761","stimuli/21101112.jpg"," ","","feedback_trial","2","","","","","","","","","","","","","","","","","","","","",""
"","","","","","image-keyboard-response","270","579024","0.0-245.0","607f7f18d84d010ea2cd8664","665500ab8938657b03fbdba8","665792f03dafe137eff134bd","3663","stimuli/2011001.jpg","2","","prediction_trial","1","","false","","2","false","true","false","false","false","false","[1,2]","011","001","0","","","","","","",""
"","","","","","image-keyboard-response","271","579752","0.0-246.0","607f7f18d84d010ea2cd8664","665500ab8938657b03fbdba8","665792f03dafe137eff134bd","726","stimuli/20110011.jpg"," ","","feedback_trial","1","","","","","","","","","","","","","","","","","","","","",""
"","","","","","image-keyboard-response","272","580757","0.0-247.0","607f7f18d84d010ea2cd8664","665500ab8938657b03fbdba8","665792f03dafe137eff134bd","1002","stimuli/1101001.jpg","1","","prediction_trial","1","","true","","1","true","true","true","true","true","true","[1]","101","001","1","","","","","","",""
"","","","","","image-keyboard-response","273","581391","0.0-248.0","607f7f18d84d010ea2cd8664","665500ab8938657b03fbdba8","665792f03dafe137eff134bd","632","stimuli/11010011.jpg"," ","","feedback_trial","1","","","","","","","","","","","","","","","","","","","","",""
"","","","","","image-keyboard-response","274","586020","0.0-249.0","607f7f18d84d010ea2cd8664","665500ab8938657b03fbdba8","665792f03dafe137eff134bd","4628","stimuli/1100011.jpg","1","","prediction_trial","1","","true","","1","false","false","true","true","false","false","[1]","100","011","1","","","","","","",""
"","","","","","image-keyboard-response","275","586712","0.0-250.0","607f7f18d84d010ea2cd8664","665500ab8938657b03fbdba8","665792f03dafe137eff134bd","689","stimuli/11000111.jpg"," ","","feedback_trial","1","","","","","","","","","","","","","","","","","","","","",""
"","","","","","image-keyboard-response","276","587696","0.0-251.0","607f7f18d84d010ea2cd8664","665500ab8938657b03fbdba8","665792f03dafe137eff134bd","981","stimuli/1111000.jpg","1","","prediction_trial","1","","true","","1","true","true","false","false","false","false","[2,1,0]","111","000","1","","","","","","",""
"","","","","","image-keyboard-response","277","588340","0.0-252.0","607f7f18d84d010ea2cd8664","665500ab8938657b03fbdba8","665792f03dafe137eff134bd","640","stimuli/11110001.jpg"," ","","feedback_trial","2","","","","","","","","","","","","","","","","","","","","",""
"","","","","","image-keyboard-response","278","589509","0.0-253.0","607f7f18d84d010ea2cd8664","665500ab8938657b03fbdba8","665792f03dafe137eff134bd","1166","stimuli/1111111.jpg","1","","prediction_trial","1","","true","","1","false","false","false","false","false","false","[2,0,1]","111","111","1","","","","","","",""
"","","","","","image-keyboard-response","279","590080","0.0-254.0","607f7f18d84d010ea2cd8664","665500ab8938657b03fbdba8","665792f03dafe137eff134bd","568","stimuli/11111111.jpg"," ","","feedback_trial","2","","","","","","","","","","","","","","","","","","","","",""
"","","","","","image-keyboard-response","280","591299","0.0-255.0","607f7f18d84d010ea2cd8664","665500ab8938657b03fbdba8","665792f03dafe137eff134bd","1217","stimuli/0010010.jpg","0","","prediction_trial","0","","true","","0","true","true","true","true","true","true","[0]","010","010","1","","","","","","",""
"","","","","","image-keyboard-response","281","591844","0.0-256.0","607f7f18d84d010ea2cd8664","665500ab8938657b03fbdba8","665792f03dafe137eff134bd","543","stimuli/00100100.jpg"," ","","feedback_trial","0","","","","","","","","","","","","","","","","","","","","",""
"","","","","","image-keyboard-response","282","592898","0.0-257.0","607f7f18d84d010ea2cd8664","665500ab8938657b03fbdba8","665792f03dafe137eff134bd","1051","stimuli/0101011.jpg","0","","prediction_trial","2","","false","","0","true","true","false","false","false","false","[2,0]","101","011","0","","","","","","",""
"","","","","","image-keyboard-response","283","593774","0.0-258.0","607f7f18d84d010ea2cd8664","665500ab8938657b03fbdba8","665792f03dafe137eff134bd","874","stimuli/01010112.jpg"," ","","feedback_trial","2","","","","","","","","","","","","","","","","","","","","",""
"","","","","","image-keyboard-response","284","596252","0.0-259.0","607f7f18d84d010ea2cd8664","665500ab8938657b03fbdba8","665792f03dafe137eff134bd","2475","stimuli/0111001.jpg","0","","prediction_trial","0","","true","","0","true","true","false","false","false","false","[2,1,0]","111","001","1","","","","","","",""
"","","","","","image-keyboard-response","285","597076","0.0-260.0","607f7f18d84d010ea2cd8664","665500ab8938657b03fbdba8","665792f03dafe137eff134bd","822","stimuli/01110010.jpg"," ","","feedback_trial","2","","","","","","","","","","","","","","","","","","","","",""
"","","","","","image-keyboard-response","286","598967","0.0-261.0","607f7f18d84d010ea2cd8664","665500ab8938657b03fbdba8","665792f03dafe137eff134bd","1879","stimuli/2111111.jpg","2","","prediction_trial","1","","false","","2","false","false","false","false","false","false","[1,0,2]","111","111","0","","","","","","",""
"","","","","","image-keyboard-response","287","599772","0.0-262.0","607f7f18d84d010ea2cd8664","665500ab8938657b03fbdba8","665792f03dafe137eff134bd","803","stimuli/21111111.jpg"," ","","feedback_trial","1","","","","","","","","","","","","","","","","","","","","",""
"","","","","","image-keyboard-response","288","601063","0.0-263.0","607f7f18d84d010ea2cd8664","665500ab8938657b03fbdba8","665792f03dafe137eff134bd","1288","stimuli/1111100.jpg","1","","prediction_trial","2","","false","","1","true","true","false","false","false","false","[1,0,2]","111","100","0","","","","","","",""
"","","","","","image-keyboard-response","289","601851","0.0-264.0","607f7f18d84d010ea2cd8664","665500ab8938657b03fbdba8","665792f03dafe137eff134bd","785","stimuli/11111002.jpg"," ","","feedback_trial","1","","","","","","","","","","","","","","","","","","","","",""
"","","","","","image-keyboard-response","290","602621","0.0-265.0","607f7f18d84d010ea2cd8664","665500ab8938657b03fbdba8","665792f03dafe137eff134bd","769","stimuli/1010101.jpg","1","","prediction_trial","1","","true","","1","true","true","false","true","false","true","[1]","010","101","1","","","","","","",""
"","","","","","image-keyboard-response","291","603242","0.0-266.0","607f7f18d84d010ea2cd8664","665500ab8938657b03fbdba8","665792f03dafe137eff134bd","618","stimuli/10101011.jpg"," ","","feedback_trial","1","","","","","","","","","","","","","","","","","","","","",""
"","","","","","image-keyboard-response","292","606807","0.0-267.0","607f7f18d84d010ea2cd8664","665500ab8938657b03fbdba8","665792f03dafe137eff134bd","3563","stimuli/2110011.jpg","1","","prediction_trial","2","","false","","2","false","false","true","true","false","false","[2]","110","011","0","","","","","","",""
"","","","","","image-keyboard-response","293","607636","0.0-268.0","607f7f18d84d010ea2cd8664","665500ab8938657b03fbdba8","665792f03dafe137eff134bd","826","stimuli/21100112.jpg"," ","","feedback_trial","2","","","","","","","","","","","","","","","","","","","","",""
"","","","","","image-keyboard-response","294","608665","0.0-269.0","607f7f18d84d010ea2cd8664","665500ab8938657b03fbdba8","665792f03dafe137eff134bd","1026","stimuli/1101000.jpg","1","","prediction_trial","1","","true","","1","true","true","true","true","true","true","[1]","101","000","1","","","","","","",""
"","","","","","image-keyboard-response","295","609229","0.0-270.0","607f7f18d84d010ea2cd8664","665500ab8938657b03fbdba8","665792f03dafe137eff134bd","561","stimuli/11010001.jpg"," ","","feedback_trial","1","","","","","","","","","","","","","","","","","","","","",""
"","","","","","image-keyboard-response","296","613732","0.0-271.0","607f7f18d84d010ea2cd8664","665500ab8938657b03fbdba8","665792f03dafe137eff134bd","4501","stimuli/0010101.jpg","2","","prediction_trial","0","","false","","0","false","false","true","true","false","false","[0]","010","101","0","","","","","","",""
"","","","","","image-keyboard-response","297","614467","0.0-272.0","607f7f18d84d010ea2cd8664","665500ab8938657b03fbdba8","665792f03dafe137eff134bd","732","stimuli/00101010.jpg"," ","","feedback_trial","0","","","","","","","","","","","","","","","","","","","","",""
"","","","","","image-keyboard-response","298","620164","0.0-273.0","607f7f18d84d010ea2cd8664","665500ab8938657b03fbdba8","665792f03dafe137eff134bd","5695","stimuli/0000101.jpg","2","","prediction_trial","0","","false","","0","false","false","true","true","false","false","[0]","000","101","0","","","","","","",""
"","","","","","image-keyboard-response","299","621046","0.0-274.0","607f7f18d84d010ea2cd8664","665500ab8938657b03fbdba8","665792f03dafe137eff134bd","879","stimuli/00001010.jpg"," ","","feedback_trial","0","","","","","","","","","","","","","","","","","","","","",""
"","","","","","image-keyboard-response","300","622682","0.0-275.0","607f7f18d84d010ea2cd8664","665500ab8938657b03fbdba8","665792f03dafe137eff134bd","1634","stimuli/0101001.jpg","0","","prediction_trial","0","","true","","0","true","true","false","false","false","false","[0,2]","101","001","1","","","","","","",""
"","","","","","image-keyboard-response","301","623316","0.0-276.0","607f7f18d84d010ea2cd8664","665500ab8938657b03fbdba8","665792f03dafe137eff134bd","632","stimuli/01010010.jpg"," ","","feedback_trial","0","","","","","","","","","","","","","","","","","","","","",""
"","","","","","image-keyboard-response","302","625488","0.0-277.0","607f7f18d84d010ea2cd8664","665500ab8938657b03fbdba8","665792f03dafe137eff134bd","2170","stimuli/0000111.jpg","1","","prediction_trial","0","","false","","0","false","false","true","true","false","false","[0]","000","111","0","","","","","","",""
"","","","","","image-keyboard-response","303","626278","0.0-278.0","607f7f18d84d010ea2cd8664","665500ab8938657b03fbdba8","665792f03dafe137eff134bd","787","stimuli/00001110.jpg"," ","","feedback_trial","0","","","","","","","","","","","","","","","","","","","","",""
"","","","","","image-keyboard-response","304","630336","0.0-279.0","607f7f18d84d010ea2cd8664","665500ab8938657b03fbdba8","665792f03dafe137eff134bd","4054","stimuli/0100111.jpg","0","","prediction_trial","0","","true","","0","false","false","false","true","false","false","[0]","100","111","1","","","","","","",""
"","","","","","image-keyboard-response","305","631298","0.0-280.0","607f7f18d84d010ea2cd8664","665500ab8938657b03fbdba8","665792f03dafe137eff134bd","959","stimuli/01001110.jpg"," ","","feedback_trial","0","","","","","","","","","","","","","","","","","","","","",""
"","","","","","image-keyboard-response","306","634425","0.0-281.0","607f7f18d84d010ea2cd8664","665500ab8938657b03fbdba8","665792f03dafe137eff134bd","3126","stimuli/0101110.jpg","1","","prediction_trial","0","","false","","0","false","false","false","false","false","false","[2,0]","101","110","0","","","","","","",""
"","","","","","image-keyboard-response","307","635219","0.0-282.0","607f7f18d84d010ea2cd8664","665500ab8938657b03fbdba8","665792f03dafe137eff134bd","791","stimuli/01011100.jpg"," ","","feedback_trial","2","","","","","","","","","","","","","","","","","","","","",""
"","","","","","image-keyboard-response","308","639197","0.0-283.0","607f7f18d84d010ea2cd8664","665500ab8938657b03fbdba8","665792f03dafe137eff134bd","3976","stimuli/1101011.jpg","2","","prediction_trial","1","","false","","1","false","false","true","true","false","false","[1]","101","011","0","","","","","","",""
"","","","","","image-keyboard-response","309","640081","0.0-284.0","607f7f18d84d010ea2cd8664","665500ab8938657b03fbdba8","665792f03dafe137eff134bd","884","stimuli/11010111.jpg"," ","","feedback_trial","1","","","","","","","","","","","","","","","","","","","","",""
"","","","","","image-keyboard-response","310","641051","0.0-285.0","607f7f18d84d010ea2cd8664","665500ab8938657b03fbdba8","665792f03dafe137eff134bd","967","stimuli/2001100.jpg","2","","prediction_trial","2","","true","","2","true","true","false","true","false","true","[2]","001","100","1","","","","","","",""
"","","","","","image-keyboard-response","311","641613","0.0-286.0","607f7f18d84d010ea2cd8664","665500ab8938657b03fbdba8","665792f03dafe137eff134bd","560","stimuli/20011002.jpg"," ","","feedback_trial","2","","","","","","","","","","","","","","","","","","","","",""
"","","","","","image-keyboard-response","312","643194","0.0-287.0","607f7f18d84d010ea2cd8664","665500ab8938657b03fbdba8","665792f03dafe137eff134bd","1579","stimuli/1000000.jpg","1","","prediction_trial","1","","true","","1","true","true","true","true","true","true","[1]","000","000","1","","","","","","",""
"","","","","","image-keyboard-response","313","643845","0.0-288.0","607f7f18d84d010ea2cd8664","665500ab8938657b03fbdba8","665792f03dafe137eff134bd","638","stimuli/10000001.jpg"," ","","feedback_trial","1","","","","","","","","","","","","","","","","","","","","",""
"","","","","","image-keyboard-response","314","645424","0.0-289.0","607f7f18d84d010ea2cd8664","665500ab8938657b03fbdba8","665792f03dafe137eff134bd","1576","stimuli/0111000.jpg","0","","prediction_trial","1","","false","","0","true","true","false","false","false","false","[1,2,0]","111","000","0","","","","","","",""
"","","","","","image-keyboard-response","315","646191","0.0-290.0","607f7f18d84d010ea2cd8664","665500ab8938657b03fbdba8","665792f03dafe137eff134bd","762","stimuli/01110001.jpg"," ","","feedback_trial","1","","","","","","","","","","","","","","","","","","","","",""
"","","","","","image-keyboard-response","316","646850","0.0-291.0","607f7f18d84d010ea2cd8664","665500ab8938657b03fbdba8","665792f03dafe137eff134bd","657","stimuli/1101101.jpg","1","","prediction_trial","1","","true","","1","true","true","true","true","true","true","[1]","101","101","1","","","","","","",""
"","","","","","image-keyboard-response","317","647449","0.0-292.0","607f7f18d84d010ea2cd8664","665500ab8938657b03fbdba8","665792f03dafe137eff134bd","597","stimuli/11011011.jpg"," ","","feedback_trial","1","","","","","","","","","","","","","","","","","","","","",""
"","","","","","survey-html-form","318","695880","0.0-293.0","607f7f18d84d010ea2cd8664","665500ab8938657b03fbdba8","665792f03dafe137eff134bd","48426","","{""feedback"":""I chose what felt right and if I knew for sure which basket he would pick."",""age"":""24"",""gender"":""Female"",""other_gender"":"""",""race"":""Multiracial"",""other_race"":"""",""ethnicity"":""Non-Hispanic""}","","exit_survey","","","","","","","","","","","","","","","","I chose what felt right and if I knew for sure which basket he would pick.","24","Non-Hispanic","Female","Multiracial","0.6319444444444444","0.6319444444444444"
