"success","timeout","failed_images","failed_audio","failed_video","trial_type","trial_index","time_elapsed","internal_node_id","prolific_id","prolific_study_id","prolific_session_id","rt","stimulus","response","view_history","trial","character_choice","stimulus_dict","accuracy","correct_response","ball_pos","ego_ball_visible","ego_can_infer","alter_ball_visible","alter_can_infer","collective_ball_visible","collective_can_infer","search_locations","alter_occluders","ego_occluders","accuracy_bool","feedback","age","ethnicity","gender","race","overall_accuracy","bonus"
"true","false","[]","[]","[]","preload","0","32667","0.0-0.0","56f59251736c79000c2241f7","665500ab8938657b03fbdba8","66578117af275b30715fdc22","","","","","","","","","","","","","","","","","","","","","","","","","","",""
"true","","","","","fullscreen","1","38944","0.0-1.0","56f59251736c79000c2241f7","665500ab8938657b03fbdba8","66578117af275b30715fdc22","","","","","","","","","","","","","","","","","","","","","","","","","","",""
"","","","","","html-button-response","2","40174","0.0-2.0","56f59251736c79000c2241f7","665500ab8938657b03fbdba8","66578117af275b30715fdc22","1230","<p><b>Consent Form</b></p> <div style=""text-align:left;background-color:lightgrey; padding:20px; max-width:900px;""><p>Please consider this information carefully before deciding whether to participate in this research.</p> <p>The purpose of this research is to examine which factors influence social judgment and decision-making. You will be asked to make judgements about individuals and actions in social scenarios. We are simply interested in your judgement. The study will take less than 1 hour to complete, and you will receive less than $20 on Prolific. Your compensation and time commitment are specified in the study description. There are no anticipated risks associated with participating in this study. The effects of participating should be comparable to those you would ordinarily experience from viewing a computer monitor and using a mouse or keyboard for a similar amount of time. At the end of the study, we will provide an explanation of the questions that motivate this line of research and will describe the potential implications. </p><p> Your participation in this study is completely voluntary and you may refuse to participate or you may choose to withdraw at any time without penalty or loss of benefits to you which are otherwise entitled. Your participation in this study will remain confidential. No personally identifiable information will be associated with your data. Also, all analyses of the data will be averaged across all the participants, so your individual responses will never be specifically analyzed. </p><p> If you have questions or concerns about your participation or payment, or want to request a summary of research findings, please contact Dr. Jonathan Phillips at Jonathan.S.Phillips@dartmouth.edu. </p><p> Please save a copy of this form for your records. </p><p><b>Agreement: </b>The nature and purpose of this research have been sufficiently explained and I agree to participate in this study. I understand that I am free to withdraw at any time without incurring any penalty. Please consent by clicking the button below to continue. Otherwise, please exit the study at any time. </p>","0","","","","","","","","","","","","","","","","","","","","","","","",""
"","","","","","instructions","3","73829","0.0-3.0-0.0","56f59251736c79000c2241f7","665500ab8938657b03fbdba8","66578117af275b30715fdc22","33655","","","[{""page_index"":0,""viewing_time"":1489},{""page_index"":1,""viewing_time"":1586},{""page_index"":2,""viewing_time"":2487},{""page_index"":3,""viewing_time"":2108},{""page_index"":4,""viewing_time"":1366},{""page_index"":5,""viewing_time"":2241},{""page_index"":6,""viewing_time"":1950},{""page_index"":7,""viewing_time"":1553},{""page_index"":8,""viewing_time"":1739},{""page_index"":9,""viewing_time"":990},{""page_index"":10,""viewing_time"":7532},{""page_index"":11,""viewing_time"":4438},{""page_index"":12,""viewing_time"":3252},{""page_index"":13,""viewing_time"":924}]","intro","","","","","","","","","","","","","","","","","","","","","",""
"","","","","","image-keyboard-response","4","79783","0.0-3.0-1.0","56f59251736c79000c2241f7","665500ab8938657b03fbdba8","66578117af275b30715fdc22","5949","stimuli/1111011.jpg","1","","prediction_practice","2","{""filepath"":""stimuli/1111011.jpg"",""ball_pos"":1,""ego_ball_visible"":false,""ego_can_infer"":false,""alter_ball_visible"":false,""alter_can_infer"":false,""collective_ball_visible"":false,""collective_can_infer"":false,""search_locations"":[2,0,1],""alter_occluders"":""111"",""ego_occluders"":""011""}","false","","","","","","","","","","","","","","","","","","",""
"","","","","","image-keyboard-response","5","81510","0.0-3.0-2.0","56f59251736c79000c2241f7","665500ab8938657b03fbdba8","66578117af275b30715fdc22","1726","stimuli/11110112.jpg"," ","","practrice_feedback","2","","","","","","","","","","","","","","","","","","","","",""
"","","","","","image-keyboard-response","6","82911","0.0-3.0-3.0","56f59251736c79000c2241f7","665500ab8938657b03fbdba8","66578117af275b30715fdc22","1398","stimuli/0011000.jpg","0","","prediction_practice","0","{""filepath"":""stimuli/0011000.jpg"",""ball_pos"":0,""ego_ball_visible"":true,""ego_can_infer"":true,""alter_ball_visible"":true,""alter_can_infer"":true,""collective_ball_visible"":true,""collective_can_infer"":true,""search_locations"":[0],""alter_occluders"":""011"",""ego_occluders"":""000""}","true","","","","","","","","","","","","","","","","","","",""
"","","","","","image-keyboard-response","7","83879","0.0-3.0-4.0","56f59251736c79000c2241f7","665500ab8938657b03fbdba8","66578117af275b30715fdc22","965","stimuli/00110000.jpg"," ","","practrice_feedback","0","","","","","","","","","","","","","","","","","","","","",""
"","","","","","image-keyboard-response","8","86918","0.0-3.0-5.0","56f59251736c79000c2241f7","665500ab8938657b03fbdba8","66578117af275b30715fdc22","3037","stimuli/1000110.jpg","1","","prediction_practice","1","{""filepath"":""stimuli/1000110.jpg"",""ball_pos"":1,""ego_ball_visible"":false,""ego_can_infer"":false,""alter_ball_visible"":true,""alter_can_infer"":true,""collective_ball_visible"":false,""collective_can_infer"":false,""search_locations"":[1],""alter_occluders"":""000"",""ego_occluders"":""110""}","true","","","","","","","","","","","","","","","","","","",""
"","","","","","image-keyboard-response","9","87551","0.0-3.0-6.0","56f59251736c79000c2241f7","665500ab8938657b03fbdba8","66578117af275b30715fdc22","630","stimuli/10001101.jpg"," ","","practrice_feedback","1","","","","","","","","","","","","","","","","","","","","",""
"","","","","","image-keyboard-response","10","90535","0.0-3.0-7.0","56f59251736c79000c2241f7","665500ab8938657b03fbdba8","66578117af275b30715fdc22","2981","stimuli/2011011.jpg","2","","prediction_practice","1","{""filepath"":""stimuli/2011011.jpg"",""ball_pos"":2,""ego_ball_visible"":false,""ego_can_infer"":false,""alter_ball_visible"":false,""alter_can_infer"":false,""collective_ball_visible"":false,""collective_can_infer"":false,""search_locations"":[2,1],""alter_occluders"":""011"",""ego_occluders"":""011""}","false","","","","","","","","","","","","","","","","","","",""
"","","","","","image-keyboard-response","11","91118","0.0-3.0-8.0","56f59251736c79000c2241f7","665500ab8938657b03fbdba8","66578117af275b30715fdc22","580","stimuli/20110111.jpg"," ","","practrice_feedback","2","","","","","","","","","","","","","","","","","","","","",""
"","","","","","image-keyboard-response","12","93375","0.0-3.0-9.0","56f59251736c79000c2241f7","665500ab8938657b03fbdba8","66578117af275b30715fdc22","2254","stimuli/2001110.jpg","2","","prediction_practice","2","{""filepath"":""stimuli/2001110.jpg"",""ball_pos"":2,""ego_ball_visible"":true,""ego_can_infer"":true,""alter_ball_visible"":false,""alter_can_infer"":true,""collective_ball_visible"":false,""collective_can_infer"":true,""search_locations"":[2],""alter_occluders"":""001"",""ego_occluders"":""110""}","true","","","","","","","","","","","","","","","","","","",""
"","","","","","image-keyboard-response","13","94367","0.0-3.0-10.0","56f59251736c79000c2241f7","665500ab8938657b03fbdba8","66578117af275b30715fdc22","988","stimuli/20011102.jpg"," ","","practrice_feedback","2","","","","","","","","","","","","","","","","","","","","",""
"","","","","","image-keyboard-response","14","96118","0.0-3.0-11.0","56f59251736c79000c2241f7","665500ab8938657b03fbdba8","66578117af275b30715fdc22","1749","stimuli/0011100.jpg","1","","prediction_practice","0","{""filepath"":""stimuli/0011100.jpg"",""ball_pos"":0,""ego_ball_visible"":false,""ego_can_infer"":true,""alter_ball_visible"":true,""alter_can_infer"":true,""collective_ball_visible"":false,""collective_can_infer"":true,""search_locations"":[0],""alter_occluders"":""011"",""ego_occluders"":""100""}","false","","","","","","","","","","","","","","","","","","",""
"","","","","","image-keyboard-response","15","98039","0.0-3.0-12.0","56f59251736c79000c2241f7","665500ab8938657b03fbdba8","66578117af275b30715fdc22","1918","stimuli/00111000.jpg"," ","","practrice_feedback","0","","","","","","","","","","","","","","","","","","","","",""
"","","","","","image-keyboard-response","16","99479","0.0-3.0-13.0","56f59251736c79000c2241f7","665500ab8938657b03fbdba8","66578117af275b30715fdc22","1439","stimuli/1111000.jpg","1","","prediction_practice","1","{""filepath"":""stimuli/1111000.jpg"",""ball_pos"":1,""ego_ball_visible"":true,""ego_can_infer"":true,""alter_ball_visible"":false,""alter_can_infer"":false,""collective_ball_visible"":false,""collective_can_infer"":false,""search_locations"":[0,2,1],""alter_occluders"":""111"",""ego_occluders"":""000""}","true","","","","","","","","","","","","","","","","","","",""
"","","","","","image-keyboard-response","17","100015","0.0-3.0-14.0","56f59251736c79000c2241f7","665500ab8938657b03fbdba8","66578117af275b30715fdc22","534","stimuli/11110001.jpg"," ","","practrice_feedback","0","","","","","","","","","","","","","","","","","","","","",""
"","","","","","image-keyboard-response","18","103590","0.0-3.0-15.0","56f59251736c79000c2241f7","665500ab8938657b03fbdba8","66578117af275b30715fdc22","3574","stimuli/1100110.jpg","1","","prediction_practice","1","{""filepath"":""stimuli/1100110.jpg"",""ball_pos"":1,""ego_ball_visible"":false,""ego_can_infer"":false,""alter_ball_visible"":true,""alter_can_infer"":true,""collective_ball_visible"":false,""collective_can_infer"":false,""search_locations"":[1],""alter_occluders"":""100"",""ego_occluders"":""110""}","true","","","","","","","","","","","","","","","","","","",""
"","","","","","image-keyboard-response","19","104159","0.0-3.0-16.0","56f59251736c79000c2241f7","665500ab8938657b03fbdba8","66578117af275b30715fdc22","566","stimuli/11001101.jpg"," ","","practrice_feedback","1","","","","","","","","","","","","","","","","","","","","",""
"","","","","","image-keyboard-response","20","105174","0.0-3.0-17.0","56f59251736c79000c2241f7","665500ab8938657b03fbdba8","66578117af275b30715fdc22","1013","stimuli/2110110.jpg","2","","prediction_practice","2","{""filepath"":""stimuli/2110110.jpg"",""ball_pos"":2,""ego_ball_visible"":true,""ego_can_infer"":true,""alter_ball_visible"":true,""alter_can_infer"":true,""collective_ball_visible"":true,""collective_can_infer"":true,""search_locations"":[2],""alter_occluders"":""110"",""ego_occluders"":""110""}","true","","","","","","","","","","","","","","","","","","",""
"","","","","","image-keyboard-response","21","105455","0.0-3.0-18.0","56f59251736c79000c2241f7","665500ab8938657b03fbdba8","66578117af275b30715fdc22","277","stimuli/21101102.jpg"," ","","practrice_feedback","2","","","","","","","","","","","","","","","","","","","","",""
"","","","","","image-keyboard-response","22","106270","0.0-3.0-19.0","56f59251736c79000c2241f7","665500ab8938657b03fbdba8","66578117af275b30715fdc22","813","stimuli/0000111.jpg","1","","prediction_practice","0","{""filepath"":""stimuli/0000111.jpg"",""ball_pos"":0,""ego_ball_visible"":false,""ego_can_infer"":false,""alter_ball_visible"":true,""alter_can_infer"":true,""collective_ball_visible"":false,""collective_can_infer"":false,""search_locations"":[0],""alter_occluders"":""000"",""ego_occluders"":""111""}","false","","","","","","","","","","","","","","","","","","",""
"","","","","","image-keyboard-response","23","106718","0.0-3.0-20.0","56f59251736c79000c2241f7","665500ab8938657b03fbdba8","66578117af275b30715fdc22","445","stimuli/00001110.jpg"," ","","practrice_feedback","0","","","","","","","","","","","","","","","","","","","","",""
"","","","","","html-button-response","24","109702","0.0-3.0-21.0","56f59251736c79000c2241f7","665500ab8938657b03fbdba8","66578117af275b30715fdc22","2983","Now that you've had some practice, you'll be tested with a couple of easy trials. If you correctly predict Sam's choice, you'll move on to complete the experiment!","0","","","","","","","","","","","","","","","","","","","","","","","",""
"","","","","","image-keyboard-response","25","110951","0.0-3.0-22.0-0.0","56f59251736c79000c2241f7","665500ab8938657b03fbdba8","66578117af275b30715fdc22","1245","stimuli/0000011.jpg","arrowleft","","comprehension_quiz","","","true","arrowleft","","","","","","","","","","","","","","","","","",""
"","","","","","image-keyboard-response","26","111382","0.0-3.0-22.0-1.0","56f59251736c79000c2241f7","665500ab8938657b03fbdba8","66578117af275b30715fdc22","430","stimuli/00000110.jpg"," ","","comprehension_quiz","","","true"," ","","","","","","","","","","","","","","","","","",""
"","","","","","image-keyboard-response","27","112790","0.0-3.0-22.0-2.0","56f59251736c79000c2241f7","665500ab8938657b03fbdba8","66578117af275b30715fdc22","1405","stimuli/1010010.jpg","arrowdown","","comprehension_quiz","","","true","arrowdown","","","","","","","","","","","","","","","","","",""
"","","","","","image-keyboard-response","28","113095","0.0-3.0-22.0-3.0","56f59251736c79000c2241f7","665500ab8938657b03fbdba8","66578117af275b30715fdc22","301","stimuli/10100101.jpg"," ","","comprehension_quiz","","","true"," ","","","","","","","","","","","","","","","","","",""
"","","","","","html-button-response","29","115349","0.0-4.0","56f59251736c79000c2241f7","665500ab8938657b03fbdba8","66578117af275b30715fdc22","2254","The experiment will now begin.","0","","","","","","","","","","","","","","","","","","","","","","","",""
"","","","","","image-keyboard-response","30","117415","0.0-5.0","56f59251736c79000c2241f7","665500ab8938657b03fbdba8","66578117af275b30715fdc22","2062","stimuli/0101001.jpg","0","","prediction_trial","0","","true","","0","true","true","false","false","false","false","[0,2]","101","001","1","","","","","","",""
"","","","","","image-keyboard-response","31","118007","0.0-6.0","56f59251736c79000c2241f7","665500ab8938657b03fbdba8","66578117af275b30715fdc22","589","stimuli/01010010.jpg"," ","","feedback_trial","0","","","","","","","","","","","","","","","","","","","","",""
"","","","","","image-keyboard-response","32","119382","0.0-7.0","56f59251736c79000c2241f7","665500ab8938657b03fbdba8","66578117af275b30715fdc22","1373","stimuli/1011011.jpg","1","","prediction_trial","2","","false","","1","false","false","false","false","false","false","[2,1]","011","011","0","","","","","","",""
"","","","","","image-keyboard-response","33","119894","0.0-8.0","56f59251736c79000c2241f7","665500ab8938657b03fbdba8","66578117af275b30715fdc22","509","stimuli/10110112.jpg"," ","","feedback_trial","2","","","","","","","","","","","","","","","","","","","","",""
"","","","","","image-keyboard-response","34","121991","0.0-9.0","56f59251736c79000c2241f7","665500ab8938657b03fbdba8","66578117af275b30715fdc22","2094","stimuli/2001011.jpg","2","","prediction_trial","2","","true","","2","false","false","false","true","false","false","[2]","001","011","1","","","","","","",""
"","","","","","image-keyboard-response","35","122358","0.0-10.0","56f59251736c79000c2241f7","665500ab8938657b03fbdba8","66578117af275b30715fdc22","365","stimuli/20010112.jpg"," ","","feedback_trial","2","","","","","","","","","","","","","","","","","","","","",""
"","","","","","image-keyboard-response","36","123974","0.0-11.0","56f59251736c79000c2241f7","665500ab8938657b03fbdba8","66578117af275b30715fdc22","1614","stimuli/0101101.jpg","2","","prediction_trial","2","","true","","0","false","false","false","false","false","false","[0,2]","101","101","1","","","","","","",""
"","","","","","image-keyboard-response","37","124327","0.0-12.0","56f59251736c79000c2241f7","665500ab8938657b03fbdba8","66578117af275b30715fdc22","350","stimuli/01011012.jpg"," ","","feedback_trial","0","","","","","","","","","","","","","","","","","","","","",""
"","","","","","image-keyboard-response","38","125375","0.0-13.0","56f59251736c79000c2241f7","665500ab8938657b03fbdba8","66578117af275b30715fdc22","1046","stimuli/2011111.jpg","1","","prediction_trial","1","","true","","2","false","false","false","false","false","false","[1,2]","011","111","1","","","","","","",""
"","","","","","image-keyboard-response","39","126015","0.0-14.0","56f59251736c79000c2241f7","665500ab8938657b03fbdba8","66578117af275b30715fdc22","638","stimuli/20111111.jpg"," ","","feedback_trial","1","","","","","","","","","","","","","","","","","","","","",""
"","","","","","image-keyboard-response","40","127110","0.0-15.0","56f59251736c79000c2241f7","665500ab8938657b03fbdba8","66578117af275b30715fdc22","1094","stimuli/0011111.jpg","1","","prediction_trial","0","","false","","0","false","false","true","true","false","false","[0]","011","111","0","","","","","","",""
"","","","","","image-keyboard-response","41","127558","0.0-16.0","56f59251736c79000c2241f7","665500ab8938657b03fbdba8","66578117af275b30715fdc22","446","stimuli/00111110.jpg"," ","","feedback_trial","0","","","","","","","","","","","","","","","","","","","","",""
"","","","","","image-keyboard-response","42","128606","0.0-17.0","56f59251736c79000c2241f7","665500ab8938657b03fbdba8","66578117af275b30715fdc22","1045","stimuli/0111011.jpg","0","","prediction_trial","2","","false","","0","true","true","false","false","false","false","[1,0,2]","111","011","0","","","","","","",""
"","","","","","image-keyboard-response","43","129198","0.0-18.0","56f59251736c79000c2241f7","665500ab8938657b03fbdba8","66578117af275b30715fdc22","590","stimuli/01110112.jpg"," ","","feedback_trial","1","","","","","","","","","","","","","","","","","","","","",""
"","","","","","image-keyboard-response","44","131343","0.0-19.0","56f59251736c79000c2241f7","665500ab8938657b03fbdba8","66578117af275b30715fdc22","2142","stimuli/0001110.jpg","1","","prediction_trial","0","","false","","0","false","false","true","true","false","false","[0]","001","110","0","","","","","","",""
"","","","","","image-keyboard-response","45","131751","0.0-20.0","56f59251736c79000c2241f7","665500ab8938657b03fbdba8","66578117af275b30715fdc22","406","stimuli/00011100.jpg"," ","","feedback_trial","0","","","","","","","","","","","","","","","","","","","","",""
"","","","","","image-keyboard-response","46","133063","0.0-21.0","56f59251736c79000c2241f7","665500ab8938657b03fbdba8","66578117af275b30715fdc22","1309","stimuli/0111110.jpg","1","","prediction_trial","1","","true","","0","false","false","false","false","false","false","[2,0,1]","111","110","1","","","","","","",""
"","","","","","image-keyboard-response","47","133446","0.0-22.0","56f59251736c79000c2241f7","665500ab8938657b03fbdba8","66578117af275b30715fdc22","381","stimuli/01111101.jpg"," ","","feedback_trial","2","","","","","","","","","","","","","","","","","","","","",""
"","","","","","image-keyboard-response","48","134774","0.0-23.0","56f59251736c79000c2241f7","665500ab8938657b03fbdba8","66578117af275b30715fdc22","1325","stimuli/1001110.jpg","2","","prediction_trial","1","","false","","1","false","false","true","true","false","false","[1]","001","110","0","","","","","","",""
"","","","","","image-keyboard-response","49","135030","0.0-24.0","56f59251736c79000c2241f7","665500ab8938657b03fbdba8","66578117af275b30715fdc22","253","stimuli/10011101.jpg"," ","","feedback_trial","1","","","","","","","","","","","","","","","","","","","","",""
"","","","","","image-keyboard-response","50","136855","0.0-25.0","56f59251736c79000c2241f7","665500ab8938657b03fbdba8","66578117af275b30715fdc22","1822","stimuli/0100100.jpg","0","","prediction_trial","0","","true","","0","false","true","false","true","false","true","[0]","100","100","1","","","","","","",""
"","","","","","image-keyboard-response","51","137071","0.0-26.0","56f59251736c79000c2241f7","665500ab8938657b03fbdba8","66578117af275b30715fdc22","212","stimuli/01001000.jpg"," ","","feedback_trial","0","","","","","","","","","","","","","","","","","","","","",""
"","","","","","image-keyboard-response","52","137919","0.0-27.0","56f59251736c79000c2241f7","665500ab8938657b03fbdba8","66578117af275b30715fdc22","846","stimuli/0001011.jpg","0","","prediction_trial","0","","true","","0","true","true","true","true","true","true","[0]","001","011","1","","","","","","",""
"","","","","","image-keyboard-response","53","138030","0.0-28.0","56f59251736c79000c2241f7","665500ab8938657b03fbdba8","66578117af275b30715fdc22","108","stimuli/00010110.jpg"," ","","feedback_trial","0","","","","","","","","","","","","","","","","","","","","",""
"","","","","","image-keyboard-response","54","138766","0.0-29.0","56f59251736c79000c2241f7","665500ab8938657b03fbdba8","66578117af275b30715fdc22","734","stimuli/2010110.jpg","2","","prediction_trial","2","","true","","2","true","true","true","true","true","true","[2]","010","110","1","","","","","","",""
"","","","","","image-keyboard-response","55","138870","0.0-30.0","56f59251736c79000c2241f7","665500ab8938657b03fbdba8","66578117af275b30715fdc22","102","stimuli/20101102.jpg"," ","","feedback_trial","2","","","","","","","","","","","","","","","","","","","","",""
"","","","","","image-keyboard-response","56","140598","0.0-31.0","56f59251736c79000c2241f7","665500ab8938657b03fbdba8","66578117af275b30715fdc22","1726","stimuli/1001010.jpg","1","","prediction_trial","1","","true","","1","false","true","true","true","false","true","[1]","001","010","1","","","","","","",""
"","","","","","image-keyboard-response","57","140727","0.0-32.0","56f59251736c79000c2241f7","665500ab8938657b03fbdba8","66578117af275b30715fdc22","126","stimuli/10010101.jpg"," ","","feedback_trial","1","","","","","","","","","","","","","","","","","","","","",""
"","","","","","image-keyboard-response","58","141542","0.0-33.0","56f59251736c79000c2241f7","665500ab8938657b03fbdba8","66578117af275b30715fdc22","813","stimuli/2010000.jpg","2","","prediction_trial","2","","true","","2","true","true","true","true","true","true","[2]","010","000","1","","","","","","",""
"","","","","","image-keyboard-response","59","141639","0.0-34.0","56f59251736c79000c2241f7","665500ab8938657b03fbdba8","66578117af275b30715fdc22","94","stimuli/20100002.jpg"," ","","feedback_trial","2","","","","","","","","","","","","","","","","","","","","",""
"","","","","","image-keyboard-response","60","143535","0.0-35.0","56f59251736c79000c2241f7","665500ab8938657b03fbdba8","66578117af275b30715fdc22","1894","stimuli/1100111.jpg","0","","prediction_trial","1","","false","","1","false","false","true","true","false","false","[1]","100","111","0","","","","","","",""
"","","","","","image-keyboard-response","61","143742","0.0-36.0","56f59251736c79000c2241f7","665500ab8938657b03fbdba8","66578117af275b30715fdc22","204","stimuli/11001111.jpg"," ","","feedback_trial","1","","","","","","","","","","","","","","","","","","","","",""
"","","","","","image-keyboard-response","62","145559","0.0-37.0","56f59251736c79000c2241f7","665500ab8938657b03fbdba8","66578117af275b30715fdc22","1814","stimuli/2110010.jpg","2","","prediction_trial","2","","true","","2","true","true","true","true","true","true","[2]","110","010","1","","","","","","",""
"","","","","","image-keyboard-response","63","145703","0.0-38.0","56f59251736c79000c2241f7","665500ab8938657b03fbdba8","66578117af275b30715fdc22","142","stimuli/21100102.jpg"," ","","feedback_trial","2","","","","","","","","","","","","","","","","","","","","",""
"","","","","","image-keyboard-response","64","148246","0.0-39.0","56f59251736c79000c2241f7","665500ab8938657b03fbdba8","66578117af275b30715fdc22","2542","stimuli/0100010.jpg","0","","prediction_trial","0","","true","","0","true","true","false","true","false","true","[0]","100","010","1","","","","","","",""
"","","","","","image-keyboard-response","65","148478","0.0-40.0","56f59251736c79000c2241f7","665500ab8938657b03fbdba8","66578117af275b30715fdc22","230","stimuli/01000100.jpg"," ","","feedback_trial","0","","","","","","","","","","","","","","","","","","","","",""
"","","","","","image-keyboard-response","66","149614","0.0-41.0","56f59251736c79000c2241f7","665500ab8938657b03fbdba8","66578117af275b30715fdc22","1134","stimuli/1111000.jpg","1","","prediction_trial","0","","false","","1","true","true","false","false","false","false","[0,2,1]","111","000","0","","","","","","",""
"","","","","","image-keyboard-response","67","149935","0.0-42.0","56f59251736c79000c2241f7","665500ab8938657b03fbdba8","66578117af275b30715fdc22","318","stimuli/11110000.jpg"," ","","feedback_trial","0","","","","","","","","","","","","","","","","","","","","",""
"","","","","","image-keyboard-response","68","152031","0.0-43.0","56f59251736c79000c2241f7","665500ab8938657b03fbdba8","66578117af275b30715fdc22","2092","stimuli/1001001.jpg","1","","prediction_trial","1","","true","","1","true","true","true","true","true","true","[1]","001","001","1","","","","","","",""
"","","","","","image-keyboard-response","69","152334","0.0-44.0","56f59251736c79000c2241f7","665500ab8938657b03fbdba8","66578117af275b30715fdc22","302","stimuli/10010011.jpg"," ","","feedback_trial","1","","","","","","","","","","","","","","","","","","","","",""
"","","","","","image-keyboard-response","70","153087","0.0-45.0","56f59251736c79000c2241f7","665500ab8938657b03fbdba8","66578117af275b30715fdc22","748","stimuli/0001001.jpg","0","","prediction_trial","0","","true","","0","true","true","true","true","true","true","[0]","001","001","1","","","","","","",""
"","","","","","image-keyboard-response","71","153318","0.0-46.0","56f59251736c79000c2241f7","665500ab8938657b03fbdba8","66578117af275b30715fdc22","230","stimuli/00010010.jpg"," ","","feedback_trial","0","","","","","","","","","","","","","","","","","","","","",""
"","","","","","image-keyboard-response","72","155471","0.0-47.0","56f59251736c79000c2241f7","665500ab8938657b03fbdba8","66578117af275b30715fdc22","2149","stimuli/0101111.jpg","0","","prediction_trial","0","","true","","0","false","false","false","false","false","false","[2,0]","101","111","1","","","","","","",""
"","","","","","image-keyboard-response","73","155847","0.0-48.0","56f59251736c79000c2241f7","665500ab8938657b03fbdba8","66578117af275b30715fdc22","373","stimuli/01011110.jpg"," ","","feedback_trial","2","","","","","","","","","","","","","","","","","","","","",""
"","","","","","image-keyboard-response","74","158902","0.0-49.0","56f59251736c79000c2241f7","665500ab8938657b03fbdba8","66578117af275b30715fdc22","3053","stimuli/1011010.jpg","1","","prediction_trial","2","","false","","1","false","true","false","false","false","false","[2,1]","011","010","0","","","","","","",""
"","","","","","image-keyboard-response","75","159239","0.0-50.0","56f59251736c79000c2241f7","665500ab8938657b03fbdba8","66578117af275b30715fdc22","333","stimuli/10110102.jpg"," ","","feedback_trial","2","","","","","","","","","","","","","","","","","","","","",""
"","","","","","image-keyboard-response","76","161303","0.0-51.0","56f59251736c79000c2241f7","665500ab8938657b03fbdba8","66578117af275b30715fdc22","2064","stimuli/2001110.jpg","2","","prediction_trial","2","","true","","2","true","true","false","true","false","true","[2]","001","110","1","","","","","","",""
"","","","","","image-keyboard-response","77","161535","0.0-52.0","56f59251736c79000c2241f7","665500ab8938657b03fbdba8","66578117af275b30715fdc22","232","stimuli/20011102.jpg"," ","","feedback_trial","2","","","","","","","","","","","","","","","","","","","","",""
"","","","","","image-keyboard-response","78","162967","0.0-53.0","56f59251736c79000c2241f7","665500ab8938657b03fbdba8","66578117af275b30715fdc22","1430","stimuli/1111001.jpg","1","","prediction_trial","1","","true","","1","true","true","false","false","false","false","[2,0,1]","111","001","1","","","","","","",""
"","","","","","image-keyboard-response","79","163246","0.0-54.0","56f59251736c79000c2241f7","665500ab8938657b03fbdba8","66578117af275b30715fdc22","277","stimuli/11110011.jpg"," ","","feedback_trial","2","","","","","","","","","","","","","","","","","","","","",""
"","","","","","image-keyboard-response","80","164278","0.0-55.0","56f59251736c79000c2241f7","665500ab8938657b03fbdba8","66578117af275b30715fdc22","1030","stimuli/2111010.jpg","2","","prediction_trial","0","","false","","2","true","true","false","false","false","false","[2,0,1]","111","010","0","","","","","","",""
"","","","","","image-keyboard-response","81","164550","0.0-56.0","56f59251736c79000c2241f7","665500ab8938657b03fbdba8","66578117af275b30715fdc22","269","stimuli/21110100.jpg"," ","","feedback_trial","2","","","","","","","","","","","","","","","","","","","","",""
"","","","","","image-keyboard-response","82","166615","0.0-57.0","56f59251736c79000c2241f7","665500ab8938657b03fbdba8","66578117af275b30715fdc22","2062","stimuli/0001111.jpg","2","","prediction_trial","0","","false","","0","false","false","true","true","false","false","[0]","001","111","0","","","","","","",""
"","","","","","image-keyboard-response","83","166927","0.0-58.0","56f59251736c79000c2241f7","665500ab8938657b03fbdba8","66578117af275b30715fdc22","310","stimuli/00011110.jpg"," ","","feedback_trial","0","","","","","","","","","","","","","","","","","","","","",""
"","","","","","image-keyboard-response","84","169238","0.0-59.0","56f59251736c79000c2241f7","665500ab8938657b03fbdba8","66578117af275b30715fdc22","2310","stimuli/2101000.jpg","2","","prediction_trial","0","","false","","2","true","true","false","false","false","false","[2,0]","101","000","0","","","","","","",""
"","","","","","image-keyboard-response","85","169559","0.0-60.0","56f59251736c79000c2241f7","665500ab8938657b03fbdba8","66578117af275b30715fdc22","317","stimuli/21010000.jpg"," ","","feedback_trial","2","","","","","","","","","","","","","","","","","","","","",""
"","","","","","image-keyboard-response","86","171766","0.0-61.0","56f59251736c79000c2241f7","665500ab8938657b03fbdba8","66578117af275b30715fdc22","2205","stimuli/0100001.jpg","0","","prediction_trial","0","","true","","0","true","true","false","true","false","true","[0]","100","001","1","","","","","","",""
"","","","","","image-keyboard-response","87","171974","0.0-62.0","56f59251736c79000c2241f7","665500ab8938657b03fbdba8","66578117af275b30715fdc22","204","stimuli/01000010.jpg"," ","","feedback_trial","0","","","","","","","","","","","","","","","","","","","","",""
"","","","","","image-keyboard-response","88","173047","0.0-63.0","56f59251736c79000c2241f7","665500ab8938657b03fbdba8","66578117af275b30715fdc22","1068","stimuli/1111101.jpg","1","","prediction_trial","1","","true","","1","true","true","false","false","false","false","[2,1,0]","111","101","1","","","","","","",""
"","","","","","image-keyboard-response","89","173279","0.0-64.0","56f59251736c79000c2241f7","665500ab8938657b03fbdba8","66578117af275b30715fdc22","230","stimuli/11111011.jpg"," ","","feedback_trial","2","","","","","","","","","","","","","","","","","","","","",""
"","","","","","image-keyboard-response","90","174286","0.0-65.0","56f59251736c79000c2241f7","665500ab8938657b03fbdba8","66578117af275b30715fdc22","1007","stimuli/1010010.jpg","1","","prediction_trial","1","","true","","1","false","true","false","true","false","true","[1]","010","010","1","","","","","","",""
"","","","","","image-keyboard-response","91","174447","0.0-66.0","56f59251736c79000c2241f7","665500ab8938657b03fbdba8","66578117af275b30715fdc22","160","stimuli/10100101.jpg"," ","","feedback_trial","1","","","","","","","","","","","","","","","","","","","","",""
"","","","","","image-keyboard-response","92","175366","0.0-67.0","56f59251736c79000c2241f7","665500ab8938657b03fbdba8","66578117af275b30715fdc22","917","stimuli/1000011.jpg","1","","prediction_trial","1","","true","","1","false","false","true","true","false","false","[1]","000","011","1","","","","","","",""
"","","","","","image-keyboard-response","93","175567","0.0-68.0","56f59251736c79000c2241f7","665500ab8938657b03fbdba8","66578117af275b30715fdc22","198","stimuli/10000111.jpg"," ","","feedback_trial","1","","","","","","","","","","","","","","","","","","","","",""
"","","","","","image-keyboard-response","94","176950","0.0-69.0","56f59251736c79000c2241f7","665500ab8938657b03fbdba8","66578117af275b30715fdc22","1381","stimuli/1011000.jpg","1","","prediction_trial","1","","true","","1","true","true","false","false","false","false","[1,2]","011","000","1","","","","","","",""
"","","","","","image-keyboard-response","95","177182","0.0-70.0","56f59251736c79000c2241f7","665500ab8938657b03fbdba8","66578117af275b30715fdc22","229","stimuli/10110001.jpg"," ","","feedback_trial","1","","","","","","","","","","","","","","","","","","","","",""
"","","","","","image-keyboard-response","96","178039","0.0-71.0","56f59251736c79000c2241f7","665500ab8938657b03fbdba8","66578117af275b30715fdc22","854","stimuli/1110110.jpg","1","","prediction_trial","1","","true","","1","false","false","false","false","false","false","[0,1]","110","110","1","","","","","","",""
"","","","","","image-keyboard-response","97","178343","0.0-72.0","56f59251736c79000c2241f7","665500ab8938657b03fbdba8","66578117af275b30715fdc22","302","stimuli/11101101.jpg"," ","","feedback_trial","0","","","","","","","","","","","","","","","","","","","","",""
"","","","","","image-keyboard-response","98","179822","0.0-73.0","56f59251736c79000c2241f7","665500ab8938657b03fbdba8","66578117af275b30715fdc22","1478","stimuli/2001100.jpg","2","","prediction_trial","2","","true","","2","true","true","false","true","false","true","[2]","001","100","1","","","","","","",""
"","","","","","image-keyboard-response","99","180015","0.0-74.0","56f59251736c79000c2241f7","665500ab8938657b03fbdba8","66578117af275b30715fdc22","190","stimuli/20011002.jpg"," ","","feedback_trial","2","","","","","","","","","","","","","","","","","","","","",""
"","","","","","image-keyboard-response","100","180758","0.0-75.0","56f59251736c79000c2241f7","665500ab8938657b03fbdba8","66578117af275b30715fdc22","742","stimuli/2010111.jpg","1","","prediction_trial","2","","false","","2","false","false","true","true","false","false","[2]","010","111","0","","","","","","",""
"","","","","","image-keyboard-response","101","181111","0.0-76.0","56f59251736c79000c2241f7","665500ab8938657b03fbdba8","66578117af275b30715fdc22","350","stimuli/20101112.jpg"," ","","feedback_trial","2","","","","","","","","","","","","","","","","","","","","",""
"","","","","","image-keyboard-response","102","182582","0.0-77.0","56f59251736c79000c2241f7","665500ab8938657b03fbdba8","66578117af275b30715fdc22","1469","stimuli/0010101.jpg","0","","prediction_trial","0","","true","","0","false","false","true","true","false","false","[0]","010","101","1","","","","","","",""
"","","","","","image-keyboard-response","103","182902","0.0-78.0","56f59251736c79000c2241f7","665500ab8938657b03fbdba8","66578117af275b30715fdc22","317","stimuli/00101010.jpg"," ","","feedback_trial","0","","","","","","","","","","","","","","","","","","","","",""
"","","","","","image-keyboard-response","104","184206","0.0-79.0","56f59251736c79000c2241f7","665500ab8938657b03fbdba8","66578117af275b30715fdc22","1302","stimuli/2001010.jpg","2","","prediction_trial","2","","true","","2","true","true","false","true","false","true","[2]","001","010","1","","","","","","",""
"","","","","","image-keyboard-response","105","184382","0.0-80.0","56f59251736c79000c2241f7","665500ab8938657b03fbdba8","66578117af275b30715fdc22","173","stimuli/20010102.jpg"," ","","feedback_trial","2","","","","","","","","","","","","","","","","","","","","",""
"","","","","","image-keyboard-response","106","185166","0.0-81.0","56f59251736c79000c2241f7","665500ab8938657b03fbdba8","66578117af275b30715fdc22","781","stimuli/0111000.jpg","0","","prediction_trial","0","","true","","0","true","true","false","false","false","false","[1,2,0]","111","000","1","","","","","","",""
"","","","","","image-keyboard-response","107","185710","0.0-82.0","56f59251736c79000c2241f7","665500ab8938657b03fbdba8","66578117af275b30715fdc22","542","stimuli/01110000.jpg"," ","","feedback_trial","1","","","","","","","","","","","","","","","","","","","","",""
"","","","","","image-keyboard-response","108","186502","0.0-83.0","56f59251736c79000c2241f7","665500ab8938657b03fbdba8","66578117af275b30715fdc22","789","stimuli/0110010.jpg","0","","prediction_trial","0","","true","","0","true","true","false","false","false","false","[0,1]","110","010","1","","","","","","",""
"","","","","","image-keyboard-response","109","186806","0.0-84.0","56f59251736c79000c2241f7","665500ab8938657b03fbdba8","66578117af275b30715fdc22","302","stimuli/01100100.jpg"," ","","feedback_trial","0","","","","","","","","","","","","","","","","","","","","",""
"","","","","","image-keyboard-response","110","187510","0.0-85.0","56f59251736c79000c2241f7","665500ab8938657b03fbdba8","66578117af275b30715fdc22","702","stimuli/1010101.jpg","1","","prediction_trial","1","","true","","1","true","true","false","true","false","true","[1]","010","101","1","","","","","","",""
"","","","","","image-keyboard-response","111","187759","0.0-86.0","56f59251736c79000c2241f7","665500ab8938657b03fbdba8","66578117af275b30715fdc22","245","stimuli/10101011.jpg"," ","","feedback_trial","1","","","","","","","","","","","","","","","","","","","","",""
"","","","","","image-keyboard-response","112","188439","0.0-87.0","56f59251736c79000c2241f7","665500ab8938657b03fbdba8","66578117af275b30715fdc22","677","stimuli/0100000.jpg","0","","prediction_trial","0","","true","","0","true","true","false","true","false","true","[0]","100","000","1","","","","","","",""
"","","","","","image-keyboard-response","113","188686","0.0-88.0","56f59251736c79000c2241f7","665500ab8938657b03fbdba8","66578117af275b30715fdc22","244","stimuli/01000000.jpg"," ","","feedback_trial","0","","","","","","","","","","","","","","","","","","","","",""
"","","","","","image-keyboard-response","114","189526","0.0-89.0","56f59251736c79000c2241f7","665500ab8938657b03fbdba8","66578117af275b30715fdc22","838","stimuli/1000000.jpg","1","","prediction_trial","1","","true","","1","true","true","true","true","true","true","[1]","000","000","1","","","","","","",""
"","","","","","image-keyboard-response","115","189750","0.0-90.0","56f59251736c79000c2241f7","665500ab8938657b03fbdba8","66578117af275b30715fdc22","222","stimuli/10000001.jpg"," ","","feedback_trial","1","","","","","","","","","","","","","","","","","","","","",""
"","","","","","image-keyboard-response","116","190910","0.0-91.0","56f59251736c79000c2241f7","665500ab8938657b03fbdba8","66578117af275b30715fdc22","1158","stimuli/2011000.jpg","2","","prediction_trial","2","","true","","2","true","true","false","false","false","false","[2,1]","011","000","1","","","","","","",""
"","","","","","image-keyboard-response","117","191166","0.0-92.0","56f59251736c79000c2241f7","665500ab8938657b03fbdba8","66578117af275b30715fdc22","253","stimuli/20110002.jpg"," ","","feedback_trial","2","","","","","","","","","","","","","","","","","","","","",""
"","","","","","image-keyboard-response","118","191943","0.0-93.0","56f59251736c79000c2241f7","665500ab8938657b03fbdba8","66578117af275b30715fdc22","774","stimuli/0010110.jpg","1","","prediction_trial","0","","false","","0","false","false","true","true","false","false","[0]","010","110","0","","","","","","",""
"","","","","","image-keyboard-response","119","192159","0.0-94.0","56f59251736c79000c2241f7","665500ab8938657b03fbdba8","66578117af275b30715fdc22","213","stimuli/00101100.jpg"," ","","feedback_trial","0","","","","","","","","","","","","","","","","","","","","",""
"","","","","","image-keyboard-response","120","193798","0.0-95.0","56f59251736c79000c2241f7","665500ab8938657b03fbdba8","66578117af275b30715fdc22","1638","stimuli/0011101.jpg","1","","prediction_trial","0","","false","","0","false","false","true","true","false","false","[0]","011","101","0","","","","","","",""
"","","","","","image-keyboard-response","121","194062","0.0-96.0","56f59251736c79000c2241f7","665500ab8938657b03fbdba8","66578117af275b30715fdc22","262","stimuli/00111010.jpg"," ","","feedback_trial","0","","","","","","","","","","","","","","","","","","","","",""
"","","","","","image-keyboard-response","122","194815","0.0-97.0","56f59251736c79000c2241f7","665500ab8938657b03fbdba8","66578117af275b30715fdc22","750","stimuli/2100111.jpg","0","","prediction_trial","2","","false","","2","false","false","true","true","false","false","[2]","100","111","0","","","","","","",""
"","","","","","image-keyboard-response","123","195103","0.0-98.0","56f59251736c79000c2241f7","665500ab8938657b03fbdba8","66578117af275b30715fdc22","286","stimuli/21001112.jpg"," ","","feedback_trial","2","","","","","","","","","","","","","","","","","","","","",""
"","","","","","image-keyboard-response","124","195798","0.0-99.0","56f59251736c79000c2241f7","665500ab8938657b03fbdba8","66578117af275b30715fdc22","693","stimuli/0110000.jpg","0","","prediction_trial","1","","false","","0","true","true","false","false","false","false","[1,0]","110","000","0","","","","","","",""
"","","","","","image-keyboard-response","125","196022","0.0-100.0","56f59251736c79000c2241f7","665500ab8938657b03fbdba8","66578117af275b30715fdc22","222","stimuli/01100001.jpg"," ","","feedback_trial","1","","","","","","","","","","","","","","","","","","","","",""
"","","","","","image-keyboard-response","126","197463","0.0-101.0","56f59251736c79000c2241f7","665500ab8938657b03fbdba8","66578117af275b30715fdc22","1437","stimuli/0110111.jpg","1","","prediction_trial","1","","true","","0","false","false","false","false","false","false","[1,0]","110","111","1","","","","","","",""
"","","","","","image-keyboard-response","127","197719","0.0-102.0","56f59251736c79000c2241f7","665500ab8938657b03fbdba8","66578117af275b30715fdc22","254","stimuli/01101111.jpg"," ","","feedback_trial","1","","","","","","","","","","","","","","","","","","","","",""
"","","","","","image-keyboard-response","128","198814","0.0-103.0","56f59251736c79000c2241f7","665500ab8938657b03fbdba8","66578117af275b30715fdc22","1094","stimuli/1010100.jpg","1","","prediction_trial","1","","true","","1","true","true","false","true","false","true","[1]","010","100","1","","","","","","",""
"","","","","","image-keyboard-response","129","198982","0.0-104.0","56f59251736c79000c2241f7","665500ab8938657b03fbdba8","66578117af275b30715fdc22","165","stimuli/10101001.jpg"," ","","feedback_trial","1","","","","","","","","","","","","","","","","","","","","",""
"","","","","","image-keyboard-response","130","200551","0.0-105.0","56f59251736c79000c2241f7","665500ab8938657b03fbdba8","66578117af275b30715fdc22","1565","stimuli/2010010.jpg","2","","prediction_trial","2","","true","","2","true","true","true","true","true","true","[2]","010","010","1","","","","","","",""
"","","","","","image-keyboard-response","131","200822","0.0-106.0","56f59251736c79000c2241f7","665500ab8938657b03fbdba8","66578117af275b30715fdc22","269","stimuli/20100102.jpg"," ","","feedback_trial","2","","","","","","","","","","","","","","","","","","","","",""
"","","","","","image-keyboard-response","132","201479","0.0-107.0","56f59251736c79000c2241f7","665500ab8938657b03fbdba8","66578117af275b30715fdc22","654","stimuli/2000100.jpg","2","","prediction_trial","2","","true","","2","true","true","true","true","true","true","[2]","000","100","1","","","","","","",""
"","","","","","image-keyboard-response","133","201623","0.0-108.0","56f59251736c79000c2241f7","665500ab8938657b03fbdba8","66578117af275b30715fdc22","142","stimuli/20001002.jpg"," ","","feedback_trial","2","","","","","","","","","","","","","","","","","","","","",""
"","","","","","image-keyboard-response","134","202174","0.0-109.0","56f59251736c79000c2241f7","665500ab8938657b03fbdba8","66578117af275b30715fdc22","549","stimuli/0000001.jpg","0","","prediction_trial","0","","true","","0","true","true","true","true","true","true","[0]","000","001","1","","","","","","",""
"","","","","","image-keyboard-response","135","202319","0.0-110.0","56f59251736c79000c2241f7","665500ab8938657b03fbdba8","66578117af275b30715fdc22","142","stimuli/00000010.jpg"," ","","feedback_trial","0","","","","","","","","","","","","","","","","","","","","",""
"","","","","","image-keyboard-response","136","203919","0.0-111.0","56f59251736c79000c2241f7","665500ab8938657b03fbdba8","66578117af275b30715fdc22","1597","stimuli/2011101.jpg","0","","prediction_trial","2","","false","","2","false","false","false","false","false","false","[1,2]","011","101","0","","","","","","",""
"","","","","","image-keyboard-response","137","204206","0.0-112.0","56f59251736c79000c2241f7","665500ab8938657b03fbdba8","66578117af275b30715fdc22","285","stimuli/20111012.jpg"," ","","feedback_trial","1","","","","","","","","","","","","","","","","","","","","",""
"","","","","","image-keyboard-response","138","205878","0.0-113.0","56f59251736c79000c2241f7","665500ab8938657b03fbdba8","66578117af275b30715fdc22","1671","stimuli/1010001.jpg","1","","prediction_trial","1","","true","","1","true","true","false","true","false","true","[1]","010","001","1","","","","","","",""
"","","","","","image-keyboard-response","139","206031","0.0-114.0","56f59251736c79000c2241f7","665500ab8938657b03fbdba8","66578117af275b30715fdc22","150","stimuli/10100011.jpg"," ","","feedback_trial","1","","","","","","","","","","","","","","","","","","","","",""
"","","","","","image-keyboard-response","140","207327","0.0-115.0","56f59251736c79000c2241f7","665500ab8938657b03fbdba8","66578117af275b30715fdc22","1292","stimuli/0110100.jpg","0","","prediction_trial","1","","false","","0","false","true","false","false","false","false","[0,1]","110","100","0","","","","","","",""
"","","","","","image-keyboard-response","141","207695","0.0-116.0","56f59251736c79000c2241f7","665500ab8938657b03fbdba8","66578117af275b30715fdc22","365","stimuli/01101001.jpg"," ","","feedback_trial","0","","","","","","","","","","","","","","","","","","","","",""
"","","","","","image-keyboard-response","142","208575","0.0-117.0","56f59251736c79000c2241f7","665500ab8938657b03fbdba8","66578117af275b30715fdc22","877","stimuli/1001100.jpg","1","","prediction_trial","1","","true","","1","true","true","true","true","true","true","[1]","001","100","1","","","","","","",""
"","","","","","image-keyboard-response","143","208774","0.0-118.0","56f59251736c79000c2241f7","665500ab8938657b03fbdba8","66578117af275b30715fdc22","196","stimuli/10011001.jpg"," ","","feedback_trial","1","","","","","","","","","","","","","","","","","","","","",""
"","","","","","image-keyboard-response","144","209895","0.0-119.0","56f59251736c79000c2241f7","665500ab8938657b03fbdba8","66578117af275b30715fdc22","1117","stimuli/1101011.jpg","1","","prediction_trial","1","","true","","1","false","false","true","true","false","false","[1]","101","011","1","","","","","","",""
"","","","","","image-keyboard-response","145","210127","0.0-120.0","56f59251736c79000c2241f7","665500ab8938657b03fbdba8","66578117af275b30715fdc22","230","stimuli/11010111.jpg"," ","","feedback_trial","1","","","","","","","","","","","","","","","","","","","","",""
"","","","","","image-keyboard-response","146","211454","0.0-121.0","56f59251736c79000c2241f7","665500ab8938657b03fbdba8","66578117af275b30715fdc22","1326","stimuli/0111001.jpg","0","","prediction_trial","2","","false","","0","true","true","false","false","false","false","[0,2,1]","111","001","0","","","","","","",""
"","","","","","image-keyboard-response","147","211878","0.0-122.0","56f59251736c79000c2241f7","665500ab8938657b03fbdba8","66578117af275b30715fdc22","422","stimuli/01110012.jpg"," ","","feedback_trial","0","","","","","","","","","","","","","","","","","","","","",""
"","","","","","image-keyboard-response","148","212822","0.0-123.0","56f59251736c79000c2241f7","665500ab8938657b03fbdba8","66578117af275b30715fdc22","941","stimuli/2001101.jpg","2","","prediction_trial","2","","true","","2","false","false","false","true","false","false","[2]","001","101","1","","","","","","",""
"","","","","","image-keyboard-response","149","213135","0.0-124.0","56f59251736c79000c2241f7","665500ab8938657b03fbdba8","66578117af275b30715fdc22","310","stimuli/20011012.jpg"," ","","feedback_trial","2","","","","","","","","","","","","","","","","","","","","",""
"","","","","","image-keyboard-response","150","214007","0.0-125.0","56f59251736c79000c2241f7","665500ab8938657b03fbdba8","66578117af275b30715fdc22","870","stimuli/0011110.jpg","1","","prediction_trial","0","","false","","0","false","false","true","true","false","false","[0]","011","110","0","","","","","","",""
"","","","","","image-keyboard-response","151","214311","0.0-126.0","56f59251736c79000c2241f7","665500ab8938657b03fbdba8","66578117af275b30715fdc22","302","stimuli/00111100.jpg"," ","","feedback_trial","0","","","","","","","","","","","","","","","","","","","","",""
"","","","","","image-keyboard-response","152","214975","0.0-127.0","56f59251736c79000c2241f7","665500ab8938657b03fbdba8","66578117af275b30715fdc22","660","stimuli/0101000.jpg","0","","prediction_trial","0","","true","","0","true","true","false","false","false","false","[0,2]","101","000","1","","","","","","",""
"","","","","","image-keyboard-response","153","215319","0.0-128.0","56f59251736c79000c2241f7","665500ab8938657b03fbdba8","66578117af275b30715fdc22","342","stimuli/01010000.jpg"," ","","feedback_trial","0","","","","","","","","","","","","","","","","","","","","",""
"","","","","","image-keyboard-response","154","217023","0.0-129.0","56f59251736c79000c2241f7","665500ab8938657b03fbdba8","66578117af275b30715fdc22","1702","stimuli/0001100.jpg","0","","prediction_trial","0","","true","","0","false","true","true","true","false","true","[0]","001","100","1","","","","","","",""
"","","","","","image-keyboard-response","155","217255","0.0-130.0","56f59251736c79000c2241f7","665500ab8938657b03fbdba8","66578117af275b30715fdc22","229","stimuli/00011000.jpg"," ","","feedback_trial","0","","","","","","","","","","","","","","","","","","","","",""
"","","","","","image-keyboard-response","156","218206","0.0-131.0","56f59251736c79000c2241f7","665500ab8938657b03fbdba8","66578117af275b30715fdc22","949","stimuli/1011111.jpg","2","","prediction_trial","1","","false","","1","false","false","false","false","false","false","[2,1]","011","111","0","","","","","","",""
"","","","","","image-keyboard-response","157","218462","0.0-132.0","56f59251736c79000c2241f7","665500ab8938657b03fbdba8","66578117af275b30715fdc22","254","stimuli/10111111.jpg"," ","","feedback_trial","2","","","","","","","","","","","","","","","","","","","","",""
"","","","","","image-keyboard-response","158","221238","0.0-133.0","56f59251736c79000c2241f7","665500ab8938657b03fbdba8","66578117af275b30715fdc22","2772","stimuli/0011100.jpg","0","","prediction_trial","0","","true","","0","false","true","true","true","false","true","[0]","011","100","1","","","","","","",""
"","","","","","image-keyboard-response","159","221479","0.0-134.0","56f59251736c79000c2241f7","665500ab8938657b03fbdba8","66578117af275b30715fdc22","237","stimuli/00111000.jpg"," ","","feedback_trial","0","","","","","","","","","","","","","","","","","","","","",""
"","","","","","image-keyboard-response","160","222223","0.0-135.0","56f59251736c79000c2241f7","665500ab8938657b03fbdba8","66578117af275b30715fdc22","742","stimuli/2000110.jpg","2","","prediction_trial","2","","true","","2","true","true","true","true","true","true","[2]","000","110","1","","","","","","",""
"","","","","","image-keyboard-response","161","222471","0.0-136.0","56f59251736c79000c2241f7","665500ab8938657b03fbdba8","66578117af275b30715fdc22","246","stimuli/20001102.jpg"," ","","feedback_trial","2","","","","","","","","","","","","","","","","","","","","",""
"","","","","","image-keyboard-response","162","223374","0.0-137.0","56f59251736c79000c2241f7","665500ab8938657b03fbdba8","66578117af275b30715fdc22","902","stimuli/0100111.jpg","1","","prediction_trial","0","","false","","0","false","false","false","true","false","false","[0]","100","111","0","","","","","","",""
"","","","","","image-keyboard-response","163","223679","0.0-138.0","56f59251736c79000c2241f7","665500ab8938657b03fbdba8","66578117af275b30715fdc22","302","stimuli/01001110.jpg"," ","","feedback_trial","0","","","","","","","","","","","","","","","","","","","","",""
"","","","","","image-keyboard-response","164","224422","0.0-139.0","56f59251736c79000c2241f7","665500ab8938657b03fbdba8","66578117af275b30715fdc22","741","stimuli/1010110.jpg","1","","prediction_trial","1","","true","","1","false","false","false","true","false","false","[1]","010","110","1","","","","","","",""
"","","","","","image-keyboard-response","165","224719","0.0-140.0","56f59251736c79000c2241f7","665500ab8938657b03fbdba8","66578117af275b30715fdc22","293","stimuli/10101101.jpg"," ","","feedback_trial","1","","","","","","","","","","","","","","","","","","","","",""
"","","","","","image-keyboard-response","166","225422","0.0-141.0","56f59251736c79000c2241f7","665500ab8938657b03fbdba8","66578117af275b30715fdc22","701","stimuli/1111111.jpg","2","","prediction_trial","0","","false","","1","false","false","false","false","false","false","[0,2,1]","111","111","0","","","","","","",""
"","","","","","image-keyboard-response","167","225758","0.0-142.0","56f59251736c79000c2241f7","665500ab8938657b03fbdba8","66578117af275b30715fdc22","333","stimuli/11111110.jpg"," ","","feedback_trial","0","","","","","","","","","","","","","","","","","","","","",""
"","","","","","image-keyboard-response","168","226463","0.0-143.0","56f59251736c79000c2241f7","665500ab8938657b03fbdba8","66578117af275b30715fdc22","702","stimuli/2110001.jpg","2","","prediction_trial","2","","true","","2","false","true","true","true","false","true","[2]","110","001","1","","","","","","",""
"","","","","","image-keyboard-response","169","226743","0.0-144.0","56f59251736c79000c2241f7","665500ab8938657b03fbdba8","66578117af275b30715fdc22","278","stimuli/21100012.jpg"," ","","feedback_trial","2","","","","","","","","","","","","","","","","","","","","",""
"","","","","","image-keyboard-response","170","227583","0.0-145.0","56f59251736c79000c2241f7","665500ab8938657b03fbdba8","66578117af275b30715fdc22","837","stimuli/2100001.jpg","2","","prediction_trial","2","","true","","2","false","true","true","true","false","true","[2]","100","001","1","","","","","","",""
"","","","","","image-keyboard-response","171","227935","0.0-146.0","56f59251736c79000c2241f7","665500ab8938657b03fbdba8","66578117af275b30715fdc22","350","stimuli/21000012.jpg"," ","","feedback_trial","2","","","","","","","","","","","","","","","","","","","","",""
"","","","","","image-keyboard-response","172","228750","0.0-147.0","56f59251736c79000c2241f7","665500ab8938657b03fbdba8","66578117af275b30715fdc22","813","stimuli/1010111.jpg","0","","prediction_trial","1","","false","","1","false","false","false","true","false","false","[1]","010","111","0","","","","","","",""
"","","","","","image-keyboard-response","173","228999","0.0-148.0","56f59251736c79000c2241f7","665500ab8938657b03fbdba8","66578117af275b30715fdc22","246","stimuli/10101111.jpg"," ","","feedback_trial","1","","","","","","","","","","","","","","","","","","","","",""
"","","","","","image-keyboard-response","174","229582","0.0-149.0","56f59251736c79000c2241f7","665500ab8938657b03fbdba8","66578117af275b30715fdc22","582","stimuli/0010011.jpg","0","","prediction_trial","0","","true","","0","true","true","true","true","true","true","[0]","010","011","1","","","","","","",""
"","","","","","image-keyboard-response","175","229767","0.0-150.0","56f59251736c79000c2241f7","665500ab8938657b03fbdba8","66578117af275b30715fdc22","182","stimuli/00100110.jpg"," ","","feedback_trial","0","","","","","","","","","","","","","","","","","","","","",""
"","","","","","image-keyboard-response","176","230446","0.0-151.0","56f59251736c79000c2241f7","665500ab8938657b03fbdba8","66578117af275b30715fdc22","676","stimuli/1100010.jpg","1","","prediction_trial","1","","true","","1","false","true","true","true","false","true","[1]","100","010","1","","","","","","",""
"","","","","","image-keyboard-response","177","230655","0.0-152.0","56f59251736c79000c2241f7","665500ab8938657b03fbdba8","66578117af275b30715fdc22","205","stimuli/11000101.jpg"," ","","feedback_trial","1","","","","","","","","","","","","","","","","","","","","",""
"","","","","","image-keyboard-response","178","231831","0.0-153.0","56f59251736c79000c2241f7","665500ab8938657b03fbdba8","66578117af275b30715fdc22","1172","stimuli/2101011.jpg","1","","prediction_trial","2","","false","","2","false","false","false","false","false","false","[0,2]","101","011","0","","","","","","",""
"","","","","","image-keyboard-response","179","232134","0.0-154.0","56f59251736c79000c2241f7","665500ab8938657b03fbdba8","66578117af275b30715fdc22","301","stimuli/21010112.jpg"," ","","feedback_trial","0","","","","","","","","","","","","","","","","","","","","",""
"","","","","","image-keyboard-response","180","232719","0.0-155.0","56f59251736c79000c2241f7","665500ab8938657b03fbdba8","66578117af275b30715fdc22","581","stimuli/2000000.jpg","2","","prediction_trial","2","","true","","2","true","true","true","true","true","true","[2]","000","000","1","","","","","","",""
"","","","","","image-keyboard-response","181","232966","0.0-156.0","56f59251736c79000c2241f7","665500ab8938657b03fbdba8","66578117af275b30715fdc22","246","stimuli/20000002.jpg"," ","","feedback_trial","2","","","","","","","","","","","","","","","","","","","","",""
"","","","","","image-keyboard-response","182","234166","0.0-157.0","56f59251736c79000c2241f7","665500ab8938657b03fbdba8","66578117af275b30715fdc22","1197","stimuli/0110101.jpg","2","","prediction_trial","0","","false","","0","false","false","false","false","false","false","[1,0]","110","101","0","","","","","","",""
"","","","","","image-keyboard-response","183","234446","0.0-158.0","56f59251736c79000c2241f7","665500ab8938657b03fbdba8","66578117af275b30715fdc22","278","stimuli/01101010.jpg"," ","","feedback_trial","1","","","","","","","","","","","","","","","","","","","","",""
"","","","","","image-keyboard-response","184","235039","0.0-159.0","56f59251736c79000c2241f7","665500ab8938657b03fbdba8","66578117af275b30715fdc22","590","stimuli/1000010.jpg","1","","prediction_trial","1","","true","","1","false","true","true","true","false","true","[1]","000","010","1","","","","","","",""
"","","","","","image-keyboard-response","185","235238","0.0-160.0","56f59251736c79000c2241f7","665500ab8938657b03fbdba8","66578117af275b30715fdc22","198","stimuli/10000101.jpg"," ","","feedback_trial","1","","","","","","","","","","","","","","","","","","","","",""
"","","","","","image-keyboard-response","186","235894","0.0-161.0","56f59251736c79000c2241f7","665500ab8938657b03fbdba8","66578117af275b30715fdc22","653","stimuli/2111101.jpg","0","","prediction_trial","1","","false","","2","false","false","false","false","false","false","[2,1,0]","111","101","0","","","","","","",""
"","","","","","image-keyboard-response","187","236215","0.0-162.0","56f59251736c79000c2241f7","665500ab8938657b03fbdba8","66578117af275b30715fdc22","317","stimuli/21111011.jpg"," ","","feedback_trial","2","","","","","","","","","","","","","","","","","","","","",""
"","","","","","image-keyboard-response","188","236774","0.0-163.0","56f59251736c79000c2241f7","665500ab8938657b03fbdba8","66578117af275b30715fdc22","557","stimuli/2001000.jpg","2","","prediction_trial","2","","true","","2","true","true","false","true","false","true","[2]","001","000","1","","","","","","",""
"","","","","","image-keyboard-response","189","237110","0.0-164.0","56f59251736c79000c2241f7","665500ab8938657b03fbdba8","66578117af275b30715fdc22","334","stimuli/20010002.jpg"," ","","feedback_trial","2","","","","","","","","","","","","","","","","","","","","",""
"","","","","","image-keyboard-response","190","237663","0.0-165.0","56f59251736c79000c2241f7","665500ab8938657b03fbdba8","66578117af275b30715fdc22","549","stimuli/1000100.jpg","1","","prediction_trial","1","","true","","1","true","true","true","true","true","true","[1]","000","100","1","","","","","","",""
"","","","","","image-keyboard-response","191","237863","0.0-166.0","56f59251736c79000c2241f7","665500ab8938657b03fbdba8","66578117af275b30715fdc22","198","stimuli/10001001.jpg"," ","","feedback_trial","1","","","","","","","","","","","","","","","","","","","","",""
"","","","","","image-keyboard-response","192","238495","0.0-167.0","56f59251736c79000c2241f7","665500ab8938657b03fbdba8","66578117af275b30715fdc22","630","stimuli/2000111.jpg","0","","prediction_trial","2","","false","","2","false","false","true","true","false","false","[2]","000","111","0","","","","","","",""
"","","","","","image-keyboard-response","193","238839","0.0-168.0","56f59251736c79000c2241f7","665500ab8938657b03fbdba8","66578117af275b30715fdc22","341","stimuli/20001112.jpg"," ","","feedback_trial","2","","","","","","","","","","","","","","","","","","","","",""
"","","","","","image-keyboard-response","194","239430","0.0-169.0","56f59251736c79000c2241f7","665500ab8938657b03fbdba8","66578117af275b30715fdc22","589","stimuli/0011011.jpg","0","","prediction_trial","0","","true","","0","true","true","true","true","true","true","[0]","011","011","1","","","","","","",""
"","","","","","image-keyboard-response","195","239687","0.0-170.0","56f59251736c79000c2241f7","665500ab8938657b03fbdba8","66578117af275b30715fdc22","253","stimuli/00110110.jpg"," ","","feedback_trial","0","","","","","","","","","","","","","","","","","","","","",""
"","","","","","image-keyboard-response","196","240254","0.0-171.0","56f59251736c79000c2241f7","665500ab8938657b03fbdba8","66578117af275b30715fdc22","565","stimuli/1101001.jpg","1","","prediction_trial","1","","true","","1","true","true","true","true","true","true","[1]","101","001","1","","","","","","",""
"","","","","","image-keyboard-response","197","240543","0.0-172.0","56f59251736c79000c2241f7","665500ab8938657b03fbdba8","66578117af275b30715fdc22","286","stimuli/11010011.jpg"," ","","feedback_trial","1","","","","","","","","","","","","","","","","","","","","",""
"","","","","","image-keyboard-response","198","242111","0.0-173.0","56f59251736c79000c2241f7","665500ab8938657b03fbdba8","66578117af275b30715fdc22","1566","stimuli/0101010.jpg","2","","prediction_trial","2","","true","","0","true","true","false","false","false","false","[0,2]","101","010","1","","","","","","",""
"","","","","","image-keyboard-response","199","242318","0.0-174.0","56f59251736c79000c2241f7","665500ab8938657b03fbdba8","66578117af275b30715fdc22","205","stimuli/01010102.jpg"," ","","feedback_trial","0","","","","","","","","","","","","","","","","","","","","",""
"","","","","","image-keyboard-response","200","243166","0.0-175.0","56f59251736c79000c2241f7","665500ab8938657b03fbdba8","66578117af275b30715fdc22","846","stimuli/2101101.jpg","0","","prediction_trial","2","","false","","2","false","false","false","false","false","false","[0,2]","101","101","0","","","","","","",""
"","","","","","image-keyboard-response","201","243471","0.0-176.0","56f59251736c79000c2241f7","665500ab8938657b03fbdba8","66578117af275b30715fdc22","302","stimuli/21011012.jpg"," ","","feedback_trial","0","","","","","","","","","","","","","","","","","","","","",""
"","","","","","image-keyboard-response","202","244078","0.0-177.0","56f59251736c79000c2241f7","665500ab8938657b03fbdba8","66578117af275b30715fdc22","605","stimuli/0010001.jpg","0","","prediction_trial","0","","true","","0","true","true","true","true","true","true","[0]","010","001","1","","","","","","",""
"","","","","","image-keyboard-response","203","244231","0.0-178.0","56f59251736c79000c2241f7","665500ab8938657b03fbdba8","66578117af275b30715fdc22","149","stimuli/00100010.jpg"," ","","feedback_trial","0","","","","","","","","","","","","","","","","","","","","",""
"","","","","","image-keyboard-response","204","244815","0.0-179.0","56f59251736c79000c2241f7","665500ab8938657b03fbdba8","66578117af275b30715fdc22","582","stimuli/1000101.jpg","1","","prediction_trial","1","","true","","1","true","true","true","true","true","true","[1]","000","101","1","","","","","","",""
"","","","","","image-keyboard-response","205","244999","0.0-180.0","56f59251736c79000c2241f7","665500ab8938657b03fbdba8","66578117af275b30715fdc22","182","stimuli/10001011.jpg"," ","","feedback_trial","1","","","","","","","","","","","","","","","","","","","","",""
"","","","","","image-keyboard-response","206","245671","0.0-181.0","56f59251736c79000c2241f7","665500ab8938657b03fbdba8","66578117af275b30715fdc22","669","stimuli/0111111.jpg","2","","prediction_trial","1","","false","","0","false","false","false","false","false","false","[1,2,0]","111","111","0","","","","","","",""
"","","","","","image-keyboard-response","207","245854","0.0-182.0","56f59251736c79000c2241f7","665500ab8938657b03fbdba8","66578117af275b30715fdc22","181","stimuli/01111111.jpg"," ","","feedback_trial","1","","","","","","","","","","","","","","","","","","","","",""
"","","","","","image-keyboard-response","208","246439","0.0-183.0","56f59251736c79000c2241f7","665500ab8938657b03fbdba8","66578117af275b30715fdc22","581","stimuli/0010010.jpg","0","","prediction_trial","0","","true","","0","true","true","true","true","true","true","[0]","010","010","1","","","","","","",""
"","","","","","image-keyboard-response","209","246615","0.0-184.0","56f59251736c79000c2241f7","665500ab8938657b03fbdba8","66578117af275b30715fdc22","174","stimuli/00100100.jpg"," ","","feedback_trial","0","","","","","","","","","","","","","","","","","","","","",""
"","","","","","image-keyboard-response","210","247318","0.0-185.0","56f59251736c79000c2241f7","665500ab8938657b03fbdba8","66578117af275b30715fdc22","701","stimuli/1100011.jpg","1","","prediction_trial","1","","true","","1","false","false","true","true","false","false","[1]","100","011","1","","","","","","",""
"","","","","","image-keyboard-response","211","247662","0.0-186.0","56f59251736c79000c2241f7","665500ab8938657b03fbdba8","66578117af275b30715fdc22","342","stimuli/11000111.jpg"," ","","feedback_trial","1","","","","","","","","","","","","","","","","","","","","",""
"","","","","","image-keyboard-response","212","248255","0.0-187.0","56f59251736c79000c2241f7","665500ab8938657b03fbdba8","66578117af275b30715fdc22","589","stimuli/0000011.jpg","0","","prediction_trial","0","","true","","0","true","true","true","true","true","true","[0]","000","011","1","","","","","","",""
"","","","","","image-keyboard-response","213","248503","0.0-188.0","56f59251736c79000c2241f7","665500ab8938657b03fbdba8","66578117af275b30715fdc22","245","stimuli/00000110.jpg"," ","","feedback_trial","0","","","","","","","","","","","","","","","","","","","","",""
"","","","","","image-keyboard-response","214","249046","0.0-189.0","56f59251736c79000c2241f7","665500ab8938657b03fbdba8","66578117af275b30715fdc22","542","stimuli/2110101.jpg","2","","prediction_trial","2","","true","","2","false","false","true","true","false","false","[2]","110","101","1","","","","","","",""
"","","","","","image-keyboard-response","215","249359","0.0-190.0","56f59251736c79000c2241f7","665500ab8938657b03fbdba8","66578117af275b30715fdc22","310","stimuli/21101012.jpg"," ","","feedback_trial","2","","","","","","","","","","","","","","","","","","","","",""
"","","","","","image-keyboard-response","216","249935","0.0-191.0","56f59251736c79000c2241f7","665500ab8938657b03fbdba8","66578117af275b30715fdc22","573","stimuli/0000111.jpg","1","","prediction_trial","0","","false","","0","false","false","true","true","false","false","[0]","000","111","0","","","","","","",""
"","","","","","image-keyboard-response","217","250223","0.0-192.0","56f59251736c79000c2241f7","665500ab8938657b03fbdba8","66578117af275b30715fdc22","286","stimuli/00001110.jpg"," ","","feedback_trial","0","","","","","","","","","","","","","","","","","","","","",""
"","","","","","image-keyboard-response","218","250663","0.0-193.0","56f59251736c79000c2241f7","665500ab8938657b03fbdba8","66578117af275b30715fdc22","438","stimuli/2100110.jpg","2","","prediction_trial","2","","true","","2","true","true","true","true","true","true","[2]","100","110","1","","","","","","",""
"","","","","","image-keyboard-response","219","251061","0.0-194.0","56f59251736c79000c2241f7","665500ab8938657b03fbdba8","66578117af275b30715fdc22","397","stimuli/21001102.jpg"," ","","feedback_trial","2","","","","","","","","","","","","","","","","","","","","",""
"","","","","","image-keyboard-response","220","251815","0.0-195.0","56f59251736c79000c2241f7","665500ab8938657b03fbdba8","66578117af275b30715fdc22","750","stimuli/2100011.jpg","1","","prediction_trial","2","","false","","2","false","false","true","true","false","false","[2]","100","011","0","","","","","","",""
"","","","","","image-keyboard-response","221","252135","0.0-196.0","56f59251736c79000c2241f7","665500ab8938657b03fbdba8","66578117af275b30715fdc22","318","stimuli/21000112.jpg"," ","","feedback_trial","2","","","","","","","","","","","","","","","","","","","","",""
"","","","","","image-keyboard-response","222","252686","0.0-197.0","56f59251736c79000c2241f7","665500ab8938657b03fbdba8","66578117af275b30715fdc22","549","stimuli/0011010.jpg","0","","prediction_trial","0","","true","","0","true","true","true","true","true","true","[0]","011","010","1","","","","","","",""
"","","","","","image-keyboard-response","223","252943","0.0-198.0","56f59251736c79000c2241f7","665500ab8938657b03fbdba8","66578117af275b30715fdc22","253","stimuli/00110100.jpg"," ","","feedback_trial","0","","","","","","","","","","","","","","","","","","","","",""
"","","","","","image-keyboard-response","224","253431","0.0-199.0","56f59251736c79000c2241f7","665500ab8938657b03fbdba8","66578117af275b30715fdc22","485","stimuli/0011001.jpg","0","","prediction_trial","0","","true","","0","true","true","true","true","true","true","[0]","011","001","1","","","","","","",""
"","","","","","image-keyboard-response","225","253679","0.0-200.0","56f59251736c79000c2241f7","665500ab8938657b03fbdba8","66578117af275b30715fdc22","246","stimuli/00110010.jpg"," ","","feedback_trial","0","","","","","","","","","","","","","","","","","","","","",""
"","","","","","image-keyboard-response","226","254335","0.0-201.0","56f59251736c79000c2241f7","665500ab8938657b03fbdba8","66578117af275b30715fdc22","654","stimuli/0000100.jpg","0","","prediction_trial","0","","true","","0","false","true","true","true","false","true","[0]","000","100","1","","","","","","",""
"","","","","","image-keyboard-response","227","254639","0.0-202.0","56f59251736c79000c2241f7","665500ab8938657b03fbdba8","66578117af275b30715fdc22","302","stimuli/00001000.jpg"," ","","feedback_trial","0","","","","","","","","","","","","","","","","","","","","",""
"","","","","","image-keyboard-response","228","255190","0.0-203.0","56f59251736c79000c2241f7","665500ab8938657b03fbdba8","66578117af275b30715fdc22","550","stimuli/2100100.jpg","2","","prediction_trial","2","","true","","2","true","true","true","true","true","true","[2]","100","100","1","","","","","","",""
"","","","","","image-keyboard-response","229","255406","0.0-204.0","56f59251736c79000c2241f7","665500ab8938657b03fbdba8","66578117af275b30715fdc22","214","stimuli/21001002.jpg"," ","","feedback_trial","2","","","","","","","","","","","","","","","","","","","","",""
"","","","","","image-keyboard-response","230","256519","0.0-205.0","56f59251736c79000c2241f7","665500ab8938657b03fbdba8","66578117af275b30715fdc22","1110","stimuli/1011001.jpg","1","","prediction_trial","2","","false","","1","true","true","false","false","false","false","[2,1]","011","001","0","","","","","","",""
"","","","","","image-keyboard-response","231","256775","0.0-206.0","56f59251736c79000c2241f7","665500ab8938657b03fbdba8","66578117af275b30715fdc22","254","stimuli/10110012.jpg"," ","","feedback_trial","2","","","","","","","","","","","","","","","","","","","","",""
"","","","","","image-keyboard-response","232","257750","0.0-207.0","56f59251736c79000c2241f7","665500ab8938657b03fbdba8","66578117af275b30715fdc22","972","stimuli/2101001.jpg","2","","prediction_trial","0","","false","","2","false","true","false","false","false","false","[0,2]","101","001","0","","","","","","",""
"","","","","","image-keyboard-response","233","257991","0.0-208.0","56f59251736c79000c2241f7","665500ab8938657b03fbdba8","66578117af275b30715fdc22","238","stimuli/21010010.jpg"," ","","feedback_trial","0","","","","","","","","","","","","","","","","","","","","",""
"","","","","","image-keyboard-response","234","258647","0.0-209.0","56f59251736c79000c2241f7","665500ab8938657b03fbdba8","66578117af275b30715fdc22","652","stimuli/0010100.jpg","0","","prediction_trial","0","","true","","0","false","true","true","true","false","true","[0]","010","100","1","","","","","","",""
"","","","","","image-keyboard-response","235","258895","0.0-210.0","56f59251736c79000c2241f7","665500ab8938657b03fbdba8","66578117af275b30715fdc22","246","stimuli/00101000.jpg"," ","","feedback_trial","0","","","","","","","","","","","","","","","","","","","","",""
"","","","","","image-keyboard-response","236","259503","0.0-211.0","56f59251736c79000c2241f7","665500ab8938657b03fbdba8","66578117af275b30715fdc22","605","stimuli/1111100.jpg","1","","prediction_trial","2","","false","","1","true","true","false","false","false","false","[1,2,0]","111","100","0","","","","","","",""
"","","","","","image-keyboard-response","237","259695","0.0-212.0","56f59251736c79000c2241f7","665500ab8938657b03fbdba8","66578117af275b30715fdc22","189","stimuli/11111002.jpg"," ","","feedback_trial","1","","","","","","","","","","","","","","","","","","","","",""
"","","","","","image-keyboard-response","238","260279","0.0-213.0","56f59251736c79000c2241f7","665500ab8938657b03fbdba8","66578117af275b30715fdc22","580","stimuli/2000010.jpg","2","","prediction_trial","2","","true","","2","true","true","true","true","true","true","[2]","000","010","1","","","","","","",""
"","","","","","image-keyboard-response","239","260454","0.0-214.0","56f59251736c79000c2241f7","665500ab8938657b03fbdba8","66578117af275b30715fdc22","173","stimuli/20000102.jpg"," ","","feedback_trial","2","","","","","","","","","","","","","","","","","","","","",""
"","","","","","image-keyboard-response","240","260983","0.0-215.0","56f59251736c79000c2241f7","665500ab8938657b03fbdba8","66578117af275b30715fdc22","526","stimuli/2100010.jpg","2","","prediction_trial","2","","true","","2","true","true","true","true","true","true","[2]","100","010","1","","","","","","",""
"","","","","","image-keyboard-response","241","261142","0.0-216.0","56f59251736c79000c2241f7","665500ab8938657b03fbdba8","66578117af275b30715fdc22","156","stimuli/21000102.jpg"," ","","feedback_trial","2","","","","","","","","","","","","","","","","","","","","",""
"","","","","","image-keyboard-response","242","261766","0.0-217.0","56f59251736c79000c2241f7","665500ab8938657b03fbdba8","66578117af275b30715fdc22","621","stimuli/0000110.jpg","0","","prediction_trial","0","","true","","0","false","false","true","true","false","false","[0]","000","110","1","","","","","","",""
"","","","","","image-keyboard-response","243","261983","0.0-218.0","56f59251736c79000c2241f7","665500ab8938657b03fbdba8","66578117af275b30715fdc22","214","stimuli/00001100.jpg"," ","","feedback_trial","0","","","","","","","","","","","","","","","","","","","","",""
"","","","","","image-keyboard-response","244","262534","0.0-219.0","56f59251736c79000c2241f7","665500ab8938657b03fbdba8","66578117af275b30715fdc22","549","stimuli/1000110.jpg","0","","prediction_trial","1","","false","","1","false","false","true","true","false","false","[1]","000","110","0","","","","","","",""
"","","","","","image-keyboard-response","245","262831","0.0-220.0","56f59251736c79000c2241f7","665500ab8938657b03fbdba8","66578117af275b30715fdc22","294","stimuli/10001101.jpg"," ","","feedback_trial","1","","","","","","","","","","","","","","","","","","","","",""
"","","","","","image-keyboard-response","246","263567","0.0-221.0","56f59251736c79000c2241f7","665500ab8938657b03fbdba8","66578117af275b30715fdc22","733","stimuli/1110111.jpg","2","","prediction_trial","1","","false","","1","false","false","false","false","false","false","[0,1]","110","111","0","","","","","","",""
"","","","","","image-keyboard-response","247","263766","0.0-222.0","56f59251736c79000c2241f7","665500ab8938657b03fbdba8","66578117af275b30715fdc22","198","stimuli/11101111.jpg"," ","","feedback_trial","0","","","","","","","","","","","","","","","","","","","","",""
"","","","","","image-keyboard-response","248","264302","0.0-223.0","56f59251736c79000c2241f7","665500ab8938657b03fbdba8","66578117af275b30715fdc22","533","stimuli/0101110.jpg","1","","prediction_trial","0","","false","","0","false","false","false","false","false","false","[2,0]","101","110","0","","","","","","",""
"","","","","","image-keyboard-response","249","264543","0.0-224.0","56f59251736c79000c2241f7","665500ab8938657b03fbdba8","66578117af275b30715fdc22","238","stimuli/01011100.jpg"," ","","feedback_trial","2","","","","","","","","","","","","","","","","","","","","",""
"","","","","","image-keyboard-response","250","265087","0.0-225.0","56f59251736c79000c2241f7","665500ab8938657b03fbdba8","66578117af275b30715fdc22","541","stimuli/1100000.jpg","1","","prediction_trial","1","","true","","1","true","true","true","true","true","true","[1]","100","000","1","","","","","","",""
"","","","","","image-keyboard-response","251","265311","0.0-226.0","56f59251736c79000c2241f7","665500ab8938657b03fbdba8","66578117af275b30715fdc22","222","stimuli/11000001.jpg"," ","","feedback_trial","1","","","","","","","","","","","","","","","","","","","","",""
"","","","","","image-keyboard-response","252","265798","0.0-227.0","56f59251736c79000c2241f7","665500ab8938657b03fbdba8","66578117af275b30715fdc22","485","stimuli/2110100.jpg","2","","prediction_trial","2","","true","","2","true","true","true","true","true","true","[2]","110","100","1","","","","","","",""
"","","","","","image-keyboard-response","253","266078","0.0-228.0","56f59251736c79000c2241f7","665500ab8938657b03fbdba8","66578117af275b30715fdc22","278","stimuli/21101002.jpg"," ","","feedback_trial","2","","","","","","","","","","","","","","","","","","","","",""
"","","","","","image-keyboard-response","254","266583","0.0-229.0","56f59251736c79000c2241f7","665500ab8938657b03fbdba8","66578117af275b30715fdc22","502","stimuli/1001101.jpg","1","","prediction_trial","1","","true","","1","true","true","true","true","true","true","[1]","001","101","1","","","","","","",""
"","","","","","image-keyboard-response","255","266871","0.0-230.0","56f59251736c79000c2241f7","665500ab8938657b03fbdba8","66578117af275b30715fdc22","285","stimuli/10011011.jpg"," ","","feedback_trial","1","","","","","","","","","","","","","","","","","","","","",""
"","","","","","image-keyboard-response","256","267751","0.0-231.0","56f59251736c79000c2241f7","665500ab8938657b03fbdba8","66578117af275b30715fdc22","878","stimuli/1011100.jpg","1","","prediction_trial","1","","true","","1","true","true","false","false","false","false","[1,2]","011","100","1","","","","","","",""
"","","","","","image-keyboard-response","257","268015","0.0-232.0","56f59251736c79000c2241f7","665500ab8938657b03fbdba8","66578117af275b30715fdc22","261","stimuli/10111001.jpg"," ","","feedback_trial","1","","","","","","","","","","","","","","","","","","","","",""
"","","","","","image-keyboard-response","258","268599","0.0-233.0","56f59251736c79000c2241f7","665500ab8938657b03fbdba8","66578117af275b30715fdc22","581","stimuli/0100110.jpg","0","","prediction_trial","0","","true","","0","false","false","false","true","false","false","[0]","100","110","1","","","","","","",""
"","","","","","image-keyboard-response","259","268798","0.0-234.0","56f59251736c79000c2241f7","665500ab8938657b03fbdba8","66578117af275b30715fdc22","198","stimuli/01001100.jpg"," ","","feedback_trial","0","","","","","","","","","","","","","","","","","","","","",""
"","","","","","image-keyboard-response","260","269614","0.0-235.0","56f59251736c79000c2241f7","665500ab8938657b03fbdba8","66578117af275b30715fdc22","814","stimuli/0010111.jpg","2","","prediction_trial","0","","false","","0","false","false","true","true","false","false","[0]","010","111","0","","","","","","",""
"","","","","","image-keyboard-response","261","269894","0.0-236.0","56f59251736c79000c2241f7","665500ab8938657b03fbdba8","66578117af275b30715fdc22","278","stimuli/00101110.jpg"," ","","feedback_trial","0","","","","","","","","","","","","","","","","","","","","",""
"","","","","","image-keyboard-response","262","270367","0.0-237.0","56f59251736c79000c2241f7","665500ab8938657b03fbdba8","66578117af275b30715fdc22","470","stimuli/1101000.jpg","1","","prediction_trial","1","","true","","1","true","true","true","true","true","true","[1]","101","000","1","","","","","","",""
"","","","","","image-keyboard-response","263","270622","0.0-238.0","56f59251736c79000c2241f7","665500ab8938657b03fbdba8","66578117af275b30715fdc22","254","stimuli/11010001.jpg"," ","","feedback_trial","1","","","","","","","","","","","","","","","","","","","","",""
"","","","","","image-keyboard-response","264","271367","0.0-239.0","56f59251736c79000c2241f7","665500ab8938657b03fbdba8","66578117af275b30715fdc22","742","stimuli/2011110.jpg","2","","prediction_trial","2","","true","","2","true","true","false","false","false","false","[1,2]","011","110","1","","","","","","",""
"","","","","","image-keyboard-response","265","271703","0.0-240.0","56f59251736c79000c2241f7","665500ab8938657b03fbdba8","66578117af275b30715fdc22","334","stimuli/20111102.jpg"," ","","feedback_trial","1","","","","","","","","","","","","","","","","","","","","",""
"","","","","","image-keyboard-response","266","272430","0.0-241.0","56f59251736c79000c2241f7","665500ab8938657b03fbdba8","66578117af275b30715fdc22","725","stimuli/2111000.jpg","2","","prediction_trial","1","","false","","2","true","true","false","false","false","false","[0,1,2]","111","000","0","","","","","","",""
"","","","","","image-keyboard-response","267","272766","0.0-242.0","56f59251736c79000c2241f7","665500ab8938657b03fbdba8","66578117af275b30715fdc22","333","stimuli/21110001.jpg"," ","","feedback_trial","0","","","","","","","","","","","","","","","","","","","","",""
"","","","","","image-keyboard-response","268","273326","0.0-243.0","56f59251736c79000c2241f7","665500ab8938657b03fbdba8","66578117af275b30715fdc22","557","stimuli/1101111.jpg","1","","prediction_trial","1","","true","","1","false","false","true","true","false","false","[1]","101","111","1","","","","","","",""
"","","","","","image-keyboard-response","269","273679","0.0-244.0","56f59251736c79000c2241f7","665500ab8938657b03fbdba8","66578117af275b30715fdc22","349","stimuli/11011111.jpg"," ","","feedback_trial","1","","","","","","","","","","","","","","","","","","","","",""
"","","","","","image-keyboard-response","270","274262","0.0-245.0","56f59251736c79000c2241f7","665500ab8938657b03fbdba8","66578117af275b30715fdc22","582","stimuli/2011011.jpg","1","","prediction_trial","2","","false","","2","false","false","false","false","false","false","[2,1]","011","011","0","","","","","","",""
"","","","","","image-keyboard-response","271","274543","0.0-246.0","56f59251736c79000c2241f7","665500ab8938657b03fbdba8","66578117af275b30715fdc22","277","stimuli/20110112.jpg"," ","","feedback_trial","2","","","","","","","","","","","","","","","","","","","","",""
"","","","","","image-keyboard-response","272","275143","0.0-247.0","56f59251736c79000c2241f7","665500ab8938657b03fbdba8","66578117af275b30715fdc22","598","stimuli/0101100.jpg","0","","prediction_trial","2","","false","","0","false","true","false","false","false","false","[2,0]","101","100","0","","","","","","",""
"","","","","","image-keyboard-response","273","275422","0.0-248.0","56f59251736c79000c2241f7","665500ab8938657b03fbdba8","66578117af275b30715fdc22","277","stimuli/01011002.jpg"," ","","feedback_trial","2","","","","","","","","","","","","","","","","","","","","",""
"","","","","","image-keyboard-response","274","276151","0.0-249.0","56f59251736c79000c2241f7","665500ab8938657b03fbdba8","66578117af275b30715fdc22","724","stimuli/2111001.jpg","2","","prediction_trial","1","","false","","2","false","true","false","false","false","false","[2,1,0]","111","001","0","","","","","","",""
"","","","","","image-keyboard-response","275","276751","0.0-250.0","56f59251736c79000c2241f7","665500ab8938657b03fbdba8","66578117af275b30715fdc22","598","stimuli/21110011.jpg"," ","","feedback_trial","2","","","","","","","","","","","","","","","","","","","","",""
"","","","","","image-keyboard-response","276","277726","0.0-251.0","56f59251736c79000c2241f7","665500ab8938657b03fbdba8","66578117af275b30715fdc22","972","stimuli/1111010.jpg","1","","prediction_trial","1","","true","","1","false","true","false","false","false","false","[1,0,2]","111","010","1","","","","","","",""
"","","","","","image-keyboard-response","277","278086","0.0-252.0","56f59251736c79000c2241f7","665500ab8938657b03fbdba8","66578117af275b30715fdc22","358","stimuli/11110101.jpg"," ","","feedback_trial","1","","","","","","","","","","","","","","","","","","","","",""
"","","","","","image-keyboard-response","278","278639","0.0-253.0","56f59251736c79000c2241f7","665500ab8938657b03fbdba8","66578117af275b30715fdc22","550","stimuli/2110111.jpg","1","","prediction_trial","2","","false","","2","false","false","true","true","false","false","[2]","110","111","0","","","","","","",""
"","","","","","image-keyboard-response","279","278959","0.0-254.0","56f59251736c79000c2241f7","665500ab8938657b03fbdba8","66578117af275b30715fdc22","317","stimuli/21101112.jpg"," ","","feedback_trial","2","","","","","","","","","","","","","","","","","","","","",""
"","","","","","image-keyboard-response","280","279591","0.0-255.0","56f59251736c79000c2241f7","665500ab8938657b03fbdba8","66578117af275b30715fdc22","630","stimuli/1001111.jpg","0","","prediction_trial","1","","false","","1","false","false","true","true","false","false","[1]","001","111","0","","","","","","",""
"","","","","","image-keyboard-response","281","279911","0.0-256.0","56f59251736c79000c2241f7","665500ab8938657b03fbdba8","66578117af275b30715fdc22","318","stimuli/10011111.jpg"," ","","feedback_trial","1","","","","","","","","","","","","","","","","","","","","",""
"","","","","","image-keyboard-response","282","280471","0.0-257.0","56f59251736c79000c2241f7","665500ab8938657b03fbdba8","66578117af275b30715fdc22","558","stimuli/0001101.jpg","1","","prediction_trial","0","","false","","0","false","false","true","true","false","false","[0]","001","101","0","","","","","","",""
"","","","","","image-keyboard-response","283","280823","0.0-258.0","56f59251736c79000c2241f7","665500ab8938657b03fbdba8","66578117af275b30715fdc22","349","stimuli/00011010.jpg"," ","","feedback_trial","0","","","","","","","","","","","","","","","","","","","","",""
"","","","","","image-keyboard-response","284","281831","0.0-259.0","56f59251736c79000c2241f7","665500ab8938657b03fbdba8","66578117af275b30715fdc22","1006","stimuli/0000101.jpg","0","","prediction_trial","0","","true","","0","false","false","true","true","false","false","[0]","000","101","1","","","","","","",""
"","","","","","image-keyboard-response","285","282135","0.0-260.0","56f59251736c79000c2241f7","665500ab8938657b03fbdba8","66578117af275b30715fdc22","301","stimuli/00001010.jpg"," ","","feedback_trial","0","","","","","","","","","","","","","","","","","","","","",""
"","","","","","image-keyboard-response","286","282902","0.0-261.0","56f59251736c79000c2241f7","665500ab8938657b03fbdba8","66578117af275b30715fdc22","764","stimuli/0010000.jpg","0","","prediction_trial","0","","true","","0","true","true","true","true","true","true","[0]","010","000","1","","","","","","",""
"","","","","","image-keyboard-response","287","283055","0.0-262.0","56f59251736c79000c2241f7","665500ab8938657b03fbdba8","66578117af275b30715fdc22","149","stimuli/00100000.jpg"," ","","feedback_trial","0","","","","","","","","","","","","","","","","","","","","",""
"","","","","","image-keyboard-response","288","283599","0.0-263.0","56f59251736c79000c2241f7","665500ab8938657b03fbdba8","66578117af275b30715fdc22","542","stimuli/2010100.jpg","2","","prediction_trial","2","","true","","2","true","true","true","true","true","true","[2]","010","100","1","","","","","","",""
"","","","","","image-keyboard-response","289","283743","0.0-264.0","56f59251736c79000c2241f7","665500ab8938657b03fbdba8","66578117af275b30715fdc22","142","stimuli/20101002.jpg"," ","","feedback_trial","2","","","","","","","","","","","","","","","","","","","","",""
"","","","","","image-keyboard-response","290","284350","0.0-265.0","56f59251736c79000c2241f7","665500ab8938657b03fbdba8","66578117af275b30715fdc22","606","stimuli/1000001.jpg","1","","prediction_trial","1","","true","","1","true","true","true","true","true","true","[1]","000","001","1","","","","","","",""
"","","","","","image-keyboard-response","291","284463","0.0-266.0","56f59251736c79000c2241f7","665500ab8938657b03fbdba8","66578117af275b30715fdc22","108","stimuli/10000011.jpg"," ","","feedback_trial","1","","","","","","","","","","","","","","","","","","","","",""
"","","","","","image-keyboard-response","292","285015","0.0-267.0","56f59251736c79000c2241f7","665500ab8938657b03fbdba8","66578117af275b30715fdc22","549","stimuli/0000010.jpg","0","","prediction_trial","0","","true","","0","true","true","true","true","true","true","[0]","000","010","1","","","","","","",""
"","","","","","image-keyboard-response","293","285151","0.0-268.0","56f59251736c79000c2241f7","665500ab8938657b03fbdba8","66578117af275b30715fdc22","133","stimuli/00000100.jpg"," ","","feedback_trial","0","","","","","","","","","","","","","","","","","","","","",""
"","","","","","image-keyboard-response","294","286222","0.0-269.0","56f59251736c79000c2241f7","665500ab8938657b03fbdba8","66578117af275b30715fdc22","1070","stimuli/1010000.jpg","1","","prediction_trial","1","","true","","1","true","true","false","true","false","true","[1]","010","000","1","","","","","","",""
"","","","","","image-keyboard-response","295","286351","0.0-270.0","56f59251736c79000c2241f7","665500ab8938657b03fbdba8","66578117af275b30715fdc22","125","stimuli/10100001.jpg"," ","","feedback_trial","1","","","","","","","","","","","","","","","","","","","","",""
"","","","","","image-keyboard-response","296","286958","0.0-271.0","56f59251736c79000c2241f7","665500ab8938657b03fbdba8","66578117af275b30715fdc22","606","stimuli/1100100.jpg","1","","prediction_trial","1","","true","","1","true","true","true","true","true","true","[1]","100","100","1","","","","","","",""
"","","","","","image-keyboard-response","297","287063","0.0-272.0","56f59251736c79000c2241f7","665500ab8938657b03fbdba8","66578117af275b30715fdc22","101","stimuli/11001001.jpg"," ","","feedback_trial","1","","","","","","","","","","","","","","","","","","","","",""
"","","","","","image-keyboard-response","298","288422","0.0-273.0","56f59251736c79000c2241f7","665500ab8938657b03fbdba8","66578117af275b30715fdc22","1358","stimuli/2010011.jpg","2","","prediction_trial","2","","true","","2","false","false","true","true","false","false","[2]","010","011","1","","","","","","",""
"","","","","","image-keyboard-response","299","288695","0.0-274.0","56f59251736c79000c2241f7","665500ab8938657b03fbdba8","66578117af275b30715fdc22","270","stimuli/20100112.jpg"," ","","feedback_trial","2","","","","","","","","","","","","","","","","","","","","",""
"","","","","","image-keyboard-response","300","290014","0.0-275.0","56f59251736c79000c2241f7","665500ab8938657b03fbdba8","66578117af275b30715fdc22","1317","stimuli/2000011.jpg","1","","prediction_trial","2","","false","","2","false","false","true","true","false","false","[2]","000","011","0","","","","","","",""
"","","","","","image-keyboard-response","301","290239","0.0-276.0","56f59251736c79000c2241f7","665500ab8938657b03fbdba8","66578117af275b30715fdc22","222","stimuli/20000112.jpg"," ","","feedback_trial","2","","","","","","","","","","","","","","","","","","","","",""
"","","","","","image-keyboard-response","302","291103","0.0-277.0","56f59251736c79000c2241f7","665500ab8938657b03fbdba8","66578117af275b30715fdc22","861","stimuli/0111010.jpg","0","","prediction_trial","2","","false","","0","true","true","false","false","false","false","[2,0,1]","111","010","0","","","","","","",""
"","","","","","image-keyboard-response","303","291271","0.0-278.0","56f59251736c79000c2241f7","665500ab8938657b03fbdba8","66578117af275b30715fdc22","166","stimuli/01110102.jpg"," ","","feedback_trial","2","","","","","","","","","","","","","","","","","","","","",""
"","","","","","image-keyboard-response","304","292055","0.0-279.0","56f59251736c79000c2241f7","665500ab8938657b03fbdba8","66578117af275b30715fdc22","781","stimuli/0110011.jpg","0","","prediction_trial","1","","false","","0","true","true","false","false","false","false","[0,1]","110","011","0","","","","","","",""
"","","","","","image-keyboard-response","305","292175","0.0-280.0","56f59251736c79000c2241f7","665500ab8938657b03fbdba8","66578117af275b30715fdc22","117","stimuli/01100111.jpg"," ","","feedback_trial","0","","","","","","","","","","","","","","","","","","","","",""
"","","","","","image-keyboard-response","306","292831","0.0-281.0","56f59251736c79000c2241f7","665500ab8938657b03fbdba8","66578117af275b30715fdc22","654","stimuli/1101100.jpg","1","","prediction_trial","1","","true","","1","true","true","true","true","true","true","[1]","101","100","1","","","","","","",""
"","","","","","image-keyboard-response","307","292928","0.0-282.0","56f59251736c79000c2241f7","665500ab8938657b03fbdba8","66578117af275b30715fdc22","95","stimuli/11011001.jpg"," ","","feedback_trial","1","","","","","","","","","","","","","","","","","","","","",""
"","","","","","image-keyboard-response","308","293719","0.0-283.0","56f59251736c79000c2241f7","665500ab8938657b03fbdba8","66578117af275b30715fdc22","787","stimuli/2011010.jpg","2","","prediction_trial","2","","true","","2","true","true","false","false","false","false","[1,2]","011","010","1","","","","","","",""
"","","","","","image-keyboard-response","309","293830","0.0-284.0","56f59251736c79000c2241f7","665500ab8938657b03fbdba8","66578117af275b30715fdc22","110","stimuli/20110102.jpg"," ","","feedback_trial","1","","","","","","","","","","","","","","","","","","","","",""
"","","","","","image-keyboard-response","310","294846","0.0-285.0","56f59251736c79000c2241f7","665500ab8938657b03fbdba8","66578117af275b30715fdc22","1014","stimuli/2100101.jpg","2","","prediction_trial","2","","true","","2","false","false","true","true","false","false","[2]","100","101","1","","","","","","",""
"","","","","","image-keyboard-response","311","294951","0.0-286.0","56f59251736c79000c2241f7","665500ab8938657b03fbdba8","66578117af275b30715fdc22","102","stimuli/21001012.jpg"," ","","feedback_trial","2","","","","","","","","","","","","","","","","","","","","",""
"","","","","","image-keyboard-response","312","295767","0.0-287.0","56f59251736c79000c2241f7","665500ab8938657b03fbdba8","66578117af275b30715fdc22","814","stimuli/0111100.jpg","0","","prediction_trial","2","","false","","0","false","true","false","false","false","false","[2,1,0]","111","100","0","","","","","","",""
"","","","","","image-keyboard-response","313","295870","0.0-288.0","56f59251736c79000c2241f7","665500ab8938657b03fbdba8","66578117af275b30715fdc22","102","stimuli/01111002.jpg"," ","","feedback_trial","2","","","","","","","","","","","","","","","","","","","","",""
"","","","","","image-keyboard-response","314","296511","0.0-289.0","56f59251736c79000c2241f7","665500ab8938657b03fbdba8","66578117af275b30715fdc22","638","stimuli/2101010.jpg","2","","prediction_trial","0","","false","","2","true","true","false","false","false","false","[0,2]","101","010","0","","","","","","",""
"","","","","","image-keyboard-response","315","296614","0.0-290.0","56f59251736c79000c2241f7","665500ab8938657b03fbdba8","66578117af275b30715fdc22","102","stimuli/21010100.jpg"," ","","feedback_trial","0","","","","","","","","","","","","","","","","","","","","",""
"","","","","","image-keyboard-response","316","297199","0.0-291.0","56f59251736c79000c2241f7","665500ab8938657b03fbdba8","66578117af275b30715fdc22","582","stimuli/2001111.jpg","1","","prediction_trial","2","","false","","2","false","false","false","true","false","false","[2]","001","111","0","","","","","","",""
"","","","","","image-keyboard-response","317","297294","0.0-292.0","56f59251736c79000c2241f7","665500ab8938657b03fbdba8","66578117af275b30715fdc22","94","stimuli/20011112.jpg"," ","","feedback_trial","2","","","","","","","","","","","","","","","","","","","","",""
"","","","","","survey-html-form","318","304635","0.0-293.0","56f59251736c79000c2241f7","665500ab8938657b03fbdba8","66578117af275b30715fdc22","7341","","{""feedback"":"""",""age"":""34"",""gender"":""Male"",""other_gender"":"""",""race"":""White"",""other_race"":"""",""ethnicity"":""Non-Hispanic""}","","exit_survey","","","","","","","","","","","","","","","","","34","Non-Hispanic","Male","White","0.6388888888888888","0.6388888888888888"
