"success","timeout","failed_images","failed_audio","failed_video","trial_type","trial_index","time_elapsed","internal_node_id","prolific_id","prolific_study_id","prolific_session_id","rt","stimulus","response","view_history","trial","character_choice","stimulus_dict","accuracy","correct_response","ball_pos","ego_ball_visible","ego_can_infer","alter_ball_visible","alter_can_infer","collective_ball_visible","collective_can_infer","search_locations","alter_occluders","ego_occluders","accuracy_bool","feedback","age","ethnicity","gender","race","overall_accuracy","bonus"
"true","false","[]","[]","[]","preload","0","7906","0.0-0.0","6298f0e21abd78cb684b723c","665500ab8938657b03fbdba8","665792b8c62b427c88187e04","","","","","","","","","","","","","","","","","","","","","","","","","","",""
"true","","","","","fullscreen","1","25129","0.0-1.0","6298f0e21abd78cb684b723c","665500ab8938657b03fbdba8","665792b8c62b427c88187e04","","","","","","","","","","","","","","","","","","","","","","","","","","",""
"","","","","","html-button-response","2","27195","0.0-2.0","6298f0e21abd78cb684b723c","665500ab8938657b03fbdba8","665792b8c62b427c88187e04","2065","<p><b>Consent Form</b></p> <div style=""text-align:left;background-color:lightgrey; padding:20px; max-width:900px;""><p>Please consider this information carefully before deciding whether to participate in this research.</p> <p>The purpose of this research is to examine which factors influence social judgment and decision-making. You will be asked to make judgements about individuals and actions in social scenarios. We are simply interested in your judgement. The study will take less than 1 hour to complete, and you will receive less than $20 on Prolific. Your compensation and time commitment are specified in the study description. There are no anticipated risks associated with participating in this study. The effects of participating should be comparable to those you would ordinarily experience from viewing a computer monitor and using a mouse or keyboard for a similar amount of time. At the end of the study, we will provide an explanation of the questions that motivate this line of research and will describe the potential implications. </p><p> Your participation in this study is completely voluntary and you may refuse to participate or you may choose to withdraw at any time without penalty or loss of benefits to you which are otherwise entitled. Your participation in this study will remain confidential. No personally identifiable information will be associated with your data. Also, all analyses of the data will be averaged across all the participants, so your individual responses will never be specifically analyzed. </p><p> If you have questions or concerns about your participation or payment, or want to request a summary of research findings, please contact Dr. Jonathan Phillips at Jonathan.S.Phillips@dartmouth.edu. </p><p> Please save a copy of this form for your records. </p><p><b>Agreement: </b>The nature and purpose of this research have been sufficiently explained and I agree to participate in this study. I understand that I am free to withdraw at any time without incurring any penalty. Please consent by clicking the button below to continue. Otherwise, please exit the study at any time. </p>","0","","","","","","","","","","","","","","","","","","","","","","","",""
"","","","","","instructions","3","78989","0.0-3.0-0.0","6298f0e21abd78cb684b723c","665500ab8938657b03fbdba8","665792b8c62b427c88187e04","51793","","","[{""page_index"":0,""viewing_time"":1586},{""page_index"":1,""viewing_time"":1663},{""page_index"":2,""viewing_time"":2637},{""page_index"":3,""viewing_time"":4631},{""page_index"":4,""viewing_time"":2481},{""page_index"":5,""viewing_time"":3095},{""page_index"":6,""viewing_time"":2820},{""page_index"":7,""viewing_time"":2306},{""page_index"":8,""viewing_time"":2185},{""page_index"":9,""viewing_time"":3215},{""page_index"":10,""viewing_time"":11032},{""page_index"":11,""viewing_time"":7832},{""page_index"":12,""viewing_time"":5195},{""page_index"":13,""viewing_time"":1114}]","intro","","","","","","","","","","","","","","","","","","","","","",""
"","","","","","image-keyboard-response","4","81128","0.0-3.0-1.0","6298f0e21abd78cb684b723c","665500ab8938657b03fbdba8","665792b8c62b427c88187e04","2137","stimuli/2011110.jpg","2","","prediction_practice","2","{""filepath"":""stimuli/2011110.jpg"",""ball_pos"":2,""ego_ball_visible"":true,""ego_can_infer"":true,""alter_ball_visible"":false,""alter_can_infer"":false,""collective_ball_visible"":false,""collective_can_infer"":false,""search_locations"":[1,2],""alter_occluders"":""011"",""ego_occluders"":""110""}","true","","","","","","","","","","","","","","","","","","",""
"","","","","","image-keyboard-response","5","82885","0.0-3.0-2.0","6298f0e21abd78cb684b723c","665500ab8938657b03fbdba8","665792b8c62b427c88187e04","1756","stimuli/20111102.jpg"," ","","practrice_feedback","1","","","","","","","","","","","","","","","","","","","","",""
"","","","","","image-keyboard-response","6","84133","0.0-3.0-3.0","6298f0e21abd78cb684b723c","665500ab8938657b03fbdba8","665792b8c62b427c88187e04","1247","stimuli/2000010.jpg","2","","prediction_practice","2","{""filepath"":""stimuli/2000010.jpg"",""ball_pos"":2,""ego_ball_visible"":true,""ego_can_infer"":true,""alter_ball_visible"":true,""alter_can_infer"":true,""collective_ball_visible"":true,""collective_can_infer"":true,""search_locations"":[2],""alter_occluders"":""000"",""ego_occluders"":""010""}","true","","","","","","","","","","","","","","","","","","",""
"","","","","","image-keyboard-response","7","85773","0.0-3.0-4.0","6298f0e21abd78cb684b723c","665500ab8938657b03fbdba8","665792b8c62b427c88187e04","1639","stimuli/20000102.jpg"," ","","practrice_feedback","2","","","","","","","","","","","","","","","","","","","","",""
"","","","","","image-keyboard-response","8","87484","0.0-3.0-5.0","6298f0e21abd78cb684b723c","665500ab8938657b03fbdba8","665792b8c62b427c88187e04","1711","stimuli/0010111.jpg","1","","prediction_practice","0","{""filepath"":""stimuli/0010111.jpg"",""ball_pos"":0,""ego_ball_visible"":false,""ego_can_infer"":false,""alter_ball_visible"":true,""alter_can_infer"":true,""collective_ball_visible"":false,""collective_can_infer"":false,""search_locations"":[0],""alter_occluders"":""010"",""ego_occluders"":""111""}","false","","","","","","","","","","","","","","","","","","",""
"","","","","","image-keyboard-response","9","88544","0.0-3.0-6.0","6298f0e21abd78cb684b723c","665500ab8938657b03fbdba8","665792b8c62b427c88187e04","1059","stimuli/00101110.jpg"," ","","practrice_feedback","0","","","","","","","","","","","","","","","","","","","","",""
"","","","","","image-keyboard-response","10","90525","0.0-3.0-7.0","6298f0e21abd78cb684b723c","665500ab8938657b03fbdba8","665792b8c62b427c88187e04","1980","stimuli/0000100.jpg","0","","prediction_practice","0","{""filepath"":""stimuli/0000100.jpg"",""ball_pos"":0,""ego_ball_visible"":false,""ego_can_infer"":true,""alter_ball_visible"":true,""alter_can_infer"":true,""collective_ball_visible"":false,""collective_can_infer"":true,""search_locations"":[0],""alter_occluders"":""000"",""ego_occluders"":""100""}","true","","","","","","","","","","","","","","","","","","",""
"","","","","","image-keyboard-response","11","91348","0.0-3.0-8.0","6298f0e21abd78cb684b723c","665500ab8938657b03fbdba8","665792b8c62b427c88187e04","822","stimuli/00001000.jpg"," ","","practrice_feedback","0","","","","","","","","","","","","","","","","","","","","",""
"","","","","","image-keyboard-response","12","92197","0.0-3.0-9.0","6298f0e21abd78cb684b723c","665500ab8938657b03fbdba8","665792b8c62b427c88187e04","848","stimuli/1101000.jpg","1","","prediction_practice","1","{""filepath"":""stimuli/1101000.jpg"",""ball_pos"":1,""ego_ball_visible"":true,""ego_can_infer"":true,""alter_ball_visible"":true,""alter_can_infer"":true,""collective_ball_visible"":true,""collective_can_infer"":true,""search_locations"":[1],""alter_occluders"":""101"",""ego_occluders"":""000""}","true","","","","","","","","","","","","","","","","","","",""
"","","","","","image-keyboard-response","13","92744","0.0-3.0-10.0","6298f0e21abd78cb684b723c","665500ab8938657b03fbdba8","665792b8c62b427c88187e04","545","stimuli/11010001.jpg"," ","","practrice_feedback","1","","","","","","","","","","","","","","","","","","","","",""
"","","","","","image-keyboard-response","14","93711","0.0-3.0-11.0","6298f0e21abd78cb684b723c","665500ab8938657b03fbdba8","665792b8c62b427c88187e04","967","stimuli/0111110.jpg","1","","prediction_practice","1","{""filepath"":""stimuli/0111110.jpg"",""ball_pos"":0,""ego_ball_visible"":false,""ego_can_infer"":false,""alter_ball_visible"":false,""alter_can_infer"":false,""collective_ball_visible"":false,""collective_can_infer"":false,""search_locations"":[2,1,0],""alter_occluders"":""111"",""ego_occluders"":""110""}","true","","","","","","","","","","","","","","","","","","",""
"","","","","","image-keyboard-response","15","94254","0.0-3.0-12.0","6298f0e21abd78cb684b723c","665500ab8938657b03fbdba8","665792b8c62b427c88187e04","542","stimuli/01111101.jpg"," ","","practrice_feedback","2","","","","","","","","","","","","","","","","","","","","",""
"","","","","","image-keyboard-response","16","95557","0.0-3.0-13.0","6298f0e21abd78cb684b723c","665500ab8938657b03fbdba8","665792b8c62b427c88187e04","1302","stimuli/0001101.jpg","2","","prediction_practice","0","{""filepath"":""stimuli/0001101.jpg"",""ball_pos"":0,""ego_ball_visible"":false,""ego_can_infer"":false,""alter_ball_visible"":true,""alter_can_infer"":true,""collective_ball_visible"":false,""collective_can_infer"":false,""search_locations"":[0],""alter_occluders"":""001"",""ego_occluders"":""101""}","false","","","","","","","","","","","","","","","","","","",""
"","","","","","image-keyboard-response","17","95985","0.0-3.0-14.0","6298f0e21abd78cb684b723c","665500ab8938657b03fbdba8","665792b8c62b427c88187e04","427","stimuli/00011010.jpg"," ","","practrice_feedback","0","","","","","","","","","","","","","","","","","","","","",""
"","","","","","image-keyboard-response","18","97479","0.0-3.0-15.0","6298f0e21abd78cb684b723c","665500ab8938657b03fbdba8","665792b8c62b427c88187e04","1494","stimuli/0010000.jpg","0","","prediction_practice","0","{""filepath"":""stimuli/0010000.jpg"",""ball_pos"":0,""ego_ball_visible"":true,""ego_can_infer"":true,""alter_ball_visible"":true,""alter_can_infer"":true,""collective_ball_visible"":true,""collective_can_infer"":true,""search_locations"":[0],""alter_occluders"":""010"",""ego_occluders"":""000""}","true","","","","","","","","","","","","","","","","","","",""
"","","","","","image-keyboard-response","19","98001","0.0-3.0-16.0","6298f0e21abd78cb684b723c","665500ab8938657b03fbdba8","665792b8c62b427c88187e04","521","stimuli/00100000.jpg"," ","","practrice_feedback","0","","","","","","","","","","","","","","","","","","","","",""
"","","","","","image-keyboard-response","20","98855","0.0-3.0-17.0","6298f0e21abd78cb684b723c","665500ab8938657b03fbdba8","665792b8c62b427c88187e04","854","stimuli/2111001.jpg","2","","prediction_practice","2","{""filepath"":""stimuli/2111001.jpg"",""ball_pos"":2,""ego_ball_visible"":false,""ego_can_infer"":true,""alter_ball_visible"":false,""alter_can_infer"":false,""collective_ball_visible"":false,""collective_can_infer"":false,""search_locations"":[2,1,0],""alter_occluders"":""111"",""ego_occluders"":""001""}","true","","","","","","","","","","","","","","","","","","",""
"","","","","","image-keyboard-response","21","99191","0.0-3.0-18.0","6298f0e21abd78cb684b723c","665500ab8938657b03fbdba8","665792b8c62b427c88187e04","335","stimuli/21110012.jpg"," ","","practrice_feedback","2","","","","","","","","","","","","","","","","","","","","",""
"","","","","","image-keyboard-response","22","100169","0.0-3.0-19.0","6298f0e21abd78cb684b723c","665500ab8938657b03fbdba8","665792b8c62b427c88187e04","977","stimuli/0011110.jpg","1","","prediction_practice","0","{""filepath"":""stimuli/0011110.jpg"",""ball_pos"":0,""ego_ball_visible"":false,""ego_can_infer"":false,""alter_ball_visible"":true,""alter_can_infer"":true,""collective_ball_visible"":false,""collective_can_infer"":false,""search_locations"":[0],""alter_occluders"":""011"",""ego_occluders"":""110""}","false","","","","","","","","","","","","","","","","","","",""
"","","","","","image-keyboard-response","23","100567","0.0-3.0-20.0","6298f0e21abd78cb684b723c","665500ab8938657b03fbdba8","665792b8c62b427c88187e04","397","stimuli/00111100.jpg"," ","","practrice_feedback","0","","","","","","","","","","","","","","","","","","","","",""
"","","","","","html-button-response","24","107833","0.0-3.0-21.0","6298f0e21abd78cb684b723c","665500ab8938657b03fbdba8","665792b8c62b427c88187e04","7266","Now that you've had some practice, you'll be tested with a couple of easy trials. If you correctly predict Sam's choice, you'll move on to complete the experiment!","0","","","","","","","","","","","","","","","","","","","","","","","",""
"","","","","","image-keyboard-response","25","108843","0.0-3.0-22.0-0.0","6298f0e21abd78cb684b723c","665500ab8938657b03fbdba8","665792b8c62b427c88187e04","1009","stimuli/0000011.jpg","arrowleft","","comprehension_quiz","","","true","arrowleft","","","","","","","","","","","","","","","","","",""
"","","","","","image-keyboard-response","26","110118","0.0-3.0-22.0-1.0","6298f0e21abd78cb684b723c","665500ab8938657b03fbdba8","665792b8c62b427c88187e04","1274","stimuli/00000110.jpg"," ","","comprehension_quiz","","","true"," ","","","","","","","","","","","","","","","","","",""
"","","","","","image-keyboard-response","27","111038","0.0-3.0-22.0-2.0","6298f0e21abd78cb684b723c","665500ab8938657b03fbdba8","665792b8c62b427c88187e04","918","stimuli/1010010.jpg","arrowdown","","comprehension_quiz","","","true","arrowdown","","","","","","","","","","","","","","","","","",""
"","","","","","image-keyboard-response","28","111662","0.0-3.0-22.0-3.0","6298f0e21abd78cb684b723c","665500ab8938657b03fbdba8","665792b8c62b427c88187e04","623","stimuli/10100101.jpg"," ","","comprehension_quiz","","","true"," ","","","","","","","","","","","","","","","","","",""
"","","","","","html-button-response","29","114032","0.0-4.0","6298f0e21abd78cb684b723c","665500ab8938657b03fbdba8","665792b8c62b427c88187e04","2369","The experiment will now begin.","0","","","","","","","","","","","","","","","","","","","","","","","",""
"","","","","","image-keyboard-response","30","114929","0.0-5.0","6298f0e21abd78cb684b723c","665500ab8938657b03fbdba8","665792b8c62b427c88187e04","896","stimuli/1011000.jpg","1","","prediction_trial","1","","true","","1","true","true","false","false","false","false","[1,2]","011","000","1","","","","","","",""
"","","","","","image-keyboard-response","31","116788","0.0-6.0","6298f0e21abd78cb684b723c","665500ab8938657b03fbdba8","665792b8c62b427c88187e04","1859","stimuli/10110001.jpg"," ","","feedback_trial","1","","","","","","","","","","","","","","","","","","","","",""
"","","","","","image-keyboard-response","32","117676","0.0-7.0","6298f0e21abd78cb684b723c","665500ab8938657b03fbdba8","665792b8c62b427c88187e04","887","stimuli/1010101.jpg","1","","prediction_trial","1","","true","","1","true","true","false","true","false","true","[1]","010","101","1","","","","","","",""
"","","","","","image-keyboard-response","33","118019","0.0-8.0","6298f0e21abd78cb684b723c","665500ab8938657b03fbdba8","665792b8c62b427c88187e04","342","stimuli/10101011.jpg"," ","","feedback_trial","1","","","","","","","","","","","","","","","","","","","","",""
"","","","","","image-keyboard-response","34","118535","0.0-9.0","6298f0e21abd78cb684b723c","665500ab8938657b03fbdba8","665792b8c62b427c88187e04","516","stimuli/0101010.jpg","0","","prediction_trial","0","","true","","0","true","true","false","false","false","false","[2,0]","101","010","1","","","","","","",""
"","","","","","image-keyboard-response","35","118778","0.0-10.0","6298f0e21abd78cb684b723c","665500ab8938657b03fbdba8","665792b8c62b427c88187e04","242","stimuli/01010100.jpg"," ","","feedback_trial","2","","","","","","","","","","","","","","","","","","","","",""
"","","","","","image-keyboard-response","36","119351","0.0-11.0","6298f0e21abd78cb684b723c","665500ab8938657b03fbdba8","665792b8c62b427c88187e04","572","stimuli/1101001.jpg","1","","prediction_trial","1","","true","","1","true","true","true","true","true","true","[1]","101","001","1","","","","","","",""
"","","","","","image-keyboard-response","37","119509","0.0-12.0","6298f0e21abd78cb684b723c","665500ab8938657b03fbdba8","665792b8c62b427c88187e04","157","stimuli/11010011.jpg"," ","","feedback_trial","1","","","","","","","","","","","","","","","","","","","","",""
"","","","","","image-keyboard-response","38","120709","0.0-13.0","6298f0e21abd78cb684b723c","665500ab8938657b03fbdba8","665792b8c62b427c88187e04","1200","stimuli/0100101.jpg","0","","prediction_trial","0","","true","","0","false","false","false","true","false","false","[0]","100","101","1","","","","","","",""
"","","","","","image-keyboard-response","39","120921","0.0-14.0","6298f0e21abd78cb684b723c","665500ab8938657b03fbdba8","665792b8c62b427c88187e04","211","stimuli/01001010.jpg"," ","","feedback_trial","0","","","","","","","","","","","","","","","","","","","","",""
"","","","","","image-keyboard-response","40","121561","0.0-15.0","6298f0e21abd78cb684b723c","665500ab8938657b03fbdba8","665792b8c62b427c88187e04","640","stimuli/1110001.jpg","1","","prediction_trial","1","","true","","1","true","true","false","false","false","false","[0,1]","110","001","1","","","","","","",""
"","","","","","image-keyboard-response","41","121769","0.0-16.0","6298f0e21abd78cb684b723c","665500ab8938657b03fbdba8","665792b8c62b427c88187e04","208","stimuli/11100011.jpg"," ","","feedback_trial","0","","","","","","","","","","","","","","","","","","","","",""
"","","","","","image-keyboard-response","42","122280","0.0-17.0","6298f0e21abd78cb684b723c","665500ab8938657b03fbdba8","665792b8c62b427c88187e04","510","stimuli/2010100.jpg","2","","prediction_trial","2","","true","","2","true","true","true","true","true","true","[2]","010","100","1","","","","","","",""
"","","","","","image-keyboard-response","43","122485","0.0-18.0","6298f0e21abd78cb684b723c","665500ab8938657b03fbdba8","665792b8c62b427c88187e04","205","stimuli/20101002.jpg"," ","","feedback_trial","2","","","","","","","","","","","","","","","","","","","","",""
"","","","","","image-keyboard-response","44","123212","0.0-19.0","6298f0e21abd78cb684b723c","665500ab8938657b03fbdba8","665792b8c62b427c88187e04","726","stimuli/1010010.jpg","1","","prediction_trial","1","","true","","1","false","true","false","true","false","true","[1]","010","010","1","","","","","","",""
"","","","","","image-keyboard-response","45","123390","0.0-20.0","6298f0e21abd78cb684b723c","665500ab8938657b03fbdba8","665792b8c62b427c88187e04","177","stimuli/10100101.jpg"," ","","feedback_trial","1","","","","","","","","","","","","","","","","","","","","",""
"","","","","","image-keyboard-response","46","124223","0.0-21.0","6298f0e21abd78cb684b723c","665500ab8938657b03fbdba8","665792b8c62b427c88187e04","833","stimuli/1000011.jpg","1","","prediction_trial","1","","true","","1","false","false","true","true","false","false","[1]","000","011","1","","","","","","",""
"","","","","","image-keyboard-response","47","124425","0.0-22.0","6298f0e21abd78cb684b723c","665500ab8938657b03fbdba8","665792b8c62b427c88187e04","201","stimuli/10000111.jpg"," ","","feedback_trial","1","","","","","","","","","","","","","","","","","","","","",""
"","","","","","image-keyboard-response","48","124942","0.0-23.0","6298f0e21abd78cb684b723c","665500ab8938657b03fbdba8","665792b8c62b427c88187e04","517","stimuli/0010100.jpg","0","","prediction_trial","0","","true","","0","false","true","true","true","false","true","[0]","010","100","1","","","","","","",""
"","","","","","image-keyboard-response","49","125200","0.0-24.0","6298f0e21abd78cb684b723c","665500ab8938657b03fbdba8","665792b8c62b427c88187e04","257","stimuli/00101000.jpg"," ","","feedback_trial","0","","","","","","","","","","","","","","","","","","","","",""
"","","","","","image-keyboard-response","50","125758","0.0-25.0","6298f0e21abd78cb684b723c","665500ab8938657b03fbdba8","665792b8c62b427c88187e04","554","stimuli/0011011.jpg","0","","prediction_trial","0","","true","","0","true","true","true","true","true","true","[0]","011","011","1","","","","","","",""
"","","","","","image-keyboard-response","51","125915","0.0-26.0","6298f0e21abd78cb684b723c","665500ab8938657b03fbdba8","665792b8c62b427c88187e04","157","stimuli/00110110.jpg"," ","","feedback_trial","0","","","","","","","","","","","","","","","","","","","","",""
"","","","","","image-keyboard-response","52","126429","0.0-27.0","6298f0e21abd78cb684b723c","665500ab8938657b03fbdba8","665792b8c62b427c88187e04","513","stimuli/2010010.jpg","2","","prediction_trial","2","","true","","2","true","true","true","true","true","true","[2]","010","010","1","","","","","","",""
"","","","","","image-keyboard-response","53","126571","0.0-28.0","6298f0e21abd78cb684b723c","665500ab8938657b03fbdba8","665792b8c62b427c88187e04","141","stimuli/20100102.jpg"," ","","feedback_trial","2","","","","","","","","","","","","","","","","","","","","",""
"","","","","","image-keyboard-response","54","127160","0.0-29.0","6298f0e21abd78cb684b723c","665500ab8938657b03fbdba8","665792b8c62b427c88187e04","588","stimuli/1000001.jpg","1","","prediction_trial","1","","true","","1","true","true","true","true","true","true","[1]","000","001","1","","","","","","",""
"","","","","","image-keyboard-response","55","127316","0.0-30.0","6298f0e21abd78cb684b723c","665500ab8938657b03fbdba8","665792b8c62b427c88187e04","155","stimuli/10000011.jpg"," ","","feedback_trial","1","","","","","","","","","","","","","","","","","","","","",""
"","","","","","image-keyboard-response","56","127958","0.0-31.0","6298f0e21abd78cb684b723c","665500ab8938657b03fbdba8","665792b8c62b427c88187e04","642","stimuli/1100001.jpg","1","","prediction_trial","1","","true","","1","true","true","true","true","true","true","[1]","100","001","1","","","","","","",""
"","","","","","image-keyboard-response","57","128116","0.0-32.0","6298f0e21abd78cb684b723c","665500ab8938657b03fbdba8","665792b8c62b427c88187e04","157","stimuli/11000011.jpg"," ","","feedback_trial","1","","","","","","","","","","","","","","","","","","","","",""
"","","","","","image-keyboard-response","58","128614","0.0-33.0","6298f0e21abd78cb684b723c","665500ab8938657b03fbdba8","665792b8c62b427c88187e04","497","stimuli/1110100.jpg","1","","prediction_trial","1","","true","","1","true","true","false","false","false","false","[0,1]","110","100","1","","","","","","",""
"","","","","","image-keyboard-response","59","128762","0.0-34.0","6298f0e21abd78cb684b723c","665500ab8938657b03fbdba8","665792b8c62b427c88187e04","147","stimuli/11101001.jpg"," ","","feedback_trial","0","","","","","","","","","","","","","","","","","","","","",""
"","","","","","image-keyboard-response","60","129209","0.0-35.0","6298f0e21abd78cb684b723c","665500ab8938657b03fbdba8","665792b8c62b427c88187e04","447","stimuli/1001001.jpg","1","","prediction_trial","1","","true","","1","true","true","true","true","true","true","[1]","001","001","1","","","","","","",""
"","","","","","image-keyboard-response","61","129398","0.0-36.0","6298f0e21abd78cb684b723c","665500ab8938657b03fbdba8","665792b8c62b427c88187e04","189","stimuli/10010011.jpg"," ","","feedback_trial","1","","","","","","","","","","","","","","","","","","","","",""
"","","","","","image-keyboard-response","62","130164","0.0-37.0","6298f0e21abd78cb684b723c","665500ab8938657b03fbdba8","665792b8c62b427c88187e04","765","stimuli/0111101.jpg","0","","prediction_trial","1","","false","","0","false","false","false","false","false","false","[2,1,0]","111","101","0","","","","","","",""
"","","","","","image-keyboard-response","63","130308","0.0-38.0","6298f0e21abd78cb684b723c","665500ab8938657b03fbdba8","665792b8c62b427c88187e04","143","stimuli/01111011.jpg"," ","","feedback_trial","2","","","","","","","","","","","","","","","","","","","","",""
"","","","","","image-keyboard-response","64","131214","0.0-39.0","6298f0e21abd78cb684b723c","665500ab8938657b03fbdba8","665792b8c62b427c88187e04","905","stimuli/2010111.jpg","1","","prediction_trial","2","","false","","2","false","false","true","true","false","false","[2]","010","111","0","","","","","","",""
"","","","","","image-keyboard-response","65","131373","0.0-40.0","6298f0e21abd78cb684b723c","665500ab8938657b03fbdba8","665792b8c62b427c88187e04","155","stimuli/20101112.jpg"," ","","feedback_trial","2","","","","","","","","","","","","","","","","","","","","",""
"","","","","","image-keyboard-response","66","132260","0.0-41.0","6298f0e21abd78cb684b723c","665500ab8938657b03fbdba8","665792b8c62b427c88187e04","886","stimuli/2011010.jpg","2","","prediction_trial","1","","false","","2","true","true","false","false","false","false","[1,2]","011","010","0","","","","","","",""
"","","","","","image-keyboard-response","67","132413","0.0-42.0","6298f0e21abd78cb684b723c","665500ab8938657b03fbdba8","665792b8c62b427c88187e04","152","stimuli/20110101.jpg"," ","","feedback_trial","1","","","","","","","","","","","","","","","","","","","","",""
"","","","","","image-keyboard-response","68","133086","0.0-43.0","6298f0e21abd78cb684b723c","665500ab8938657b03fbdba8","665792b8c62b427c88187e04","672","stimuli/2000000.jpg","2","","prediction_trial","2","","true","","2","true","true","true","true","true","true","[2]","000","000","1","","","","","","",""
"","","","","","image-keyboard-response","69","133243","0.0-44.0","6298f0e21abd78cb684b723c","665500ab8938657b03fbdba8","665792b8c62b427c88187e04","157","stimuli/20000002.jpg"," ","","feedback_trial","2","","","","","","","","","","","","","","","","","","","","",""
"","","","","","image-keyboard-response","70","134072","0.0-45.0","6298f0e21abd78cb684b723c","665500ab8938657b03fbdba8","665792b8c62b427c88187e04","828","stimuli/1110011.jpg","1","","prediction_trial","1","","true","","1","false","false","false","false","false","false","[0,1]","110","011","1","","","","","","",""
"","","","","","image-keyboard-response","71","134229","0.0-46.0","6298f0e21abd78cb684b723c","665500ab8938657b03fbdba8","665792b8c62b427c88187e04","157","stimuli/11100111.jpg"," ","","feedback_trial","0","","","","","","","","","","","","","","","","","","","","",""
"","","","","","image-keyboard-response","72","135263","0.0-47.0","6298f0e21abd78cb684b723c","665500ab8938657b03fbdba8","665792b8c62b427c88187e04","1033","stimuli/1000110.jpg","1","","prediction_trial","1","","true","","1","false","false","true","true","false","false","[1]","000","110","1","","","","","","",""
"","","","","","image-keyboard-response","73","135425","0.0-48.0","6298f0e21abd78cb684b723c","665500ab8938657b03fbdba8","665792b8c62b427c88187e04","162","stimuli/10001101.jpg"," ","","feedback_trial","1","","","","","","","","","","","","","","","","","","","","",""
"","","","","","image-keyboard-response","74","136172","0.0-49.0","6298f0e21abd78cb684b723c","665500ab8938657b03fbdba8","665792b8c62b427c88187e04","743","stimuli/1011011.jpg","1","","prediction_trial","1","","true","","1","false","false","false","false","false","false","[2,1]","011","011","1","","","","","","",""
"","","","","","image-keyboard-response","75","136334","0.0-50.0","6298f0e21abd78cb684b723c","665500ab8938657b03fbdba8","665792b8c62b427c88187e04","162","stimuli/10110111.jpg"," ","","feedback_trial","2","","","","","","","","","","","","","","","","","","","","",""
"","","","","","image-keyboard-response","76","136954","0.0-51.0","6298f0e21abd78cb684b723c","665500ab8938657b03fbdba8","665792b8c62b427c88187e04","619","stimuli/1101101.jpg","1","","prediction_trial","1","","true","","1","true","true","true","true","true","true","[1]","101","101","1","","","","","","",""
"","","","","","image-keyboard-response","77","137135","0.0-52.0","6298f0e21abd78cb684b723c","665500ab8938657b03fbdba8","665792b8c62b427c88187e04","181","stimuli/11011011.jpg"," ","","feedback_trial","1","","","","","","","","","","","","","","","","","","","","",""
"","","","","","image-keyboard-response","78","137972","0.0-53.0","6298f0e21abd78cb684b723c","665500ab8938657b03fbdba8","665792b8c62b427c88187e04","837","stimuli/2001101.jpg","2","","prediction_trial","2","","true","","2","false","false","false","true","false","false","[2]","001","101","1","","","","","","",""
"","","","","","image-keyboard-response","79","138126","0.0-54.0","6298f0e21abd78cb684b723c","665500ab8938657b03fbdba8","665792b8c62b427c88187e04","153","stimuli/20011012.jpg"," ","","feedback_trial","2","","","","","","","","","","","","","","","","","","","","",""
"","","","","","image-keyboard-response","80","138848","0.0-55.0","6298f0e21abd78cb684b723c","665500ab8938657b03fbdba8","665792b8c62b427c88187e04","721","stimuli/1101111.jpg","1","","prediction_trial","1","","true","","1","false","false","true","true","false","false","[1]","101","111","1","","","","","","",""
"","","","","","image-keyboard-response","81","139031","0.0-56.0","6298f0e21abd78cb684b723c","665500ab8938657b03fbdba8","665792b8c62b427c88187e04","183","stimuli/11011111.jpg"," ","","feedback_trial","1","","","","","","","","","","","","","","","","","","","","",""
"","","","","","image-keyboard-response","82","139544","0.0-57.0","6298f0e21abd78cb684b723c","665500ab8938657b03fbdba8","665792b8c62b427c88187e04","511","stimuli/0000011.jpg","0","","prediction_trial","0","","true","","0","true","true","true","true","true","true","[0]","000","011","1","","","","","","",""
"","","","","","image-keyboard-response","83","139696","0.0-58.0","6298f0e21abd78cb684b723c","665500ab8938657b03fbdba8","665792b8c62b427c88187e04","152","stimuli/00000110.jpg"," ","","feedback_trial","0","","","","","","","","","","","","","","","","","","","","",""
"","","","","","image-keyboard-response","84","140387","0.0-59.0","6298f0e21abd78cb684b723c","665500ab8938657b03fbdba8","665792b8c62b427c88187e04","690","stimuli/1111111.jpg","1","","prediction_trial","0","","false","","1","false","false","false","false","false","false","[0,2,1]","111","111","0","","","","","","",""
"","","","","","image-keyboard-response","85","140576","0.0-60.0","6298f0e21abd78cb684b723c","665500ab8938657b03fbdba8","665792b8c62b427c88187e04","189","stimuli/11111110.jpg"," ","","feedback_trial","0","","","","","","","","","","","","","","","","","","","","",""
"","","","","","image-keyboard-response","86","141169","0.0-61.0","6298f0e21abd78cb684b723c","665500ab8938657b03fbdba8","665792b8c62b427c88187e04","592","stimuli/0000100.jpg","0","","prediction_trial","0","","true","","0","false","true","true","true","false","true","[0]","000","100","1","","","","","","",""
"","","","","","image-keyboard-response","87","141369","0.0-62.0","6298f0e21abd78cb684b723c","665500ab8938657b03fbdba8","665792b8c62b427c88187e04","200","stimuli/00001000.jpg"," ","","feedback_trial","0","","","","","","","","","","","","","","","","","","","","",""
"","","","","","image-keyboard-response","88","142131","0.0-63.0","6298f0e21abd78cb684b723c","665500ab8938657b03fbdba8","665792b8c62b427c88187e04","761","stimuli/0000110.jpg","0","","prediction_trial","0","","true","","0","false","false","true","true","false","false","[0]","000","110","1","","","","","","",""
"","","","","","image-keyboard-response","89","142337","0.0-64.0","6298f0e21abd78cb684b723c","665500ab8938657b03fbdba8","665792b8c62b427c88187e04","205","stimuli/00001100.jpg"," ","","feedback_trial","0","","","","","","","","","","","","","","","","","","","","",""
"","","","","","image-keyboard-response","90","142849","0.0-65.0","6298f0e21abd78cb684b723c","665500ab8938657b03fbdba8","665792b8c62b427c88187e04","511","stimuli/2100011.jpg","1","","prediction_trial","2","","false","","2","false","false","true","true","false","false","[2]","100","011","0","","","","","","",""
"","","","","","image-keyboard-response","91","143057","0.0-66.0","6298f0e21abd78cb684b723c","665500ab8938657b03fbdba8","665792b8c62b427c88187e04","207","stimuli/21000112.jpg"," ","","feedback_trial","2","","","","","","","","","","","","","","","","","","","","",""
"","","","","","image-keyboard-response","92","143785","0.0-67.0","6298f0e21abd78cb684b723c","665500ab8938657b03fbdba8","665792b8c62b427c88187e04","724","stimuli/0111011.jpg","0","","prediction_trial","1","","false","","0","true","true","false","false","false","false","[2,1,0]","111","011","0","","","","","","",""
"","","","","","image-keyboard-response","93","143968","0.0-68.0","6298f0e21abd78cb684b723c","665500ab8938657b03fbdba8","665792b8c62b427c88187e04","183","stimuli/01110111.jpg"," ","","feedback_trial","2","","","","","","","","","","","","","","","","","","","","",""
"","","","","","image-keyboard-response","94","144685","0.0-69.0","6298f0e21abd78cb684b723c","665500ab8938657b03fbdba8","665792b8c62b427c88187e04","717","stimuli/1000100.jpg","1","","prediction_trial","1","","true","","1","true","true","true","true","true","true","[1]","000","100","1","","","","","","",""
"","","","","","image-keyboard-response","95","144853","0.0-70.0","6298f0e21abd78cb684b723c","665500ab8938657b03fbdba8","665792b8c62b427c88187e04","167","stimuli/10001001.jpg"," ","","feedback_trial","1","","","","","","","","","","","","","","","","","","","","",""
"","","","","","image-keyboard-response","96","145356","0.0-71.0","6298f0e21abd78cb684b723c","665500ab8938657b03fbdba8","665792b8c62b427c88187e04","502","stimuli/0100000.jpg","0","","prediction_trial","0","","true","","0","true","true","false","true","false","true","[0]","100","000","1","","","","","","",""
"","","","","","image-keyboard-response","97","145513","0.0-72.0","6298f0e21abd78cb684b723c","665500ab8938657b03fbdba8","665792b8c62b427c88187e04","157","stimuli/01000000.jpg"," ","","feedback_trial","0","","","","","","","","","","","","","","","","","","","","",""
"","","","","","image-keyboard-response","98","146351","0.0-73.0","6298f0e21abd78cb684b723c","665500ab8938657b03fbdba8","665792b8c62b427c88187e04","837","stimuli/2111100.jpg","2","","prediction_trial","2","","true","","2","true","true","false","false","false","false","[1,2,0]","111","100","1","","","","","","",""
"","","","","","image-keyboard-response","99","146525","0.0-74.0","6298f0e21abd78cb684b723c","665500ab8938657b03fbdba8","665792b8c62b427c88187e04","173","stimuli/21111002.jpg"," ","","feedback_trial","1","","","","","","","","","","","","","","","","","","","","",""
"","","","","","image-keyboard-response","100","147116","0.0-75.0","6298f0e21abd78cb684b723c","665500ab8938657b03fbdba8","665792b8c62b427c88187e04","591","stimuli/2001110.jpg","2","","prediction_trial","2","","true","","2","true","true","false","true","false","true","[2]","001","110","1","","","","","","",""
"","","","","","image-keyboard-response","101","147299","0.0-76.0","6298f0e21abd78cb684b723c","665500ab8938657b03fbdba8","665792b8c62b427c88187e04","182","stimuli/20011102.jpg"," ","","feedback_trial","2","","","","","","","","","","","","","","","","","","","","",""
"","","","","","image-keyboard-response","102","148067","0.0-77.0","6298f0e21abd78cb684b723c","665500ab8938657b03fbdba8","665792b8c62b427c88187e04","767","stimuli/2010011.jpg","1","","prediction_trial","2","","false","","2","false","false","true","true","false","false","[2]","010","011","0","","","","","","",""
"","","","","","image-keyboard-response","103","148254","0.0-78.0","6298f0e21abd78cb684b723c","665500ab8938657b03fbdba8","665792b8c62b427c88187e04","187","stimuli/20100112.jpg"," ","","feedback_trial","2","","","","","","","","","","","","","","","","","","","","",""
"","","","","","image-keyboard-response","104","148888","0.0-79.0","6298f0e21abd78cb684b723c","665500ab8938657b03fbdba8","665792b8c62b427c88187e04","634","stimuli/0100100.jpg","0","","prediction_trial","0","","true","","0","false","true","false","true","false","true","[0]","100","100","1","","","","","","",""
"","","","","","image-keyboard-response","105","149050","0.0-80.0","6298f0e21abd78cb684b723c","665500ab8938657b03fbdba8","665792b8c62b427c88187e04","160","stimuli/01001000.jpg"," ","","feedback_trial","0","","","","","","","","","","","","","","","","","","","","",""
"","","","","","image-keyboard-response","106","149687","0.0-81.0","6298f0e21abd78cb684b723c","665500ab8938657b03fbdba8","665792b8c62b427c88187e04","637","stimuli/1000101.jpg","1","","prediction_trial","1","","true","","1","true","true","true","true","true","true","[1]","000","101","1","","","","","","",""
"","","","","","image-keyboard-response","107","149850","0.0-82.0","6298f0e21abd78cb684b723c","665500ab8938657b03fbdba8","665792b8c62b427c88187e04","162","stimuli/10001011.jpg"," ","","feedback_trial","1","","","","","","","","","","","","","","","","","","","","",""
"","","","","","image-keyboard-response","108","150377","0.0-83.0","6298f0e21abd78cb684b723c","665500ab8938657b03fbdba8","665792b8c62b427c88187e04","527","stimuli/2000110.jpg","2","","prediction_trial","2","","true","","2","true","true","true","true","true","true","[2]","000","110","1","","","","","","",""
"","","","","","image-keyboard-response","109","150581","0.0-84.0","6298f0e21abd78cb684b723c","665500ab8938657b03fbdba8","665792b8c62b427c88187e04","203","stimuli/20001102.jpg"," ","","feedback_trial","2","","","","","","","","","","","","","","","","","","","","",""
"","","","","","image-keyboard-response","110","151375","0.0-85.0","6298f0e21abd78cb684b723c","665500ab8938657b03fbdba8","665792b8c62b427c88187e04","790","stimuli/2001010.jpg","2","","prediction_trial","2","","true","","2","true","true","false","true","false","true","[2]","001","010","1","","","","","","",""
"","","","","","image-keyboard-response","111","151591","0.0-86.0","6298f0e21abd78cb684b723c","665500ab8938657b03fbdba8","665792b8c62b427c88187e04","215","stimuli/20010102.jpg"," ","","feedback_trial","2","","","","","","","","","","","","","","","","","","","","",""
"","","","","","image-keyboard-response","112","152250","0.0-87.0","6298f0e21abd78cb684b723c","665500ab8938657b03fbdba8","665792b8c62b427c88187e04","658","stimuli/0100010.jpg","0","","prediction_trial","0","","true","","0","true","true","false","true","false","true","[0]","100","010","1","","","","","","",""
"","","","","","image-keyboard-response","113","152451","0.0-88.0","6298f0e21abd78cb684b723c","665500ab8938657b03fbdba8","665792b8c62b427c88187e04","201","stimuli/01000100.jpg"," ","","feedback_trial","0","","","","","","","","","","","","","","","","","","","","",""
"","","","","","image-keyboard-response","114","153144","0.0-89.0","6298f0e21abd78cb684b723c","665500ab8938657b03fbdba8","665792b8c62b427c88187e04","692","stimuli/1011100.jpg","1","","prediction_trial","2","","false","","1","true","true","false","false","false","false","[2,1]","011","100","0","","","","","","",""
"","","","","","image-keyboard-response","115","153311","0.0-90.0","6298f0e21abd78cb684b723c","665500ab8938657b03fbdba8","665792b8c62b427c88187e04","167","stimuli/10111002.jpg"," ","","feedback_trial","2","","","","","","","","","","","","","","","","","","","","",""
"","","","","","image-keyboard-response","116","154274","0.0-91.0","6298f0e21abd78cb684b723c","665500ab8938657b03fbdba8","665792b8c62b427c88187e04","962","stimuli/0000111.jpg","1","","prediction_trial","0","","false","","0","false","false","true","true","false","false","[0]","000","111","0","","","","","","",""
"","","","","","image-keyboard-response","117","154582","0.0-92.0","6298f0e21abd78cb684b723c","665500ab8938657b03fbdba8","665792b8c62b427c88187e04","307","stimuli/00001110.jpg"," ","","feedback_trial","0","","","","","","","","","","","","","","","","","","","","",""
"","","","","","image-keyboard-response","118","155151","0.0-93.0","6298f0e21abd78cb684b723c","665500ab8938657b03fbdba8","665792b8c62b427c88187e04","568","stimuli/0011000.jpg","0","","prediction_trial","0","","true","","0","true","true","true","true","true","true","[0]","011","000","1","","","","","","",""
"","","","","","image-keyboard-response","119","155392","0.0-94.0","6298f0e21abd78cb684b723c","665500ab8938657b03fbdba8","665792b8c62b427c88187e04","241","stimuli/00110000.jpg"," ","","feedback_trial","0","","","","","","","","","","","","","","","","","","","","",""
"","","","","","image-keyboard-response","120","155984","0.0-95.0","6298f0e21abd78cb684b723c","665500ab8938657b03fbdba8","665792b8c62b427c88187e04","592","stimuli/1011010.jpg","1","","prediction_trial","2","","false","","1","false","true","false","false","false","false","[2,1]","011","010","0","","","","","","",""
"","","","","","image-keyboard-response","121","156247","0.0-96.0","6298f0e21abd78cb684b723c","665500ab8938657b03fbdba8","665792b8c62b427c88187e04","262","stimuli/10110102.jpg"," ","","feedback_trial","2","","","","","","","","","","","","","","","","","","","","",""
"","","","","","image-keyboard-response","122","156886","0.0-97.0","6298f0e21abd78cb684b723c","665500ab8938657b03fbdba8","665792b8c62b427c88187e04","638","stimuli/1100000.jpg","1","","prediction_trial","1","","true","","1","true","true","true","true","true","true","[1]","100","000","1","","","","","","",""
"","","","","","image-keyboard-response","123","157139","0.0-98.0","6298f0e21abd78cb684b723c","665500ab8938657b03fbdba8","665792b8c62b427c88187e04","252","stimuli/11000001.jpg"," ","","feedback_trial","1","","","","","","","","","","","","","","","","","","","","",""
"","","","","","image-keyboard-response","124","157656","0.0-99.0","6298f0e21abd78cb684b723c","665500ab8938657b03fbdba8","665792b8c62b427c88187e04","517","stimuli/0101001.jpg","0","","prediction_trial","0","","true","","0","true","true","false","false","false","false","[2,0]","101","001","1","","","","","","",""
"","","","","","image-keyboard-response","125","157943","0.0-100.0","6298f0e21abd78cb684b723c","665500ab8938657b03fbdba8","665792b8c62b427c88187e04","286","stimuli/01010010.jpg"," ","","feedback_trial","2","","","","","","","","","","","","","","","","","","","","",""
"","","","","","image-keyboard-response","126","158562","0.0-101.0","6298f0e21abd78cb684b723c","665500ab8938657b03fbdba8","665792b8c62b427c88187e04","618","stimuli/2001011.jpg","1","","prediction_trial","2","","false","","2","false","false","false","true","false","false","[2]","001","011","0","","","","","","",""
"","","","","","image-keyboard-response","127","158904","0.0-102.0","6298f0e21abd78cb684b723c","665500ab8938657b03fbdba8","665792b8c62b427c88187e04","342","stimuli/20010112.jpg"," ","","feedback_trial","2","","","","","","","","","","","","","","","","","","","","",""
"","","","","","image-keyboard-response","128","159447","0.0-103.0","6298f0e21abd78cb684b723c","665500ab8938657b03fbdba8","665792b8c62b427c88187e04","540","stimuli/2111110.jpg","2","","prediction_trial","2","","true","","2","true","true","false","false","false","false","[1,2,0]","111","110","1","","","","","","",""
"","","","","","image-keyboard-response","129","159773","0.0-104.0","6298f0e21abd78cb684b723c","665500ab8938657b03fbdba8","665792b8c62b427c88187e04","325","stimuli/21111102.jpg"," ","","feedback_trial","1","","","","","","","","","","","","","","","","","","","","",""
"","","","","","image-keyboard-response","130","160708","0.0-105.0","6298f0e21abd78cb684b723c","665500ab8938657b03fbdba8","665792b8c62b427c88187e04","934","stimuli/1100011.jpg","1","","prediction_trial","1","","true","","1","false","false","true","true","false","false","[1]","100","011","1","","","","","","",""
"","","","","","image-keyboard-response","131","160979","0.0-106.0","6298f0e21abd78cb684b723c","665500ab8938657b03fbdba8","665792b8c62b427c88187e04","271","stimuli/11000111.jpg"," ","","feedback_trial","1","","","","","","","","","","","","","","","","","","","","",""
"","","","","","image-keyboard-response","132","161549","0.0-107.0","6298f0e21abd78cb684b723c","665500ab8938657b03fbdba8","665792b8c62b427c88187e04","569","stimuli/1101011.jpg","1","","prediction_trial","1","","true","","1","false","false","true","true","false","false","[1]","101","011","1","","","","","","",""
"","","","","","image-keyboard-response","133","161829","0.0-108.0","6298f0e21abd78cb684b723c","665500ab8938657b03fbdba8","665792b8c62b427c88187e04","280","stimuli/11010111.jpg"," ","","feedback_trial","1","","","","","","","","","","","","","","","","","","","","",""
"","","","","","image-keyboard-response","134","162387","0.0-109.0","6298f0e21abd78cb684b723c","665500ab8938657b03fbdba8","665792b8c62b427c88187e04","557","stimuli/1110101.jpg","1","","prediction_trial","1","","true","","1","true","true","false","false","false","false","[1,0]","110","101","1","","","","","","",""
"","","","","","image-keyboard-response","135","162655","0.0-110.0","6298f0e21abd78cb684b723c","665500ab8938657b03fbdba8","665792b8c62b427c88187e04","267","stimuli/11101011.jpg"," ","","feedback_trial","1","","","","","","","","","","","","","","","","","","","","",""
"","","","","","image-keyboard-response","136","163339","0.0-111.0","6298f0e21abd78cb684b723c","665500ab8938657b03fbdba8","665792b8c62b427c88187e04","683","stimuli/2101001.jpg","2","","prediction_trial","0","","false","","2","false","true","false","false","false","false","[0,2]","101","001","0","","","","","","",""
"","","","","","image-keyboard-response","137","163590","0.0-112.0","6298f0e21abd78cb684b723c","665500ab8938657b03fbdba8","665792b8c62b427c88187e04","250","stimuli/21010010.jpg"," ","","feedback_trial","0","","","","","","","","","","","","","","","","","","","","",""
"","","","","","image-keyboard-response","138","164253","0.0-113.0","6298f0e21abd78cb684b723c","665500ab8938657b03fbdba8","665792b8c62b427c88187e04","662","stimuli/2001001.jpg","2","","prediction_trial","2","","true","","2","false","true","false","true","false","true","[2]","001","001","1","","","","","","",""
"","","","","","image-keyboard-response","139","164545","0.0-114.0","6298f0e21abd78cb684b723c","665500ab8938657b03fbdba8","665792b8c62b427c88187e04","292","stimuli/20010012.jpg"," ","","feedback_trial","2","","","","","","","","","","","","","","","","","","","","",""
"","","","","","image-keyboard-response","140","165258","0.0-115.0","6298f0e21abd78cb684b723c","665500ab8938657b03fbdba8","665792b8c62b427c88187e04","712","stimuli/1011101.jpg","1","","prediction_trial","1","","true","","1","true","true","false","false","false","false","[2,1]","011","101","1","","","","","","",""
"","","","","","image-keyboard-response","141","165531","0.0-116.0","6298f0e21abd78cb684b723c","665500ab8938657b03fbdba8","665792b8c62b427c88187e04","273","stimuli/10111011.jpg"," ","","feedback_trial","2","","","","","","","","","","","","","","","","","","","","",""
"","","","","","image-keyboard-response","142","166213","0.0-117.0","6298f0e21abd78cb684b723c","665500ab8938657b03fbdba8","665792b8c62b427c88187e04","681","stimuli/1100111.jpg","1","","prediction_trial","1","","true","","1","false","false","true","true","false","false","[1]","100","111","1","","","","","","",""
"","","","","","image-keyboard-response","143","166503","0.0-118.0","6298f0e21abd78cb684b723c","665500ab8938657b03fbdba8","665792b8c62b427c88187e04","289","stimuli/11001111.jpg"," ","","feedback_trial","1","","","","","","","","","","","","","","","","","","","","",""
"","","","","","image-keyboard-response","144","167114","0.0-119.0","6298f0e21abd78cb684b723c","665500ab8938657b03fbdba8","665792b8c62b427c88187e04","610","stimuli/1010001.jpg","1","","prediction_trial","1","","true","","1","true","true","false","true","false","true","[1]","010","001","1","","","","","","",""
"","","","","","image-keyboard-response","145","167392","0.0-120.0","6298f0e21abd78cb684b723c","665500ab8938657b03fbdba8","665792b8c62b427c88187e04","277","stimuli/10100011.jpg"," ","","feedback_trial","1","","","","","","","","","","","","","","","","","","","","",""
"","","","","","image-keyboard-response","146","167794","0.0-121.0","6298f0e21abd78cb684b723c","665500ab8938657b03fbdba8","665792b8c62b427c88187e04","401","stimuli/1100100.jpg","1","","prediction_trial","1","","true","","1","true","true","true","true","true","true","[1]","100","100","1","","","","","","",""
"","","","","","image-keyboard-response","147","168167","0.0-122.0","6298f0e21abd78cb684b723c","665500ab8938657b03fbdba8","665792b8c62b427c88187e04","373","stimuli/11001001.jpg"," ","","feedback_trial","1","","","","","","","","","","","","","","","","","","","","",""
"","","","","","image-keyboard-response","148","168644","0.0-123.0","6298f0e21abd78cb684b723c","665500ab8938657b03fbdba8","665792b8c62b427c88187e04","476","stimuli/0100111.jpg","1","","prediction_trial","0","","false","","0","false","false","false","true","false","false","[0]","100","111","0","","","","","","",""
"","","","","","image-keyboard-response","149","169387","0.0-124.0","6298f0e21abd78cb684b723c","665500ab8938657b03fbdba8","665792b8c62b427c88187e04","743","stimuli/01001110.jpg"," ","","feedback_trial","0","","","","","","","","","","","","","","","","","","","","",""
"","","","","","image-keyboard-response","150","170071","0.0-125.0","6298f0e21abd78cb684b723c","665500ab8938657b03fbdba8","665792b8c62b427c88187e04","683","stimuli/1111011.jpg","1","","prediction_trial","1","","true","","1","false","false","false","false","false","false","[0,1,2]","111","011","1","","","","","","",""
"","","","","","image-keyboard-response","151","170343","0.0-126.0","6298f0e21abd78cb684b723c","665500ab8938657b03fbdba8","665792b8c62b427c88187e04","271","stimuli/11110111.jpg"," ","","feedback_trial","0","","","","","","","","","","","","","","","","","","","","",""
"","","","","","image-keyboard-response","152","170800","0.0-127.0","6298f0e21abd78cb684b723c","665500ab8938657b03fbdba8","665792b8c62b427c88187e04","457","stimuli/2111011.jpg","1","","prediction_trial","1","","true","","2","false","false","false","false","false","false","[0,2,1]","111","011","1","","","","","","",""
"","","","","","image-keyboard-response","153","171128","0.0-128.0","6298f0e21abd78cb684b723c","665500ab8938657b03fbdba8","665792b8c62b427c88187e04","327","stimuli/21110111.jpg"," ","","feedback_trial","0","","","","","","","","","","","","","","","","","","","","",""
"","","","","","image-keyboard-response","154","171476","0.0-129.0","6298f0e21abd78cb684b723c","665500ab8938657b03fbdba8","665792b8c62b427c88187e04","347","stimuli/2111101.jpg","1","","prediction_trial","0","","false","","2","false","false","false","false","false","false","[1,0,2]","111","101","0","","","","","","",""
"","","","","","image-keyboard-response","155","171856","0.0-130.0","6298f0e21abd78cb684b723c","665500ab8938657b03fbdba8","665792b8c62b427c88187e04","379","stimuli/21111010.jpg"," ","","feedback_trial","1","","","","","","","","","","","","","","","","","","","","",""
"","","","","","image-keyboard-response","156","172471","0.0-131.0","6298f0e21abd78cb684b723c","665500ab8938657b03fbdba8","665792b8c62b427c88187e04","614","stimuli/2111000.jpg","2","","prediction_trial","2","","true","","2","true","true","false","false","false","false","[0,2,1]","111","000","1","","","","","","",""
"","","","","","image-keyboard-response","157","172739","0.0-132.0","6298f0e21abd78cb684b723c","665500ab8938657b03fbdba8","665792b8c62b427c88187e04","268","stimuli/21110002.jpg"," ","","feedback_trial","0","","","","","","","","","","","","","","","","","","","","",""
"","","","","","image-keyboard-response","158","173415","0.0-133.0","6298f0e21abd78cb684b723c","665500ab8938657b03fbdba8","665792b8c62b427c88187e04","675","stimuli/0111110.jpg","1","","prediction_trial","2","","false","","0","false","false","false","false","false","false","[2,1,0]","111","110","0","","","","","","",""
"","","","","","image-keyboard-response","159","173660","0.0-134.0","6298f0e21abd78cb684b723c","665500ab8938657b03fbdba8","665792b8c62b427c88187e04","245","stimuli/01111102.jpg"," ","","feedback_trial","2","","","","","","","","","","","","","","","","","","","","",""
"","","","","","image-keyboard-response","160","174316","0.0-135.0","6298f0e21abd78cb684b723c","665500ab8938657b03fbdba8","665792b8c62b427c88187e04","656","stimuli/0110100.jpg","1","","prediction_trial","1","","true","","0","false","true","false","false","false","false","[1,0]","110","100","1","","","","","","",""
"","","","","","image-keyboard-response","161","174584","0.0-136.0","6298f0e21abd78cb684b723c","665500ab8938657b03fbdba8","665792b8c62b427c88187e04","267","stimuli/01101001.jpg"," ","","feedback_trial","1","","","","","","","","","","","","","","","","","","","","",""
"","","","","","image-keyboard-response","162","175177","0.0-137.0","6298f0e21abd78cb684b723c","665500ab8938657b03fbdba8","665792b8c62b427c88187e04","592","stimuli/2110000.jpg","2","","prediction_trial","2","","true","","2","true","true","true","true","true","true","[2]","110","000","1","","","","","","",""
"","","","","","image-keyboard-response","163","175440","0.0-138.0","6298f0e21abd78cb684b723c","665500ab8938657b03fbdba8","665792b8c62b427c88187e04","262","stimuli/21100002.jpg"," ","","feedback_trial","2","","","","","","","","","","","","","","","","","","","","",""
"","","","","","image-keyboard-response","164","176128","0.0-139.0","6298f0e21abd78cb684b723c","665500ab8938657b03fbdba8","665792b8c62b427c88187e04","687","stimuli/2111111.jpg","1","","prediction_trial","2","","false","","2","false","false","false","false","false","false","[1,0,2]","111","111","0","","","","","","",""
"","","","","","image-keyboard-response","165","176406","0.0-140.0","6298f0e21abd78cb684b723c","665500ab8938657b03fbdba8","665792b8c62b427c88187e04","278","stimuli/21111112.jpg"," ","","feedback_trial","1","","","","","","","","","","","","","","","","","","","","",""
"","","","","","image-keyboard-response","166","176888","0.0-141.0","6298f0e21abd78cb684b723c","665500ab8938657b03fbdba8","665792b8c62b427c88187e04","481","stimuli/0110110.jpg","1","","prediction_trial","1","","true","","0","false","false","false","false","false","false","[1,0]","110","110","1","","","","","","",""
"","","","","","image-keyboard-response","167","177196","0.0-142.0","6298f0e21abd78cb684b723c","665500ab8938657b03fbdba8","665792b8c62b427c88187e04","307","stimuli/01101101.jpg"," ","","feedback_trial","1","","","","","","","","","","","","","","","","","","","","",""
"","","","","","image-keyboard-response","168","177663","0.0-143.0","6298f0e21abd78cb684b723c","665500ab8938657b03fbdba8","665792b8c62b427c88187e04","467","stimuli/0001010.jpg","0","","prediction_trial","0","","true","","0","true","true","true","true","true","true","[0]","001","010","1","","","","","","",""
"","","","","","image-keyboard-response","169","177972","0.0-144.0","6298f0e21abd78cb684b723c","665500ab8938657b03fbdba8","665792b8c62b427c88187e04","308","stimuli/00010100.jpg"," ","","feedback_trial","0","","","","","","","","","","","","","","","","","","","","",""
"","","","","","image-keyboard-response","170","178414","0.0-145.0","6298f0e21abd78cb684b723c","665500ab8938657b03fbdba8","665792b8c62b427c88187e04","442","stimuli/0101011.jpg","0","","prediction_trial","0","","true","","0","true","true","false","false","false","false","[2,0]","101","011","1","","","","","","",""
"","","","","","image-keyboard-response","171","178751","0.0-146.0","6298f0e21abd78cb684b723c","665500ab8938657b03fbdba8","665792b8c62b427c88187e04","336","stimuli/01010110.jpg"," ","","feedback_trial","2","","","","","","","","","","","","","","","","","","","","",""
"","","","","","image-keyboard-response","172","179367","0.0-147.0","6298f0e21abd78cb684b723c","665500ab8938657b03fbdba8","665792b8c62b427c88187e04","615","stimuli/2010101.jpg","2","","prediction_trial","2","","true","","2","false","false","true","true","false","false","[2]","010","101","1","","","","","","",""
"","","","","","image-keyboard-response","173","179591","0.0-148.0","6298f0e21abd78cb684b723c","665500ab8938657b03fbdba8","665792b8c62b427c88187e04","223","stimuli/20101012.jpg"," ","","feedback_trial","2","","","","","","","","","","","","","","","","","","","","",""
"","","","","","image-keyboard-response","174","180019","0.0-149.0","6298f0e21abd78cb684b723c","665500ab8938657b03fbdba8","665792b8c62b427c88187e04","427","stimuli/2101000.jpg","2","","prediction_trial","2","","true","","2","true","true","false","false","false","false","[0,2]","101","000","1","","","","","","",""
"","","","","","image-keyboard-response","175","180322","0.0-150.0","6298f0e21abd78cb684b723c","665500ab8938657b03fbdba8","665792b8c62b427c88187e04","302","stimuli/21010002.jpg"," ","","feedback_trial","0","","","","","","","","","","","","","","","","","","","","",""
"","","","","","image-keyboard-response","176","180874","0.0-151.0","6298f0e21abd78cb684b723c","665500ab8938657b03fbdba8","665792b8c62b427c88187e04","552","stimuli/0000101.jpg","2","","prediction_trial","0","","false","","0","false","false","true","true","false","false","[0]","000","101","0","","","","","","",""
"","","","","","image-keyboard-response","177","181233","0.0-152.0","6298f0e21abd78cb684b723c","665500ab8938657b03fbdba8","665792b8c62b427c88187e04","358","stimuli/00001010.jpg"," ","","feedback_trial","0","","","","","","","","","","","","","","","","","","","","",""
"","","","","","image-keyboard-response","178","181815","0.0-153.0","6298f0e21abd78cb684b723c","665500ab8938657b03fbdba8","665792b8c62b427c88187e04","581","stimuli/1111000.jpg","1","","prediction_trial","0","","false","","1","true","true","false","false","false","false","[2,0,1]","111","000","0","","","","","","",""
"","","","","","image-keyboard-response","179","182116","0.0-154.0","6298f0e21abd78cb684b723c","665500ab8938657b03fbdba8","665792b8c62b427c88187e04","300","stimuli/11110000.jpg"," ","","feedback_trial","2","","","","","","","","","","","","","","","","","","","","",""
"","","","","","image-keyboard-response","180","182780","0.0-155.0","6298f0e21abd78cb684b723c","665500ab8938657b03fbdba8","665792b8c62b427c88187e04","664","stimuli/2000111.jpg","1","","prediction_trial","2","","false","","2","false","false","true","true","false","false","[2]","000","111","0","","","","","","",""
"","","","","","image-keyboard-response","181","183214","0.0-156.0","6298f0e21abd78cb684b723c","665500ab8938657b03fbdba8","665792b8c62b427c88187e04","433","stimuli/20001112.jpg"," ","","feedback_trial","2","","","","","","","","","","","","","","","","","","","","",""
"","","","","","image-keyboard-response","182","183669","0.0-157.0","6298f0e21abd78cb684b723c","665500ab8938657b03fbdba8","665792b8c62b427c88187e04","451","stimuli/2110010.jpg","2","","prediction_trial","2","","true","","2","true","true","true","true","true","true","[2]","110","010","1","","","","","","",""
"","","","","","image-keyboard-response","183","183978","0.0-158.0","6298f0e21abd78cb684b723c","665500ab8938657b03fbdba8","665792b8c62b427c88187e04","308","stimuli/21100102.jpg"," ","","feedback_trial","2","","","","","","","","","","","","","","","","","","","","",""
"","","","","","image-keyboard-response","184","184513","0.0-159.0","6298f0e21abd78cb684b723c","665500ab8938657b03fbdba8","665792b8c62b427c88187e04","533","stimuli/2010110.jpg","2","","prediction_trial","2","","true","","2","true","true","true","true","true","true","[2]","010","110","1","","","","","","",""
"","","","","","image-keyboard-response","185","184688","0.0-160.0","6298f0e21abd78cb684b723c","665500ab8938657b03fbdba8","665792b8c62b427c88187e04","175","stimuli/20101102.jpg"," ","","feedback_trial","2","","","","","","","","","","","","","","","","","","","","",""
"","","","","","image-keyboard-response","186","185321","0.0-161.0","6298f0e21abd78cb684b723c","665500ab8938657b03fbdba8","665792b8c62b427c88187e04","632","stimuli/0110010.jpg","0","","prediction_trial","1","","false","","0","true","true","false","false","false","false","[0,1]","110","010","0","","","","","","",""
"","","","","","image-keyboard-response","187","185510","0.0-162.0","6298f0e21abd78cb684b723c","665500ab8938657b03fbdba8","665792b8c62b427c88187e04","188","stimuli/01100101.jpg"," ","","feedback_trial","0","","","","","","","","","","","","","","","","","","","","",""
"","","","","","image-keyboard-response","188","186276","0.0-163.0","6298f0e21abd78cb684b723c","665500ab8938657b03fbdba8","665792b8c62b427c88187e04","766","stimuli/1100010.jpg","1","","prediction_trial","1","","true","","1","false","true","true","true","false","true","[1]","100","010","1","","","","","","",""
"","","","","","image-keyboard-response","189","186455","0.0-164.0","6298f0e21abd78cb684b723c","665500ab8938657b03fbdba8","665792b8c62b427c88187e04","178","stimuli/11000101.jpg"," ","","feedback_trial","1","","","","","","","","","","","","","","","","","","","","",""
"","","","","","image-keyboard-response","190","186924","0.0-165.0","6298f0e21abd78cb684b723c","665500ab8938657b03fbdba8","665792b8c62b427c88187e04","469","stimuli/1101100.jpg","1","","prediction_trial","1","","true","","1","true","true","true","true","true","true","[1]","101","100","1","","","","","","",""
"","","","","","image-keyboard-response","191","187115","0.0-166.0","6298f0e21abd78cb684b723c","665500ab8938657b03fbdba8","665792b8c62b427c88187e04","191","stimuli/11011001.jpg"," ","","feedback_trial","1","","","","","","","","","","","","","","","","","","","","",""
"","","","","","image-keyboard-response","192","187562","0.0-167.0","6298f0e21abd78cb684b723c","665500ab8938657b03fbdba8","665792b8c62b427c88187e04","446","stimuli/1010000.jpg","1","","prediction_trial","1","","true","","1","true","true","false","true","false","true","[1]","010","000","1","","","","","","",""
"","","","","","image-keyboard-response","193","187845","0.0-168.0","6298f0e21abd78cb684b723c","665500ab8938657b03fbdba8","665792b8c62b427c88187e04","282","stimuli/10100001.jpg"," ","","feedback_trial","1","","","","","","","","","","","","","","","","","","","","",""
"","","","","","image-keyboard-response","194","188332","0.0-169.0","6298f0e21abd78cb684b723c","665500ab8938657b03fbdba8","665792b8c62b427c88187e04","487","stimuli/0011010.jpg","0","","prediction_trial","0","","true","","0","true","true","true","true","true","true","[0]","011","010","1","","","","","","",""
"","","","","","image-keyboard-response","195","188495","0.0-170.0","6298f0e21abd78cb684b723c","665500ab8938657b03fbdba8","665792b8c62b427c88187e04","162","stimuli/00110100.jpg"," ","","feedback_trial","0","","","","","","","","","","","","","","","","","","","","",""
"","","","","","image-keyboard-response","196","189051","0.0-171.0","6298f0e21abd78cb684b723c","665500ab8938657b03fbdba8","665792b8c62b427c88187e04","556","stimuli/0010010.jpg","0","","prediction_trial","0","","true","","0","true","true","true","true","true","true","[0]","010","010","1","","","","","","",""
"","","","","","image-keyboard-response","197","189260","0.0-172.0","6298f0e21abd78cb684b723c","665500ab8938657b03fbdba8","665792b8c62b427c88187e04","208","stimuli/00100100.jpg"," ","","feedback_trial","0","","","","","","","","","","","","","","","","","","","","",""
"","","","","","image-keyboard-response","198","190023","0.0-173.0","6298f0e21abd78cb684b723c","665500ab8938657b03fbdba8","665792b8c62b427c88187e04","762","stimuli/2110011.jpg","1","","prediction_trial","2","","false","","2","false","false","true","true","false","false","[2]","110","011","0","","","","","","",""
"","","","","","image-keyboard-response","199","190257","0.0-174.0","6298f0e21abd78cb684b723c","665500ab8938657b03fbdba8","665792b8c62b427c88187e04","233","stimuli/21100112.jpg"," ","","feedback_trial","2","","","","","","","","","","","","","","","","","","","","",""
"","","","","","image-keyboard-response","200","190633","0.0-175.0","6298f0e21abd78cb684b723c","665500ab8938657b03fbdba8","665792b8c62b427c88187e04","372","stimuli/1001110.jpg","2","","prediction_trial","1","","false","","1","false","false","true","true","false","false","[1]","001","110","0","","","","","","",""
"","","","","","image-keyboard-response","201","190936","0.0-176.0","6298f0e21abd78cb684b723c","665500ab8938657b03fbdba8","665792b8c62b427c88187e04","302","stimuli/10011101.jpg"," ","","feedback_trial","1","","","","","","","","","","","","","","","","","","","","",""
"","","","","","image-keyboard-response","202","191510","0.0-177.0","6298f0e21abd78cb684b723c","665500ab8938657b03fbdba8","665792b8c62b427c88187e04","574","stimuli/0000000.jpg","0","","prediction_trial","0","","true","","0","true","true","true","true","true","true","[0]","000","000","1","","","","","","",""
"","","","","","image-keyboard-response","203","191676","0.0-178.0","6298f0e21abd78cb684b723c","665500ab8938657b03fbdba8","665792b8c62b427c88187e04","166","stimuli/00000000.jpg"," ","","feedback_trial","0","","","","","","","","","","","","","","","","","","","","",""
"","","","","","image-keyboard-response","204","192312","0.0-179.0","6298f0e21abd78cb684b723c","665500ab8938657b03fbdba8","665792b8c62b427c88187e04","635","stimuli/0001110.jpg","1","","prediction_trial","0","","false","","0","false","false","true","true","false","false","[0]","001","110","0","","","","","","",""
"","","","","","image-keyboard-response","205","192472","0.0-180.0","6298f0e21abd78cb684b723c","665500ab8938657b03fbdba8","665792b8c62b427c88187e04","159","stimuli/00011100.jpg"," ","","feedback_trial","0","","","","","","","","","","","","","","","","","","","","",""
"","","","","","image-keyboard-response","206","193229","0.0-181.0","6298f0e21abd78cb684b723c","665500ab8938657b03fbdba8","665792b8c62b427c88187e04","757","stimuli/1000010.jpg","1","","prediction_trial","1","","true","","1","false","true","true","true","false","true","[1]","000","010","1","","","","","","",""
"","","","","","image-keyboard-response","207","193382","0.0-182.0","6298f0e21abd78cb684b723c","665500ab8938657b03fbdba8","665792b8c62b427c88187e04","152","stimuli/10000101.jpg"," ","","feedback_trial","1","","","","","","","","","","","","","","","","","","","","",""
"","","","","","image-keyboard-response","208","193816","0.0-183.0","6298f0e21abd78cb684b723c","665500ab8938657b03fbdba8","665792b8c62b427c88187e04","433","stimuli/0010001.jpg","0","","prediction_trial","0","","true","","0","true","true","true","true","true","true","[0]","010","001","1","","","","","","",""
"","","","","","image-keyboard-response","209","194018","0.0-184.0","6298f0e21abd78cb684b723c","665500ab8938657b03fbdba8","665792b8c62b427c88187e04","202","stimuli/00100010.jpg"," ","","feedback_trial","0","","","","","","","","","","","","","","","","","","","","",""
"","","","","","image-keyboard-response","210","194769","0.0-185.0","6298f0e21abd78cb684b723c","665500ab8938657b03fbdba8","665792b8c62b427c88187e04","751","stimuli/2100001.jpg","2","","prediction_trial","2","","true","","2","false","true","true","true","false","true","[2]","100","001","1","","","","","","",""
"","","","","","image-keyboard-response","211","194927","0.0-186.0","6298f0e21abd78cb684b723c","665500ab8938657b03fbdba8","665792b8c62b427c88187e04","157","stimuli/21000012.jpg"," ","","feedback_trial","2","","","","","","","","","","","","","","","","","","","","",""
"","","","","","image-keyboard-response","212","195601","0.0-187.0","6298f0e21abd78cb684b723c","665500ab8938657b03fbdba8","665792b8c62b427c88187e04","673","stimuli/0011101.jpg","2","","prediction_trial","0","","false","","0","false","false","true","true","false","false","[0]","011","101","0","","","","","","",""
"","","","","","image-keyboard-response","213","195760","0.0-188.0","6298f0e21abd78cb684b723c","665500ab8938657b03fbdba8","665792b8c62b427c88187e04","159","stimuli/00111010.jpg"," ","","feedback_trial","0","","","","","","","","","","","","","","","","","","","","",""
"","","","","","image-keyboard-response","214","196423","0.0-189.0","6298f0e21abd78cb684b723c","665500ab8938657b03fbdba8","665792b8c62b427c88187e04","662","stimuli/0111010.jpg","0","","prediction_trial","1","","false","","0","true","true","false","false","false","false","[2,0,1]","111","010","0","","","","","","",""
"","","","","","image-keyboard-response","215","196585","0.0-190.0","6298f0e21abd78cb684b723c","665500ab8938657b03fbdba8","665792b8c62b427c88187e04","162","stimuli/01110101.jpg"," ","","feedback_trial","2","","","","","","","","","","","","","","","","","","","","",""
"","","","","","image-keyboard-response","216","197273","0.0-191.0","6298f0e21abd78cb684b723c","665500ab8938657b03fbdba8","665792b8c62b427c88187e04","687","stimuli/2100111.jpg","1","","prediction_trial","2","","false","","2","false","false","true","true","false","false","[2]","100","111","0","","","","","","",""
"","","","","","image-keyboard-response","217","197427","0.0-192.0","6298f0e21abd78cb684b723c","665500ab8938657b03fbdba8","665792b8c62b427c88187e04","154","stimuli/21001112.jpg"," ","","feedback_trial","2","","","","","","","","","","","","","","","","","","","","",""
"","","","","","image-keyboard-response","218","198008","0.0-193.0","6298f0e21abd78cb684b723c","665500ab8938657b03fbdba8","665792b8c62b427c88187e04","578","stimuli/2110001.jpg","2","","prediction_trial","2","","true","","2","false","true","true","true","false","true","[2]","110","001","1","","","","","","",""
"","","","","","image-keyboard-response","219","198141","0.0-194.0","6298f0e21abd78cb684b723c","665500ab8938657b03fbdba8","665792b8c62b427c88187e04","132","stimuli/21100012.jpg"," ","","feedback_trial","2","","","","","","","","","","","","","","","","","","","","",""
"","","","","","image-keyboard-response","220","198739","0.0-195.0","6298f0e21abd78cb684b723c","665500ab8938657b03fbdba8","665792b8c62b427c88187e04","597","stimuli/0010101.jpg","0","","prediction_trial","0","","true","","0","false","false","true","true","false","false","[0]","010","101","1","","","","","","",""
"","","","","","image-keyboard-response","221","198892","0.0-196.0","6298f0e21abd78cb684b723c","665500ab8938657b03fbdba8","665792b8c62b427c88187e04","152","stimuli/00101010.jpg"," ","","feedback_trial","0","","","","","","","","","","","","","","","","","","","","",""
"","","","","","image-keyboard-response","222","199759","0.0-197.0","6298f0e21abd78cb684b723c","665500ab8938657b03fbdba8","665792b8c62b427c88187e04","867","stimuli/0011111.jpg","1","","prediction_trial","0","","false","","0","false","false","true","true","false","false","[0]","011","111","0","","","","","","",""
"","","","","","image-keyboard-response","223","199972","0.0-198.0","6298f0e21abd78cb684b723c","665500ab8938657b03fbdba8","665792b8c62b427c88187e04","212","stimuli/00111110.jpg"," ","","feedback_trial","0","","","","","","","","","","","","","","","","","","","","",""
"","","","","","image-keyboard-response","224","200675","0.0-199.0","6298f0e21abd78cb684b723c","665500ab8938657b03fbdba8","665792b8c62b427c88187e04","702","stimuli/1010011.jpg","0","","prediction_trial","1","","false","","1","false","false","false","true","false","false","[1]","010","011","0","","","","","","",""
"","","","","","image-keyboard-response","225","200852","0.0-200.0","6298f0e21abd78cb684b723c","665500ab8938657b03fbdba8","665792b8c62b427c88187e04","177","stimuli/10100111.jpg"," ","","feedback_trial","1","","","","","","","","","","","","","","","","","","","","",""
"","","","","","image-keyboard-response","226","201585","0.0-201.0","6298f0e21abd78cb684b723c","665500ab8938657b03fbdba8","665792b8c62b427c88187e04","732","stimuli/2011011.jpg","1","","prediction_trial","2","","false","","2","false","false","false","false","false","false","[1,2]","011","011","0","","","","","","",""
"","","","","","image-keyboard-response","227","201743","0.0-202.0","6298f0e21abd78cb684b723c","665500ab8938657b03fbdba8","665792b8c62b427c88187e04","157","stimuli/20110112.jpg"," ","","feedback_trial","1","","","","","","","","","","","","","","","","","","","","",""
"","","","","","image-keyboard-response","228","202247","0.0-203.0","6298f0e21abd78cb684b723c","665500ab8938657b03fbdba8","665792b8c62b427c88187e04","503","stimuli/2100100.jpg","2","","prediction_trial","2","","true","","2","true","true","true","true","true","true","[2]","100","100","1","","","","","","",""
"","","","","","image-keyboard-response","229","202546","0.0-204.0","6298f0e21abd78cb684b723c","665500ab8938657b03fbdba8","665792b8c62b427c88187e04","298","stimuli/21001002.jpg"," ","","feedback_trial","2","","","","","","","","","","","","","","","","","","","","",""
"","","","","","image-keyboard-response","230","203235","0.0-205.0","6298f0e21abd78cb684b723c","665500ab8938657b03fbdba8","665792b8c62b427c88187e04","689","stimuli/1111001.jpg","1","","prediction_trial","1","","true","","1","true","true","false","false","false","false","[2,0,1]","111","001","1","","","","","","",""
"","","","","","image-keyboard-response","231","203438","0.0-206.0","6298f0e21abd78cb684b723c","665500ab8938657b03fbdba8","665792b8c62b427c88187e04","203","stimuli/11110011.jpg"," ","","feedback_trial","2","","","","","","","","","","","","","","","","","","","","",""
"","","","","","image-keyboard-response","232","204223","0.0-207.0","6298f0e21abd78cb684b723c","665500ab8938657b03fbdba8","665792b8c62b427c88187e04","784","stimuli/0101111.jpg","1","","prediction_trial","0","","false","","0","false","false","false","false","false","false","[2,0]","101","111","0","","","","","","",""
"","","","","","image-keyboard-response","233","204374","0.0-208.0","6298f0e21abd78cb684b723c","665500ab8938657b03fbdba8","665792b8c62b427c88187e04","150","stimuli/01011110.jpg"," ","","feedback_trial","2","","","","","","","","","","","","","","","","","","","","",""
"","","","","","image-keyboard-response","234","204996","0.0-209.0","6298f0e21abd78cb684b723c","665500ab8938657b03fbdba8","665792b8c62b427c88187e04","622","stimuli/0100001.jpg","0","","prediction_trial","0","","true","","0","true","true","false","true","false","true","[0]","100","001","1","","","","","","",""
"","","","","","image-keyboard-response","235","205134","0.0-210.0","6298f0e21abd78cb684b723c","665500ab8938657b03fbdba8","665792b8c62b427c88187e04","136","stimuli/01000010.jpg"," ","","feedback_trial","0","","","","","","","","","","","","","","","","","","","","",""
"","","","","","image-keyboard-response","236","205635","0.0-211.0","6298f0e21abd78cb684b723c","665500ab8938657b03fbdba8","665792b8c62b427c88187e04","498","stimuli/1111101.jpg","1","","prediction_trial","0","","false","","1","true","true","false","false","false","false","[1,0,2]","111","101","0","","","","","","",""
"","","","","","image-keyboard-response","237","205812","0.0-212.0","6298f0e21abd78cb684b723c","665500ab8938657b03fbdba8","665792b8c62b427c88187e04","176","stimuli/11111010.jpg"," ","","feedback_trial","1","","","","","","","","","","","","","","","","","","","","",""
"","","","","","image-keyboard-response","238","206786","0.0-213.0","6298f0e21abd78cb684b723c","665500ab8938657b03fbdba8","665792b8c62b427c88187e04","973","stimuli/0100110.jpg","1","","prediction_trial","0","","false","","0","false","false","false","true","false","false","[0]","100","110","0","","","","","","",""
"","","","","","image-keyboard-response","239","206933","0.0-214.0","6298f0e21abd78cb684b723c","665500ab8938657b03fbdba8","665792b8c62b427c88187e04","146","stimuli/01001100.jpg"," ","","feedback_trial","0","","","","","","","","","","","","","","","","","","","","",""
"","","","","","image-keyboard-response","240","207500","0.0-215.0","6298f0e21abd78cb684b723c","665500ab8938657b03fbdba8","665792b8c62b427c88187e04","566","stimuli/0001111.jpg","0","","prediction_trial","0","","true","","0","false","false","true","true","false","false","[0]","001","111","1","","","","","","",""
"","","","","","image-keyboard-response","241","207639","0.0-216.0","6298f0e21abd78cb684b723c","665500ab8938657b03fbdba8","665792b8c62b427c88187e04","138","stimuli/00011110.jpg"," ","","feedback_trial","0","","","","","","","","","","","","","","","","","","","","",""
"","","","","","image-keyboard-response","242","208020","0.0-217.0","6298f0e21abd78cb684b723c","665500ab8938657b03fbdba8","665792b8c62b427c88187e04","381","stimuli/0001101.jpg","1","","prediction_trial","0","","false","","0","false","false","true","true","false","false","[0]","001","101","0","","","","","","",""
"","","","","","image-keyboard-response","243","208183","0.0-218.0","6298f0e21abd78cb684b723c","665500ab8938657b03fbdba8","665792b8c62b427c88187e04","162","stimuli/00011010.jpg"," ","","feedback_trial","0","","","","","","","","","","","","","","","","","","","","",""
"","","","","","image-keyboard-response","244","208577","0.0-219.0","6298f0e21abd78cb684b723c","665500ab8938657b03fbdba8","665792b8c62b427c88187e04","393","stimuli/0100011.jpg","0","","prediction_trial","0","","true","","0","true","true","false","true","false","true","[0]","100","011","1","","","","","","",""
"","","","","","image-keyboard-response","245","208733","0.0-220.0","6298f0e21abd78cb684b723c","665500ab8938657b03fbdba8","665792b8c62b427c88187e04","155","stimuli/01000110.jpg"," ","","feedback_trial","0","","","","","","","","","","","","","","","","","","","","",""
"","","","","","image-keyboard-response","246","209132","0.0-221.0","6298f0e21abd78cb684b723c","665500ab8938657b03fbdba8","665792b8c62b427c88187e04","399","stimuli/2101110.jpg","1","","prediction_trial","0","","false","","2","true","true","false","false","false","false","[0,2]","101","110","0","","","","","","",""
"","","","","","image-keyboard-response","247","209543","0.0-222.0","6298f0e21abd78cb684b723c","665500ab8938657b03fbdba8","665792b8c62b427c88187e04","410","stimuli/21011100.jpg"," ","","feedback_trial","0","","","","","","","","","","","","","","","","","","","","",""
"","","","","","image-keyboard-response","248","209827","0.0-223.0","6298f0e21abd78cb684b723c","665500ab8938657b03fbdba8","665792b8c62b427c88187e04","283","stimuli/2100101.jpg","2","","prediction_trial","2","","true","","2","false","false","true","true","false","false","[2]","100","101","1","","","","","","",""
"","","","","","image-keyboard-response","249","210019","0.0-224.0","6298f0e21abd78cb684b723c","665500ab8938657b03fbdba8","665792b8c62b427c88187e04","192","stimuli/21001012.jpg"," ","","feedback_trial","2","","","","","","","","","","","","","","","","","","","","",""
"","","","","","image-keyboard-response","250","210400","0.0-225.0","6298f0e21abd78cb684b723c","665500ab8938657b03fbdba8","665792b8c62b427c88187e04","380","stimuli/2100010.jpg","2","","prediction_trial","2","","true","","2","true","true","true","true","true","true","[2]","100","010","1","","","","","","",""
"","","","","","image-keyboard-response","251","210544","0.0-226.0","6298f0e21abd78cb684b723c","665500ab8938657b03fbdba8","665792b8c62b427c88187e04","144","stimuli/21000102.jpg"," ","","feedback_trial","2","","","","","","","","","","","","","","","","","","","","",""
"","","","","","image-keyboard-response","252","211207","0.0-227.0","6298f0e21abd78cb684b723c","665500ab8938657b03fbdba8","665792b8c62b427c88187e04","662","stimuli/0111100.jpg","0","","prediction_trial","0","","true","","0","false","true","false","false","false","false","[1,2,0]","111","100","1","","","","","","",""
"","","","","","image-keyboard-response","253","211365","0.0-228.0","6298f0e21abd78cb684b723c","665500ab8938657b03fbdba8","665792b8c62b427c88187e04","158","stimuli/01111000.jpg"," ","","feedback_trial","1","","","","","","","","","","","","","","","","","","","","",""
"","","","","","image-keyboard-response","254","212200","0.0-229.0","6298f0e21abd78cb684b723c","665500ab8938657b03fbdba8","665792b8c62b427c88187e04","832","stimuli/1110110.jpg","1","","prediction_trial","1","","true","","1","false","false","false","false","false","false","[0,1]","110","110","1","","","","","","",""
"","","","","","image-keyboard-response","255","212309","0.0-230.0","6298f0e21abd78cb684b723c","665500ab8938657b03fbdba8","665792b8c62b427c88187e04","108","stimuli/11101101.jpg"," ","","feedback_trial","0","","","","","","","","","","","","","","","","","","","","",""
"","","","","","image-keyboard-response","256","212805","0.0-231.0","6298f0e21abd78cb684b723c","665500ab8938657b03fbdba8","665792b8c62b427c88187e04","495","stimuli/2101100.jpg","2","","prediction_trial","2","","true","","2","true","true","false","false","false","false","[2,0]","101","100","1","","","","","","",""
"","","","","","image-keyboard-response","257","212936","0.0-232.0","6298f0e21abd78cb684b723c","665500ab8938657b03fbdba8","665792b8c62b427c88187e04","130","stimuli/21011002.jpg"," ","","feedback_trial","2","","","","","","","","","","","","","","","","","","","","",""
"","","","","","image-keyboard-response","258","213487","0.0-233.0","6298f0e21abd78cb684b723c","665500ab8938657b03fbdba8","665792b8c62b427c88187e04","551","stimuli/2110100.jpg","2","","prediction_trial","2","","true","","2","true","true","true","true","true","true","[2]","110","100","1","","","","","","",""
"","","","","","image-keyboard-response","259","213640","0.0-234.0","6298f0e21abd78cb684b723c","665500ab8938657b03fbdba8","665792b8c62b427c88187e04","152","stimuli/21101002.jpg"," ","","feedback_trial","2","","","","","","","","","","","","","","","","","","","","",""
"","","","","","image-keyboard-response","260","214190","0.0-235.0","6298f0e21abd78cb684b723c","665500ab8938657b03fbdba8","665792b8c62b427c88187e04","550","stimuli/0001000.jpg","0","","prediction_trial","0","","true","","0","true","true","true","true","true","true","[0]","001","000","1","","","","","","",""
"","","","","","image-keyboard-response","261","214333","0.0-236.0","6298f0e21abd78cb684b723c","665500ab8938657b03fbdba8","665792b8c62b427c88187e04","141","stimuli/00010000.jpg"," ","","feedback_trial","0","","","","","","","","","","","","","","","","","","","","",""
"","","","","","image-keyboard-response","262","214820","0.0-237.0","6298f0e21abd78cb684b723c","665500ab8938657b03fbdba8","665792b8c62b427c88187e04","487","stimuli/0000010.jpg","0","","prediction_trial","0","","true","","0","true","true","true","true","true","true","[0]","000","010","1","","","","","","",""
"","","","","","image-keyboard-response","263","214966","0.0-238.0","6298f0e21abd78cb684b723c","665500ab8938657b03fbdba8","665792b8c62b427c88187e04","145","stimuli/00000100.jpg"," ","","feedback_trial","0","","","","","","","","","","","","","","","","","","","","",""
"","","","","","image-keyboard-response","264","215566","0.0-239.0","6298f0e21abd78cb684b723c","665500ab8938657b03fbdba8","665792b8c62b427c88187e04","600","stimuli/2011001.jpg","2","","prediction_trial","1","","false","","2","false","true","false","false","false","false","[1,2]","011","001","0","","","","","","",""
"","","","","","image-keyboard-response","265","215713","0.0-240.0","6298f0e21abd78cb684b723c","665500ab8938657b03fbdba8","665792b8c62b427c88187e04","147","stimuli/20110011.jpg"," ","","feedback_trial","1","","","","","","","","","","","","","","","","","","","","",""
"","","","","","image-keyboard-response","266","216941","0.0-241.0","6298f0e21abd78cb684b723c","665500ab8938657b03fbdba8","665792b8c62b427c88187e04","1227","stimuli/1001010.jpg","1","","prediction_trial","1","","true","","1","false","true","true","true","false","true","[1]","001","010","1","","","","","","",""
"","","","","","image-keyboard-response","267","217139","0.0-242.0","6298f0e21abd78cb684b723c","665500ab8938657b03fbdba8","665792b8c62b427c88187e04","197","stimuli/10010101.jpg"," ","","feedback_trial","1","","","","","","","","","","","","","","","","","","","","",""
"","","","","","image-keyboard-response","268","217843","0.0-243.0","6298f0e21abd78cb684b723c","665500ab8938657b03fbdba8","665792b8c62b427c88187e04","703","stimuli/0101000.jpg","0","","prediction_trial","0","","true","","0","true","true","false","false","false","false","[2,0]","101","000","1","","","","","","",""
"","","","","","image-keyboard-response","269","218035","0.0-244.0","6298f0e21abd78cb684b723c","665500ab8938657b03fbdba8","665792b8c62b427c88187e04","191","stimuli/01010000.jpg"," ","","feedback_trial","2","","","","","","","","","","","","","","","","","","","","",""
"","","","","","image-keyboard-response","270","218738","0.0-245.0","6298f0e21abd78cb684b723c","665500ab8938657b03fbdba8","665792b8c62b427c88187e04","703","stimuli/0001100.jpg","0","","prediction_trial","0","","true","","0","false","true","true","true","false","true","[0]","001","100","1","","","","","","",""
"","","","","","image-keyboard-response","271","218900","0.0-246.0","6298f0e21abd78cb684b723c","665500ab8938657b03fbdba8","665792b8c62b427c88187e04","161","stimuli/00011000.jpg"," ","","feedback_trial","0","","","","","","","","","","","","","","","","","","","","",""
"","","","","","image-keyboard-response","272","220107","0.0-247.0","6298f0e21abd78cb684b723c","665500ab8938657b03fbdba8","665792b8c62b427c88187e04","1204","stimuli/1110010.jpg","1","","prediction_trial","0","","false","","1","false","true","false","false","false","false","[0,1]","110","010","0","","","","","","",""
"","","","","","image-keyboard-response","273","220345","0.0-248.0","6298f0e21abd78cb684b723c","665500ab8938657b03fbdba8","665792b8c62b427c88187e04","237","stimuli/11100100.jpg"," ","","feedback_trial","0","","","","","","","","","","","","","","","","","","","","",""
"","","","","","image-keyboard-response","274","220888","0.0-249.0","6298f0e21abd78cb684b723c","665500ab8938657b03fbdba8","665792b8c62b427c88187e04","542","stimuli/2001000.jpg","2","","prediction_trial","2","","true","","2","true","true","false","true","false","true","[2]","001","000","1","","","","","","",""
"","","","","","image-keyboard-response","275","221070","0.0-250.0","6298f0e21abd78cb684b723c","665500ab8938657b03fbdba8","665792b8c62b427c88187e04","182","stimuli/20010002.jpg"," ","","feedback_trial","2","","","","","","","","","","","","","","","","","","","","",""
"","","","","","image-keyboard-response","276","221834","0.0-251.0","6298f0e21abd78cb684b723c","665500ab8938657b03fbdba8","665792b8c62b427c88187e04","763","stimuli/2110111.jpg","1","","prediction_trial","2","","false","","2","false","false","true","true","false","false","[2]","110","111","0","","","","","","",""
"","","","","","image-keyboard-response","277","222041","0.0-252.0","6298f0e21abd78cb684b723c","665500ab8938657b03fbdba8","665792b8c62b427c88187e04","206","stimuli/21101112.jpg"," ","","feedback_trial","2","","","","","","","","","","","","","","","","","","","","",""
"","","","","","image-keyboard-response","278","222972","0.0-253.0","6298f0e21abd78cb684b723c","665500ab8938657b03fbdba8","665792b8c62b427c88187e04","931","stimuli/1001111.jpg","1","","prediction_trial","1","","true","","1","false","false","true","true","false","false","[1]","001","111","1","","","","","","",""
"","","","","","image-keyboard-response","279","223156","0.0-254.0","6298f0e21abd78cb684b723c","665500ab8938657b03fbdba8","665792b8c62b427c88187e04","184","stimuli/10011111.jpg"," ","","feedback_trial","1","","","","","","","","","","","","","","","","","","","","",""
"","","","","","image-keyboard-response","280","223874","0.0-255.0","6298f0e21abd78cb684b723c","665500ab8938657b03fbdba8","665792b8c62b427c88187e04","717","stimuli/1110000.jpg","1","","prediction_trial","0","","false","","1","true","true","false","false","false","false","[1,0]","110","000","0","","","","","","",""
"","","","","","image-keyboard-response","281","224127","0.0-256.0","6298f0e21abd78cb684b723c","665500ab8938657b03fbdba8","665792b8c62b427c88187e04","252","stimuli/11100000.jpg"," ","","feedback_trial","1","","","","","","","","","","","","","","","","","","","","",""
"","","","","","image-keyboard-response","282","224709","0.0-257.0","6298f0e21abd78cb684b723c","665500ab8938657b03fbdba8","665792b8c62b427c88187e04","582","stimuli/1011110.jpg","1","","prediction_trial","1","","true","","1","false","false","false","false","false","false","[2,1]","011","110","1","","","","","","",""
"","","","","","image-keyboard-response","283","224882","0.0-258.0","6298f0e21abd78cb684b723c","665500ab8938657b03fbdba8","665792b8c62b427c88187e04","172","stimuli/10111101.jpg"," ","","feedback_trial","2","","","","","","","","","","","","","","","","","","","","",""
"","","","","","image-keyboard-response","284","225454","0.0-259.0","6298f0e21abd78cb684b723c","665500ab8938657b03fbdba8","665792b8c62b427c88187e04","572","stimuli/1010111.jpg","1","","prediction_trial","1","","true","","1","false","false","false","true","false","false","[1]","010","111","1","","","","","","",""
"","","","","","image-keyboard-response","285","225687","0.0-260.0","6298f0e21abd78cb684b723c","665500ab8938657b03fbdba8","665792b8c62b427c88187e04","232","stimuli/10101111.jpg"," ","","feedback_trial","1","","","","","","","","","","","","","","","","","","","","",""
"","","","","","image-keyboard-response","286","226094","0.0-261.0","6298f0e21abd78cb684b723c","665500ab8938657b03fbdba8","665792b8c62b427c88187e04","407","stimuli/1010100.jpg","1","","prediction_trial","1","","true","","1","true","true","false","true","false","true","[1]","010","100","1","","","","","","",""
"","","","","","image-keyboard-response","287","226282","0.0-262.0","6298f0e21abd78cb684b723c","665500ab8938657b03fbdba8","665792b8c62b427c88187e04","187","stimuli/10101001.jpg"," ","","feedback_trial","1","","","","","","","","","","","","","","","","","","","","",""
"","","","","","image-keyboard-response","288","226645","0.0-263.0","6298f0e21abd78cb684b723c","665500ab8938657b03fbdba8","665792b8c62b427c88187e04","362","stimuli/1001100.jpg","1","","prediction_trial","1","","true","","1","true","true","true","true","true","true","[1]","001","100","1","","","","","","",""
"","","","","","image-keyboard-response","289","226935","0.0-264.0","6298f0e21abd78cb684b723c","665500ab8938657b03fbdba8","665792b8c62b427c88187e04","290","stimuli/10011001.jpg"," ","","feedback_trial","1","","","","","","","","","","","","","","","","","","","","",""
"","","","","","image-keyboard-response","290","227450","0.0-265.0","6298f0e21abd78cb684b723c","665500ab8938657b03fbdba8","665792b8c62b427c88187e04","511","stimuli/0110000.jpg","0","","prediction_trial","1","","false","","0","true","true","false","false","false","false","[0,1]","110","000","0","","","","","","",""
"","","","","","image-keyboard-response","291","227643","0.0-266.0","6298f0e21abd78cb684b723c","665500ab8938657b03fbdba8","665792b8c62b427c88187e04","193","stimuli/01100001.jpg"," ","","feedback_trial","0","","","","","","","","","","","","","","","","","","","","",""
"","","","","","image-keyboard-response","292","228105","0.0-267.0","6298f0e21abd78cb684b723c","665500ab8938657b03fbdba8","665792b8c62b427c88187e04","462","stimuli/0110001.jpg","0","","prediction_trial","0","","true","","0","true","true","false","false","false","false","[1,0]","110","001","1","","","","","","",""
"","","","","","image-keyboard-response","293","228409","0.0-268.0","6298f0e21abd78cb684b723c","665500ab8938657b03fbdba8","665792b8c62b427c88187e04","303","stimuli/01100010.jpg"," ","","feedback_trial","1","","","","","","","","","","","","","","","","","","","","",""
"","","","","","image-keyboard-response","294","229561","0.0-269.0","6298f0e21abd78cb684b723c","665500ab8938657b03fbdba8","665792b8c62b427c88187e04","1152","stimuli/0110111.jpg","2","","prediction_trial","0","","false","","0","false","false","false","false","false","false","[0,1]","110","111","0","","","","","","",""
"","","","","","image-keyboard-response","295","229749","0.0-270.0","6298f0e21abd78cb684b723c","665500ab8938657b03fbdba8","665792b8c62b427c88187e04","187","stimuli/01101110.jpg"," ","","feedback_trial","0","","","","","","","","","","","","","","","","","","","","",""
"","","","","","image-keyboard-response","296","230257","0.0-271.0","6298f0e21abd78cb684b723c","665500ab8938657b03fbdba8","665792b8c62b427c88187e04","508","stimuli/2110110.jpg","2","","prediction_trial","2","","true","","2","true","true","true","true","true","true","[2]","110","110","1","","","","","","",""
"","","","","","image-keyboard-response","297","230464","0.0-272.0","6298f0e21abd78cb684b723c","665500ab8938657b03fbdba8","665792b8c62b427c88187e04","206","stimuli/21101102.jpg"," ","","feedback_trial","2","","","","","","","","","","","","","","","","","","","","",""
"","","","","","image-keyboard-response","298","231192","0.0-273.0","6298f0e21abd78cb684b723c","665500ab8938657b03fbdba8","665792b8c62b427c88187e04","728","stimuli/2110101.jpg","2","","prediction_trial","2","","true","","2","false","false","true","true","false","false","[2]","110","101","1","","","","","","",""
"","","","","","image-keyboard-response","299","231394","0.0-274.0","6298f0e21abd78cb684b723c","665500ab8938657b03fbdba8","665792b8c62b427c88187e04","201","stimuli/21101012.jpg"," ","","feedback_trial","2","","","","","","","","","","","","","","","","","","","","",""
"","","","","","image-keyboard-response","300","232547","0.0-275.0","6298f0e21abd78cb684b723c","665500ab8938657b03fbdba8","665792b8c62b427c88187e04","1152","stimuli/1011001.jpg","1","","prediction_trial","2","","false","","1","true","true","false","false","false","false","[2,1]","011","001","0","","","","","","",""
"","","","","","image-keyboard-response","301","232987","0.0-276.0","6298f0e21abd78cb684b723c","665500ab8938657b03fbdba8","665792b8c62b427c88187e04","440","stimuli/10110012.jpg"," ","","feedback_trial","2","","","","","","","","","","","","","","","","","","","","",""
"","","","","","image-keyboard-response","302","233562","0.0-277.0","6298f0e21abd78cb684b723c","665500ab8938657b03fbdba8","665792b8c62b427c88187e04","575","stimuli/2011110.jpg","2","","prediction_trial","1","","false","","2","true","true","false","false","false","false","[1,2]","011","110","0","","","","","","",""
"","","","","","image-keyboard-response","303","233815","0.0-278.0","6298f0e21abd78cb684b723c","665500ab8938657b03fbdba8","665792b8c62b427c88187e04","252","stimuli/20111101.jpg"," ","","feedback_trial","1","","","","","","","","","","","","","","","","","","","","",""
"","","","","","image-keyboard-response","304","234383","0.0-279.0","6298f0e21abd78cb684b723c","665500ab8938657b03fbdba8","665792b8c62b427c88187e04","567","stimuli/2101101.jpg","2","","prediction_trial","2","","true","","2","false","false","false","false","false","false","[0,2]","101","101","1","","","","","","",""
"","","","","","image-keyboard-response","305","234625","0.0-280.0","6298f0e21abd78cb684b723c","665500ab8938657b03fbdba8","665792b8c62b427c88187e04","242","stimuli/21011012.jpg"," ","","feedback_trial","0","","","","","","","","","","","","","","","","","","","","",""
"","","","","","image-keyboard-response","306","235063","0.0-281.0","6298f0e21abd78cb684b723c","665500ab8938657b03fbdba8","665792b8c62b427c88187e04","437","stimuli/2101010.jpg","2","","prediction_trial","2","","true","","2","true","true","false","false","false","false","[2,0]","101","010","1","","","","","","",""
"","","","","","image-keyboard-response","307","235292","0.0-282.0","6298f0e21abd78cb684b723c","665500ab8938657b03fbdba8","665792b8c62b427c88187e04","228","stimuli/21010102.jpg"," ","","feedback_trial","2","","","","","","","","","","","","","","","","","","","","",""
"","","","","","image-keyboard-response","308","236007","0.0-283.0","6298f0e21abd78cb684b723c","665500ab8938657b03fbdba8","665792b8c62b427c88187e04","714","stimuli/1110111.jpg","2","","prediction_trial","0","","false","","1","false","false","false","false","false","false","[0,1]","110","111","0","","","","","","",""
"","","","","","image-keyboard-response","309","236212","0.0-284.0","6298f0e21abd78cb684b723c","665500ab8938657b03fbdba8","665792b8c62b427c88187e04","204","stimuli/11101110.jpg"," ","","feedback_trial","0","","","","","","","","","","","","","","","","","","","","",""
"","","","","","image-keyboard-response","310","236614","0.0-285.0","6298f0e21abd78cb684b723c","665500ab8938657b03fbdba8","665792b8c62b427c88187e04","401","stimuli/2000001.jpg","2","","prediction_trial","2","","true","","2","false","true","true","true","false","true","[2]","000","001","1","","","","","","",""
"","","","","","image-keyboard-response","311","236942","0.0-286.0","6298f0e21abd78cb684b723c","665500ab8938657b03fbdba8","665792b8c62b427c88187e04","328","stimuli/20000012.jpg"," ","","feedback_trial","2","","","","","","","","","","","","","","","","","","","","",""
"","","","","","image-keyboard-response","312","237955","0.0-287.0","6298f0e21abd78cb684b723c","665500ab8938657b03fbdba8","665792b8c62b427c88187e04","1013","stimuli/1111110.jpg","1","","prediction_trial","0","","false","","1","false","false","false","false","false","false","[0,1,2]","111","110","0","","","","","","",""
"","","","","","image-keyboard-response","313","238147","0.0-288.0","6298f0e21abd78cb684b723c","665500ab8938657b03fbdba8","665792b8c62b427c88187e04","191","stimuli/11111100.jpg"," ","","feedback_trial","0","","","","","","","","","","","","","","","","","","","","",""
"","","","","","image-keyboard-response","314","238844","0.0-289.0","6298f0e21abd78cb684b723c","665500ab8938657b03fbdba8","665792b8c62b427c88187e04","697","stimuli/2111001.jpg","2","","prediction_trial","0","","false","","2","false","true","false","false","false","false","[2,1,0]","111","001","0","","","","","","",""
"","","","","","image-keyboard-response","315","238992","0.0-290.0","6298f0e21abd78cb684b723c","665500ab8938657b03fbdba8","665792b8c62b427c88187e04","148","stimuli/21110010.jpg"," ","","feedback_trial","2","","","","","","","","","","","","","","","","","","","","",""
"","","","","","image-keyboard-response","316","239789","0.0-291.0","6298f0e21abd78cb684b723c","665500ab8938657b03fbdba8","665792b8c62b427c88187e04","796","stimuli/0101110.jpg","1","","prediction_trial","2","","false","","0","false","false","false","false","false","false","[2,0]","101","110","0","","","","","","",""
"","","","","","image-keyboard-response","317","239957","0.0-292.0","6298f0e21abd78cb684b723c","665500ab8938657b03fbdba8","665792b8c62b427c88187e04","167","stimuli/01011102.jpg"," ","","feedback_trial","2","","","","","","","","","","","","","","","","","","","","",""
"","","","","","survey-html-form","318","292236","0.0-293.0","6298f0e21abd78cb684b723c","665500ab8938657b03fbdba8","665792b8c62b427c88187e04","52276","","{""feedback"":""I looked at which baskets were visible by Sam and then whether or not I could see the ball put that info together and narrowed it down as much as possible."",""age"":""46"",""gender"":""Male"",""other_gender"":"""",""race"":""White"",""other_race"":"""",""ethnicity"":""Non-Hispanic""}","","exit_survey","","","","","","","","","","","","","","","","I looked at which baskets were visible by Sam and then whether or not I could see the ball put that info together and narrowed it down as much as possible.","46","Non-Hispanic","Male","White","0.6805555555555556","0.6805555555555556"
