"success","timeout","failed_images","failed_audio","failed_video","trial_type","trial_index","time_elapsed","internal_node_id","prolific_id","prolific_study_id","prolific_session_id","rt","stimulus","response","view_history","trial","character_choice","stimulus_dict","accuracy","correct_response","ball_pos","ego_ball_visible","ego_can_infer","alter_ball_visible","alter_can_infer","collective_ball_visible","collective_can_infer","search_locations","alter_occluders","ego_occluders","accuracy_bool","feedback","age","ethnicity","gender","race","overall_accuracy","bonus"
"true","false","[]","[]","[]","preload","0","2809","0.0-0.0","60d099f849987e86824eedcd","665500ab8938657b03fbdba8","66579297fdeeec2309284392","","","","","","","","","","","","","","","","","","","","","","","","","","",""
"true","","","","","fullscreen","1","9791","0.0-1.0","60d099f849987e86824eedcd","665500ab8938657b03fbdba8","66579297fdeeec2309284392","","","","","","","","","","","","","","","","","","","","","","","","","","",""
"","","","","","html-button-response","2","12732","0.0-2.0","60d099f849987e86824eedcd","665500ab8938657b03fbdba8","66579297fdeeec2309284392","2937","<p><b>Consent Form</b></p> <div style=""text-align:left;background-color:lightgrey; padding:20px; max-width:900px;""><p>Please consider this information carefully before deciding whether to participate in this research.</p> <p>The purpose of this research is to examine which factors influence social judgment and decision-making. You will be asked to make judgements about individuals and actions in social scenarios. We are simply interested in your judgement. The study will take less than 1 hour to complete, and you will receive less than $20 on Prolific. Your compensation and time commitment are specified in the study description. There are no anticipated risks associated with participating in this study. The effects of participating should be comparable to those you would ordinarily experience from viewing a computer monitor and using a mouse or keyboard for a similar amount of time. At the end of the study, we will provide an explanation of the questions that motivate this line of research and will describe the potential implications. </p><p> Your participation in this study is completely voluntary and you may refuse to participate or you may choose to withdraw at any time without penalty or loss of benefits to you which are otherwise entitled. Your participation in this study will remain confidential. No personally identifiable information will be associated with your data. Also, all analyses of the data will be averaged across all the participants, so your individual responses will never be specifically analyzed. </p><p> If you have questions or concerns about your participation or payment, or want to request a summary of research findings, please contact Dr. Jonathan Phillips at Jonathan.S.Phillips@dartmouth.edu. </p><p> Please save a copy of this form for your records. </p><p><b>Agreement: </b>The nature and purpose of this research have been sufficiently explained and I agree to participate in this study. I understand that I am free to withdraw at any time without incurring any penalty. Please consent by clicking the button below to continue. Otherwise, please exit the study at any time. </p>","0","","","","","","","","","","","","","","","","","","","","","","","",""
"","","","","","instructions","3","112491","0.0-3.0-0.0","60d099f849987e86824eedcd","665500ab8938657b03fbdba8","66579297fdeeec2309284392","99755","","","[{""page_index"":0,""viewing_time"":1264},{""page_index"":1,""viewing_time"":1862},{""page_index"":2,""viewing_time"":8839},{""page_index"":3,""viewing_time"":13222},{""page_index"":4,""viewing_time"":2323},{""page_index"":5,""viewing_time"":2370},{""page_index"":6,""viewing_time"":3590},{""page_index"":7,""viewing_time"":3150},{""page_index"":8,""viewing_time"":6289},{""page_index"":9,""viewing_time"":33433},{""page_index"":10,""viewing_time"":10668},{""page_index"":11,""viewing_time"":7527},{""page_index"":12,""viewing_time"":3964},{""page_index"":13,""viewing_time"":1256}]","intro","","","","","","","","","","","","","","","","","","","","","",""
"","","","","","image-keyboard-response","4","115400","0.0-3.0-1.0","60d099f849987e86824eedcd","665500ab8938657b03fbdba8","66579297fdeeec2309284392","2901","stimuli/0011110.jpg","1","","prediction_practice","0","{""filepath"":""stimuli/0011110.jpg"",""ball_pos"":0,""ego_ball_visible"":false,""ego_can_infer"":false,""alter_ball_visible"":true,""alter_can_infer"":true,""collective_ball_visible"":false,""collective_can_infer"":false,""search_locations"":[0],""alter_occluders"":""011"",""ego_occluders"":""110""}","false","","","","","","","","","","","","","","","","","","",""
"","","","","","image-keyboard-response","5","117264","0.0-3.0-2.0","60d099f849987e86824eedcd","665500ab8938657b03fbdba8","66579297fdeeec2309284392","1858","stimuli/00111100.jpg"," ","","practrice_feedback","0","","","","","","","","","","","","","","","","","","","","",""
"","","","","","image-keyboard-response","6","121951","0.0-3.0-3.0","60d099f849987e86824eedcd","665500ab8938657b03fbdba8","66579297fdeeec2309284392","4685","stimuli/2010011.jpg","1","","prediction_practice","2","{""filepath"":""stimuli/2010011.jpg"",""ball_pos"":2,""ego_ball_visible"":false,""ego_can_infer"":false,""alter_ball_visible"":true,""alter_can_infer"":true,""collective_ball_visible"":false,""collective_can_infer"":false,""search_locations"":[2],""alter_occluders"":""010"",""ego_occluders"":""011""}","false","","","","","","","","","","","","","","","","","","",""
"","","","","","image-keyboard-response","7","124469","0.0-3.0-4.0","60d099f849987e86824eedcd","665500ab8938657b03fbdba8","66579297fdeeec2309284392","2515","stimuli/20100112.jpg"," ","","practrice_feedback","2","","","","","","","","","","","","","","","","","","","","",""
"","","","","","image-keyboard-response","8","126015","0.0-3.0-5.0","60d099f849987e86824eedcd","665500ab8938657b03fbdba8","66579297fdeeec2309284392","1545","stimuli/0011001.jpg","0","","prediction_practice","0","{""filepath"":""stimuli/0011001.jpg"",""ball_pos"":0,""ego_ball_visible"":true,""ego_can_infer"":true,""alter_ball_visible"":true,""alter_can_infer"":true,""collective_ball_visible"":true,""collective_can_infer"":true,""search_locations"":[0],""alter_occluders"":""011"",""ego_occluders"":""001""}","true","","","","","","","","","","","","","","","","","","",""
"","","","","","image-keyboard-response","9","126938","0.0-3.0-6.0","60d099f849987e86824eedcd","665500ab8938657b03fbdba8","66579297fdeeec2309284392","921","stimuli/00110010.jpg"," ","","practrice_feedback","0","","","","","","","","","","","","","","","","","","","","",""
"","","","","","image-keyboard-response","10","128103","0.0-3.0-7.0","60d099f849987e86824eedcd","665500ab8938657b03fbdba8","66579297fdeeec2309284392","1163","stimuli/1110100.jpg","1","","prediction_practice","0","{""filepath"":""stimuli/1110100.jpg"",""ball_pos"":1,""ego_ball_visible"":true,""ego_can_infer"":true,""alter_ball_visible"":false,""alter_can_infer"":false,""collective_ball_visible"":false,""collective_can_infer"":false,""search_locations"":[1,0],""alter_occluders"":""110"",""ego_occluders"":""100""}","false","","","","","","","","","","","","","","","","","","",""
"","","","","","image-keyboard-response","11","131514","0.0-3.0-8.0","60d099f849987e86824eedcd","665500ab8938657b03fbdba8","66579297fdeeec2309284392","3409","stimuli/11101000.jpg"," ","","practrice_feedback","1","","","","","","","","","","","","","","","","","","","","",""
"","","","","","image-keyboard-response","12","136352","0.0-3.0-9.0","60d099f849987e86824eedcd","665500ab8938657b03fbdba8","66579297fdeeec2309284392","4835","stimuli/0101010.jpg","0","","prediction_practice","0","{""filepath"":""stimuli/0101010.jpg"",""ball_pos"":0,""ego_ball_visible"":true,""ego_can_infer"":true,""alter_ball_visible"":false,""alter_can_infer"":false,""collective_ball_visible"":false,""collective_can_infer"":false,""search_locations"":[2,0],""alter_occluders"":""101"",""ego_occluders"":""010""}","true","","","","","","","","","","","","","","","","","","",""
"","","","","","image-keyboard-response","13","137431","0.0-3.0-10.0","60d099f849987e86824eedcd","665500ab8938657b03fbdba8","66579297fdeeec2309284392","1077","stimuli/01010100.jpg"," ","","practrice_feedback","2","","","","","","","","","","","","","","","","","","","","",""
"","","","","","image-keyboard-response","14","139488","0.0-3.0-11.0","60d099f849987e86824eedcd","665500ab8938657b03fbdba8","66579297fdeeec2309284392","2054","stimuli/0101110.jpg","1","","prediction_practice","2","{""filepath"":""stimuli/0101110.jpg"",""ball_pos"":0,""ego_ball_visible"":false,""ego_can_infer"":false,""alter_ball_visible"":false,""alter_can_infer"":false,""collective_ball_visible"":false,""collective_can_infer"":false,""search_locations"":[2,0],""alter_occluders"":""101"",""ego_occluders"":""110""}","false","","","","","","","","","","","","","","","","","","",""
"","","","","","image-keyboard-response","15","140452","0.0-3.0-12.0","60d099f849987e86824eedcd","665500ab8938657b03fbdba8","66579297fdeeec2309284392","961","stimuli/01011102.jpg"," ","","practrice_feedback","2","","","","","","","","","","","","","","","","","","","","",""
"","","","","","image-keyboard-response","16","143711","0.0-3.0-13.0","60d099f849987e86824eedcd","665500ab8938657b03fbdba8","66579297fdeeec2309284392","3233","stimuli/2100010.jpg","2","","prediction_practice","2","{""filepath"":""stimuli/2100010.jpg"",""ball_pos"":2,""ego_ball_visible"":true,""ego_can_infer"":true,""alter_ball_visible"":true,""alter_can_infer"":true,""collective_ball_visible"":true,""collective_can_infer"":true,""search_locations"":[2],""alter_occluders"":""100"",""ego_occluders"":""010""}","true","","","","","","","","","","","","","","","","","","",""
"","","","","","image-keyboard-response","17","144864","0.0-3.0-14.0","60d099f849987e86824eedcd","665500ab8938657b03fbdba8","66579297fdeeec2309284392","1151","stimuli/21000102.jpg"," ","","practrice_feedback","2","","","","","","","","","","","","","","","","","","","","",""
"","","","","","image-keyboard-response","18","147368","0.0-3.0-15.0","60d099f849987e86824eedcd","665500ab8938657b03fbdba8","66579297fdeeec2309284392","2502","stimuli/2100111.jpg","2","","prediction_practice","2","{""filepath"":""stimuli/2100111.jpg"",""ball_pos"":2,""ego_ball_visible"":false,""ego_can_infer"":false,""alter_ball_visible"":true,""alter_can_infer"":true,""collective_ball_visible"":false,""collective_can_infer"":false,""search_locations"":[2],""alter_occluders"":""100"",""ego_occluders"":""111""}","true","","","","","","","","","","","","","","","","","","",""
"","","","","","image-keyboard-response","19","148721","0.0-3.0-16.0","60d099f849987e86824eedcd","665500ab8938657b03fbdba8","66579297fdeeec2309284392","1351","stimuli/21001112.jpg"," ","","practrice_feedback","2","","","","","","","","","","","","","","","","","","","","",""
"","","","","","image-keyboard-response","20","151544","0.0-3.0-17.0","60d099f849987e86824eedcd","665500ab8938657b03fbdba8","66579297fdeeec2309284392","2821","stimuli/2001100.jpg","2","","prediction_practice","2","{""filepath"":""stimuli/2001100.jpg"",""ball_pos"":2,""ego_ball_visible"":true,""ego_can_infer"":true,""alter_ball_visible"":false,""alter_can_infer"":true,""collective_ball_visible"":false,""collective_can_infer"":true,""search_locations"":[2],""alter_occluders"":""001"",""ego_occluders"":""100""}","true","","","","","","","","","","","","","","","","","","",""
"","","","","","image-keyboard-response","21","153280","0.0-3.0-18.0","60d099f849987e86824eedcd","665500ab8938657b03fbdba8","66579297fdeeec2309284392","1733","stimuli/20011002.jpg"," ","","practrice_feedback","2","","","","","","","","","","","","","","","","","","","","",""
"","","","","","image-keyboard-response","22","154695","0.0-3.0-19.0","60d099f849987e86824eedcd","665500ab8938657b03fbdba8","66579297fdeeec2309284392","1413","stimuli/2010000.jpg","2","","prediction_practice","2","{""filepath"":""stimuli/2010000.jpg"",""ball_pos"":2,""ego_ball_visible"":true,""ego_can_infer"":true,""alter_ball_visible"":true,""alter_can_infer"":true,""collective_ball_visible"":true,""collective_can_infer"":true,""search_locations"":[2],""alter_occluders"":""010"",""ego_occluders"":""000""}","true","","","","","","","","","","","","","","","","","","",""
"","","","","","image-keyboard-response","23","155895","0.0-3.0-20.0","60d099f849987e86824eedcd","665500ab8938657b03fbdba8","66579297fdeeec2309284392","1197","stimuli/20100002.jpg"," ","","practrice_feedback","2","","","","","","","","","","","","","","","","","","","","",""
"","","","","","html-button-response","24","164691","0.0-3.0-21.0","60d099f849987e86824eedcd","665500ab8938657b03fbdba8","66579297fdeeec2309284392","8794","Now that you've had some practice, you'll be tested with a couple of easy trials. If you correctly predict Sam's choice, you'll move on to complete the experiment!","0","","","","","","","","","","","","","","","","","","","","","","","",""
"","","","","","image-keyboard-response","25","165956","0.0-3.0-22.0-0.0","60d099f849987e86824eedcd","665500ab8938657b03fbdba8","66579297fdeeec2309284392","1262","stimuli/0000011.jpg","arrowleft","","comprehension_quiz","","","true","arrowleft","","","","","","","","","","","","","","","","","",""
"","","","","","image-keyboard-response","26","168918","0.0-3.0-22.0-1.0","60d099f849987e86824eedcd","665500ab8938657b03fbdba8","66579297fdeeec2309284392","2961","stimuli/00000110.jpg"," ","","comprehension_quiz","","","true"," ","","","","","","","","","","","","","","","","","",""
"","","","","","image-keyboard-response","27","170696","0.0-3.0-22.0-2.0","60d099f849987e86824eedcd","665500ab8938657b03fbdba8","66579297fdeeec2309284392","1776","stimuli/1010010.jpg","arrowdown","","comprehension_quiz","","","true","arrowdown","","","","","","","","","","","","","","","","","",""
"","","","","","image-keyboard-response","28","171472","0.0-3.0-22.0-3.0","60d099f849987e86824eedcd","665500ab8938657b03fbdba8","66579297fdeeec2309284392","772","stimuli/10100101.jpg"," ","","comprehension_quiz","","","true"," ","","","","","","","","","","","","","","","","","",""
"","","","","","html-button-response","29","173466","0.0-4.0","60d099f849987e86824eedcd","665500ab8938657b03fbdba8","66579297fdeeec2309284392","1989","The experiment will now begin.","0","","","","","","","","","","","","","","","","","","","","","","","",""
"","","","","","image-keyboard-response","30","176459","0.0-5.0","60d099f849987e86824eedcd","665500ab8938657b03fbdba8","66579297fdeeec2309284392","2990","stimuli/1100111.jpg","0","","prediction_trial","1","","false","","1","false","false","true","true","false","false","[1]","100","111","0","","","","","","",""
"","","","","","image-keyboard-response","31","177752","0.0-6.0","60d099f849987e86824eedcd","665500ab8938657b03fbdba8","66579297fdeeec2309284392","1288","stimuli/11001111.jpg"," ","","feedback_trial","1","","","","","","","","","","","","","","","","","","","","",""
"","","","","","image-keyboard-response","32","180870","0.0-7.0","60d099f849987e86824eedcd","665500ab8938657b03fbdba8","66579297fdeeec2309284392","3116","stimuli/2110101.jpg","0","","prediction_trial","2","","false","","2","false","false","true","true","false","false","[2]","110","101","0","","","","","","",""
"","","","","","image-keyboard-response","33","181601","0.0-8.0","60d099f849987e86824eedcd","665500ab8938657b03fbdba8","66579297fdeeec2309284392","729","stimuli/21101012.jpg"," ","","feedback_trial","2","","","","","","","","","","","","","","","","","","","","",""
"","","","","","image-keyboard-response","34","184444","0.0-9.0","60d099f849987e86824eedcd","665500ab8938657b03fbdba8","66579297fdeeec2309284392","2839","stimuli/2000101.jpg","2","","prediction_trial","2","","true","","2","false","false","true","true","false","false","[2]","000","101","1","","","","","","",""
"","","","","","image-keyboard-response","35","185384","0.0-10.0","60d099f849987e86824eedcd","665500ab8938657b03fbdba8","66579297fdeeec2309284392","937","stimuli/20001012.jpg"," ","","feedback_trial","2","","","","","","","","","","","","","","","","","","","","",""
"","","","","","image-keyboard-response","36","188114","0.0-11.0","60d099f849987e86824eedcd","665500ab8938657b03fbdba8","66579297fdeeec2309284392","2727","stimuli/0000110.jpg","0","","prediction_trial","0","","true","","0","false","false","true","true","false","false","[0]","000","110","1","","","","","","",""
"","","","","","image-keyboard-response","37","188887","0.0-12.0","60d099f849987e86824eedcd","665500ab8938657b03fbdba8","66579297fdeeec2309284392","771","stimuli/00001100.jpg"," ","","feedback_trial","0","","","","","","","","","","","","","","","","","","","","",""
"","","","","","image-keyboard-response","38","191310","0.0-13.0","60d099f849987e86824eedcd","665500ab8938657b03fbdba8","66579297fdeeec2309284392","2421","stimuli/1111110.jpg","0","","prediction_trial","2","","false","","1","false","false","false","false","false","false","[2,0,1]","111","110","0","","","","","","",""
"","","","","","image-keyboard-response","39","192631","0.0-14.0","60d099f849987e86824eedcd","665500ab8938657b03fbdba8","66579297fdeeec2309284392","1318","stimuli/11111102.jpg"," ","","feedback_trial","2","","","","","","","","","","","","","","","","","","","","",""
"","","","","","image-keyboard-response","40","195334","0.0-15.0","60d099f849987e86824eedcd","665500ab8938657b03fbdba8","66579297fdeeec2309284392","2672","stimuli/2110111.jpg","2","","prediction_trial","2","","true","","2","false","false","true","true","false","false","[2]","110","111","1","","","","","","",""
"","","","","","image-keyboard-response","41","196305","0.0-16.0","60d099f849987e86824eedcd","665500ab8938657b03fbdba8","66579297fdeeec2309284392","968","stimuli/21101112.jpg"," ","","feedback_trial","2","","","","","","","","","","","","","","","","","","","","",""
"","","","","","image-keyboard-response","42","199207","0.0-17.0","60d099f849987e86824eedcd","665500ab8938657b03fbdba8","66579297fdeeec2309284392","2900","stimuli/1111101.jpg","2","","prediction_trial","2","","true","","1","true","true","false","false","false","false","[0,2,1]","111","101","1","","","","","","",""
"","","","","","image-keyboard-response","43","205144","0.0-18.0","60d099f849987e86824eedcd","665500ab8938657b03fbdba8","66579297fdeeec2309284392","5934","stimuli/11111012.jpg"," ","","feedback_trial","0","","","","","","","","","","","","","","","","","","","","",""
"","","","","","image-keyboard-response","44","207568","0.0-19.0","60d099f849987e86824eedcd","665500ab8938657b03fbdba8","66579297fdeeec2309284392","2421","stimuli/2011111.jpg","2","","prediction_trial","1","","false","","2","false","false","false","false","false","false","[2,1]","011","111","0","","","","","","",""
"","","","","","image-keyboard-response","45","209954","0.0-20.0","60d099f849987e86824eedcd","665500ab8938657b03fbdba8","66579297fdeeec2309284392","2383","stimuli/20111111.jpg"," ","","feedback_trial","2","","","","","","","","","","","","","","","","","","","","",""
"","","","","","image-keyboard-response","46","211000","0.0-21.0","60d099f849987e86824eedcd","665500ab8938657b03fbdba8","66579297fdeeec2309284392","1043","stimuli/0000000.jpg","0","","prediction_trial","0","","true","","0","true","true","true","true","true","true","[0]","000","000","1","","","","","","",""
"","","","","","image-keyboard-response","47","211761","0.0-22.0","60d099f849987e86824eedcd","665500ab8938657b03fbdba8","66579297fdeeec2309284392","759","stimuli/00000000.jpg"," ","","feedback_trial","0","","","","","","","","","","","","","","","","","","","","",""
"","","","","","image-keyboard-response","48","212623","0.0-23.0","60d099f849987e86824eedcd","665500ab8938657b03fbdba8","66579297fdeeec2309284392","860","stimuli/2100000.jpg","2","","prediction_trial","2","","true","","2","true","true","true","true","true","true","[2]","100","000","1","","","","","","",""
"","","","","","image-keyboard-response","49","213759","0.0-24.0","60d099f849987e86824eedcd","665500ab8938657b03fbdba8","66579297fdeeec2309284392","1134","stimuli/21000002.jpg"," ","","feedback_trial","2","","","","","","","","","","","","","","","","","","","","",""
"","","","","","image-keyboard-response","50","214800","0.0-25.0","60d099f849987e86824eedcd","665500ab8938657b03fbdba8","66579297fdeeec2309284392","1039","stimuli/1000001.jpg","1","","prediction_trial","1","","true","","1","true","true","true","true","true","true","[1]","000","001","1","","","","","","",""
"","","","","","image-keyboard-response","51","215728","0.0-26.0","60d099f849987e86824eedcd","665500ab8938657b03fbdba8","66579297fdeeec2309284392","925","stimuli/10000011.jpg"," ","","feedback_trial","1","","","","","","","","","","","","","","","","","","","","",""
"","","","","","image-keyboard-response","52","219728","0.0-27.0","60d099f849987e86824eedcd","665500ab8938657b03fbdba8","66579297fdeeec2309284392","3997","stimuli/0110100.jpg","1","","prediction_trial","1","","true","","0","false","true","false","false","false","false","[1,0]","110","100","1","","","","","","",""
"","","","","","image-keyboard-response","53","220553","0.0-28.0","60d099f849987e86824eedcd","665500ab8938657b03fbdba8","66579297fdeeec2309284392","822","stimuli/01101001.jpg"," ","","feedback_trial","1","","","","","","","","","","","","","","","","","","","","",""
"","","","","","image-keyboard-response","54","222687","0.0-29.0","60d099f849987e86824eedcd","665500ab8938657b03fbdba8","66579297fdeeec2309284392","2132","stimuli/0101101.jpg","2","","prediction_trial","2","","true","","0","false","false","false","false","false","false","[2,0]","101","101","1","","","","","","",""
"","","","","","image-keyboard-response","55","223417","0.0-30.0","60d099f849987e86824eedcd","665500ab8938657b03fbdba8","66579297fdeeec2309284392","727","stimuli/01011012.jpg"," ","","feedback_trial","2","","","","","","","","","","","","","","","","","","","","",""
"","","","","","image-keyboard-response","56","225008","0.0-31.0","60d099f849987e86824eedcd","665500ab8938657b03fbdba8","66579297fdeeec2309284392","1588","stimuli/0110101.jpg","2","","prediction_trial","1","","false","","0","false","false","false","false","false","false","[1,0]","110","101","0","","","","","","",""
"","","","","","image-keyboard-response","57","225773","0.0-32.0","60d099f849987e86824eedcd","665500ab8938657b03fbdba8","66579297fdeeec2309284392","763","stimuli/01101011.jpg"," ","","feedback_trial","1","","","","","","","","","","","","","","","","","","","","",""
"","","","","","image-keyboard-response","58","228968","0.0-33.0","60d099f849987e86824eedcd","665500ab8938657b03fbdba8","66579297fdeeec2309284392","3193","stimuli/1110111.jpg","2","","prediction_trial","0","","false","","1","false","false","false","false","false","false","[0,1]","110","111","0","","","","","","",""
"","","","","","image-keyboard-response","59","229664","0.0-34.0","60d099f849987e86824eedcd","665500ab8938657b03fbdba8","66579297fdeeec2309284392","693","stimuli/11101110.jpg"," ","","feedback_trial","0","","","","","","","","","","","","","","","","","","","","",""
"","","","","","image-keyboard-response","60","231856","0.0-35.0","60d099f849987e86824eedcd","665500ab8938657b03fbdba8","66579297fdeeec2309284392","2189","stimuli/1010000.jpg","1","","prediction_trial","1","","true","","1","true","true","false","true","false","true","[1]","010","000","1","","","","","","",""
"","","","","","image-keyboard-response","61","232674","0.0-36.0","60d099f849987e86824eedcd","665500ab8938657b03fbdba8","66579297fdeeec2309284392","816","stimuli/10100001.jpg"," ","","feedback_trial","1","","","","","","","","","","","","","","","","","","","","",""
"","","","","","image-keyboard-response","62","234178","0.0-37.0","60d099f849987e86824eedcd","665500ab8938657b03fbdba8","66579297fdeeec2309284392","1501","stimuli/0100011.jpg","0","","prediction_trial","0","","true","","0","true","true","false","true","false","true","[0]","100","011","1","","","","","","",""
"","","","","","image-keyboard-response","63","234992","0.0-38.0","60d099f849987e86824eedcd","665500ab8938657b03fbdba8","66579297fdeeec2309284392","810","stimuli/01000110.jpg"," ","","feedback_trial","0","","","","","","","","","","","","","","","","","","","","",""
"","","","","","image-keyboard-response","64","235896","0.0-39.0","60d099f849987e86824eedcd","665500ab8938657b03fbdba8","66579297fdeeec2309284392","901","stimuli/2110100.jpg","2","","prediction_trial","2","","true","","2","true","true","true","true","true","true","[2]","110","100","1","","","","","","",""
"","","","","","image-keyboard-response","65","236642","0.0-40.0","60d099f849987e86824eedcd","665500ab8938657b03fbdba8","66579297fdeeec2309284392","744","stimuli/21101002.jpg"," ","","feedback_trial","2","","","","","","","","","","","","","","","","","","","","",""
"","","","","","image-keyboard-response","66","237503","0.0-41.0","60d099f849987e86824eedcd","665500ab8938657b03fbdba8","66579297fdeeec2309284392","858","stimuli/0001001.jpg","0","","prediction_trial","0","","true","","0","true","true","true","true","true","true","[0]","001","001","1","","","","","","",""
"","","","","","image-keyboard-response","67","238209","0.0-42.0","60d099f849987e86824eedcd","665500ab8938657b03fbdba8","66579297fdeeec2309284392","704","stimuli/00010010.jpg"," ","","feedback_trial","0","","","","","","","","","","","","","","","","","","","","",""
"","","","","","image-keyboard-response","68","241068","0.0-43.0","60d099f849987e86824eedcd","665500ab8938657b03fbdba8","66579297fdeeec2309284392","2856","stimuli/0110011.jpg","0","","prediction_trial","1","","false","","0","true","true","false","false","false","false","[0,1]","110","011","0","","","","","","",""
"","","","","","image-keyboard-response","69","241770","0.0-44.0","60d099f849987e86824eedcd","665500ab8938657b03fbdba8","66579297fdeeec2309284392","700","stimuli/01100111.jpg"," ","","feedback_trial","0","","","","","","","","","","","","","","","","","","","","",""
"","","","","","image-keyboard-response","70","245344","0.0-45.0","60d099f849987e86824eedcd","665500ab8938657b03fbdba8","66579297fdeeec2309284392","3571","stimuli/0011110.jpg","1","","prediction_trial","0","","false","","0","false","false","true","true","false","false","[0]","011","110","0","","","","","","",""
"","","","","","image-keyboard-response","71","246009","0.0-46.0","60d099f849987e86824eedcd","665500ab8938657b03fbdba8","66579297fdeeec2309284392","663","stimuli/00111100.jpg"," ","","feedback_trial","0","","","","","","","","","","","","","","","","","","","","",""
"","","","","","image-keyboard-response","72","247232","0.0-47.0","60d099f849987e86824eedcd","665500ab8938657b03fbdba8","66579297fdeeec2309284392","1219","stimuli/1011110.jpg","1","","prediction_trial","1","","true","","1","false","false","false","false","false","false","[2,1]","011","110","1","","","","","","",""
"","","","","","image-keyboard-response","73","248072","0.0-48.0","60d099f849987e86824eedcd","665500ab8938657b03fbdba8","66579297fdeeec2309284392","837","stimuli/10111101.jpg"," ","","feedback_trial","2","","","","","","","","","","","","","","","","","","","","",""
"","","","","","image-keyboard-response","74","249191","0.0-49.0","60d099f849987e86824eedcd","665500ab8938657b03fbdba8","66579297fdeeec2309284392","1117","stimuli/1001100.jpg","1","","prediction_trial","1","","true","","1","true","true","true","true","true","true","[1]","001","100","1","","","","","","",""
"","","","","","image-keyboard-response","75","249853","0.0-50.0","60d099f849987e86824eedcd","665500ab8938657b03fbdba8","66579297fdeeec2309284392","659","stimuli/10011001.jpg"," ","","feedback_trial","1","","","","","","","","","","","","","","","","","","","","",""
"","","","","","image-keyboard-response","76","251991","0.0-51.0","60d099f849987e86824eedcd","665500ab8938657b03fbdba8","66579297fdeeec2309284392","2136","stimuli/2101000.jpg","0","","prediction_trial","0","","true","","2","true","true","false","false","false","false","[2,0]","101","000","1","","","","","","",""
"","","","","","image-keyboard-response","77","252586","0.0-52.0","60d099f849987e86824eedcd","665500ab8938657b03fbdba8","66579297fdeeec2309284392","592","stimuli/21010000.jpg"," ","","feedback_trial","2","","","","","","","","","","","","","","","","","","","","",""
"","","","","","image-keyboard-response","78","253831","0.0-53.0","60d099f849987e86824eedcd","665500ab8938657b03fbdba8","66579297fdeeec2309284392","1242","stimuli/1000000.jpg","1","","prediction_trial","1","","true","","1","true","true","true","true","true","true","[1]","000","000","1","","","","","","",""
"","","","","","image-keyboard-response","79","254432","0.0-54.0","60d099f849987e86824eedcd","665500ab8938657b03fbdba8","66579297fdeeec2309284392","599","stimuli/10000001.jpg"," ","","feedback_trial","1","","","","","","","","","","","","","","","","","","","","",""
"","","","","","image-keyboard-response","80","256143","0.0-55.0","60d099f849987e86824eedcd","665500ab8938657b03fbdba8","66579297fdeeec2309284392","1709","stimuli/0100010.jpg","0","","prediction_trial","0","","true","","0","true","true","false","true","false","true","[0]","100","010","1","","","","","","",""
"","","","","","image-keyboard-response","81","256720","0.0-56.0","60d099f849987e86824eedcd","665500ab8938657b03fbdba8","66579297fdeeec2309284392","574","stimuli/01000100.jpg"," ","","feedback_trial","0","","","","","","","","","","","","","","","","","","","","",""
"","","","","","image-keyboard-response","82","259415","0.0-57.0","60d099f849987e86824eedcd","665500ab8938657b03fbdba8","66579297fdeeec2309284392","2693","stimuli/1110011.jpg","1","","prediction_trial","0","","false","","1","false","false","false","false","false","false","[0,1]","110","011","0","","","","","","",""
"","","","","","image-keyboard-response","83","260205","0.0-58.0","60d099f849987e86824eedcd","665500ab8938657b03fbdba8","66579297fdeeec2309284392","787","stimuli/11100110.jpg"," ","","feedback_trial","0","","","","","","","","","","","","","","","","","","","","",""
"","","","","","image-keyboard-response","84","262518","0.0-59.0","60d099f849987e86824eedcd","665500ab8938657b03fbdba8","66579297fdeeec2309284392","2311","stimuli/1110100.jpg","0","","prediction_trial","0","","true","","1","true","true","false","false","false","false","[1,0]","110","100","1","","","","","","",""
"","","","","","image-keyboard-response","85","263095","0.0-60.0","60d099f849987e86824eedcd","665500ab8938657b03fbdba8","66579297fdeeec2309284392","574","stimuli/11101000.jpg"," ","","feedback_trial","1","","","","","","","","","","","","","","","","","","","","",""
"","","","","","image-keyboard-response","86","266637","0.0-61.0","60d099f849987e86824eedcd","665500ab8938657b03fbdba8","66579297fdeeec2309284392","3540","stimuli/0010111.jpg","2","","prediction_trial","0","","false","","0","false","false","true","true","false","false","[0]","010","111","0","","","","","","",""
"","","","","","image-keyboard-response","87","267343","0.0-62.0","60d099f849987e86824eedcd","665500ab8938657b03fbdba8","66579297fdeeec2309284392","705","stimuli/00101110.jpg"," ","","feedback_trial","0","","","","","","","","","","","","","","","","","","","","",""
"","","","","","image-keyboard-response","88","268687","0.0-63.0","60d099f849987e86824eedcd","665500ab8938657b03fbdba8","66579297fdeeec2309284392","1341","stimuli/1100011.jpg","1","","prediction_trial","1","","true","","1","false","false","true","true","false","false","[1]","100","011","1","","","","","","",""
"","","","","","image-keyboard-response","89","269385","0.0-64.0","60d099f849987e86824eedcd","665500ab8938657b03fbdba8","66579297fdeeec2309284392","695","stimuli/11000111.jpg"," ","","feedback_trial","1","","","","","","","","","","","","","","","","","","","","",""
"","","","","","image-keyboard-response","90","271311","0.0-65.0","60d099f849987e86824eedcd","665500ab8938657b03fbdba8","66579297fdeeec2309284392","1924","stimuli/1010101.jpg","1","","prediction_trial","1","","true","","1","true","true","false","true","false","true","[1]","010","101","1","","","","","","",""
"","","","","","image-keyboard-response","91","271890","0.0-66.0","60d099f849987e86824eedcd","665500ab8938657b03fbdba8","66579297fdeeec2309284392","576","stimuli/10101011.jpg"," ","","feedback_trial","1","","","","","","","","","","","","","","","","","","","","",""
"","","","","","image-keyboard-response","92","273160","0.0-67.0","60d099f849987e86824eedcd","665500ab8938657b03fbdba8","66579297fdeeec2309284392","1267","stimuli/0100100.jpg","0","","prediction_trial","0","","true","","0","false","true","false","true","false","true","[0]","100","100","1","","","","","","",""
"","","","","","image-keyboard-response","93","273738","0.0-68.0","60d099f849987e86824eedcd","665500ab8938657b03fbdba8","66579297fdeeec2309284392","576","stimuli/01001000.jpg"," ","","feedback_trial","0","","","","","","","","","","","","","","","","","","","","",""
"","","","","","image-keyboard-response","94","275088","0.0-69.0","60d099f849987e86824eedcd","665500ab8938657b03fbdba8","66579297fdeeec2309284392","1348","stimuli/0100000.jpg","0","","prediction_trial","0","","true","","0","true","true","false","true","false","true","[0]","100","000","1","","","","","","",""
"","","","","","image-keyboard-response","95","275704","0.0-70.0","60d099f849987e86824eedcd","665500ab8938657b03fbdba8","66579297fdeeec2309284392","612","stimuli/01000000.jpg"," ","","feedback_trial","0","","","","","","","","","","","","","","","","","","","","",""
"","","","","","image-keyboard-response","96","276889","0.0-71.0","60d099f849987e86824eedcd","665500ab8938657b03fbdba8","66579297fdeeec2309284392","1182","stimuli/2000010.jpg","2","","prediction_trial","2","","true","","2","true","true","true","true","true","true","[2]","000","010","1","","","","","","",""
"","","","","","image-keyboard-response","97","277473","0.0-72.0","60d099f849987e86824eedcd","665500ab8938657b03fbdba8","66579297fdeeec2309284392","581","stimuli/20000102.jpg"," ","","feedback_trial","2","","","","","","","","","","","","","","","","","","","","",""
"","","","","","image-keyboard-response","98","281479","0.0-73.0","60d099f849987e86824eedcd","665500ab8938657b03fbdba8","66579297fdeeec2309284392","4003","stimuli/2111001.jpg","1","","prediction_trial","0","","false","","2","false","true","false","false","false","false","[0,1,2]","111","001","0","","","","","","",""
"","","","","","image-keyboard-response","99","282142","0.0-74.0","60d099f849987e86824eedcd","665500ab8938657b03fbdba8","66579297fdeeec2309284392","661","stimuli/21110010.jpg"," ","","feedback_trial","0","","","","","","","","","","","","","","","","","","","","",""
"","","","","","image-keyboard-response","100","283424","0.0-75.0","60d099f849987e86824eedcd","665500ab8938657b03fbdba8","66579297fdeeec2309284392","1279","stimuli/0010011.jpg","0","","prediction_trial","0","","true","","0","true","true","true","true","true","true","[0]","010","011","1","","","","","","",""
"","","","","","image-keyboard-response","101","284081","0.0-76.0","60d099f849987e86824eedcd","665500ab8938657b03fbdba8","66579297fdeeec2309284392","655","stimuli/00100110.jpg"," ","","feedback_trial","0","","","","","","","","","","","","","","","","","","","","",""
"","","","","","image-keyboard-response","102","287007","0.0-77.0","60d099f849987e86824eedcd","665500ab8938657b03fbdba8","66579297fdeeec2309284392","2924","stimuli/2000111.jpg","2","","prediction_trial","2","","true","","2","false","false","true","true","false","false","[2]","000","111","1","","","","","","",""
"","","","","","image-keyboard-response","103","287783","0.0-78.0","60d099f849987e86824eedcd","665500ab8938657b03fbdba8","66579297fdeeec2309284392","774","stimuli/20001112.jpg"," ","","feedback_trial","2","","","","","","","","","","","","","","","","","","","","",""
"","","","","","image-keyboard-response","104","288767","0.0-79.0","60d099f849987e86824eedcd","665500ab8938657b03fbdba8","66579297fdeeec2309284392","981","stimuli/1100000.jpg","1","","prediction_trial","1","","true","","1","true","true","true","true","true","true","[1]","100","000","1","","","","","","",""
"","","","","","image-keyboard-response","105","289511","0.0-80.0","60d099f849987e86824eedcd","665500ab8938657b03fbdba8","66579297fdeeec2309284392","741","stimuli/11000001.jpg"," ","","feedback_trial","1","","","","","","","","","","","","","","","","","","","","",""
"","","","","","image-keyboard-response","106","291928","0.0-81.0","60d099f849987e86824eedcd","665500ab8938657b03fbdba8","66579297fdeeec2309284392","2414","stimuli/1100110.jpg","1","","prediction_trial","1","","true","","1","false","false","true","true","false","false","[1]","100","110","1","","","","","","",""
"","","","","","image-keyboard-response","107","292513","0.0-82.0","60d099f849987e86824eedcd","665500ab8938657b03fbdba8","66579297fdeeec2309284392","582","stimuli/11001101.jpg"," ","","feedback_trial","1","","","","","","","","","","","","","","","","","","","","",""
"","","","","","image-keyboard-response","108","293538","0.0-83.0","60d099f849987e86824eedcd","665500ab8938657b03fbdba8","66579297fdeeec2309284392","1022","stimuli/2010010.jpg","2","","prediction_trial","2","","true","","2","true","true","true","true","true","true","[2]","010","010","1","","","","","","",""
"","","","","","image-keyboard-response","109","294104","0.0-84.0","60d099f849987e86824eedcd","665500ab8938657b03fbdba8","66579297fdeeec2309284392","564","stimuli/20100102.jpg"," ","","feedback_trial","2","","","","","","","","","","","","","","","","","","","","",""
"","","","","","image-keyboard-response","110","295391","0.0-85.0","60d099f849987e86824eedcd","665500ab8938657b03fbdba8","66579297fdeeec2309284392","1285","stimuli/2111011.jpg","2","","prediction_trial","1","","false","","2","false","false","false","false","false","false","[1,0,2]","111","011","0","","","","","","",""
"","","","","","image-keyboard-response","111","296016","0.0-86.0","60d099f849987e86824eedcd","665500ab8938657b03fbdba8","66579297fdeeec2309284392","621","stimuli/21110111.jpg"," ","","feedback_trial","1","","","","","","","","","","","","","","","","","","","","",""
"","","","","","image-keyboard-response","112","297479","0.0-87.0","60d099f849987e86824eedcd","665500ab8938657b03fbdba8","66579297fdeeec2309284392","1461","stimuli/0101111.jpg","2","","prediction_trial","2","","true","","0","false","false","false","false","false","false","[0,2]","101","111","1","","","","","","",""
"","","","","","image-keyboard-response","113","298134","0.0-88.0","60d099f849987e86824eedcd","665500ab8938657b03fbdba8","66579297fdeeec2309284392","653","stimuli/01011112.jpg"," ","","feedback_trial","0","","","","","","","","","","","","","","","","","","","","",""
"","","","","","image-keyboard-response","114","299632","0.0-89.0","60d099f849987e86824eedcd","665500ab8938657b03fbdba8","66579297fdeeec2309284392","1495","stimuli/2011110.jpg","1","","prediction_trial","2","","false","","2","true","true","false","false","false","false","[2,1]","011","110","0","","","","","","",""
"","","","","","image-keyboard-response","115","300247","0.0-90.0","60d099f849987e86824eedcd","665500ab8938657b03fbdba8","66579297fdeeec2309284392","613","stimuli/20111102.jpg"," ","","feedback_trial","2","","","","","","","","","","","","","","","","","","","","",""
"","","","","","image-keyboard-response","116","301412","0.0-91.0","60d099f849987e86824eedcd","665500ab8938657b03fbdba8","66579297fdeeec2309284392","1162","stimuli/2011010.jpg","1","","prediction_trial","1","","true","","2","true","true","false","false","false","false","[1,2]","011","010","1","","","","","","",""
"","","","","","image-keyboard-response","117","302070","0.0-92.0","60d099f849987e86824eedcd","665500ab8938657b03fbdba8","66579297fdeeec2309284392","654","stimuli/20110101.jpg"," ","","feedback_trial","1","","","","","","","","","","","","","","","","","","","","",""
"","","","","","image-keyboard-response","118","304025","0.0-93.0","60d099f849987e86824eedcd","665500ab8938657b03fbdba8","66579297fdeeec2309284392","1952","stimuli/0101011.jpg","2","","prediction_trial","0","","false","","0","true","true","false","false","false","false","[0,2]","101","011","0","","","","","","",""
"","","","","","image-keyboard-response","119","304600","0.0-94.0","60d099f849987e86824eedcd","665500ab8938657b03fbdba8","66579297fdeeec2309284392","572","stimuli/01010110.jpg"," ","","feedback_trial","0","","","","","","","","","","","","","","","","","","","","",""
"","","","","","image-keyboard-response","120","305558","0.0-95.0","60d099f849987e86824eedcd","665500ab8938657b03fbdba8","66579297fdeeec2309284392","956","stimuli/1000101.jpg","1","","prediction_trial","1","","true","","1","true","true","true","true","true","true","[1]","000","101","1","","","","","","",""
"","","","","","image-keyboard-response","121","306128","0.0-96.0","60d099f849987e86824eedcd","665500ab8938657b03fbdba8","66579297fdeeec2309284392","569","stimuli/10001011.jpg"," ","","feedback_trial","1","","","","","","","","","","","","","","","","","","","","",""
"","","","","","image-keyboard-response","122","306886","0.0-97.0","60d099f849987e86824eedcd","665500ab8938657b03fbdba8","66579297fdeeec2309284392","756","stimuli/2110000.jpg","2","","prediction_trial","2","","true","","2","true","true","true","true","true","true","[2]","110","000","1","","","","","","",""
"","","","","","image-keyboard-response","123","307432","0.0-98.0","60d099f849987e86824eedcd","665500ab8938657b03fbdba8","66579297fdeeec2309284392","544","stimuli/21100002.jpg"," ","","feedback_trial","2","","","","","","","","","","","","","","","","","","","","",""
"","","","","","image-keyboard-response","124","308505","0.0-99.0","60d099f849987e86824eedcd","665500ab8938657b03fbdba8","66579297fdeeec2309284392","1070","stimuli/0101010.jpg","2","","prediction_trial","0","","false","","0","true","true","false","false","false","false","[2,0]","101","010","0","","","","","","",""
"","","","","","image-keyboard-response","125","309047","0.0-100.0","60d099f849987e86824eedcd","665500ab8938657b03fbdba8","66579297fdeeec2309284392","540","stimuli/01010100.jpg"," ","","feedback_trial","2","","","","","","","","","","","","","","","","","","","","",""
"","","","","","image-keyboard-response","126","310154","0.0-101.0","60d099f849987e86824eedcd","665500ab8938657b03fbdba8","66579297fdeeec2309284392","1104","stimuli/1111001.jpg","0","","prediction_trial","2","","false","","1","true","true","false","false","false","false","[2,0,1]","111","001","0","","","","","","",""
"","","","","","image-keyboard-response","127","310752","0.0-102.0","60d099f849987e86824eedcd","665500ab8938657b03fbdba8","66579297fdeeec2309284392","594","stimuli/11110012.jpg"," ","","feedback_trial","2","","","","","","","","","","","","","","","","","","","","",""
"","","","","","image-keyboard-response","128","312511","0.0-103.0","60d099f849987e86824eedcd","665500ab8938657b03fbdba8","66579297fdeeec2309284392","1756","stimuli/1101100.jpg","2","","prediction_trial","1","","false","","1","true","true","true","true","true","true","[1]","101","100","0","","","","","","",""
"","","","","","image-keyboard-response","129","313072","0.0-104.0","60d099f849987e86824eedcd","665500ab8938657b03fbdba8","66579297fdeeec2309284392","558","stimuli/11011001.jpg"," ","","feedback_trial","1","","","","","","","","","","","","","","","","","","","","",""
"","","","","","image-keyboard-response","130","314159","0.0-105.0","60d099f849987e86824eedcd","665500ab8938657b03fbdba8","66579297fdeeec2309284392","1085","stimuli/2000110.jpg","2","","prediction_trial","2","","true","","2","true","true","true","true","true","true","[2]","000","110","1","","","","","","",""
"","","","","","image-keyboard-response","131","315008","0.0-106.0","60d099f849987e86824eedcd","665500ab8938657b03fbdba8","66579297fdeeec2309284392","847","stimuli/20001102.jpg"," ","","feedback_trial","2","","","","","","","","","","","","","","","","","","","","",""
"","","","","","image-keyboard-response","132","316310","0.0-107.0","60d099f849987e86824eedcd","665500ab8938657b03fbdba8","66579297fdeeec2309284392","1300","stimuli/1010011.jpg","1","","prediction_trial","1","","true","","1","false","false","false","true","false","false","[1]","010","011","1","","","","","","",""
"","","","","","image-keyboard-response","133","316885","0.0-108.0","60d099f849987e86824eedcd","665500ab8938657b03fbdba8","66579297fdeeec2309284392","572","stimuli/10100111.jpg"," ","","feedback_trial","1","","","","","","","","","","","","","","","","","","","","",""
"","","","","","image-keyboard-response","134","318705","0.0-109.0","60d099f849987e86824eedcd","665500ab8938657b03fbdba8","66579297fdeeec2309284392","1819","stimuli/1001011.jpg","2","","prediction_trial","1","","false","","1","false","false","true","true","false","false","[1]","001","011","0","","","","","","",""
"","","","","","image-keyboard-response","135","319258","0.0-110.0","60d099f849987e86824eedcd","665500ab8938657b03fbdba8","66579297fdeeec2309284392","551","stimuli/10010111.jpg"," ","","feedback_trial","1","","","","","","","","","","","","","","","","","","","","",""
"","","","","","image-keyboard-response","136","320271","0.0-111.0","60d099f849987e86824eedcd","665500ab8938657b03fbdba8","66579297fdeeec2309284392","1010","stimuli/2000100.jpg","2","","prediction_trial","2","","true","","2","true","true","true","true","true","true","[2]","000","100","1","","","","","","",""
"","","","","","image-keyboard-response","137","320811","0.0-112.0","60d099f849987e86824eedcd","665500ab8938657b03fbdba8","66579297fdeeec2309284392","537","stimuli/20001002.jpg"," ","","feedback_trial","2","","","","","","","","","","","","","","","","","","","","",""
"","","","","","image-keyboard-response","138","323372","0.0-113.0","60d099f849987e86824eedcd","665500ab8938657b03fbdba8","66579297fdeeec2309284392","2559","stimuli/1110000.jpg","0","","prediction_trial","0","","true","","1","true","true","false","false","false","false","[1,0]","110","000","1","","","","","","",""
"","","","","","image-keyboard-response","139","323864","0.0-114.0","60d099f849987e86824eedcd","665500ab8938657b03fbdba8","66579297fdeeec2309284392","491","stimuli/11100000.jpg"," ","","feedback_trial","1","","","","","","","","","","","","","","","","","","","","",""
"","","","","","image-keyboard-response","140","325503","0.0-115.0","60d099f849987e86824eedcd","665500ab8938657b03fbdba8","66579297fdeeec2309284392","1637","stimuli/1100001.jpg","1","","prediction_trial","1","","true","","1","true","true","true","true","true","true","[1]","100","001","1","","","","","","",""
"","","","","","image-keyboard-response","141","326120","0.0-116.0","60d099f849987e86824eedcd","665500ab8938657b03fbdba8","66579297fdeeec2309284392","614","stimuli/11000011.jpg"," ","","feedback_trial","1","","","","","","","","","","","","","","","","","","","","",""
"","","","","","image-keyboard-response","142","327159","0.0-117.0","60d099f849987e86824eedcd","665500ab8938657b03fbdba8","66579297fdeeec2309284392","1037","stimuli/0011000.jpg","0","","prediction_trial","0","","true","","0","true","true","true","true","true","true","[0]","011","000","1","","","","","","",""
"","","","","","image-keyboard-response","143","327687","0.0-118.0","60d099f849987e86824eedcd","665500ab8938657b03fbdba8","66579297fdeeec2309284392","526","stimuli/00110000.jpg"," ","","feedback_trial","0","","","","","","","","","","","","","","","","","","","","",""
"","","","","","image-keyboard-response","144","328852","0.0-119.0","60d099f849987e86824eedcd","665500ab8938657b03fbdba8","66579297fdeeec2309284392","1162","stimuli/2001001.jpg","2","","prediction_trial","2","","true","","2","false","true","false","true","false","true","[2]","001","001","1","","","","","","",""
"","","","","","image-keyboard-response","145","329331","0.0-120.0","60d099f849987e86824eedcd","665500ab8938657b03fbdba8","66579297fdeeec2309284392","477","stimuli/20010012.jpg"," ","","feedback_trial","2","","","","","","","","","","","","","","","","","","","","",""
"","","","","","image-keyboard-response","146","330546","0.0-121.0","60d099f849987e86824eedcd","665500ab8938657b03fbdba8","66579297fdeeec2309284392","1213","stimuli/0110110.jpg","1","","prediction_trial","1","","true","","0","false","false","false","false","false","false","[1,0]","110","110","1","","","","","","",""
"","","","","","image-keyboard-response","147","331073","0.0-122.0","60d099f849987e86824eedcd","665500ab8938657b03fbdba8","66579297fdeeec2309284392","524","stimuli/01101101.jpg"," ","","feedback_trial","1","","","","","","","","","","","","","","","","","","","","",""
"","","","","","image-keyboard-response","148","332472","0.0-123.0","60d099f849987e86824eedcd","665500ab8938657b03fbdba8","66579297fdeeec2309284392","1396","stimuli/2111110.jpg","0","","prediction_trial","0","","true","","2","true","true","false","false","false","false","[1,2,0]","111","110","1","","","","","","",""
"","","","","","image-keyboard-response","149","332968","0.0-124.0","60d099f849987e86824eedcd","665500ab8938657b03fbdba8","66579297fdeeec2309284392","493","stimuli/21111100.jpg"," ","","feedback_trial","1","","","","","","","","","","","","","","","","","","","","",""
"","","","","","image-keyboard-response","150","335863","0.0-125.0","60d099f849987e86824eedcd","665500ab8938657b03fbdba8","66579297fdeeec2309284392","2861","stimuli/0001100.jpg","0","","prediction_trial","0","","true","","0","false","true","true","true","false","true","[0]","001","100","1","","","","","","",""
"","","","","","image-keyboard-response","151","336375","0.0-126.0","60d099f849987e86824eedcd","665500ab8938657b03fbdba8","66579297fdeeec2309284392","509","stimuli/00011000.jpg"," ","","feedback_trial","0","","","","","","","","","","","","","","","","","","","","",""
"","","","","","image-keyboard-response","152","337159","0.0-127.0","60d099f849987e86824eedcd","665500ab8938657b03fbdba8","66579297fdeeec2309284392","782","stimuli/2000000.jpg","2","","prediction_trial","2","","true","","2","true","true","true","true","true","true","[2]","000","000","1","","","","","","",""
"","","","","","image-keyboard-response","153","337783","0.0-128.0","60d099f849987e86824eedcd","665500ab8938657b03fbdba8","66579297fdeeec2309284392","620","stimuli/20000002.jpg"," ","","feedback_trial","2","","","","","","","","","","","","","","","","","","","","",""
"","","","","","image-keyboard-response","154","338945","0.0-129.0","60d099f849987e86824eedcd","665500ab8938657b03fbdba8","66579297fdeeec2309284392","1158","stimuli/1010001.jpg","1","","prediction_trial","1","","true","","1","true","true","false","true","false","true","[1]","010","001","1","","","","","","",""
"","","","","","image-keyboard-response","155","339409","0.0-130.0","60d099f849987e86824eedcd","665500ab8938657b03fbdba8","66579297fdeeec2309284392","462","stimuli/10100011.jpg"," ","","feedback_trial","1","","","","","","","","","","","","","","","","","","","","",""
"","","","","","image-keyboard-response","156","340304","0.0-131.0","60d099f849987e86824eedcd","665500ab8938657b03fbdba8","66579297fdeeec2309284392","892","stimuli/0000100.jpg","0","","prediction_trial","0","","true","","0","false","true","true","true","false","true","[0]","000","100","1","","","","","","",""
"","","","","","image-keyboard-response","157","340808","0.0-132.0","60d099f849987e86824eedcd","665500ab8938657b03fbdba8","66579297fdeeec2309284392","502","stimuli/00001000.jpg"," ","","feedback_trial","0","","","","","","","","","","","","","","","","","","","","",""
"","","","","","image-keyboard-response","158","341518","0.0-133.0","60d099f849987e86824eedcd","665500ab8938657b03fbdba8","66579297fdeeec2309284392","707","stimuli/0000010.jpg","0","","prediction_trial","0","","true","","0","true","true","true","true","true","true","[0]","000","010","1","","","","","","",""
"","","","","","image-keyboard-response","159","341992","0.0-134.0","60d099f849987e86824eedcd","665500ab8938657b03fbdba8","66579297fdeeec2309284392","472","stimuli/00000100.jpg"," ","","feedback_trial","0","","","","","","","","","","","","","","","","","","","","",""
"","","","","","image-keyboard-response","160","342980","0.0-135.0","60d099f849987e86824eedcd","665500ab8938657b03fbdba8","66579297fdeeec2309284392","986","stimuli/0000101.jpg","2","","prediction_trial","0","","false","","0","false","false","true","true","false","false","[0]","000","101","0","","","","","","",""
"","","","","","image-keyboard-response","161","343553","0.0-136.0","60d099f849987e86824eedcd","665500ab8938657b03fbdba8","66579297fdeeec2309284392","557","stimuli/00001010.jpg"," ","","feedback_trial","0","","","","","","","","","","","","","","","","","","","","",""
"","","","","","image-keyboard-response","162","344345","0.0-137.0","60d099f849987e86824eedcd","665500ab8938657b03fbdba8","66579297fdeeec2309284392","789","stimuli/0111011.jpg","0","","prediction_trial","1","","false","","0","true","true","false","false","false","false","[0,1,2]","111","011","0","","","","","","",""
"","","","","","image-keyboard-response","163","345656","0.0-138.0","60d099f849987e86824eedcd","665500ab8938657b03fbdba8","66579297fdeeec2309284392","1309","stimuli/01110111.jpg"," ","","feedback_trial","0","","","","","","","","","","","","","","","","","","","","",""
"","","","","","image-keyboard-response","164","346367","0.0-139.0","60d099f849987e86824eedcd","665500ab8938657b03fbdba8","66579297fdeeec2309284392","708","stimuli/2010110.jpg","2","","prediction_trial","2","","true","","2","true","true","true","true","true","true","[2]","010","110","1","","","","","","",""
"","","","","","image-keyboard-response","165","346908","0.0-140.0","60d099f849987e86824eedcd","665500ab8938657b03fbdba8","66579297fdeeec2309284392","539","stimuli/20101102.jpg"," ","","feedback_trial","2","","","","","","","","","","","","","","","","","","","","",""
"","","","","","image-keyboard-response","166","348952","0.0-141.0","60d099f849987e86824eedcd","665500ab8938657b03fbdba8","66579297fdeeec2309284392","2043","stimuli/1001010.jpg","1","","prediction_trial","1","","true","","1","false","true","true","true","false","true","[1]","001","010","1","","","","","","",""
"","","","","","image-keyboard-response","167","349408","0.0-142.0","60d099f849987e86824eedcd","665500ab8938657b03fbdba8","66579297fdeeec2309284392","453","stimuli/10010101.jpg"," ","","feedback_trial","1","","","","","","","","","","","","","","","","","","","","",""
"","","","","","image-keyboard-response","168","351127","0.0-143.0","60d099f849987e86824eedcd","665500ab8938657b03fbdba8","66579297fdeeec2309284392","1716","stimuli/0110010.jpg","1","","prediction_trial","1","","true","","0","true","true","false","false","false","false","[0,1]","110","010","1","","","","","","",""
"","","","","","image-keyboard-response","169","351656","0.0-144.0","60d099f849987e86824eedcd","665500ab8938657b03fbdba8","66579297fdeeec2309284392","527","stimuli/01100101.jpg"," ","","feedback_trial","0","","","","","","","","","","","","","","","","","","","","",""
"","","","","","image-keyboard-response","170","353236","0.0-145.0","60d099f849987e86824eedcd","665500ab8938657b03fbdba8","66579297fdeeec2309284392","1578","stimuli/2011001.jpg","2","","prediction_trial","1","","false","","2","false","true","false","false","false","false","[1,2]","011","001","0","","","","","","",""
"","","","","","image-keyboard-response","171","353799","0.0-146.0","60d099f849987e86824eedcd","665500ab8938657b03fbdba8","66579297fdeeec2309284392","562","stimuli/20110011.jpg"," ","","feedback_trial","1","","","","","","","","","","","","","","","","","","","","",""
"","","","","","image-keyboard-response","172","355354","0.0-147.0","60d099f849987e86824eedcd","665500ab8938657b03fbdba8","66579297fdeeec2309284392","1523","stimuli/0001111.jpg","2","","prediction_trial","0","","false","","0","false","false","true","true","false","false","[0]","001","111","0","","","","","","",""
"","","","","","image-keyboard-response","173","355909","0.0-148.0","60d099f849987e86824eedcd","665500ab8938657b03fbdba8","66579297fdeeec2309284392","552","stimuli/00011110.jpg"," ","","feedback_trial","0","","","","","","","","","","","","","","","","","","","","",""
"","","","","","image-keyboard-response","174","357393","0.0-149.0","60d099f849987e86824eedcd","665500ab8938657b03fbdba8","66579297fdeeec2309284392","1479","stimuli/0011100.jpg","0","","prediction_trial","0","","true","","0","false","true","true","true","false","true","[0]","011","100","1","","","","","","",""
"","","","","","image-keyboard-response","175","358042","0.0-150.0","60d099f849987e86824eedcd","665500ab8938657b03fbdba8","66579297fdeeec2309284392","647","stimuli/00111000.jpg"," ","","feedback_trial","0","","","","","","","","","","","","","","","","","","","","",""
"","","","","","image-keyboard-response","176","360896","0.0-151.0","60d099f849987e86824eedcd","665500ab8938657b03fbdba8","66579297fdeeec2309284392","2851","stimuli/1101011.jpg","2","","prediction_trial","1","","false","","1","false","false","true","true","false","false","[1]","101","011","0","","","","","","",""
"","","","","","image-keyboard-response","177","361548","0.0-152.0","60d099f849987e86824eedcd","665500ab8938657b03fbdba8","66579297fdeeec2309284392","650","stimuli/11010111.jpg"," ","","feedback_trial","1","","","","","","","","","","","","","","","","","","","","",""
"","","","","","image-keyboard-response","178","363191","0.0-153.0","60d099f849987e86824eedcd","665500ab8938657b03fbdba8","66579297fdeeec2309284392","1640","stimuli/2111100.jpg","1","","prediction_trial","0","","false","","2","true","true","false","false","false","false","[0,1,2]","111","100","0","","","","","","",""
"","","","","","image-keyboard-response","179","363752","0.0-154.0","60d099f849987e86824eedcd","665500ab8938657b03fbdba8","66579297fdeeec2309284392","560","stimuli/21111000.jpg"," ","","feedback_trial","0","","","","","","","","","","","","","","","","","","","","",""
"","","","","","image-keyboard-response","180","365271","0.0-155.0","60d099f849987e86824eedcd","665500ab8938657b03fbdba8","66579297fdeeec2309284392","1516","stimuli/1000011.jpg","2","","prediction_trial","1","","false","","1","false","false","true","true","false","false","[1]","000","011","0","","","","","","",""
"","","","","","image-keyboard-response","181","366033","0.0-156.0","60d099f849987e86824eedcd","665500ab8938657b03fbdba8","66579297fdeeec2309284392","760","stimuli/10000111.jpg"," ","","feedback_trial","1","","","","","","","","","","","","","","","","","","","","",""
"","","","","","image-keyboard-response","182","367207","0.0-157.0","60d099f849987e86824eedcd","665500ab8938657b03fbdba8","66579297fdeeec2309284392","1171","stimuli/0011101.jpg","2","","prediction_trial","0","","false","","0","false","false","true","true","false","false","[0]","011","101","0","","","","","","",""
"","","","","","image-keyboard-response","183","367903","0.0-158.0","60d099f849987e86824eedcd","665500ab8938657b03fbdba8","66579297fdeeec2309284392","692","stimuli/00111010.jpg"," ","","feedback_trial","0","","","","","","","","","","","","","","","","","","","","",""
"","","","","","image-keyboard-response","184","368912","0.0-159.0","60d099f849987e86824eedcd","665500ab8938657b03fbdba8","66579297fdeeec2309284392","1006","stimuli/0001010.jpg","0","","prediction_trial","0","","true","","0","true","true","true","true","true","true","[0]","001","010","1","","","","","","",""
"","","","","","image-keyboard-response","185","369529","0.0-160.0","60d099f849987e86824eedcd","665500ab8938657b03fbdba8","66579297fdeeec2309284392","615","stimuli/00010100.jpg"," ","","feedback_trial","0","","","","","","","","","","","","","","","","","","","","",""
"","","","","","image-keyboard-response","186","370287","0.0-161.0","60d099f849987e86824eedcd","665500ab8938657b03fbdba8","66579297fdeeec2309284392","755","stimuli/1001001.jpg","1","","prediction_trial","1","","true","","1","true","true","true","true","true","true","[1]","001","001","1","","","","","","",""
"","","","","","image-keyboard-response","187","370783","0.0-162.0","60d099f849987e86824eedcd","665500ab8938657b03fbdba8","66579297fdeeec2309284392","493","stimuli/10010011.jpg"," ","","feedback_trial","1","","","","","","","","","","","","","","","","","","","","",""
"","","","","","image-keyboard-response","188","371393","0.0-163.0","60d099f849987e86824eedcd","665500ab8938657b03fbdba8","66579297fdeeec2309284392","607","stimuli/2100110.jpg","2","","prediction_trial","2","","true","","2","true","true","true","true","true","true","[2]","100","110","1","","","","","","",""
"","","","","","image-keyboard-response","189","371882","0.0-164.0","60d099f849987e86824eedcd","665500ab8938657b03fbdba8","66579297fdeeec2309284392","486","stimuli/21001102.jpg"," ","","feedback_trial","2","","","","","","","","","","","","","","","","","","","","",""
"","","","","","image-keyboard-response","190","372719","0.0-165.0","60d099f849987e86824eedcd","665500ab8938657b03fbdba8","66579297fdeeec2309284392","835","stimuli/1111111.jpg","1","","prediction_trial","0","","false","","1","false","false","false","false","false","false","[0,1,2]","111","111","0","","","","","","",""
"","","","","","image-keyboard-response","191","373208","0.0-166.0","60d099f849987e86824eedcd","665500ab8938657b03fbdba8","66579297fdeeec2309284392","487","stimuli/11111110.jpg"," ","","feedback_trial","0","","","","","","","","","","","","","","","","","","","","",""
"","","","","","image-keyboard-response","192","375359","0.0-167.0","60d099f849987e86824eedcd","665500ab8938657b03fbdba8","66579297fdeeec2309284392","2148","stimuli/1100010.jpg","1","","prediction_trial","1","","true","","1","false","true","true","true","false","true","[1]","100","010","1","","","","","","",""
"","","","","","image-keyboard-response","193","375823","0.0-168.0","60d099f849987e86824eedcd","665500ab8938657b03fbdba8","66579297fdeeec2309284392","461","stimuli/11000101.jpg"," ","","feedback_trial","1","","","","","","","","","","","","","","","","","","","","",""
"","","","","","image-keyboard-response","194","377247","0.0-169.0","60d099f849987e86824eedcd","665500ab8938657b03fbdba8","66579297fdeeec2309284392","1420","stimuli/2111010.jpg","1","","prediction_trial","0","","false","","2","true","true","false","false","false","false","[0,2,1]","111","010","0","","","","","","",""
"","","","","","image-keyboard-response","195","377778","0.0-170.0","60d099f849987e86824eedcd","665500ab8938657b03fbdba8","66579297fdeeec2309284392","528","stimuli/21110100.jpg"," ","","feedback_trial","0","","","","","","","","","","","","","","","","","","","","",""
"","","","","","image-keyboard-response","196","379838","0.0-171.0","60d099f849987e86824eedcd","665500ab8938657b03fbdba8","66579297fdeeec2309284392","2058","stimuli/2100111.jpg","1","","prediction_trial","2","","false","","2","false","false","true","true","false","false","[2]","100","111","0","","","","","","",""
"","","","","","image-keyboard-response","197","380365","0.0-172.0","60d099f849987e86824eedcd","665500ab8938657b03fbdba8","66579297fdeeec2309284392","525","stimuli/21001112.jpg"," ","","feedback_trial","2","","","","","","","","","","","","","","","","","","","","",""
"","","","","","image-keyboard-response","198","382500","0.0-173.0","60d099f849987e86824eedcd","665500ab8938657b03fbdba8","66579297fdeeec2309284392","2134","stimuli/1101110.jpg","1","","prediction_trial","1","","true","","1","false","false","true","true","false","false","[1]","101","110","1","","","","","","",""
"","","","","","image-keyboard-response","199","382984","0.0-174.0","60d099f849987e86824eedcd","665500ab8938657b03fbdba8","66579297fdeeec2309284392","483","stimuli/11011101.jpg"," ","","feedback_trial","1","","","","","","","","","","","","","","","","","","","","",""
"","","","","","image-keyboard-response","200","384311","0.0-175.0","60d099f849987e86824eedcd","665500ab8938657b03fbdba8","66579297fdeeec2309284392","1324","stimuli/2101001.jpg","2","","prediction_trial","0","","false","","2","false","true","false","false","false","false","[0,2]","101","001","0","","","","","","",""
"","","","","","image-keyboard-response","201","385072","0.0-176.0","60d099f849987e86824eedcd","665500ab8938657b03fbdba8","66579297fdeeec2309284392","758","stimuli/21010010.jpg"," ","","feedback_trial","0","","","","","","","","","","","","","","","","","","","","",""
"","","","","","image-keyboard-response","202","387528","0.0-177.0","60d099f849987e86824eedcd","665500ab8938657b03fbdba8","66579297fdeeec2309284392","2453","stimuli/0010110.jpg","1","","prediction_trial","0","","false","","0","false","false","true","true","false","false","[0]","010","110","0","","","","","","",""
"","","","","","image-keyboard-response","203","387937","0.0-178.0","60d099f849987e86824eedcd","665500ab8938657b03fbdba8","66579297fdeeec2309284392","406","stimuli/00101100.jpg"," ","","feedback_trial","0","","","","","","","","","","","","","","","","","","","","",""
"","","","","","image-keyboard-response","204","390857","0.0-179.0","60d099f849987e86824eedcd","665500ab8938657b03fbdba8","66579297fdeeec2309284392","2918","stimuli/2110011.jpg","1","","prediction_trial","2","","false","","2","false","false","true","true","false","false","[2]","110","011","0","","","","","","",""
"","","","","","image-keyboard-response","205","391447","0.0-180.0","60d099f849987e86824eedcd","665500ab8938657b03fbdba8","66579297fdeeec2309284392","587","stimuli/21100112.jpg"," ","","feedback_trial","2","","","","","","","","","","","","","","","","","","","","",""
"","","","","","image-keyboard-response","206","393695","0.0-181.0","60d099f849987e86824eedcd","665500ab8938657b03fbdba8","66579297fdeeec2309284392","2245","stimuli/0001110.jpg","1","","prediction_trial","0","","false","","0","false","false","true","true","false","false","[0]","001","110","0","","","","","","",""
"","","","","","image-keyboard-response","207","394220","0.0-182.0","60d099f849987e86824eedcd","665500ab8938657b03fbdba8","66579297fdeeec2309284392","522","stimuli/00011100.jpg"," ","","feedback_trial","0","","","","","","","","","","","","","","","","","","","","",""
"","","","","","image-keyboard-response","208","395823","0.0-183.0","60d099f849987e86824eedcd","665500ab8938657b03fbdba8","66579297fdeeec2309284392","1602","stimuli/1010010.jpg","1","","prediction_trial","1","","true","","1","false","true","false","true","false","true","[1]","010","010","1","","","","","","",""
"","","","","","image-keyboard-response","209","396290","0.0-184.0","60d099f849987e86824eedcd","665500ab8938657b03fbdba8","66579297fdeeec2309284392","464","stimuli/10100101.jpg"," ","","feedback_trial","1","","","","","","","","","","","","","","","","","","","","",""
"","","","","","image-keyboard-response","210","397432","0.0-185.0","60d099f849987e86824eedcd","665500ab8938657b03fbdba8","66579297fdeeec2309284392","1139","stimuli/2101101.jpg","2","","prediction_trial","0","","false","","2","false","false","false","false","false","false","[0,2]","101","101","0","","","","","","",""
"","","","","","image-keyboard-response","211","398015","0.0-186.0","60d099f849987e86824eedcd","665500ab8938657b03fbdba8","66579297fdeeec2309284392","581","stimuli/21011010.jpg"," ","","feedback_trial","0","","","","","","","","","","","","","","","","","","","","",""
"","","","","","image-keyboard-response","212","399007","0.0-187.0","60d099f849987e86824eedcd","665500ab8938657b03fbdba8","66579297fdeeec2309284392","988","stimuli/2100001.jpg","0","","prediction_trial","2","","false","","2","false","true","true","true","false","true","[2]","100","001","0","","","","","","",""
"","","","","","image-keyboard-response","213","400409","0.0-188.0","60d099f849987e86824eedcd","665500ab8938657b03fbdba8","66579297fdeeec2309284392","1400","stimuli/21000012.jpg"," ","","feedback_trial","2","","","","","","","","","","","","","","","","","","","","",""
"","","","","","image-keyboard-response","214","403214","0.0-189.0","60d099f849987e86824eedcd","665500ab8938657b03fbdba8","66579297fdeeec2309284392","2803","stimuli/2101011.jpg","1","","prediction_trial","0","","false","","2","false","false","false","false","false","false","[2,0]","101","011","0","","","","","","",""
"","","","","","image-keyboard-response","215","403929","0.0-190.0","60d099f849987e86824eedcd","665500ab8938657b03fbdba8","66579297fdeeec2309284392","713","stimuli/21010110.jpg"," ","","feedback_trial","2","","","","","","","","","","","","","","","","","","","","",""
"","","","","","image-keyboard-response","216","409175","0.0-191.0","60d099f849987e86824eedcd","665500ab8938657b03fbdba8","66579297fdeeec2309284392","5243","stimuli/0001101.jpg","0","","prediction_trial","0","","true","","0","false","false","true","true","false","false","[0]","001","101","1","","","","","","",""
"","","","","","image-keyboard-response","217","409817","0.0-192.0","60d099f849987e86824eedcd","665500ab8938657b03fbdba8","66579297fdeeec2309284392","639","stimuli/00011010.jpg"," ","","feedback_trial","0","","","","","","","","","","","","","","","","","","","","",""
"","","","","","image-keyboard-response","218","411702","0.0-193.0","60d099f849987e86824eedcd","665500ab8938657b03fbdba8","66579297fdeeec2309284392","1882","stimuli/1011101.jpg","1","","prediction_trial","2","","false","","1","true","true","false","false","false","false","[2,1]","011","101","0","","","","","","",""
"","","","","","image-keyboard-response","219","412280","0.0-194.0","60d099f849987e86824eedcd","665500ab8938657b03fbdba8","66579297fdeeec2309284392","575","stimuli/10111012.jpg"," ","","feedback_trial","2","","","","","","","","","","","","","","","","","","","","",""
"","","","","","image-keyboard-response","220","414039","0.0-195.0","60d099f849987e86824eedcd","665500ab8938657b03fbdba8","66579297fdeeec2309284392","1756","stimuli/2100101.jpg","0","","prediction_trial","2","","false","","2","false","false","true","true","false","false","[2]","100","101","0","","","","","","",""
"","","","","","image-keyboard-response","221","414583","0.0-196.0","60d099f849987e86824eedcd","665500ab8938657b03fbdba8","66579297fdeeec2309284392","542","stimuli/21001012.jpg"," ","","feedback_trial","2","","","","","","","","","","","","","","","","","","","","",""
"","","","","","image-keyboard-response","222","415512","0.0-197.0","60d099f849987e86824eedcd","665500ab8938657b03fbdba8","66579297fdeeec2309284392","926","stimuli/1000100.jpg","1","","prediction_trial","1","","true","","1","true","true","true","true","true","true","[1]","000","100","1","","","","","","",""
"","","","","","image-keyboard-response","223","416072","0.0-198.0","60d099f849987e86824eedcd","665500ab8938657b03fbdba8","66579297fdeeec2309284392","557","stimuli/10001001.jpg"," ","","feedback_trial","1","","","","","","","","","","","","","","","","","","","","",""
"","","","","","image-keyboard-response","224","417130","0.0-199.0","60d099f849987e86824eedcd","665500ab8938657b03fbdba8","66579297fdeeec2309284392","1055","stimuli/0111111.jpg","1","","prediction_trial","2","","false","","0","false","false","false","false","false","false","[0,1,2]","111","111","0","","","","","","",""
"","","","","","image-keyboard-response","225","417727","0.0-200.0","60d099f849987e86824eedcd","665500ab8938657b03fbdba8","66579297fdeeec2309284392","595","stimuli/01111112.jpg"," ","","feedback_trial","0","","","","","","","","","","","","","","","","","","","","",""
"","","","","","image-keyboard-response","226","420058","0.0-201.0","60d099f849987e86824eedcd","665500ab8938657b03fbdba8","66579297fdeeec2309284392","2328","stimuli/0101000.jpg","2","","prediction_trial","2","","true","","0","true","true","false","false","false","false","[0,2]","101","000","1","","","","","","",""
"","","","","","image-keyboard-response","227","420577","0.0-202.0","60d099f849987e86824eedcd","665500ab8938657b03fbdba8","66579297fdeeec2309284392","517","stimuli/01010002.jpg"," ","","feedback_trial","0","","","","","","","","","","","","","","","","","","","","",""
"","","","","","image-keyboard-response","228","421808","0.0-203.0","60d099f849987e86824eedcd","665500ab8938657b03fbdba8","66579297fdeeec2309284392","1228","stimuli/1111011.jpg","2","","prediction_trial","0","","false","","1","false","false","false","false","false","false","[1,0,2]","111","011","0","","","","","","",""
"","","","","","image-keyboard-response","229","422523","0.0-204.0","60d099f849987e86824eedcd","665500ab8938657b03fbdba8","66579297fdeeec2309284392","711","stimuli/11110110.jpg"," ","","feedback_trial","1","","","","","","","","","","","","","","","","","","","","",""
"","","","","","image-keyboard-response","230","423639","0.0-205.0","60d099f849987e86824eedcd","665500ab8938657b03fbdba8","66579297fdeeec2309284392","1113","stimuli/0010000.jpg","0","","prediction_trial","0","","true","","0","true","true","true","true","true","true","[0]","010","000","1","","","","","","",""
"","","","","","image-keyboard-response","231","424144","0.0-206.0","60d099f849987e86824eedcd","665500ab8938657b03fbdba8","66579297fdeeec2309284392","502","stimuli/00100000.jpg"," ","","feedback_trial","0","","","","","","","","","","","","","","","","","","","","",""
"","","","","","image-keyboard-response","232","425024","0.0-207.0","60d099f849987e86824eedcd","665500ab8938657b03fbdba8","66579297fdeeec2309284392","878","stimuli/2010000.jpg","2","","prediction_trial","2","","true","","2","true","true","true","true","true","true","[2]","010","000","1","","","","","","",""
"","","","","","image-keyboard-response","233","425518","0.0-208.0","60d099f849987e86824eedcd","665500ab8938657b03fbdba8","66579297fdeeec2309284392","491","stimuli/20100002.jpg"," ","","feedback_trial","2","","","","","","","","","","","","","","","","","","","","",""
"","","","","","image-keyboard-response","234","426239","0.0-209.0","60d099f849987e86824eedcd","665500ab8938657b03fbdba8","66579297fdeeec2309284392","720","stimuli/1011100.jpg","1","","prediction_trial","2","","false","","1","true","true","false","false","false","false","[2,1]","011","100","0","","","","","","",""
"","","","","","image-keyboard-response","235","426983","0.0-210.0","60d099f849987e86824eedcd","665500ab8938657b03fbdba8","66579297fdeeec2309284392","741","stimuli/10111002.jpg"," ","","feedback_trial","2","","","","","","","","","","","","","","","","","","","","",""
"","","","","","image-keyboard-response","236","428255","0.0-211.0","60d099f849987e86824eedcd","665500ab8938657b03fbdba8","66579297fdeeec2309284392","1269","stimuli/2101010.jpg","0","","prediction_trial","0","","true","","2","true","true","false","false","false","false","[0,2]","101","010","1","","","","","","",""
"","","","","","image-keyboard-response","237","428777","0.0-212.0","60d099f849987e86824eedcd","665500ab8938657b03fbdba8","66579297fdeeec2309284392","520","stimuli/21010100.jpg"," ","","feedback_trial","0","","","","","","","","","","","","","","","","","","","","",""
"","","","","","image-keyboard-response","238","430455","0.0-213.0","60d099f849987e86824eedcd","665500ab8938657b03fbdba8","66579297fdeeec2309284392","1650","stimuli/2001100.jpg","2","","prediction_trial","2","","true","","2","true","true","false","true","false","true","[2]","001","100","1","","","","","","",""
"","","","","","image-keyboard-response","239","430861","0.0-214.0","60d099f849987e86824eedcd","665500ab8938657b03fbdba8","66579297fdeeec2309284392","404","stimuli/20011002.jpg"," ","","feedback_trial","2","","","","","","","","","","","","","","","","","","","","",""
"","","","","","image-keyboard-response","240","433263","0.0-215.0","60d099f849987e86824eedcd","665500ab8938657b03fbdba8","66579297fdeeec2309284392","2401","stimuli/2010100.jpg","2","","prediction_trial","2","","true","","2","true","true","true","true","true","true","[2]","010","100","1","","","","","","",""
"","","","","","image-keyboard-response","241","433711","0.0-216.0","60d099f849987e86824eedcd","665500ab8938657b03fbdba8","66579297fdeeec2309284392","445","stimuli/20101002.jpg"," ","","feedback_trial","2","","","","","","","","","","","","","","","","","","","","",""
"","","","","","image-keyboard-response","242","434450","0.0-217.0","60d099f849987e86824eedcd","665500ab8938657b03fbdba8","66579297fdeeec2309284392","737","stimuli/0001000.jpg","0","","prediction_trial","0","","true","","0","true","true","true","true","true","true","[0]","001","000","1","","","","","","",""
"","","","","","image-keyboard-response","243","434899","0.0-218.0","60d099f849987e86824eedcd","665500ab8938657b03fbdba8","66579297fdeeec2309284392","446","stimuli/00010000.jpg"," ","","feedback_trial","0","","","","","","","","","","","","","","","","","","","","",""
"","","","","","image-keyboard-response","244","436263","0.0-219.0","60d099f849987e86824eedcd","665500ab8938657b03fbdba8","66579297fdeeec2309284392","1361","stimuli/1111010.jpg","1","","prediction_trial","1","","true","","1","false","true","false","false","false","false","[1,0,2]","111","010","1","","","","","","",""
"","","","","","image-keyboard-response","245","436790","0.0-220.0","60d099f849987e86824eedcd","665500ab8938657b03fbdba8","66579297fdeeec2309284392","526","stimuli/11110101.jpg"," ","","feedback_trial","1","","","","","","","","","","","","","","","","","","","","",""
"","","","","","image-keyboard-response","246","438095","0.0-221.0","60d099f849987e86824eedcd","665500ab8938657b03fbdba8","66579297fdeeec2309284392","1302","stimuli/2111000.jpg","1","","prediction_trial","0","","false","","2","true","true","false","false","false","false","[1,2,0]","111","000","0","","","","","","",""
"","","","","","image-keyboard-response","247","438687","0.0-222.0","60d099f849987e86824eedcd","665500ab8938657b03fbdba8","66579297fdeeec2309284392","590","stimuli/21110000.jpg"," ","","feedback_trial","1","","","","","","","","","","","","","","","","","","","","",""
"","","","","","image-keyboard-response","248","440030","0.0-223.0","60d099f849987e86824eedcd","665500ab8938657b03fbdba8","66579297fdeeec2309284392","1340","stimuli/1011111.jpg","2","","prediction_trial","2","","true","","1","false","false","false","false","false","false","[1,2]","011","111","1","","","","","","",""
"","","","","","image-keyboard-response","249","440519","0.0-224.0","60d099f849987e86824eedcd","665500ab8938657b03fbdba8","66579297fdeeec2309284392","485","stimuli/10111112.jpg"," ","","feedback_trial","1","","","","","","","","","","","","","","","","","","","","",""
"","","","","","image-keyboard-response","250","441944","0.0-225.0","60d099f849987e86824eedcd","665500ab8938657b03fbdba8","66579297fdeeec2309284392","1424","stimuli/2001010.jpg","2","","prediction_trial","2","","true","","2","true","true","false","true","false","true","[2]","001","010","1","","","","","","",""
"","","","","","image-keyboard-response","251","442368","0.0-226.0","60d099f849987e86824eedcd","665500ab8938657b03fbdba8","66579297fdeeec2309284392","420","stimuli/20010102.jpg"," ","","feedback_trial","2","","","","","","","","","","","","","","","","","","","","",""
"","","","","","image-keyboard-response","252","443526","0.0-227.0","60d099f849987e86824eedcd","665500ab8938657b03fbdba8","66579297fdeeec2309284392","1156","stimuli/2101111.jpg","2","","prediction_trial","0","","false","","2","false","false","false","false","false","false","[2,0]","101","111","0","","","","","","",""
"","","","","","image-keyboard-response","253","444031","0.0-228.0","60d099f849987e86824eedcd","665500ab8938657b03fbdba8","66579297fdeeec2309284392","502","stimuli/21011110.jpg"," ","","feedback_trial","2","","","","","","","","","","","","","","","","","","","","",""
"","","","","","image-keyboard-response","254","446112","0.0-229.0","60d099f849987e86824eedcd","665500ab8938657b03fbdba8","66579297fdeeec2309284392","2078","stimuli/2010101.jpg","2","","prediction_trial","2","","true","","2","false","false","true","true","false","false","[2]","010","101","1","","","","","","",""
"","","","","","image-keyboard-response","255","446609","0.0-230.0","60d099f849987e86824eedcd","665500ab8938657b03fbdba8","66579297fdeeec2309284392","494","stimuli/20101012.jpg"," ","","feedback_trial","2","","","","","","","","","","","","","","","","","","","","",""
"","","","","","image-keyboard-response","256","447710","0.0-231.0","60d099f849987e86824eedcd","665500ab8938657b03fbdba8","66579297fdeeec2309284392","1099","stimuli/1001000.jpg","1","","prediction_trial","1","","true","","1","true","true","true","true","true","true","[1]","001","000","1","","","","","","",""
"","","","","","image-keyboard-response","257","448311","0.0-232.0","60d099f849987e86824eedcd","665500ab8938657b03fbdba8","66579297fdeeec2309284392","598","stimuli/10010001.jpg"," ","","feedback_trial","1","","","","","","","","","","","","","","","","","","","","",""
"","","","","","image-keyboard-response","258","449719","0.0-233.0","60d099f849987e86824eedcd","665500ab8938657b03fbdba8","66579297fdeeec2309284392","1405","stimuli/1111100.jpg","0","","prediction_trial","2","","false","","1","true","true","false","false","false","false","[0,2,1]","111","100","0","","","","","","",""
"","","","","","image-keyboard-response","259","450262","0.0-234.0","60d099f849987e86824eedcd","665500ab8938657b03fbdba8","66579297fdeeec2309284392","540","stimuli/11111002.jpg"," ","","feedback_trial","0","","","","","","","","","","","","","","","","","","","","",""
"","","","","","image-keyboard-response","260","451163","0.0-235.0","60d099f849987e86824eedcd","665500ab8938657b03fbdba8","66579297fdeeec2309284392","879","stimuli/1111000.jpg","1","","prediction_trial","2","","false","","1","true","true","false","false","false","false","[2,0,1]","111","000","0","","","","","","",""
"","","","","","image-keyboard-response","261","451720","0.0-236.0","60d099f849987e86824eedcd","665500ab8938657b03fbdba8","66579297fdeeec2309284392","552","stimuli/11110002.jpg"," ","","feedback_trial","2","","","","","","","","","","","","","","","","","","","","",""
"","","","","","image-keyboard-response","262","452815","0.0-237.0","60d099f849987e86824eedcd","665500ab8938657b03fbdba8","66579297fdeeec2309284392","1091","stimuli/1101111.jpg","2","","prediction_trial","1","","false","","1","false","false","true","true","false","false","[1]","101","111","0","","","","","","",""
"","","","","","image-keyboard-response","263","453327","0.0-238.0","60d099f849987e86824eedcd","665500ab8938657b03fbdba8","66579297fdeeec2309284392","510","stimuli/11011111.jpg"," ","","feedback_trial","1","","","","","","","","","","","","","","","","","","","","",""
"","","","","","image-keyboard-response","264","454413","0.0-239.0","60d099f849987e86824eedcd","665500ab8938657b03fbdba8","66579297fdeeec2309284392","1084","stimuli/2001000.jpg","2","","prediction_trial","2","","true","","2","true","true","false","true","false","true","[2]","001","000","1","","","","","","",""
"","","","","","image-keyboard-response","265","455137","0.0-240.0","60d099f849987e86824eedcd","665500ab8938657b03fbdba8","66579297fdeeec2309284392","723","stimuli/20010002.jpg"," ","","feedback_trial","2","","","","","","","","","","","","","","","","","","","","",""
"","","","","","image-keyboard-response","266","456674","0.0-241.0","60d099f849987e86824eedcd","665500ab8938657b03fbdba8","66579297fdeeec2309284392","1533","stimuli/1011010.jpg","2","","prediction_trial","1","","false","","1","false","true","false","false","false","false","[1,2]","011","010","0","","","","","","",""
"","","","","","image-keyboard-response","267","457256","0.0-242.0","60d099f849987e86824eedcd","665500ab8938657b03fbdba8","66579297fdeeec2309284392","580","stimuli/10110101.jpg"," ","","feedback_trial","1","","","","","","","","","","","","","","","","","","","","",""
"","","","","","image-keyboard-response","268","458791","0.0-243.0","60d099f849987e86824eedcd","665500ab8938657b03fbdba8","66579297fdeeec2309284392","1532","stimuli/0101100.jpg","0","","prediction_trial","0","","true","","0","false","true","false","false","false","false","[0,2]","101","100","1","","","","","","",""
"","","","","","image-keyboard-response","269","459249","0.0-244.0","60d099f849987e86824eedcd","665500ab8938657b03fbdba8","66579297fdeeec2309284392","455","stimuli/01011000.jpg"," ","","feedback_trial","0","","","","","","","","","","","","","","","","","","","","",""
"","","","","","image-keyboard-response","270","460742","0.0-245.0","60d099f849987e86824eedcd","665500ab8938657b03fbdba8","66579297fdeeec2309284392","1490","stimuli/1001110.jpg","0","","prediction_trial","1","","false","","1","false","false","true","true","false","false","[1]","001","110","0","","","","","","",""
"","","","","","image-keyboard-response","271","461296","0.0-246.0","60d099f849987e86824eedcd","665500ab8938657b03fbdba8","66579297fdeeec2309284392","551","stimuli/10011101.jpg"," ","","feedback_trial","1","","","","","","","","","","","","","","","","","","","","",""
"","","","","","image-keyboard-response","272","462143","0.0-247.0","60d099f849987e86824eedcd","665500ab8938657b03fbdba8","66579297fdeeec2309284392","845","stimuli/0010010.jpg","0","","prediction_trial","0","","true","","0","true","true","true","true","true","true","[0]","010","010","1","","","","","","",""
"","","","","","image-keyboard-response","273","462664","0.0-248.0","60d099f849987e86824eedcd","665500ab8938657b03fbdba8","66579297fdeeec2309284392","518","stimuli/00100100.jpg"," ","","feedback_trial","0","","","","","","","","","","","","","","","","","","","","",""
"","","","","","image-keyboard-response","274","463567","0.0-249.0","60d099f849987e86824eedcd","665500ab8938657b03fbdba8","66579297fdeeec2309284392","901","stimuli/0011111.jpg","1","","prediction_trial","0","","false","","0","false","false","true","true","false","false","[0]","011","111","0","","","","","","",""
"","","","","","image-keyboard-response","275","464111","0.0-250.0","60d099f849987e86824eedcd","665500ab8938657b03fbdba8","66579297fdeeec2309284392","541","stimuli/00111110.jpg"," ","","feedback_trial","0","","","","","","","","","","","","","","","","","","","","",""
"","","","","","image-keyboard-response","276","465029","0.0-251.0","60d099f849987e86824eedcd","665500ab8938657b03fbdba8","66579297fdeeec2309284392","917","stimuli/0110111.jpg","1","","prediction_trial","1","","true","","0","false","false","false","false","false","false","[1,0]","110","111","1","","","","","","",""
"","","","","","image-keyboard-response","277","465610","0.0-252.0","60d099f849987e86824eedcd","665500ab8938657b03fbdba8","66579297fdeeec2309284392","578","stimuli/01101111.jpg"," ","","feedback_trial","1","","","","","","","","","","","","","","","","","","","","",""
"","","","","","image-keyboard-response","278","466335","0.0-253.0","60d099f849987e86824eedcd","665500ab8938657b03fbdba8","66579297fdeeec2309284392","722","stimuli/2000001.jpg","2","","prediction_trial","2","","true","","2","false","true","true","true","false","true","[2]","000","001","1","","","","","","",""
"","","","","","image-keyboard-response","279","467111","0.0-254.0","60d099f849987e86824eedcd","665500ab8938657b03fbdba8","66579297fdeeec2309284392","773","stimuli/20000012.jpg"," ","","feedback_trial","2","","","","","","","","","","","","","","","","","","","","",""
"","","","","","image-keyboard-response","280","468311","0.0-255.0","60d099f849987e86824eedcd","665500ab8938657b03fbdba8","66579297fdeeec2309284392","1198","stimuli/0111010.jpg","2","","prediction_trial","1","","false","","0","true","true","false","false","false","false","[2,0,1]","111","010","0","","","","","","",""
"","","","","","image-keyboard-response","281","468829","0.0-256.0","60d099f849987e86824eedcd","665500ab8938657b03fbdba8","66579297fdeeec2309284392","515","stimuli/01110101.jpg"," ","","feedback_trial","2","","","","","","","","","","","","","","","","","","","","",""
"","","","","","image-keyboard-response","282","469563","0.0-257.0","60d099f849987e86824eedcd","665500ab8938657b03fbdba8","66579297fdeeec2309284392","705","stimuli/1010110.jpg","1","","prediction_trial","1","","true","","1","false","false","false","true","false","false","[1]","010","110","1","","","","","","",""
"","","","","","image-keyboard-response","283","470080","0.0-258.0","60d099f849987e86824eedcd","665500ab8938657b03fbdba8","66579297fdeeec2309284392","513","stimuli/10101101.jpg"," ","","feedback_trial","1","","","","","","","","","","","","","","","","","","","","",""
"","","","","","image-keyboard-response","284","470999","0.0-259.0","60d099f849987e86824eedcd","665500ab8938657b03fbdba8","66579297fdeeec2309284392","916","stimuli/1010111.jpg","1","","prediction_trial","1","","true","","1","false","false","false","true","false","false","[1]","010","111","1","","","","","","",""
"","","","","","image-keyboard-response","285","471561","0.0-260.0","60d099f849987e86824eedcd","665500ab8938657b03fbdba8","66579297fdeeec2309284392","559","stimuli/10101111.jpg"," ","","feedback_trial","1","","","","","","","","","","","","","","","","","","","","",""
"","","","","","image-keyboard-response","286","472463","0.0-261.0","60d099f849987e86824eedcd","665500ab8938657b03fbdba8","66579297fdeeec2309284392","899","stimuli/2011011.jpg","1","","prediction_trial","1","","true","","2","false","false","false","false","false","false","[2,1]","011","011","1","","","","","","",""
"","","","","","image-keyboard-response","287","473032","0.0-262.0","60d099f849987e86824eedcd","665500ab8938657b03fbdba8","66579297fdeeec2309284392","566","stimuli/20110111.jpg"," ","","feedback_trial","2","","","","","","","","","","","","","","","","","","","","",""
"","","","","","image-keyboard-response","288","473887","0.0-263.0","60d099f849987e86824eedcd","665500ab8938657b03fbdba8","66579297fdeeec2309284392","852","stimuli/0100111.jpg","0","","prediction_trial","0","","true","","0","false","false","false","true","false","false","[0]","100","111","1","","","","","","",""
"","","","","","image-keyboard-response","289","474466","0.0-264.0","60d099f849987e86824eedcd","665500ab8938657b03fbdba8","66579297fdeeec2309284392","577","stimuli/01001110.jpg"," ","","feedback_trial","0","","","","","","","","","","","","","","","","","","","","",""
"","","","","","image-keyboard-response","290","476247","0.0-265.0","60d099f849987e86824eedcd","665500ab8938657b03fbdba8","66579297fdeeec2309284392","1779","stimuli/2001111.jpg","2","","prediction_trial","2","","true","","2","false","false","false","true","false","false","[2]","001","111","1","","","","","","",""
"","","","","","image-keyboard-response","291","476775","0.0-266.0","60d099f849987e86824eedcd","665500ab8938657b03fbdba8","66579297fdeeec2309284392","525","stimuli/20011112.jpg"," ","","feedback_trial","2","","","","","","","","","","","","","","","","","","","","",""
"","","","","","image-keyboard-response","292","477629","0.0-267.0","60d099f849987e86824eedcd","665500ab8938657b03fbdba8","66579297fdeeec2309284392","850","stimuli/1001101.jpg","1","","prediction_trial","1","","true","","1","true","true","true","true","true","true","[1]","001","101","1","","","","","","",""
"","","","","","image-keyboard-response","293","478322","0.0-268.0","60d099f849987e86824eedcd","665500ab8938657b03fbdba8","66579297fdeeec2309284392","690","stimuli/10011011.jpg"," ","","feedback_trial","1","","","","","","","","","","","","","","","","","","","","",""
"","","","","","image-keyboard-response","294","479039","0.0-269.0","60d099f849987e86824eedcd","665500ab8938657b03fbdba8","66579297fdeeec2309284392","715","stimuli/1010100.jpg","1","","prediction_trial","1","","true","","1","true","true","false","true","false","true","[1]","010","100","1","","","","","","",""
"","","","","","image-keyboard-response","295","479682","0.0-270.0","60d099f849987e86824eedcd","665500ab8938657b03fbdba8","66579297fdeeec2309284392","640","stimuli/10101001.jpg"," ","","feedback_trial","1","","","","","","","","","","","","","","","","","","","","",""
"","","","","","image-keyboard-response","296","480908","0.0-271.0","60d099f849987e86824eedcd","665500ab8938657b03fbdba8","66579297fdeeec2309284392","1224","stimuli/0110000.jpg","1","","prediction_trial","0","","false","","0","true","true","false","false","false","false","[1,0]","110","000","0","","","","","","",""
"","","","","","image-keyboard-response","297","481408","0.0-272.0","60d099f849987e86824eedcd","665500ab8938657b03fbdba8","66579297fdeeec2309284392","499","stimuli/01100000.jpg"," ","","feedback_trial","1","","","","","","","","","","","","","","","","","","","","",""
"","","","","","image-keyboard-response","298","482241","0.0-273.0","60d099f849987e86824eedcd","665500ab8938657b03fbdba8","66579297fdeeec2309284392","830","stimuli/1011011.jpg","1","","prediction_trial","1","","true","","1","false","false","false","false","false","false","[1,2]","011","011","1","","","","","","",""
"","","","","","image-keyboard-response","299","482791","0.0-274.0","60d099f849987e86824eedcd","665500ab8938657b03fbdba8","66579297fdeeec2309284392","548","stimuli/10110111.jpg"," ","","feedback_trial","1","","","","","","","","","","","","","","","","","","","","",""
"","","","","","image-keyboard-response","300","484287","0.0-275.0","60d099f849987e86824eedcd","665500ab8938657b03fbdba8","66579297fdeeec2309284392","1493","stimuli/2001011.jpg","1","","prediction_trial","2","","false","","2","false","false","false","true","false","false","[2]","001","011","0","","","","","","",""
"","","","","","image-keyboard-response","301","484890","0.0-276.0","60d099f849987e86824eedcd","665500ab8938657b03fbdba8","66579297fdeeec2309284392","601","stimuli/20010112.jpg"," ","","feedback_trial","2","","","","","","","","","","","","","","","","","","","","",""
"","","","","","image-keyboard-response","302","486007","0.0-277.0","60d099f849987e86824eedcd","665500ab8938657b03fbdba8","66579297fdeeec2309284392","1114","stimuli/2011101.jpg","2","","prediction_trial","2","","true","","2","false","false","false","false","false","false","[1,2]","011","101","1","","","","","","",""
"","","","","","image-keyboard-response","303","486519","0.0-278.0","60d099f849987e86824eedcd","665500ab8938657b03fbdba8","66579297fdeeec2309284392","509","stimuli/20111012.jpg"," ","","feedback_trial","1","","","","","","","","","","","","","","","","","","","","",""
"","","","","","image-keyboard-response","304","488591","0.0-279.0","60d099f849987e86824eedcd","665500ab8938657b03fbdba8","66579297fdeeec2309284392","2068","stimuli/2000011.jpg","2","","prediction_trial","2","","true","","2","false","false","true","true","false","false","[2]","000","011","1","","","","","","",""
"","","","","","image-keyboard-response","305","489159","0.0-280.0","60d099f849987e86824eedcd","665500ab8938657b03fbdba8","66579297fdeeec2309284392","565","stimuli/20000112.jpg"," ","","feedback_trial","2","","","","","","","","","","","","","","","","","","","","",""
"","","","","","image-keyboard-response","306","489991","0.0-281.0","60d099f849987e86824eedcd","665500ab8938657b03fbdba8","66579297fdeeec2309284392","829","stimuli/2001101.jpg","2","","prediction_trial","2","","true","","2","false","false","false","true","false","false","[2]","001","101","1","","","","","","",""
"","","","","","image-keyboard-response","307","490671","0.0-282.0","60d099f849987e86824eedcd","665500ab8938657b03fbdba8","66579297fdeeec2309284392","678","stimuli/20011012.jpg"," ","","feedback_trial","2","","","","","","","","","","","","","","","","","","","","",""
"","","","","","image-keyboard-response","308","491841","0.0-283.0","60d099f849987e86824eedcd","665500ab8938657b03fbdba8","66579297fdeeec2309284392","1166","stimuli/2011000.jpg","1","","prediction_trial","2","","false","","2","true","true","false","false","false","false","[1,2]","011","000","0","","","","","","",""
"","","","","","image-keyboard-response","309","492601","0.0-284.0","60d099f849987e86824eedcd","665500ab8938657b03fbdba8","66579297fdeeec2309284392","757","stimuli/20110002.jpg"," ","","feedback_trial","1","","","","","","","","","","","","","","","","","","","","",""
"","","","","","image-keyboard-response","310","494675","0.0-285.0","60d099f849987e86824eedcd","665500ab8938657b03fbdba8","66579297fdeeec2309284392","2071","stimuli/1110001.jpg","1","","prediction_trial","1","","true","","1","true","true","false","false","false","false","[1,0]","110","001","1","","","","","","",""
"","","","","","image-keyboard-response","311","495143","0.0-286.0","60d099f849987e86824eedcd","665500ab8938657b03fbdba8","66579297fdeeec2309284392","466","stimuli/11100011.jpg"," ","","feedback_trial","1","","","","","","","","","","","","","","","","","","","","",""
"","","","","","image-keyboard-response","312","496895","0.0-287.0","60d099f849987e86824eedcd","665500ab8938657b03fbdba8","66579297fdeeec2309284392","1750","stimuli/0000111.jpg","1","","prediction_trial","0","","false","","0","false","false","true","true","false","false","[0]","000","111","0","","","","","","",""
"","","","","","image-keyboard-response","313","497461","0.0-288.0","60d099f849987e86824eedcd","665500ab8938657b03fbdba8","66579297fdeeec2309284392","564","stimuli/00001110.jpg"," ","","feedback_trial","0","","","","","","","","","","","","","","","","","","","","",""
"","","","","","image-keyboard-response","314","499511","0.0-289.0","60d099f849987e86824eedcd","665500ab8938657b03fbdba8","66579297fdeeec2309284392","2048","stimuli/1110101.jpg","0","","prediction_trial","1","","false","","1","true","true","false","false","false","false","[0,1]","110","101","0","","","","","","",""
"","","","","","image-keyboard-response","315","500015","0.0-290.0","60d099f849987e86824eedcd","665500ab8938657b03fbdba8","66579297fdeeec2309284392","502","stimuli/11101011.jpg"," ","","feedback_trial","0","","","","","","","","","","","","","","","","","","","","",""
"","","","","","image-keyboard-response","316","500791","0.0-291.0","60d099f849987e86824eedcd","665500ab8938657b03fbdba8","66579297fdeeec2309284392","773","stimuli/1110010.jpg","1","","prediction_trial","1","","true","","1","false","true","false","false","false","false","[0,1]","110","010","1","","","","","","",""
"","","","","","image-keyboard-response","317","501351","0.0-292.0","60d099f849987e86824eedcd","665500ab8938657b03fbdba8","66579297fdeeec2309284392","558","stimuli/11100101.jpg"," ","","feedback_trial","0","","","","","","","","","","","","","","","","","","","","",""
"","","","","","survey-html-form","318","543347","0.0-293.0","60d099f849987e86824eedcd","665500ab8938657b03fbdba8","66579297fdeeec2309284392","41991","","{""feedback"":""I had to stay focus on the ones that were obvious and the rest is guessing"",""age"":""33"",""gender"":""Female"",""other_gender"":"""",""race"":""White"",""other_race"":"""",""ethnicity"":""Hispanic""}","","exit_survey","","","","","","","","","","","","","","","","I had to stay focus on the ones that were obvious and the rest is guessing","33","Hispanic","Female","White","0.6180555555555556","0.6180555555555556"
