"success","timeout","failed_images","failed_audio","failed_video","trial_type","trial_index","time_elapsed","internal_node_id","prolific_id","prolific_study_id","prolific_session_id","rt","stimulus","response","view_history","trial","character_choice","stimulus_dict","accuracy","correct_response","ball_pos","ego_ball_visible","ego_can_infer","alter_ball_visible","alter_can_infer","collective_ball_visible","collective_can_infer","search_locations","alter_occluders","ego_occluders","accuracy_bool","feedback","age","ethnicity","gender","race","overall_accuracy","bonus"
"true","false","[]","[]","[]","preload","0","18256","0.0-0.0","6521ab1c4a2ffd6c21a3b662","665500ab8938657b03fbdba8","665792886c9e170b805a4e5e","","","","","","","","","","","","","","","","","","","","","","","","","","",""
"true","","","","","fullscreen","1","22617","0.0-1.0","6521ab1c4a2ffd6c21a3b662","665500ab8938657b03fbdba8","665792886c9e170b805a4e5e","","","","","","","","","","","","","","","","","","","","","","","","","","",""
"","","","","","html-button-response","2","51923","0.0-2.0","6521ab1c4a2ffd6c21a3b662","665500ab8938657b03fbdba8","665792886c9e170b805a4e5e","29304","<p><b>Consent Form</b></p> <div style=""text-align:left;background-color:lightgrey; padding:20px; max-width:900px;""><p>Please consider this information carefully before deciding whether to participate in this research.</p> <p>The purpose of this research is to examine which factors influence social judgment and decision-making. You will be asked to make judgements about individuals and actions in social scenarios. We are simply interested in your judgement. The study will take less than 1 hour to complete, and you will receive less than $20 on Prolific. Your compensation and time commitment are specified in the study description. There are no anticipated risks associated with participating in this study. The effects of participating should be comparable to those you would ordinarily experience from viewing a computer monitor and using a mouse or keyboard for a similar amount of time. At the end of the study, we will provide an explanation of the questions that motivate this line of research and will describe the potential implications. </p><p> Your participation in this study is completely voluntary and you may refuse to participate or you may choose to withdraw at any time without penalty or loss of benefits to you which are otherwise entitled. Your participation in this study will remain confidential. No personally identifiable information will be associated with your data. Also, all analyses of the data will be averaged across all the participants, so your individual responses will never be specifically analyzed. </p><p> If you have questions or concerns about your participation or payment, or want to request a summary of research findings, please contact Dr. Jonathan Phillips at Jonathan.S.Phillips@dartmouth.edu. </p><p> Please save a copy of this form for your records. </p><p><b>Agreement: </b>The nature and purpose of this research have been sufficiently explained and I agree to participate in this study. I understand that I am free to withdraw at any time without incurring any penalty. Please consent by clicking the button below to continue. Otherwise, please exit the study at any time. </p>","0","","","","","","","","","","","","","","","","","","","","","","","",""
"","","","","","instructions","3","107211","0.0-3.0-0.0","6521ab1c4a2ffd6c21a3b662","665500ab8938657b03fbdba8","665792886c9e170b805a4e5e","55286","","","[{""page_index"":0,""viewing_time"":1213},{""page_index"":1,""viewing_time"":1883},{""page_index"":2,""viewing_time"":19231},{""page_index"":3,""viewing_time"":2508},{""page_index"":4,""viewing_time"":1745},{""page_index"":5,""viewing_time"":2526},{""page_index"":6,""viewing_time"":3823},{""page_index"":7,""viewing_time"":1900},{""page_index"":8,""viewing_time"":4434},{""page_index"":9,""viewing_time"":1595},{""page_index"":10,""viewing_time"":6411},{""page_index"":11,""viewing_time"":3889},{""page_index"":12,""viewing_time"":3389},{""page_index"":13,""viewing_time"":739}]","intro","","","","","","","","","","","","","","","","","","","","","",""
"","","","","","image-keyboard-response","4","109868","0.0-3.0-1.0","6521ab1c4a2ffd6c21a3b662","665500ab8938657b03fbdba8","665792886c9e170b805a4e5e","2654","stimuli/1110001.jpg","1","","prediction_practice","0","{""filepath"":""stimuli/1110001.jpg"",""ball_pos"":1,""ego_ball_visible"":true,""ego_can_infer"":true,""alter_ball_visible"":false,""alter_can_infer"":false,""collective_ball_visible"":false,""collective_can_infer"":false,""search_locations"":[0,1],""alter_occluders"":""110"",""ego_occluders"":""001""}","false","","","","","","","","","","","","","","","","","","",""
"","","","","","image-keyboard-response","5","111032","0.0-3.0-2.0","6521ab1c4a2ffd6c21a3b662","665500ab8938657b03fbdba8","665792886c9e170b805a4e5e","1163","stimuli/11100010.jpg"," ","","practrice_feedback","0","","","","","","","","","","","","","","","","","","","","",""
"","","","","","image-keyboard-response","6","114311","0.0-3.0-3.0","6521ab1c4a2ffd6c21a3b662","665500ab8938657b03fbdba8","665792886c9e170b805a4e5e","3274","stimuli/2001011.jpg","1","","prediction_practice","2","{""filepath"":""stimuli/2001011.jpg"",""ball_pos"":2,""ego_ball_visible"":false,""ego_can_infer"":false,""alter_ball_visible"":false,""alter_can_infer"":true,""collective_ball_visible"":false,""collective_can_infer"":false,""search_locations"":[2],""alter_occluders"":""001"",""ego_occluders"":""011""}","false","","","","","","","","","","","","","","","","","","",""
"","","","","","image-keyboard-response","7","114966","0.0-3.0-4.0","6521ab1c4a2ffd6c21a3b662","665500ab8938657b03fbdba8","665792886c9e170b805a4e5e","653","stimuli/20010112.jpg"," ","","practrice_feedback","2","","","","","","","","","","","","","","","","","","","","",""
"","","","","","image-keyboard-response","8","119752","0.0-3.0-5.0","6521ab1c4a2ffd6c21a3b662","665500ab8938657b03fbdba8","665792886c9e170b805a4e5e","4781","stimuli/2110101.jpg","0","","prediction_practice","2","{""filepath"":""stimuli/2110101.jpg"",""ball_pos"":2,""ego_ball_visible"":false,""ego_can_infer"":false,""alter_ball_visible"":true,""alter_can_infer"":true,""collective_ball_visible"":false,""collective_can_infer"":false,""search_locations"":[2],""alter_occluders"":""110"",""ego_occluders"":""101""}","false","","","","","","","","","","","","","","","","","","",""
"","","","","","image-keyboard-response","9","120744","0.0-3.0-6.0","6521ab1c4a2ffd6c21a3b662","665500ab8938657b03fbdba8","665792886c9e170b805a4e5e","991","stimuli/21101012.jpg"," ","","practrice_feedback","2","","","","","","","","","","","","","","","","","","","","",""
"","","","","","image-keyboard-response","10","121611","0.0-3.0-7.0","6521ab1c4a2ffd6c21a3b662","665500ab8938657b03fbdba8","665792886c9e170b805a4e5e","865","stimuli/1100001.jpg","1","","prediction_practice","1","{""filepath"":""stimuli/1100001.jpg"",""ball_pos"":1,""ego_ball_visible"":true,""ego_can_infer"":true,""alter_ball_visible"":true,""alter_can_infer"":true,""collective_ball_visible"":true,""collective_can_infer"":true,""search_locations"":[1],""alter_occluders"":""100"",""ego_occluders"":""001""}","true","","","","","","","","","","","","","","","","","","",""
"","","","","","image-keyboard-response","11","122168","0.0-3.0-8.0","6521ab1c4a2ffd6c21a3b662","665500ab8938657b03fbdba8","665792886c9e170b805a4e5e","552","stimuli/11000011.jpg"," ","","practrice_feedback","1","","","","","","","","","","","","","","","","","","","","",""
"","","","","","image-keyboard-response","12","123521","0.0-3.0-9.0","6521ab1c4a2ffd6c21a3b662","665500ab8938657b03fbdba8","665792886c9e170b805a4e5e","1348","stimuli/0001111.jpg","1","","prediction_practice","0","{""filepath"":""stimuli/0001111.jpg"",""ball_pos"":0,""ego_ball_visible"":false,""ego_can_infer"":false,""alter_ball_visible"":true,""alter_can_infer"":true,""collective_ball_visible"":false,""collective_can_infer"":false,""search_locations"":[0],""alter_occluders"":""001"",""ego_occluders"":""111""}","false","","","","","","","","","","","","","","","","","","",""
"","","","","","image-keyboard-response","13","123930","0.0-3.0-10.0","6521ab1c4a2ffd6c21a3b662","665500ab8938657b03fbdba8","665792886c9e170b805a4e5e","404","stimuli/00011110.jpg"," ","","practrice_feedback","0","","","","","","","","","","","","","","","","","","","","",""
"","","","","","image-keyboard-response","14","125198","0.0-3.0-11.0","6521ab1c4a2ffd6c21a3b662","665500ab8938657b03fbdba8","665792886c9e170b805a4e5e","1263","stimuli/2010100.jpg","2","","prediction_practice","2","{""filepath"":""stimuli/2010100.jpg"",""ball_pos"":2,""ego_ball_visible"":true,""ego_can_infer"":true,""alter_ball_visible"":true,""alter_can_infer"":true,""collective_ball_visible"":true,""collective_can_infer"":true,""search_locations"":[2],""alter_occluders"":""010"",""ego_occluders"":""100""}","true","","","","","","","","","","","","","","","","","","",""
"","","","","","image-keyboard-response","15","125538","0.0-3.0-12.0","6521ab1c4a2ffd6c21a3b662","665500ab8938657b03fbdba8","665792886c9e170b805a4e5e","335","stimuli/20101002.jpg"," ","","practrice_feedback","2","","","","","","","","","","","","","","","","","","","","",""
"","","","","","image-keyboard-response","16","126845","0.0-3.0-13.0","6521ab1c4a2ffd6c21a3b662","665500ab8938657b03fbdba8","665792886c9e170b805a4e5e","1303","stimuli/1001101.jpg","1","","prediction_practice","1","{""filepath"":""stimuli/1001101.jpg"",""ball_pos"":1,""ego_ball_visible"":true,""ego_can_infer"":true,""alter_ball_visible"":true,""alter_can_infer"":true,""collective_ball_visible"":true,""collective_can_infer"":true,""search_locations"":[1],""alter_occluders"":""001"",""ego_occluders"":""101""}","true","","","","","","","","","","","","","","","","","","",""
"","","","","","image-keyboard-response","17","127014","0.0-3.0-14.0","6521ab1c4a2ffd6c21a3b662","665500ab8938657b03fbdba8","665792886c9e170b805a4e5e","167","stimuli/10011011.jpg"," ","","practrice_feedback","1","","","","","","","","","","","","","","","","","","","","",""
"","","","","","image-keyboard-response","18","127953","0.0-3.0-15.0","6521ab1c4a2ffd6c21a3b662","665500ab8938657b03fbdba8","665792886c9e170b805a4e5e","934","stimuli/2000010.jpg","2","","prediction_practice","2","{""filepath"":""stimuli/2000010.jpg"",""ball_pos"":2,""ego_ball_visible"":true,""ego_can_infer"":true,""alter_ball_visible"":true,""alter_can_infer"":true,""collective_ball_visible"":true,""collective_can_infer"":true,""search_locations"":[2],""alter_occluders"":""000"",""ego_occluders"":""010""}","true","","","","","","","","","","","","","","","","","","",""
"","","","","","image-keyboard-response","19","128454","0.0-3.0-16.0","6521ab1c4a2ffd6c21a3b662","665500ab8938657b03fbdba8","665792886c9e170b805a4e5e","497","stimuli/20000102.jpg"," ","","practrice_feedback","2","","","","","","","","","","","","","","","","","","","","",""
"","","","","","image-keyboard-response","20","129123","0.0-3.0-17.0","6521ab1c4a2ffd6c21a3b662","665500ab8938657b03fbdba8","665792886c9e170b805a4e5e","664","stimuli/1101101.jpg","1","","prediction_practice","1","{""filepath"":""stimuli/1101101.jpg"",""ball_pos"":1,""ego_ball_visible"":true,""ego_can_infer"":true,""alter_ball_visible"":true,""alter_can_infer"":true,""collective_ball_visible"":true,""collective_can_infer"":true,""search_locations"":[1],""alter_occluders"":""101"",""ego_occluders"":""101""}","true","","","","","","","","","","","","","","","","","","",""
"","","","","","image-keyboard-response","21","129225","0.0-3.0-18.0","6521ab1c4a2ffd6c21a3b662","665500ab8938657b03fbdba8","665792886c9e170b805a4e5e","101","stimuli/11011011.jpg"," ","","practrice_feedback","1","","","","","","","","","","","","","","","","","","","","",""
"","","","","","image-keyboard-response","22","129838","0.0-3.0-19.0","6521ab1c4a2ffd6c21a3b662","665500ab8938657b03fbdba8","665792886c9e170b805a4e5e","608","stimuli/0111011.jpg","0","","prediction_practice","1","{""filepath"":""stimuli/0111011.jpg"",""ball_pos"":0,""ego_ball_visible"":true,""ego_can_infer"":true,""alter_ball_visible"":false,""alter_can_infer"":false,""collective_ball_visible"":false,""collective_can_infer"":false,""search_locations"":[1,2,0],""alter_occluders"":""111"",""ego_occluders"":""011""}","false","","","","","","","","","","","","","","","","","","",""
"","","","","","image-keyboard-response","23","130592","0.0-3.0-20.0","6521ab1c4a2ffd6c21a3b662","665500ab8938657b03fbdba8","665792886c9e170b805a4e5e","753","stimuli/01110111.jpg"," ","","practrice_feedback","1","","","","","","","","","","","","","","","","","","","","",""
"","","","","","html-button-response","24","132831","0.0-3.0-21.0","6521ab1c4a2ffd6c21a3b662","665500ab8938657b03fbdba8","665792886c9e170b805a4e5e","2238","Now that you've had some practice, you'll be tested with a couple of easy trials. If you correctly predict Sam's choice, you'll move on to complete the experiment!","0","","","","","","","","","","","","","","","","","","","","","","","",""
"","","","","","image-keyboard-response","25","134460","0.0-3.0-22.0-0.0","6521ab1c4a2ffd6c21a3b662","665500ab8938657b03fbdba8","665792886c9e170b805a4e5e","1627","stimuli/0000011.jpg","arrowleft","","comprehension_quiz","","","true","arrowleft","","","","","","","","","","","","","","","","","",""
"","","","","","image-keyboard-response","26","135158","0.0-3.0-22.0-1.0","6521ab1c4a2ffd6c21a3b662","665500ab8938657b03fbdba8","665792886c9e170b805a4e5e","693","stimuli/00000110.jpg"," ","","comprehension_quiz","","","true"," ","","","","","","","","","","","","","","","","","",""
"","","","","","image-keyboard-response","27","136376","0.0-3.0-22.0-2.0","6521ab1c4a2ffd6c21a3b662","665500ab8938657b03fbdba8","665792886c9e170b805a4e5e","1216","stimuli/1010010.jpg","arrowdown","","comprehension_quiz","","","true","arrowdown","","","","","","","","","","","","","","","","","",""
"","","","","","image-keyboard-response","28","136905","0.0-3.0-22.0-3.0","6521ab1c4a2ffd6c21a3b662","665500ab8938657b03fbdba8","665792886c9e170b805a4e5e","525","stimuli/10100101.jpg"," ","","comprehension_quiz","","","true"," ","","","","","","","","","","","","","","","","","",""
"","","","","","html-button-response","29","138496","0.0-4.0","6521ab1c4a2ffd6c21a3b662","665500ab8938657b03fbdba8","665792886c9e170b805a4e5e","1587","The experiment will now begin.","0","","","","","","","","","","","","","","","","","","","","","","","",""
"","","","","","image-keyboard-response","30","140161","0.0-5.0","6521ab1c4a2ffd6c21a3b662","665500ab8938657b03fbdba8","665792886c9e170b805a4e5e","1663","stimuli/2111111.jpg","2","","prediction_trial","2","","true","","2","false","false","false","false","false","false","[1,2,0]","111","111","1","","","","","","",""
"","","","","","image-keyboard-response","31","140740","0.0-6.0","6521ab1c4a2ffd6c21a3b662","665500ab8938657b03fbdba8","665792886c9e170b805a4e5e","575","stimuli/21111112.jpg"," ","","feedback_trial","1","","","","","","","","","","","","","","","","","","","","",""
"","","","","","image-keyboard-response","32","142536","0.0-7.0","6521ab1c4a2ffd6c21a3b662","665500ab8938657b03fbdba8","665792886c9e170b805a4e5e","1791","stimuli/2101011.jpg","1","","prediction_trial","0","","false","","2","false","false","false","false","false","false","[2,0]","101","011","0","","","","","","",""
"","","","","","image-keyboard-response","33","143019","0.0-8.0","6521ab1c4a2ffd6c21a3b662","665500ab8938657b03fbdba8","665792886c9e170b805a4e5e","479","stimuli/21010110.jpg"," ","","feedback_trial","2","","","","","","","","","","","","","","","","","","","","",""
"","","","","","image-keyboard-response","34","144434","0.0-9.0","6521ab1c4a2ffd6c21a3b662","665500ab8938657b03fbdba8","665792886c9e170b805a4e5e","1414","stimuli/0000100.jpg","0","","prediction_trial","0","","true","","0","false","true","true","true","false","true","[0]","000","100","1","","","","","","",""
"","","","","","image-keyboard-response","35","144679","0.0-10.0","6521ab1c4a2ffd6c21a3b662","665500ab8938657b03fbdba8","665792886c9e170b805a4e5e","240","stimuli/00001000.jpg"," ","","feedback_trial","0","","","","","","","","","","","","","","","","","","","","",""
"","","","","","image-keyboard-response","36","145801","0.0-11.0","6521ab1c4a2ffd6c21a3b662","665500ab8938657b03fbdba8","665792886c9e170b805a4e5e","1117","stimuli/2000111.jpg","2","","prediction_trial","2","","true","","2","false","false","true","true","false","false","[2]","000","111","1","","","","","","",""
"","","","","","image-keyboard-response","37","146317","0.0-12.0","6521ab1c4a2ffd6c21a3b662","665500ab8938657b03fbdba8","665792886c9e170b805a4e5e","511","stimuli/20001112.jpg"," ","","feedback_trial","2","","","","","","","","","","","","","","","","","","","","",""
"","","","","","image-keyboard-response","38","149411","0.0-13.0","6521ab1c4a2ffd6c21a3b662","665500ab8938657b03fbdba8","665792886c9e170b805a4e5e","3090","stimuli/2101010.jpg","2","","prediction_trial","0","","false","","2","true","true","false","false","false","false","[2,0]","101","010","0","","","","","","",""
"","","","","","image-keyboard-response","39","149895","0.0-14.0","6521ab1c4a2ffd6c21a3b662","665500ab8938657b03fbdba8","665792886c9e170b805a4e5e","479","stimuli/21010100.jpg"," ","","feedback_trial","2","","","","","","","","","","","","","","","","","","","","",""
"","","","","","image-keyboard-response","40","151639","0.0-15.0","6521ab1c4a2ffd6c21a3b662","665500ab8938657b03fbdba8","665792886c9e170b805a4e5e","1739","stimuli/2011000.jpg","1","","prediction_trial","2","","false","","2","true","true","false","false","false","false","[1,2]","011","000","0","","","","","","",""
"","","","","","image-keyboard-response","41","151822","0.0-16.0","6521ab1c4a2ffd6c21a3b662","665500ab8938657b03fbdba8","665792886c9e170b805a4e5e","178","stimuli/20110002.jpg"," ","","feedback_trial","1","","","","","","","","","","","","","","","","","","","","",""
"","","","","","image-keyboard-response","42","154570","0.0-17.0","6521ab1c4a2ffd6c21a3b662","665500ab8938657b03fbdba8","665792886c9e170b805a4e5e","2744","stimuli/1011110.jpg","1","","prediction_trial","2","","false","","1","false","false","false","false","false","false","[1,2]","011","110","0","","","","","","",""
"","","","","","image-keyboard-response","43","156266","0.0-18.0","6521ab1c4a2ffd6c21a3b662","665500ab8938657b03fbdba8","665792886c9e170b805a4e5e","1695","stimuli/10111102.jpg"," ","","feedback_trial","1","","","","","","","","","","","","","","","","","","","","",""
"","","","","","image-keyboard-response","44","157294","0.0-19.0","6521ab1c4a2ffd6c21a3b662","665500ab8938657b03fbdba8","665792886c9e170b805a4e5e","1023","stimuli/2010010.jpg","2","","prediction_trial","2","","true","","2","true","true","true","true","true","true","[2]","010","010","1","","","","","","",""
"","","","","","image-keyboard-response","45","157466","0.0-20.0","6521ab1c4a2ffd6c21a3b662","665500ab8938657b03fbdba8","665792886c9e170b805a4e5e","168","stimuli/20100102.jpg"," ","","feedback_trial","2","","","","","","","","","","","","","","","","","","","","",""
"","","","","","image-keyboard-response","46","158848","0.0-21.0","6521ab1c4a2ffd6c21a3b662","665500ab8938657b03fbdba8","665792886c9e170b805a4e5e","1374","stimuli/1010011.jpg","1","","prediction_trial","1","","true","","1","false","false","false","true","false","false","[1]","010","011","1","","","","","","",""
"","","","","","image-keyboard-response","47","159299","0.0-22.0","6521ab1c4a2ffd6c21a3b662","665500ab8938657b03fbdba8","665792886c9e170b805a4e5e","446","stimuli/10100111.jpg"," ","","feedback_trial","1","","","","","","","","","","","","","","","","","","","","",""
"","","","","","image-keyboard-response","48","159967","0.0-23.0","6521ab1c4a2ffd6c21a3b662","665500ab8938657b03fbdba8","665792886c9e170b805a4e5e","663","stimuli/1101101.jpg","1","","prediction_trial","1","","true","","1","true","true","true","true","true","true","[1]","101","101","1","","","","","","",""
"","","","","","image-keyboard-response","49","160136","0.0-24.0","6521ab1c4a2ffd6c21a3b662","665500ab8938657b03fbdba8","665792886c9e170b805a4e5e","164","stimuli/11011011.jpg"," ","","feedback_trial","1","","","","","","","","","","","","","","","","","","","","",""
"","","","","","image-keyboard-response","50","161046","0.0-25.0","6521ab1c4a2ffd6c21a3b662","665500ab8938657b03fbdba8","665792886c9e170b805a4e5e","905","stimuli/2110001.jpg","2","","prediction_trial","2","","true","","2","false","true","true","true","false","true","[2]","110","001","1","","","","","","",""
"","","","","","image-keyboard-response","51","161229","0.0-26.0","6521ab1c4a2ffd6c21a3b662","665500ab8938657b03fbdba8","665792886c9e170b805a4e5e","178","stimuli/21100012.jpg"," ","","feedback_trial","2","","","","","","","","","","","","","","","","","","","","",""
"","","","","","image-keyboard-response","52","164077","0.0-27.0","6521ab1c4a2ffd6c21a3b662","665500ab8938657b03fbdba8","665792886c9e170b805a4e5e","2847","stimuli/0111001.jpg","0","","prediction_trial","1","","false","","0","true","true","false","false","false","false","[2,0,1]","111","001","0","","","","","","",""
"","","","","","image-keyboard-response","53","164282","0.0-28.0","6521ab1c4a2ffd6c21a3b662","665500ab8938657b03fbdba8","665792886c9e170b805a4e5e","200","stimuli/01110011.jpg"," ","","feedback_trial","2","","","","","","","","","","","","","","","","","","","","",""
"","","","","","image-keyboard-response","54","165019","0.0-29.0","6521ab1c4a2ffd6c21a3b662","665500ab8938657b03fbdba8","665792886c9e170b805a4e5e","736","stimuli/0001001.jpg","0","","prediction_trial","0","","true","","0","true","true","true","true","true","true","[0]","001","001","1","","","","","","",""
"","","","","","image-keyboard-response","55","165173","0.0-30.0","6521ab1c4a2ffd6c21a3b662","665500ab8938657b03fbdba8","665792886c9e170b805a4e5e","150","stimuli/00010010.jpg"," ","","feedback_trial","0","","","","","","","","","","","","","","","","","","","","",""
"","","","","","image-keyboard-response","56","165934","0.0-31.0","6521ab1c4a2ffd6c21a3b662","665500ab8938657b03fbdba8","665792886c9e170b805a4e5e","760","stimuli/1101001.jpg","1","","prediction_trial","1","","true","","1","true","true","true","true","true","true","[1]","101","001","1","","","","","","",""
"","","","","","image-keyboard-response","57","166061","0.0-32.0","6521ab1c4a2ffd6c21a3b662","665500ab8938657b03fbdba8","665792886c9e170b805a4e5e","123","stimuli/11010011.jpg"," ","","feedback_trial","1","","","","","","","","","","","","","","","","","","","","",""
"","","","","","image-keyboard-response","58","167150","0.0-33.0","6521ab1c4a2ffd6c21a3b662","665500ab8938657b03fbdba8","665792886c9e170b805a4e5e","1084","stimuli/1101010.jpg","1","","prediction_trial","1","","true","","1","false","true","true","true","false","true","[1]","101","010","1","","","","","","",""
"","","","","","image-keyboard-response","59","167290","0.0-34.0","6521ab1c4a2ffd6c21a3b662","665500ab8938657b03fbdba8","665792886c9e170b805a4e5e","136","stimuli/11010101.jpg"," ","","feedback_trial","1","","","","","","","","","","","","","","","","","","","","",""
"","","","","","image-keyboard-response","60","169411","0.0-35.0","6521ab1c4a2ffd6c21a3b662","665500ab8938657b03fbdba8","665792886c9e170b805a4e5e","2119","stimuli/1110111.jpg","1","","prediction_trial","1","","true","","1","false","false","false","false","false","false","[0,1]","110","111","1","","","","","","",""
"","","","","","image-keyboard-response","61","170037","0.0-36.0","6521ab1c4a2ffd6c21a3b662","665500ab8938657b03fbdba8","665792886c9e170b805a4e5e","621","stimuli/11101111.jpg"," ","","feedback_trial","0","","","","","","","","","","","","","","","","","","","","",""
"","","","","","image-keyboard-response","62","170656","0.0-37.0","6521ab1c4a2ffd6c21a3b662","665500ab8938657b03fbdba8","665792886c9e170b805a4e5e","614","stimuli/1100101.jpg","1","","prediction_trial","1","","true","","1","true","true","true","true","true","true","[1]","100","101","1","","","","","","",""
"","","","","","image-keyboard-response","63","170812","0.0-38.0","6521ab1c4a2ffd6c21a3b662","665500ab8938657b03fbdba8","665792886c9e170b805a4e5e","152","stimuli/11001011.jpg"," ","","feedback_trial","1","","","","","","","","","","","","","","","","","","","","",""
"","","","","","image-keyboard-response","64","173240","0.0-39.0","6521ab1c4a2ffd6c21a3b662","665500ab8938657b03fbdba8","665792886c9e170b805a4e5e","2423","stimuli/1011101.jpg","2","","prediction_trial","1","","false","","1","true","true","false","false","false","false","[1,2]","011","101","0","","","","","","",""
"","","","","","image-keyboard-response","65","173787","0.0-40.0","6521ab1c4a2ffd6c21a3b662","665500ab8938657b03fbdba8","665792886c9e170b805a4e5e","545","stimuli/10111011.jpg"," ","","feedback_trial","1","","","","","","","","","","","","","","","","","","","","",""
"","","","","","image-keyboard-response","66","175743","0.0-41.0","6521ab1c4a2ffd6c21a3b662","665500ab8938657b03fbdba8","665792886c9e170b805a4e5e","1951","stimuli/2001010.jpg","2","","prediction_trial","2","","true","","2","true","true","false","true","false","true","[2]","001","010","1","","","","","","",""
"","","","","","image-keyboard-response","67","176122","0.0-42.0","6521ab1c4a2ffd6c21a3b662","665500ab8938657b03fbdba8","665792886c9e170b805a4e5e","375","stimuli/20010102.jpg"," ","","feedback_trial","2","","","","","","","","","","","","","","","","","","","","",""
"","","","","","image-keyboard-response","68","176774","0.0-43.0","6521ab1c4a2ffd6c21a3b662","665500ab8938657b03fbdba8","665792886c9e170b805a4e5e","647","stimuli/2100110.jpg","2","","prediction_trial","2","","true","","2","true","true","true","true","true","true","[2]","100","110","1","","","","","","",""
"","","","","","image-keyboard-response","69","176867","0.0-44.0","6521ab1c4a2ffd6c21a3b662","665500ab8938657b03fbdba8","665792886c9e170b805a4e5e","89","stimuli/21001102.jpg"," ","","feedback_trial","2","","","","","","","","","","","","","","","","","","","","",""
"","","","","","image-keyboard-response","70","177471","0.0-45.0","6521ab1c4a2ffd6c21a3b662","665500ab8938657b03fbdba8","665792886c9e170b805a4e5e","599","stimuli/1100000.jpg","1","","prediction_trial","1","","true","","1","true","true","true","true","true","true","[1]","100","000","1","","","","","","",""
"","","","","","image-keyboard-response","71","177540","0.0-46.0","6521ab1c4a2ffd6c21a3b662","665500ab8938657b03fbdba8","665792886c9e170b805a4e5e","65","stimuli/11000001.jpg"," ","","feedback_trial","1","","","","","","","","","","","","","","","","","","","","",""
"","","","","","image-keyboard-response","72","178675","0.0-47.0","6521ab1c4a2ffd6c21a3b662","665500ab8938657b03fbdba8","665792886c9e170b805a4e5e","1133","stimuli/1111101.jpg","0","","prediction_trial","1","","false","","1","true","true","false","false","false","false","[2,0,1]","111","101","0","","","","","","",""
"","","","","","image-keyboard-response","73","179086","0.0-48.0","6521ab1c4a2ffd6c21a3b662","665500ab8938657b03fbdba8","665792886c9e170b805a4e5e","406","stimuli/11111011.jpg"," ","","feedback_trial","2","","","","","","","","","","","","","","","","","","","","",""
"","","","","","image-keyboard-response","74","179780","0.0-49.0","6521ab1c4a2ffd6c21a3b662","665500ab8938657b03fbdba8","665792886c9e170b805a4e5e","691","stimuli/0010001.jpg","0","","prediction_trial","0","","true","","0","true","true","true","true","true","true","[0]","010","001","1","","","","","","",""
"","","","","","image-keyboard-response","75","179914","0.0-50.0","6521ab1c4a2ffd6c21a3b662","665500ab8938657b03fbdba8","665792886c9e170b805a4e5e","129","stimuli/00100010.jpg"," ","","feedback_trial","0","","","","","","","","","","","","","","","","","","","","",""
"","","","","","image-keyboard-response","76","181022","0.0-51.0","6521ab1c4a2ffd6c21a3b662","665500ab8938657b03fbdba8","665792886c9e170b805a4e5e","1103","stimuli/0101101.jpg","2","","prediction_trial","0","","false","","0","false","false","false","false","false","false","[0,2]","101","101","0","","","","","","",""
"","","","","","image-keyboard-response","77","181212","0.0-52.0","6521ab1c4a2ffd6c21a3b662","665500ab8938657b03fbdba8","665792886c9e170b805a4e5e","185","stimuli/01011010.jpg"," ","","feedback_trial","0","","","","","","","","","","","","","","","","","","","","",""
"","","","","","image-keyboard-response","78","182797","0.0-53.0","6521ab1c4a2ffd6c21a3b662","665500ab8938657b03fbdba8","665792886c9e170b805a4e5e","1585","stimuli/1111011.jpg","2","","prediction_trial","2","","true","","1","false","false","false","false","false","false","[1,0,2]","111","011","1","","","","","","",""
"","","","","","image-keyboard-response","79","183042","0.0-54.0","6521ab1c4a2ffd6c21a3b662","665500ab8938657b03fbdba8","665792886c9e170b805a4e5e","234","stimuli/11110112.jpg"," ","","feedback_trial","1","","","","","","","","","","","","","","","","","","","","",""
"","","","","","image-keyboard-response","80","184099","0.0-55.0","6521ab1c4a2ffd6c21a3b662","665500ab8938657b03fbdba8","665792886c9e170b805a4e5e","1051","stimuli/0111101.jpg","0","","prediction_trial","2","","false","","0","false","false","false","false","false","false","[0,2,1]","111","101","0","","","","","","",""
"","","","","","image-keyboard-response","81","184218","0.0-56.0","6521ab1c4a2ffd6c21a3b662","665500ab8938657b03fbdba8","665792886c9e170b805a4e5e","118","stimuli/01111012.jpg"," ","","feedback_trial","0","","","","","","","","","","","","","","","","","","","","",""
"","","","","","image-keyboard-response","82","186023","0.0-57.0","6521ab1c4a2ffd6c21a3b662","665500ab8938657b03fbdba8","665792886c9e170b805a4e5e","1800","stimuli/2110000.jpg","2","","prediction_trial","2","","true","","2","true","true","true","true","true","true","[2]","110","000","1","","","","","","",""
"","","","","","image-keyboard-response","83","186130","0.0-58.0","6521ab1c4a2ffd6c21a3b662","665500ab8938657b03fbdba8","665792886c9e170b805a4e5e","103","stimuli/21100002.jpg"," ","","feedback_trial","2","","","","","","","","","","","","","","","","","","","","",""
"","","","","","image-keyboard-response","84","186718","0.0-59.0","6521ab1c4a2ffd6c21a3b662","665500ab8938657b03fbdba8","665792886c9e170b805a4e5e","584","stimuli/0001000.jpg","0","","prediction_trial","0","","true","","0","true","true","true","true","true","true","[0]","001","000","1","","","","","","",""
"","","","","","image-keyboard-response","85","186802","0.0-60.0","6521ab1c4a2ffd6c21a3b662","665500ab8938657b03fbdba8","665792886c9e170b805a4e5e","80","stimuli/00010000.jpg"," ","","feedback_trial","0","","","","","","","","","","","","","","","","","","","","",""
"","","","","","image-keyboard-response","86","187340","0.0-61.0","6521ab1c4a2ffd6c21a3b662","665500ab8938657b03fbdba8","665792886c9e170b805a4e5e","536","stimuli/2110110.jpg","2","","prediction_trial","2","","true","","2","true","true","true","true","true","true","[2]","110","110","1","","","","","","",""
"","","","","","image-keyboard-response","87","187431","0.0-62.0","6521ab1c4a2ffd6c21a3b662","665500ab8938657b03fbdba8","665792886c9e170b805a4e5e","86","stimuli/21101102.jpg"," ","","feedback_trial","2","","","","","","","","","","","","","","","","","","","","",""
"","","","","","image-keyboard-response","88","188090","0.0-63.0","6521ab1c4a2ffd6c21a3b662","665500ab8938657b03fbdba8","665792886c9e170b805a4e5e","657","stimuli/2100100.jpg","2","","prediction_trial","2","","true","","2","true","true","true","true","true","true","[2]","100","100","1","","","","","","",""
"","","","","","image-keyboard-response","89","188180","0.0-64.0","6521ab1c4a2ffd6c21a3b662","665500ab8938657b03fbdba8","665792886c9e170b805a4e5e","84","stimuli/21001002.jpg"," ","","feedback_trial","2","","","","","","","","","","","","","","","","","","","","",""
"","","","","","image-keyboard-response","90","188745","0.0-65.0","6521ab1c4a2ffd6c21a3b662","665500ab8938657b03fbdba8","665792886c9e170b805a4e5e","562","stimuli/2000010.jpg","2","","prediction_trial","2","","true","","2","true","true","true","true","true","true","[2]","000","010","1","","","","","","",""
"","","","","","image-keyboard-response","91","188820","0.0-66.0","6521ab1c4a2ffd6c21a3b662","665500ab8938657b03fbdba8","665792886c9e170b805a4e5e","70","stimuli/20000102.jpg"," ","","feedback_trial","2","","","","","","","","","","","","","","","","","","","","",""
"","","","","","image-keyboard-response","92","189381","0.0-67.0","6521ab1c4a2ffd6c21a3b662","665500ab8938657b03fbdba8","665792886c9e170b805a4e5e","559","stimuli/1100100.jpg","1","","prediction_trial","1","","true","","1","true","true","true","true","true","true","[1]","100","100","1","","","","","","",""
"","","","","","image-keyboard-response","93","189438","0.0-68.0","6521ab1c4a2ffd6c21a3b662","665500ab8938657b03fbdba8","665792886c9e170b805a4e5e","53","stimuli/11001001.jpg"," ","","feedback_trial","1","","","","","","","","","","","","","","","","","","","","",""
"","","","","","image-keyboard-response","94","191827","0.0-69.0","6521ab1c4a2ffd6c21a3b662","665500ab8938657b03fbdba8","665792886c9e170b805a4e5e","2388","stimuli/0101001.jpg","2","","prediction_trial","2","","true","","0","true","true","false","false","false","false","[0,2]","101","001","1","","","","","","",""
"","","","","","image-keyboard-response","95","192341","0.0-70.0","6521ab1c4a2ffd6c21a3b662","665500ab8938657b03fbdba8","665792886c9e170b805a4e5e","509","stimuli/01010012.jpg"," ","","feedback_trial","0","","","","","","","","","","","","","","","","","","","","",""
"","","","","","image-keyboard-response","96","194836","0.0-71.0","6521ab1c4a2ffd6c21a3b662","665500ab8938657b03fbdba8","665792886c9e170b805a4e5e","2490","stimuli/0100001.jpg","0","","prediction_trial","0","","true","","0","true","true","false","true","false","true","[0]","100","001","1","","","","","","",""
"","","","","","image-keyboard-response","97","195012","0.0-72.0","6521ab1c4a2ffd6c21a3b662","665500ab8938657b03fbdba8","665792886c9e170b805a4e5e","171","stimuli/01000010.jpg"," ","","feedback_trial","0","","","","","","","","","","","","","","","","","","","","",""
"","","","","","image-keyboard-response","98","196813","0.0-73.0","6521ab1c4a2ffd6c21a3b662","665500ab8938657b03fbdba8","665792886c9e170b805a4e5e","1796","stimuli/2010101.jpg","0","","prediction_trial","2","","false","","2","false","false","true","true","false","false","[2]","010","101","0","","","","","","",""
"","","","","","image-keyboard-response","99","197250","0.0-74.0","6521ab1c4a2ffd6c21a3b662","665500ab8938657b03fbdba8","665792886c9e170b805a4e5e","434","stimuli/20101012.jpg"," ","","feedback_trial","2","","","","","","","","","","","","","","","","","","","","",""
"","","","","","image-keyboard-response","100","198471","0.0-75.0","6521ab1c4a2ffd6c21a3b662","665500ab8938657b03fbdba8","665792886c9e170b805a4e5e","1220","stimuli/1101111.jpg","2","","prediction_trial","1","","false","","1","false","false","true","true","false","false","[1]","101","111","0","","","","","","",""
"","","","","","image-keyboard-response","101","199111","0.0-76.0","6521ab1c4a2ffd6c21a3b662","665500ab8938657b03fbdba8","665792886c9e170b805a4e5e","635","stimuli/11011111.jpg"," ","","feedback_trial","1","","","","","","","","","","","","","","","","","","","","",""
"","","","","","image-keyboard-response","102","200454","0.0-77.0","6521ab1c4a2ffd6c21a3b662","665500ab8938657b03fbdba8","665792886c9e170b805a4e5e","1339","stimuli/0101100.jpg","0","","prediction_trial","2","","false","","0","false","true","false","false","false","false","[0,2]","101","100","0","","","","","","",""
"","","","","","image-keyboard-response","103","201058","0.0-78.0","6521ab1c4a2ffd6c21a3b662","665500ab8938657b03fbdba8","665792886c9e170b805a4e5e","598","stimuli/01011002.jpg"," ","","feedback_trial","0","","","","","","","","","","","","","","","","","","","","",""
"","","","","","image-keyboard-response","104","201858","0.0-79.0","6521ab1c4a2ffd6c21a3b662","665500ab8938657b03fbdba8","665792886c9e170b805a4e5e","796","stimuli/0010011.jpg","0","","prediction_trial","0","","true","","0","true","true","true","true","true","true","[0]","010","011","1","","","","","","",""
"","","","","","image-keyboard-response","105","201966","0.0-80.0","6521ab1c4a2ffd6c21a3b662","665500ab8938657b03fbdba8","665792886c9e170b805a4e5e","103","stimuli/00100110.jpg"," ","","feedback_trial","0","","","","","","","","","","","","","","","","","","","","",""
"","","","","","image-keyboard-response","106","203108","0.0-81.0","6521ab1c4a2ffd6c21a3b662","665500ab8938657b03fbdba8","665792886c9e170b805a4e5e","1137","stimuli/2101110.jpg","0","","prediction_trial","2","","false","","2","true","true","false","false","false","false","[2,0]","101","110","0","","","","","","",""
"","","","","","image-keyboard-response","107","203627","0.0-82.0","6521ab1c4a2ffd6c21a3b662","665500ab8938657b03fbdba8","665792886c9e170b805a4e5e","515","stimuli/21011102.jpg"," ","","feedback_trial","2","","","","","","","","","","","","","","","","","","","","",""
"","","","","","image-keyboard-response","108","205173","0.0-83.0","6521ab1c4a2ffd6c21a3b662","665500ab8938657b03fbdba8","665792886c9e170b805a4e5e","1541","stimuli/1001111.jpg","0","","prediction_trial","1","","false","","1","false","false","true","true","false","false","[1]","001","111","0","","","","","","",""
"","","","","","image-keyboard-response","109","205880","0.0-84.0","6521ab1c4a2ffd6c21a3b662","665500ab8938657b03fbdba8","665792886c9e170b805a4e5e","702","stimuli/10011111.jpg"," ","","feedback_trial","1","","","","","","","","","","","","","","","","","","","","",""
"","","","","","image-keyboard-response","110","207212","0.0-85.0","6521ab1c4a2ffd6c21a3b662","665500ab8938657b03fbdba8","665792886c9e170b805a4e5e","1328","stimuli/1101110.jpg","2","","prediction_trial","1","","false","","1","false","false","true","true","false","false","[1]","101","110","0","","","","","","",""
"","","","","","image-keyboard-response","111","207745","0.0-86.0","6521ab1c4a2ffd6c21a3b662","665500ab8938657b03fbdba8","665792886c9e170b805a4e5e","529","stimuli/11011101.jpg"," ","","feedback_trial","1","","","","","","","","","","","","","","","","","","","","",""
"","","","","","image-keyboard-response","112","210037","0.0-87.0","6521ab1c4a2ffd6c21a3b662","665500ab8938657b03fbdba8","665792886c9e170b805a4e5e","2287","stimuli/1110100.jpg","0","","prediction_trial","0","","true","","1","true","true","false","false","false","false","[1,0]","110","100","1","","","","","","",""
"","","","","","image-keyboard-response","113","210375","0.0-88.0","6521ab1c4a2ffd6c21a3b662","665500ab8938657b03fbdba8","665792886c9e170b805a4e5e","333","stimuli/11101000.jpg"," ","","feedback_trial","1","","","","","","","","","","","","","","","","","","","","",""
"","","","","","image-keyboard-response","114","211705","0.0-89.0","6521ab1c4a2ffd6c21a3b662","665500ab8938657b03fbdba8","665792886c9e170b805a4e5e","1330","stimuli/1001010.jpg","1","","prediction_trial","1","","true","","1","false","true","true","true","false","true","[1]","001","010","1","","","","","","",""
"","","","","","image-keyboard-response","115","212001","0.0-90.0","6521ab1c4a2ffd6c21a3b662","665500ab8938657b03fbdba8","665792886c9e170b805a4e5e","292","stimuli/10010101.jpg"," ","","feedback_trial","1","","","","","","","","","","","","","","","","","","","","",""
"","","","","","image-keyboard-response","116","213201","0.0-91.0","6521ab1c4a2ffd6c21a3b662","665500ab8938657b03fbdba8","665792886c9e170b805a4e5e","1194","stimuli/0010100.jpg","0","","prediction_trial","0","","true","","0","false","true","true","true","false","true","[0]","010","100","1","","","","","","",""
"","","","","","image-keyboard-response","117","213530","0.0-92.0","6521ab1c4a2ffd6c21a3b662","665500ab8938657b03fbdba8","665792886c9e170b805a4e5e","326","stimuli/00101000.jpg"," ","","feedback_trial","0","","","","","","","","","","","","","","","","","","","","",""
"","","","","","image-keyboard-response","118","214997","0.0-93.0","6521ab1c4a2ffd6c21a3b662","665500ab8938657b03fbdba8","665792886c9e170b805a4e5e","1462","stimuli/1111100.jpg","2","","prediction_trial","2","","true","","1","true","true","false","false","false","false","[1,2,0]","111","100","1","","","","","","",""
"","","","","","image-keyboard-response","119","215386","0.0-94.0","6521ab1c4a2ffd6c21a3b662","665500ab8938657b03fbdba8","665792886c9e170b805a4e5e","384","stimuli/11111002.jpg"," ","","feedback_trial","1","","","","","","","","","","","","","","","","","","","","",""
"","","","","","image-keyboard-response","120","218270","0.0-95.0","6521ab1c4a2ffd6c21a3b662","665500ab8938657b03fbdba8","665792886c9e170b805a4e5e","2879","stimuli/1100011.jpg","1","","prediction_trial","1","","true","","1","false","false","true","true","false","false","[1]","100","011","1","","","","","","",""
"","","","","","image-keyboard-response","121","218723","0.0-96.0","6521ab1c4a2ffd6c21a3b662","665500ab8938657b03fbdba8","665792886c9e170b805a4e5e","448","stimuli/11000111.jpg"," ","","feedback_trial","1","","","","","","","","","","","","","","","","","","","","",""
"","","","","","image-keyboard-response","122","219866","0.0-97.0","6521ab1c4a2ffd6c21a3b662","665500ab8938657b03fbdba8","665792886c9e170b805a4e5e","1138","stimuli/1111111.jpg","2","","prediction_trial","0","","false","","1","false","false","false","false","false","false","[0,2,1]","111","111","0","","","","","","",""
"","","","","","image-keyboard-response","123","220364","0.0-98.0","6521ab1c4a2ffd6c21a3b662","665500ab8938657b03fbdba8","665792886c9e170b805a4e5e","494","stimuli/11111110.jpg"," ","","feedback_trial","0","","","","","","","","","","","","","","","","","","","","",""
"","","","","","image-keyboard-response","124","221640","0.0-99.0","6521ab1c4a2ffd6c21a3b662","665500ab8938657b03fbdba8","665792886c9e170b805a4e5e","1274","stimuli/1111010.jpg","1","","prediction_trial","1","","true","","1","false","true","false","false","false","false","[1,0,2]","111","010","1","","","","","","",""
"","","","","","image-keyboard-response","125","221964","0.0-100.0","6521ab1c4a2ffd6c21a3b662","665500ab8938657b03fbdba8","665792886c9e170b805a4e5e","319","stimuli/11110101.jpg"," ","","feedback_trial","1","","","","","","","","","","","","","","","","","","","","",""
"","","","","","image-keyboard-response","126","225391","0.0-101.0","6521ab1c4a2ffd6c21a3b662","665500ab8938657b03fbdba8","665792886c9e170b805a4e5e","3422","stimuli/1100110.jpg","0","","prediction_trial","1","","false","","1","false","false","true","true","false","false","[1]","100","110","0","","","","","","",""
"","","","","","image-keyboard-response","127","225880","0.0-102.0","6521ab1c4a2ffd6c21a3b662","665500ab8938657b03fbdba8","665792886c9e170b805a4e5e","484","stimuli/11001101.jpg"," ","","feedback_trial","1","","","","","","","","","","","","","","","","","","","","",""
"","","","","","image-keyboard-response","128","227529","0.0-103.0","6521ab1c4a2ffd6c21a3b662","665500ab8938657b03fbdba8","665792886c9e170b805a4e5e","1645","stimuli/2101111.jpg","1","","prediction_trial","2","","false","","2","false","false","false","false","false","false","[2,0]","101","111","0","","","","","","",""
"","","","","","image-keyboard-response","129","228074","0.0-104.0","6521ab1c4a2ffd6c21a3b662","665500ab8938657b03fbdba8","665792886c9e170b805a4e5e","540","stimuli/21011112.jpg"," ","","feedback_trial","2","","","","","","","","","","","","","","","","","","","","",""
"","","","","","image-keyboard-response","130","229783","0.0-105.0","6521ab1c4a2ffd6c21a3b662","665500ab8938657b03fbdba8","665792886c9e170b805a4e5e","1707","stimuli/2000011.jpg","2","","prediction_trial","2","","true","","2","false","false","true","true","false","false","[2]","000","011","1","","","","","","",""
"","","","","","image-keyboard-response","131","230127","0.0-106.0","6521ab1c4a2ffd6c21a3b662","665500ab8938657b03fbdba8","665792886c9e170b805a4e5e","340","stimuli/20000112.jpg"," ","","feedback_trial","2","","","","","","","","","","","","","","","","","","","","",""
"","","","","","image-keyboard-response","132","231331","0.0-107.0","6521ab1c4a2ffd6c21a3b662","665500ab8938657b03fbdba8","665792886c9e170b805a4e5e","1199","stimuli/0101111.jpg","0","","prediction_trial","0","","true","","0","false","false","false","false","false","false","[2,0]","101","111","1","","","","","","",""
"","","","","","image-keyboard-response","133","231478","0.0-108.0","6521ab1c4a2ffd6c21a3b662","665500ab8938657b03fbdba8","665792886c9e170b805a4e5e","142","stimuli/01011110.jpg"," ","","feedback_trial","2","","","","","","","","","","","","","","","","","","","","",""
"","","","","","image-keyboard-response","134","234877","0.0-109.0","6521ab1c4a2ffd6c21a3b662","665500ab8938657b03fbdba8","665792886c9e170b805a4e5e","3395","stimuli/2001100.jpg","2","","prediction_trial","2","","true","","2","true","true","false","true","false","true","[2]","001","100","1","","","","","","",""
"","","","","","image-keyboard-response","135","235042","0.0-110.0","6521ab1c4a2ffd6c21a3b662","665500ab8938657b03fbdba8","665792886c9e170b805a4e5e","165","stimuli/20011002.jpg"," ","","feedback_trial","2","","","","","","","","","","","","","","","","","","","","",""
"","","","","","image-keyboard-response","136","237032","0.0-111.0","6521ab1c4a2ffd6c21a3b662","665500ab8938657b03fbdba8","665792886c9e170b805a4e5e","1985","stimuli/2010110.jpg","1","","prediction_trial","2","","false","","2","true","true","true","true","true","true","[2]","010","110","0","","","","","","",""
"","","","","","image-keyboard-response","137","237950","0.0-112.0","6521ab1c4a2ffd6c21a3b662","665500ab8938657b03fbdba8","665792886c9e170b805a4e5e","915","stimuli/20101102.jpg"," ","","feedback_trial","2","","","","","","","","","","","","","","","","","","","","",""
"","","","","","image-keyboard-response","138","238903","0.0-113.0","6521ab1c4a2ffd6c21a3b662","665500ab8938657b03fbdba8","665792886c9e170b805a4e5e","948","stimuli/0111011.jpg","0","","prediction_trial","2","","false","","0","true","true","false","false","false","false","[1,2,0]","111","011","0","","","","","","",""
"","","","","","image-keyboard-response","139","239279","0.0-114.0","6521ab1c4a2ffd6c21a3b662","665500ab8938657b03fbdba8","665792886c9e170b805a4e5e","371","stimuli/01110112.jpg"," ","","feedback_trial","1","","","","","","","","","","","","","","","","","","","","",""
"","","","","","image-keyboard-response","140","240775","0.0-115.0","6521ab1c4a2ffd6c21a3b662","665500ab8938657b03fbdba8","665792886c9e170b805a4e5e","1491","stimuli/0001101.jpg","2","","prediction_trial","0","","false","","0","false","false","true","true","false","false","[0]","001","101","0","","","","","","",""
"","","","","","image-keyboard-response","141","241198","0.0-116.0","6521ab1c4a2ffd6c21a3b662","665500ab8938657b03fbdba8","665792886c9e170b805a4e5e","418","stimuli/00011010.jpg"," ","","feedback_trial","0","","","","","","","","","","","","","","","","","","","","",""
"","","","","","image-keyboard-response","142","242054","0.0-117.0","6521ab1c4a2ffd6c21a3b662","665500ab8938657b03fbdba8","665792886c9e170b805a4e5e","851","stimuli/2010100.jpg","2","","prediction_trial","2","","true","","2","true","true","true","true","true","true","[2]","010","100","1","","","","","","",""
"","","","","","image-keyboard-response","143","242229","0.0-118.0","6521ab1c4a2ffd6c21a3b662","665500ab8938657b03fbdba8","665792886c9e170b805a4e5e","171","stimuli/20101002.jpg"," ","","feedback_trial","2","","","","","","","","","","","","","","","","","","","","",""
"","","","","","image-keyboard-response","144","242740","0.0-119.0","6521ab1c4a2ffd6c21a3b662","665500ab8938657b03fbdba8","665792886c9e170b805a4e5e","509","stimuli/2000110.jpg","2","","prediction_trial","2","","true","","2","true","true","true","true","true","true","[2]","000","110","1","","","","","","",""
"","","","","","image-keyboard-response","145","242840","0.0-120.0","6521ab1c4a2ffd6c21a3b662","665500ab8938657b03fbdba8","665792886c9e170b805a4e5e","96","stimuli/20001102.jpg"," ","","feedback_trial","2","","","","","","","","","","","","","","","","","","","","",""
"","","","","","image-keyboard-response","146","243963","0.0-121.0","6521ab1c4a2ffd6c21a3b662","665500ab8938657b03fbdba8","665792886c9e170b805a4e5e","1117","stimuli/0100011.jpg","1","","prediction_trial","0","","false","","0","true","true","false","true","false","true","[0]","100","011","0","","","","","","",""
"","","","","","image-keyboard-response","147","244238","0.0-122.0","6521ab1c4a2ffd6c21a3b662","665500ab8938657b03fbdba8","665792886c9e170b805a4e5e","270","stimuli/01000110.jpg"," ","","feedback_trial","0","","","","","","","","","","","","","","","","","","","","",""
"","","","","","image-keyboard-response","148","246361","0.0-123.0","6521ab1c4a2ffd6c21a3b662","665500ab8938657b03fbdba8","665792886c9e170b805a4e5e","2122","stimuli/1000111.jpg","0","","prediction_trial","1","","false","","1","false","false","true","true","false","false","[1]","000","111","0","","","","","","",""
"","","","","","image-keyboard-response","149","246818","0.0-124.0","6521ab1c4a2ffd6c21a3b662","665500ab8938657b03fbdba8","665792886c9e170b805a4e5e","453","stimuli/10001111.jpg"," ","","feedback_trial","1","","","","","","","","","","","","","","","","","","","","",""
"","","","","","image-keyboard-response","150","248941","0.0-125.0","6521ab1c4a2ffd6c21a3b662","665500ab8938657b03fbdba8","665792886c9e170b805a4e5e","2121","stimuli/1010100.jpg","1","","prediction_trial","1","","true","","1","true","true","false","true","false","true","[1]","010","100","1","","","","","","",""
"","","","","","image-keyboard-response","151","249042","0.0-126.0","6521ab1c4a2ffd6c21a3b662","665500ab8938657b03fbdba8","665792886c9e170b805a4e5e","96","stimuli/10101001.jpg"," ","","feedback_trial","1","","","","","","","","","","","","","","","","","","","","",""
"","","","","","image-keyboard-response","152","249818","0.0-127.0","6521ab1c4a2ffd6c21a3b662","665500ab8938657b03fbdba8","665792886c9e170b805a4e5e","771","stimuli/1101000.jpg","1","","prediction_trial","1","","true","","1","true","true","true","true","true","true","[1]","101","000","1","","","","","","",""
"","","","","","image-keyboard-response","153","249934","0.0-128.0","6521ab1c4a2ffd6c21a3b662","665500ab8938657b03fbdba8","665792886c9e170b805a4e5e","114","stimuli/11010001.jpg"," ","","feedback_trial","1","","","","","","","","","","","","","","","","","","","","",""
"","","","","","image-keyboard-response","154","254042","0.0-129.0","6521ab1c4a2ffd6c21a3b662","665500ab8938657b03fbdba8","665792886c9e170b805a4e5e","4103","stimuli/2100011.jpg","1","","prediction_trial","2","","false","","2","false","false","true","true","false","false","[2]","100","011","0","","","","","","",""
"","","","","","image-keyboard-response","155","254453","0.0-130.0","6521ab1c4a2ffd6c21a3b662","665500ab8938657b03fbdba8","665792886c9e170b805a4e5e","406","stimuli/21000112.jpg"," ","","feedback_trial","2","","","","","","","","","","","","","","","","","","","","",""
"","","","","","image-keyboard-response","156","255289","0.0-131.0","6521ab1c4a2ffd6c21a3b662","665500ab8938657b03fbdba8","665792886c9e170b805a4e5e","831","stimuli/2010000.jpg","2","","prediction_trial","2","","true","","2","true","true","true","true","true","true","[2]","010","000","1","","","","","","",""
"","","","","","image-keyboard-response","157","255390","0.0-132.0","6521ab1c4a2ffd6c21a3b662","665500ab8938657b03fbdba8","665792886c9e170b805a4e5e","100","stimuli/20100002.jpg"," ","","feedback_trial","2","","","","","","","","","","","","","","","","","","","","",""
"","","","","","image-keyboard-response","158","257476","0.0-133.0","6521ab1c4a2ffd6c21a3b662","665500ab8938657b03fbdba8","665792886c9e170b805a4e5e","2084","stimuli/1000011.jpg","1","","prediction_trial","1","","true","","1","false","false","true","true","false","false","[1]","000","011","1","","","","","","",""
"","","","","","image-keyboard-response","159","257639","0.0-134.0","6521ab1c4a2ffd6c21a3b662","665500ab8938657b03fbdba8","665792886c9e170b805a4e5e","158","stimuli/10000111.jpg"," ","","feedback_trial","1","","","","","","","","","","","","","","","","","","","","",""
"","","","","","image-keyboard-response","160","258474","0.0-135.0","6521ab1c4a2ffd6c21a3b662","665500ab8938657b03fbdba8","665792886c9e170b805a4e5e","830","stimuli/1000001.jpg","1","","prediction_trial","1","","true","","1","true","true","true","true","true","true","[1]","000","001","1","","","","","","",""
"","","","","","image-keyboard-response","161","258574","0.0-136.0","6521ab1c4a2ffd6c21a3b662","665500ab8938657b03fbdba8","665792886c9e170b805a4e5e","95","stimuli/10000011.jpg"," ","","feedback_trial","1","","","","","","","","","","","","","","","","","","","","",""
"","","","","","image-keyboard-response","162","260576","0.0-137.0","6521ab1c4a2ffd6c21a3b662","665500ab8938657b03fbdba8","665792886c9e170b805a4e5e","1998","stimuli/2111011.jpg","1","","prediction_trial","0","","false","","2","false","false","false","false","false","false","[0,2,1]","111","011","0","","","","","","",""
"","","","","","image-keyboard-response","163","260674","0.0-138.0","6521ab1c4a2ffd6c21a3b662","665500ab8938657b03fbdba8","665792886c9e170b805a4e5e","93","stimuli/21110110.jpg"," ","","feedback_trial","0","","","","","","","","","","","","","","","","","","","","",""
"","","","","","image-keyboard-response","164","261808","0.0-139.0","6521ab1c4a2ffd6c21a3b662","665500ab8938657b03fbdba8","665792886c9e170b805a4e5e","1129","stimuli/0000101.jpg","2","","prediction_trial","0","","false","","0","false","false","true","true","false","false","[0]","000","101","0","","","","","","",""
"","","","","","image-keyboard-response","165","262356","0.0-140.0","6521ab1c4a2ffd6c21a3b662","665500ab8938657b03fbdba8","665792886c9e170b805a4e5e","543","stimuli/00001010.jpg"," ","","feedback_trial","0","","","","","","","","","","","","","","","","","","","","",""
"","","","","","image-keyboard-response","166","263769","0.0-141.0","6521ab1c4a2ffd6c21a3b662","665500ab8938657b03fbdba8","665792886c9e170b805a4e5e","1408","stimuli/2001000.jpg","2","","prediction_trial","2","","true","","2","true","true","false","true","false","true","[2]","001","000","1","","","","","","",""
"","","","","","image-keyboard-response","167","263874","0.0-142.0","6521ab1c4a2ffd6c21a3b662","665500ab8938657b03fbdba8","665792886c9e170b805a4e5e","100","stimuli/20010002.jpg"," ","","feedback_trial","2","","","","","","","","","","","","","","","","","","","","",""
"","","","","","image-keyboard-response","168","265216","0.0-143.0","6521ab1c4a2ffd6c21a3b662","665500ab8938657b03fbdba8","665792886c9e170b805a4e5e","1338","stimuli/1010001.jpg","1","","prediction_trial","1","","true","","1","true","true","false","true","false","true","[1]","010","001","1","","","","","","",""
"","","","","","image-keyboard-response","169","265311","0.0-144.0","6521ab1c4a2ffd6c21a3b662","665500ab8938657b03fbdba8","665792886c9e170b805a4e5e","90","stimuli/10100011.jpg"," ","","feedback_trial","1","","","","","","","","","","","","","","","","","","","","",""
"","","","","","image-keyboard-response","170","266798","0.0-145.0","6521ab1c4a2ffd6c21a3b662","665500ab8938657b03fbdba8","665792886c9e170b805a4e5e","1482","stimuli/0111100.jpg","1","","prediction_trial","0","","false","","0","false","true","false","false","false","false","[0,1,2]","111","100","0","","","","","","",""
"","","","","","image-keyboard-response","171","266908","0.0-146.0","6521ab1c4a2ffd6c21a3b662","665500ab8938657b03fbdba8","665792886c9e170b805a4e5e","105","stimuli/01111000.jpg"," ","","feedback_trial","0","","","","","","","","","","","","","","","","","","","","",""
"","","","","","image-keyboard-response","172","268716","0.0-147.0","6521ab1c4a2ffd6c21a3b662","665500ab8938657b03fbdba8","665792886c9e170b805a4e5e","1782","stimuli/2100101.jpg","0","","prediction_trial","2","","false","","2","false","false","true","true","false","false","[2]","100","101","0","","","","","","",""
"","","","","","image-keyboard-response","173","269037","0.0-148.0","6521ab1c4a2ffd6c21a3b662","665500ab8938657b03fbdba8","665792886c9e170b805a4e5e","316","stimuli/21001012.jpg"," ","","feedback_trial","2","","","","","","","","","","","","","","","","","","","","",""
"","","","","","image-keyboard-response","174","269678","0.0-149.0","6521ab1c4a2ffd6c21a3b662","665500ab8938657b03fbdba8","665792886c9e170b805a4e5e","636","stimuli/2110010.jpg","2","","prediction_trial","2","","true","","2","true","true","true","true","true","true","[2]","110","010","1","","","","","","",""
"","","","","","image-keyboard-response","175","269773","0.0-150.0","6521ab1c4a2ffd6c21a3b662","665500ab8938657b03fbdba8","665792886c9e170b805a4e5e","90","stimuli/21100102.jpg"," ","","feedback_trial","2","","","","","","","","","","","","","","","","","","","","",""
"","","","","","image-keyboard-response","176","270909","0.0-151.0","6521ab1c4a2ffd6c21a3b662","665500ab8938657b03fbdba8","665792886c9e170b805a4e5e","1131","stimuli/0010101.jpg","2","","prediction_trial","0","","false","","0","false","false","true","true","false","false","[0]","010","101","0","","","","","","",""
"","","","","","image-keyboard-response","177","271204","0.0-152.0","6521ab1c4a2ffd6c21a3b662","665500ab8938657b03fbdba8","665792886c9e170b805a4e5e","291","stimuli/00101010.jpg"," ","","feedback_trial","0","","","","","","","","","","","","","","","","","","","","",""
"","","","","","image-keyboard-response","178","273713","0.0-153.0","6521ab1c4a2ffd6c21a3b662","665500ab8938657b03fbdba8","665792886c9e170b805a4e5e","2504","stimuli/0110100.jpg","1","","prediction_trial","0","","false","","0","false","true","false","false","false","false","[0,1]","110","100","0","","","","","","",""
"","","","","","image-keyboard-response","179","273842","0.0-154.0","6521ab1c4a2ffd6c21a3b662","665500ab8938657b03fbdba8","665792886c9e170b805a4e5e","124","stimuli/01101000.jpg"," ","","feedback_trial","0","","","","","","","","","","","","","","","","","","","","",""
"","","","","","image-keyboard-response","180","275591","0.0-155.0","6521ab1c4a2ffd6c21a3b662","665500ab8938657b03fbdba8","665792886c9e170b805a4e5e","1745","stimuli/1100010.jpg","1","","prediction_trial","1","","true","","1","false","true","true","true","false","true","[1]","100","010","1","","","","","","",""
"","","","","","image-keyboard-response","181","275723","0.0-156.0","6521ab1c4a2ffd6c21a3b662","665500ab8938657b03fbdba8","665792886c9e170b805a4e5e","126","stimuli/11000101.jpg"," ","","feedback_trial","1","","","","","","","","","","","","","","","","","","","","",""
"","","","","","image-keyboard-response","182","277110","0.0-157.0","6521ab1c4a2ffd6c21a3b662","665500ab8938657b03fbdba8","665792886c9e170b805a4e5e","1383","stimuli/1110010.jpg","0","","prediction_trial","0","","true","","1","false","true","false","false","false","false","[0,1]","110","010","1","","","","","","",""
"","","","","","image-keyboard-response","183","277418","0.0-158.0","6521ab1c4a2ffd6c21a3b662","665500ab8938657b03fbdba8","665792886c9e170b805a4e5e","306","stimuli/11100100.jpg"," ","","feedback_trial","0","","","","","","","","","","","","","","","","","","","","",""
"","","","","","image-keyboard-response","184","278457","0.0-159.0","6521ab1c4a2ffd6c21a3b662","665500ab8938657b03fbdba8","665792886c9e170b805a4e5e","1038","stimuli/2011011.jpg","2","","prediction_trial","1","","false","","2","false","false","false","false","false","false","[1,2]","011","011","0","","","","","","",""
"","","","","","image-keyboard-response","185","278898","0.0-160.0","6521ab1c4a2ffd6c21a3b662","665500ab8938657b03fbdba8","665792886c9e170b805a4e5e","436","stimuli/20110111.jpg"," ","","feedback_trial","1","","","","","","","","","","","","","","","","","","","","",""
"","","","","","image-keyboard-response","186","279728","0.0-161.0","6521ab1c4a2ffd6c21a3b662","665500ab8938657b03fbdba8","665792886c9e170b805a4e5e","826","stimuli/0010000.jpg","0","","prediction_trial","0","","true","","0","true","true","true","true","true","true","[0]","010","000","1","","","","","","",""
"","","","","","image-keyboard-response","187","279825","0.0-162.0","6521ab1c4a2ffd6c21a3b662","665500ab8938657b03fbdba8","665792886c9e170b805a4e5e","94","stimuli/00100000.jpg"," ","","feedback_trial","0","","","","","","","","","","","","","","","","","","","","",""
"","","","","","image-keyboard-response","188","280905","0.0-163.0","6521ab1c4a2ffd6c21a3b662","665500ab8938657b03fbdba8","665792886c9e170b805a4e5e","1078","stimuli/1111110.jpg","0","","prediction_trial","0","","true","","1","false","false","false","false","false","false","[2,1,0]","111","110","1","","","","","","",""
"","","","","","image-keyboard-response","189","281037","0.0-164.0","6521ab1c4a2ffd6c21a3b662","665500ab8938657b03fbdba8","665792886c9e170b805a4e5e","130","stimuli/11111100.jpg"," ","","feedback_trial","2","","","","","","","","","","","","","","","","","","","","",""
"","","","","","image-keyboard-response","190","282410","0.0-165.0","6521ab1c4a2ffd6c21a3b662","665500ab8938657b03fbdba8","665792886c9e170b805a4e5e","1368","stimuli/0110011.jpg","1","","prediction_trial","0","","false","","0","true","true","false","false","false","false","[1,0]","110","011","0","","","","","","",""
"","","","","","image-keyboard-response","191","282597","0.0-166.0","6521ab1c4a2ffd6c21a3b662","665500ab8938657b03fbdba8","665792886c9e170b805a4e5e","182","stimuli/01100110.jpg"," ","","feedback_trial","1","","","","","","","","","","","","","","","","","","","","",""
"","","","","","image-keyboard-response","192","284034","0.0-167.0","6521ab1c4a2ffd6c21a3b662","665500ab8938657b03fbdba8","665792886c9e170b805a4e5e","1434","stimuli/2001101.jpg","2","","prediction_trial","2","","true","","2","false","false","false","true","false","false","[2]","001","101","1","","","","","","",""
"","","","","","image-keyboard-response","193","284341","0.0-168.0","6521ab1c4a2ffd6c21a3b662","665500ab8938657b03fbdba8","665792886c9e170b805a4e5e","302","stimuli/20011012.jpg"," ","","feedback_trial","2","","","","","","","","","","","","","","","","","","","","",""
"","","","","","image-keyboard-response","194","285396","0.0-169.0","6521ab1c4a2ffd6c21a3b662","665500ab8938657b03fbdba8","665792886c9e170b805a4e5e","1051","stimuli/2111101.jpg","2","","prediction_trial","0","","false","","2","false","false","false","false","false","false","[2,1,0]","111","101","0","","","","","","",""
"","","","","","image-keyboard-response","195","285813","0.0-170.0","6521ab1c4a2ffd6c21a3b662","665500ab8938657b03fbdba8","665792886c9e170b805a4e5e","416","stimuli/21111010.jpg"," ","","feedback_trial","2","","","","","","","","","","","","","","","","","","","","",""
"","","","","","image-keyboard-response","196","286564","0.0-171.0","6521ab1c4a2ffd6c21a3b662","665500ab8938657b03fbdba8","665792886c9e170b805a4e5e","749","stimuli/0011000.jpg","0","","prediction_trial","0","","true","","0","true","true","true","true","true","true","[0]","011","000","1","","","","","","",""
"","","","","","image-keyboard-response","197","286658","0.0-172.0","6521ab1c4a2ffd6c21a3b662","665500ab8938657b03fbdba8","665792886c9e170b805a4e5e","92","stimuli/00110000.jpg"," ","","feedback_trial","0","","","","","","","","","","","","","","","","","","","","",""
"","","","","","image-keyboard-response","198","288321","0.0-173.0","6521ab1c4a2ffd6c21a3b662","665500ab8938657b03fbdba8","665792886c9e170b805a4e5e","1658","stimuli/0101010.jpg","2","","prediction_trial","0","","false","","0","true","true","false","false","false","false","[0,2]","101","010","0","","","","","","",""
"","","","","","image-keyboard-response","199","288454","0.0-174.0","6521ab1c4a2ffd6c21a3b662","665500ab8938657b03fbdba8","665792886c9e170b805a4e5e","128","stimuli/01010100.jpg"," ","","feedback_trial","0","","","","","","","","","","","","","","","","","","","","",""
"","","","","","image-keyboard-response","200","289264","0.0-175.0","6521ab1c4a2ffd6c21a3b662","665500ab8938657b03fbdba8","665792886c9e170b805a4e5e","806","stimuli/0000000.jpg","0","","prediction_trial","0","","true","","0","true","true","true","true","true","true","[0]","000","000","1","","","","","","",""
"","","","","","image-keyboard-response","201","289350","0.0-176.0","6521ab1c4a2ffd6c21a3b662","665500ab8938657b03fbdba8","665792886c9e170b805a4e5e","81","stimuli/00000000.jpg"," ","","feedback_trial","0","","","","","","","","","","","","","","","","","","","","",""
"","","","","","image-keyboard-response","202","290567","0.0-177.0","6521ab1c4a2ffd6c21a3b662","665500ab8938657b03fbdba8","665792886c9e170b805a4e5e","1216","stimuli/0100000.jpg","0","","prediction_trial","0","","true","","0","true","true","false","true","false","true","[0]","100","000","1","","","","","","",""
"","","","","","image-keyboard-response","203","290651","0.0-178.0","6521ab1c4a2ffd6c21a3b662","665500ab8938657b03fbdba8","665792886c9e170b805a4e5e","82","stimuli/01000000.jpg"," ","","feedback_trial","0","","","","","","","","","","","","","","","","","","","","",""
"","","","","","image-keyboard-response","204","293036","0.0-179.0","6521ab1c4a2ffd6c21a3b662","665500ab8938657b03fbdba8","665792886c9e170b805a4e5e","2380","stimuli/0011101.jpg","0","","prediction_trial","0","","true","","0","false","false","true","true","false","false","[0]","011","101","1","","","","","","",""
"","","","","","image-keyboard-response","205","293148","0.0-180.0","6521ab1c4a2ffd6c21a3b662","665500ab8938657b03fbdba8","665792886c9e170b805a4e5e","101","stimuli/00111010.jpg"," ","","feedback_trial","0","","","","","","","","","","","","","","","","","","","","",""
"","","","","","image-keyboard-response","206","294505","0.0-181.0","6521ab1c4a2ffd6c21a3b662","665500ab8938657b03fbdba8","665792886c9e170b805a4e5e","1353","stimuli/0110110.jpg","0","","prediction_trial","1","","false","","0","false","false","false","false","false","false","[0,1]","110","110","0","","","","","","",""
"","","","","","image-keyboard-response","207","294720","0.0-182.0","6521ab1c4a2ffd6c21a3b662","665500ab8938657b03fbdba8","665792886c9e170b805a4e5e","214","stimuli/01101101.jpg"," ","","feedback_trial","0","","","","","","","","","","","","","","","","","","","","",""
"","","","","","image-keyboard-response","208","296083","0.0-183.0","6521ab1c4a2ffd6c21a3b662","665500ab8938657b03fbdba8","665792886c9e170b805a4e5e","1358","stimuli/1011100.jpg","2","","prediction_trial","1","","false","","1","true","true","false","false","false","false","[2,1]","011","100","0","","","","","","",""
"","","","","","image-keyboard-response","209","296478","0.0-184.0","6521ab1c4a2ffd6c21a3b662","665500ab8938657b03fbdba8","665792886c9e170b805a4e5e","391","stimuli/10111001.jpg"," ","","feedback_trial","2","","","","","","","","","","","","","","","","","","","","",""
"","","","","","image-keyboard-response","210","297971","0.0-185.0","6521ab1c4a2ffd6c21a3b662","665500ab8938657b03fbdba8","665792886c9e170b805a4e5e","1488","stimuli/1010010.jpg","1","","prediction_trial","1","","true","","1","false","true","false","true","false","true","[1]","010","010","1","","","","","","",""
"","","","","","image-keyboard-response","211","298088","0.0-186.0","6521ab1c4a2ffd6c21a3b662","665500ab8938657b03fbdba8","665792886c9e170b805a4e5e","112","stimuli/10100101.jpg"," ","","feedback_trial","1","","","","","","","","","","","","","","","","","","","","",""
"","","","","","image-keyboard-response","212","299107","0.0-187.0","6521ab1c4a2ffd6c21a3b662","665500ab8938657b03fbdba8","665792886c9e170b805a4e5e","1014","stimuli/0111000.jpg","1","","prediction_trial","0","","false","","0","true","true","false","false","false","false","[0,2,1]","111","000","0","","","","","","",""
"","","","","","image-keyboard-response","213","299476","0.0-188.0","6521ab1c4a2ffd6c21a3b662","665500ab8938657b03fbdba8","665792886c9e170b805a4e5e","367","stimuli/01110000.jpg"," ","","feedback_trial","0","","","","","","","","","","","","","","","","","","","","",""
"","","","","","image-keyboard-response","214","300735","0.0-189.0","6521ab1c4a2ffd6c21a3b662","665500ab8938657b03fbdba8","665792886c9e170b805a4e5e","1255","stimuli/0001110.jpg","0","","prediction_trial","0","","true","","0","false","false","true","true","false","false","[0]","001","110","1","","","","","","",""
"","","","","","image-keyboard-response","215","300912","0.0-190.0","6521ab1c4a2ffd6c21a3b662","665500ab8938657b03fbdba8","665792886c9e170b805a4e5e","172","stimuli/00011100.jpg"," ","","feedback_trial","0","","","","","","","","","","","","","","","","","","","","",""
"","","","","","image-keyboard-response","216","301814","0.0-191.0","6521ab1c4a2ffd6c21a3b662","665500ab8938657b03fbdba8","665792886c9e170b805a4e5e","897","stimuli/2000000.jpg","2","","prediction_trial","2","","true","","2","true","true","true","true","true","true","[2]","000","000","1","","","","","","",""
"","","","","","image-keyboard-response","217","301931","0.0-192.0","6521ab1c4a2ffd6c21a3b662","665500ab8938657b03fbdba8","665792886c9e170b805a4e5e","112","stimuli/20000002.jpg"," ","","feedback_trial","2","","","","","","","","","","","","","","","","","","","","",""
"","","","","","image-keyboard-response","218","302551","0.0-193.0","6521ab1c4a2ffd6c21a3b662","665500ab8938657b03fbdba8","665792886c9e170b805a4e5e","616","stimuli/0000011.jpg","0","","prediction_trial","0","","true","","0","true","true","true","true","true","true","[0]","000","011","1","","","","","","",""
"","","","","","image-keyboard-response","219","302631","0.0-194.0","6521ab1c4a2ffd6c21a3b662","665500ab8938657b03fbdba8","665792886c9e170b805a4e5e","78","stimuli/00000110.jpg"," ","","feedback_trial","0","","","","","","","","","","","","","","","","","","","","",""
"","","","","","image-keyboard-response","220","304334","0.0-195.0","6521ab1c4a2ffd6c21a3b662","665500ab8938657b03fbdba8","665792886c9e170b805a4e5e","1698","stimuli/0001111.jpg","1","","prediction_trial","0","","false","","0","false","false","true","true","false","false","[0]","001","111","0","","","","","","",""
"","","","","","image-keyboard-response","221","304728","0.0-196.0","6521ab1c4a2ffd6c21a3b662","665500ab8938657b03fbdba8","665792886c9e170b805a4e5e","389","stimuli/00011110.jpg"," ","","feedback_trial","0","","","","","","","","","","","","","","","","","","","","",""
"","","","","","image-keyboard-response","222","306590","0.0-197.0","6521ab1c4a2ffd6c21a3b662","665500ab8938657b03fbdba8","665792886c9e170b805a4e5e","1857","stimuli/0110101.jpg","0","","prediction_trial","0","","true","","0","false","false","false","false","false","false","[0,1]","110","101","1","","","","","","",""
"","","","","","image-keyboard-response","223","306883","0.0-198.0","6521ab1c4a2ffd6c21a3b662","665500ab8938657b03fbdba8","665792886c9e170b805a4e5e","291","stimuli/01101010.jpg"," ","","feedback_trial","0","","","","","","","","","","","","","","","","","","","","",""
"","","","","","image-keyboard-response","224","309432","0.0-199.0","6521ab1c4a2ffd6c21a3b662","665500ab8938657b03fbdba8","665792886c9e170b805a4e5e","2545","stimuli/0100010.jpg","0","","prediction_trial","0","","true","","0","true","true","false","true","false","true","[0]","100","010","1","","","","","","",""
"","","","","","image-keyboard-response","225","309520","0.0-200.0","6521ab1c4a2ffd6c21a3b662","665500ab8938657b03fbdba8","665792886c9e170b805a4e5e","86","stimuli/01000100.jpg"," ","","feedback_trial","0","","","","","","","","","","","","","","","","","","","","",""
"","","","","","image-keyboard-response","226","310761","0.0-201.0","6521ab1c4a2ffd6c21a3b662","665500ab8938657b03fbdba8","665792886c9e170b805a4e5e","1239","stimuli/2111110.jpg","0","","prediction_trial","2","","false","","2","true","true","false","false","false","false","[1,2,0]","111","110","0","","","","","","",""
"","","","","","image-keyboard-response","227","311029","0.0-202.0","6521ab1c4a2ffd6c21a3b662","665500ab8938657b03fbdba8","665792886c9e170b805a4e5e","263","stimuli/21111102.jpg"," ","","feedback_trial","1","","","","","","","","","","","","","","","","","","","","",""
"","","","","","image-keyboard-response","228","312095","0.0-203.0","6521ab1c4a2ffd6c21a3b662","665500ab8938657b03fbdba8","665792886c9e170b805a4e5e","1061","stimuli/1000010.jpg","1","","prediction_trial","1","","true","","1","false","true","true","true","false","true","[1]","000","010","1","","","","","","",""
"","","","","","image-keyboard-response","229","312193","0.0-204.0","6521ab1c4a2ffd6c21a3b662","665500ab8938657b03fbdba8","665792886c9e170b805a4e5e","93","stimuli/10000101.jpg"," ","","feedback_trial","1","","","","","","","","","","","","","","","","","","","","",""
"","","","","","image-keyboard-response","230","313248","0.0-205.0","6521ab1c4a2ffd6c21a3b662","665500ab8938657b03fbdba8","665792886c9e170b805a4e5e","1052","stimuli/1000110.jpg","0","","prediction_trial","1","","false","","1","false","false","true","true","false","false","[1]","000","110","0","","","","","","",""
"","","","","","image-keyboard-response","231","313535","0.0-206.0","6521ab1c4a2ffd6c21a3b662","665500ab8938657b03fbdba8","665792886c9e170b805a4e5e","285","stimuli/10001101.jpg"," ","","feedback_trial","1","","","","","","","","","","","","","","","","","","","","",""
"","","","","","image-keyboard-response","232","314392","0.0-207.0","6521ab1c4a2ffd6c21a3b662","665500ab8938657b03fbdba8","665792886c9e170b805a4e5e","855","stimuli/0000110.jpg","1","","prediction_trial","0","","false","","0","false","false","true","true","false","false","[0]","000","110","0","","","","","","",""
"","","","","","image-keyboard-response","233","314864","0.0-208.0","6521ab1c4a2ffd6c21a3b662","665500ab8938657b03fbdba8","665792886c9e170b805a4e5e","468","stimuli/00001100.jpg"," ","","feedback_trial","0","","","","","","","","","","","","","","","","","","","","",""
"","","","","","image-keyboard-response","234","316952","0.0-209.0","6521ab1c4a2ffd6c21a3b662","665500ab8938657b03fbdba8","665792886c9e170b805a4e5e","2083","stimuli/1110101.jpg","1","","prediction_trial","1","","true","","1","true","true","false","false","false","false","[1,0]","110","101","1","","","","","","",""
"","","","","","image-keyboard-response","235","317053","0.0-210.0","6521ab1c4a2ffd6c21a3b662","665500ab8938657b03fbdba8","665792886c9e170b805a4e5e","96","stimuli/11101011.jpg"," ","","feedback_trial","1","","","","","","","","","","","","","","","","","","","","",""
"","","","","","image-keyboard-response","236","318808","0.0-211.0","6521ab1c4a2ffd6c21a3b662","665500ab8938657b03fbdba8","665792886c9e170b805a4e5e","1750","stimuli/2011111.jpg","2","","prediction_trial","1","","false","","2","false","false","false","false","false","false","[1,2]","011","111","0","","","","","","",""
"","","","","","image-keyboard-response","237","318935","0.0-212.0","6521ab1c4a2ffd6c21a3b662","665500ab8938657b03fbdba8","665792886c9e170b805a4e5e","122","stimuli/20111111.jpg"," ","","feedback_trial","1","","","","","","","","","","","","","","","","","","","","",""
"","","","","","image-keyboard-response","238","320825","0.0-213.0","6521ab1c4a2ffd6c21a3b662","665500ab8938657b03fbdba8","665792886c9e170b805a4e5e","1863","stimuli/0101011.jpg","0","","prediction_trial","0","","true","","0","true","true","false","false","false","false","[2,0]","101","011","1","","","","","","",""
"","","","","","image-keyboard-response","239","320908","0.0-214.0","6521ab1c4a2ffd6c21a3b662","665500ab8938657b03fbdba8","665792886c9e170b805a4e5e","78","stimuli/01010110.jpg"," ","","feedback_trial","2","","","","","","","","","","","","","","","","","","","","",""
"","","","","","image-keyboard-response","240","322203","0.0-215.0","6521ab1c4a2ffd6c21a3b662","665500ab8938657b03fbdba8","665792886c9e170b805a4e5e","1292","stimuli/2001111.jpg","2","","prediction_trial","2","","true","","2","false","false","false","true","false","false","[2]","001","111","1","","","","","","",""
"","","","","","image-keyboard-response","241","322519","0.0-216.0","6521ab1c4a2ffd6c21a3b662","665500ab8938657b03fbdba8","665792886c9e170b805a4e5e","311","stimuli/20011112.jpg"," ","","feedback_trial","2","","","","","","","","","","","","","","","","","","","","",""
"","","","","","image-keyboard-response","242","323449","0.0-217.0","6521ab1c4a2ffd6c21a3b662","665500ab8938657b03fbdba8","665792886c9e170b805a4e5e","925","stimuli/2100010.jpg","2","","prediction_trial","2","","true","","2","true","true","true","true","true","true","[2]","100","010","1","","","","","","",""
"","","","","","image-keyboard-response","243","323551","0.0-218.0","6521ab1c4a2ffd6c21a3b662","665500ab8938657b03fbdba8","665792886c9e170b805a4e5e","97","stimuli/21000102.jpg"," ","","feedback_trial","2","","","","","","","","","","","","","","","","","","","","",""
"","","","","","image-keyboard-response","244","324681","0.0-219.0","6521ab1c4a2ffd6c21a3b662","665500ab8938657b03fbdba8","665792886c9e170b805a4e5e","1126","stimuli/2111100.jpg","1","","prediction_trial","2","","false","","2","true","true","false","false","false","false","[0,2,1]","111","100","0","","","","","","",""
"","","","","","image-keyboard-response","245","324849","0.0-220.0","6521ab1c4a2ffd6c21a3b662","665500ab8938657b03fbdba8","665792886c9e170b805a4e5e","164","stimuli/21111002.jpg"," ","","feedback_trial","0","","","","","","","","","","","","","","","","","","","","",""
"","","","","","image-keyboard-response","246","325877","0.0-221.0","6521ab1c4a2ffd6c21a3b662","665500ab8938657b03fbdba8","665792886c9e170b805a4e5e","1023","stimuli/1001110.jpg","0","","prediction_trial","1","","false","","1","false","false","true","true","false","false","[1]","001","110","0","","","","","","",""
"","","","","","image-keyboard-response","247","326266","0.0-222.0","6521ab1c4a2ffd6c21a3b662","665500ab8938657b03fbdba8","665792886c9e170b805a4e5e","388","stimuli/10011101.jpg"," ","","feedback_trial","1","","","","","","","","","","","","","","","","","","","","",""
"","","","","","image-keyboard-response","248","327657","0.0-223.0","6521ab1c4a2ffd6c21a3b662","665500ab8938657b03fbdba8","665792886c9e170b805a4e5e","1388","stimuli/0011111.jpg","1","","prediction_trial","0","","false","","0","false","false","true","true","false","false","[0]","011","111","0","","","","","","",""
"","","","","","image-keyboard-response","249","328078","0.0-224.0","6521ab1c4a2ffd6c21a3b662","665500ab8938657b03fbdba8","665792886c9e170b805a4e5e","417","stimuli/00111110.jpg"," ","","feedback_trial","0","","","","","","","","","","","","","","","","","","","","",""
"","","","","","image-keyboard-response","250","329334","0.0-225.0","6521ab1c4a2ffd6c21a3b662","665500ab8938657b03fbdba8","665792886c9e170b805a4e5e","1251","stimuli/2100111.jpg","1","","prediction_trial","2","","false","","2","false","false","true","true","false","false","[2]","100","111","0","","","","","","",""
"","","","","","image-keyboard-response","251","329625","0.0-226.0","6521ab1c4a2ffd6c21a3b662","665500ab8938657b03fbdba8","665792886c9e170b805a4e5e","286","stimuli/21001112.jpg"," ","","feedback_trial","2","","","","","","","","","","","","","","","","","","","","",""
"","","","","","image-keyboard-response","252","331056","0.0-227.0","6521ab1c4a2ffd6c21a3b662","665500ab8938657b03fbdba8","665792886c9e170b805a4e5e","1427","stimuli/0100100.jpg","0","","prediction_trial","0","","true","","0","false","true","false","true","false","true","[0]","100","100","1","","","","","","",""
"","","","","","image-keyboard-response","253","331171","0.0-228.0","6521ab1c4a2ffd6c21a3b662","665500ab8938657b03fbdba8","665792886c9e170b805a4e5e","110","stimuli/01001000.jpg"," ","","feedback_trial","0","","","","","","","","","","","","","","","","","","","","",""
"","","","","","image-keyboard-response","254","332783","0.0-229.0","6521ab1c4a2ffd6c21a3b662","665500ab8938657b03fbdba8","665792886c9e170b805a4e5e","1609","stimuli/0010110.jpg","1","","prediction_trial","0","","false","","0","false","false","true","true","false","false","[0]","010","110","0","","","","","","",""
"","","","","","image-keyboard-response","255","333271","0.0-230.0","6521ab1c4a2ffd6c21a3b662","665500ab8938657b03fbdba8","665792886c9e170b805a4e5e","483","stimuli/00101100.jpg"," ","","feedback_trial","0","","","","","","","","","","","","","","","","","","","","",""
"","","","","","image-keyboard-response","256","334961","0.0-231.0","6521ab1c4a2ffd6c21a3b662","665500ab8938657b03fbdba8","665792886c9e170b805a4e5e","1685","stimuli/0110010.jpg","1","","prediction_trial","1","","true","","0","true","true","false","false","false","false","[0,1]","110","010","1","","","","","","",""
"","","","","","image-keyboard-response","257","335267","0.0-232.0","6521ab1c4a2ffd6c21a3b662","665500ab8938657b03fbdba8","665792886c9e170b805a4e5e","301","stimuli/01100101.jpg"," ","","feedback_trial","0","","","","","","","","","","","","","","","","","","","","",""
"","","","","","image-keyboard-response","258","336525","0.0-233.0","6521ab1c4a2ffd6c21a3b662","665500ab8938657b03fbdba8","665792886c9e170b805a4e5e","1253","stimuli/2111010.jpg","2","","prediction_trial","1","","false","","2","true","true","false","false","false","false","[1,2,0]","111","010","0","","","","","","",""
"","","","","","image-keyboard-response","259","336882","0.0-234.0","6521ab1c4a2ffd6c21a3b662","665500ab8938657b03fbdba8","665792886c9e170b805a4e5e","352","stimuli/21110101.jpg"," ","","feedback_trial","1","","","","","","","","","","","","","","","","","","","","",""
"","","","","","image-keyboard-response","260","337688","0.0-235.0","6521ab1c4a2ffd6c21a3b662","665500ab8938657b03fbdba8","665792886c9e170b805a4e5e","801","stimuli/0011010.jpg","0","","prediction_trial","0","","true","","0","true","true","true","true","true","true","[0]","011","010","1","","","","","","",""
"","","","","","image-keyboard-response","261","337756","0.0-236.0","6521ab1c4a2ffd6c21a3b662","665500ab8938657b03fbdba8","665792886c9e170b805a4e5e","65","stimuli/00110100.jpg"," ","","feedback_trial","0","","","","","","","","","","","","","","","","","","","","",""
"","","","","","image-keyboard-response","262","338656","0.0-237.0","6521ab1c4a2ffd6c21a3b662","665500ab8938657b03fbdba8","665792886c9e170b805a4e5e","898","stimuli/2000001.jpg","2","","prediction_trial","2","","true","","2","false","true","true","true","false","true","[2]","000","001","1","","","","","","",""
"","","","","","image-keyboard-response","263","338751","0.0-238.0","6521ab1c4a2ffd6c21a3b662","665500ab8938657b03fbdba8","665792886c9e170b805a4e5e","90","stimuli/20000012.jpg"," ","","feedback_trial","2","","","","","","","","","","","","","","","","","","","","",""
"","","","","","image-keyboard-response","264","339439","0.0-239.0","6521ab1c4a2ffd6c21a3b662","665500ab8938657b03fbdba8","665792886c9e170b805a4e5e","683","stimuli/1001000.jpg","1","","prediction_trial","1","","true","","1","true","true","true","true","true","true","[1]","001","000","1","","","","","","",""
"","","","","","image-keyboard-response","265","339513","0.0-240.0","6521ab1c4a2ffd6c21a3b662","665500ab8938657b03fbdba8","665792886c9e170b805a4e5e","69","stimuli/10010001.jpg"," ","","feedback_trial","1","","","","","","","","","","","","","","","","","","","","",""
"","","","","","image-keyboard-response","266","341653","0.0-241.0","6521ab1c4a2ffd6c21a3b662","665500ab8938657b03fbdba8","665792886c9e170b805a4e5e","2139","stimuli/2101100.jpg","2","","prediction_trial","0","","false","","2","true","true","false","false","false","false","[0,2]","101","100","0","","","","","","",""
"","","","","","image-keyboard-response","267","341787","0.0-242.0","6521ab1c4a2ffd6c21a3b662","665500ab8938657b03fbdba8","665792886c9e170b805a4e5e","129","stimuli/21011000.jpg"," ","","feedback_trial","0","","","","","","","","","","","","","","","","","","","","",""
"","","","","","image-keyboard-response","268","344311","0.0-243.0","6521ab1c4a2ffd6c21a3b662","665500ab8938657b03fbdba8","665792886c9e170b805a4e5e","2520","stimuli/2011110.jpg","2","","prediction_trial","1","","false","","2","true","true","false","false","false","false","[2,1]","011","110","0","","","","","","",""
"","","","","","image-keyboard-response","269","344397","0.0-244.0","6521ab1c4a2ffd6c21a3b662","665500ab8938657b03fbdba8","665792886c9e170b805a4e5e","82","stimuli/20111101.jpg"," ","","feedback_trial","2","","","","","","","","","","","","","","","","","","","","",""
"","","","","","image-keyboard-response","270","345724","0.0-245.0","6521ab1c4a2ffd6c21a3b662","665500ab8938657b03fbdba8","665792886c9e170b805a4e5e","1323","stimuli/1001011.jpg","1","","prediction_trial","1","","true","","1","false","false","true","true","false","false","[1]","001","011","1","","","","","","",""
"","","","","","image-keyboard-response","271","345820","0.0-246.0","6521ab1c4a2ffd6c21a3b662","665500ab8938657b03fbdba8","665792886c9e170b805a4e5e","92","stimuli/10010111.jpg"," ","","feedback_trial","1","","","","","","","","","","","","","","","","","","","","",""
"","","","","","image-keyboard-response","272","348315","0.0-247.0","6521ab1c4a2ffd6c21a3b662","665500ab8938657b03fbdba8","665792886c9e170b805a4e5e","2493","stimuli/1110011.jpg","1","","prediction_trial","1","","true","","1","false","false","false","false","false","false","[0,1]","110","011","1","","","","","","",""
"","","","","","image-keyboard-response","273","348427","0.0-248.0","6521ab1c4a2ffd6c21a3b662","665500ab8938657b03fbdba8","665792886c9e170b805a4e5e","110","stimuli/11100111.jpg"," ","","feedback_trial","0","","","","","","","","","","","","","","","","","","","","",""
"","","","","","image-keyboard-response","274","350500","0.0-249.0","6521ab1c4a2ffd6c21a3b662","665500ab8938657b03fbdba8","665792886c9e170b805a4e5e","2068","stimuli/0010111.jpg","0","","prediction_trial","0","","true","","0","false","false","true","true","false","false","[0]","010","111","1","","","","","","",""
"","","","","","image-keyboard-response","275","350605","0.0-250.0","6521ab1c4a2ffd6c21a3b662","665500ab8938657b03fbdba8","665792886c9e170b805a4e5e","104","stimuli/00101110.jpg"," ","","feedback_trial","0","","","","","","","","","","","","","","","","","","","","",""
"","","","","","image-keyboard-response","276","352120","0.0-251.0","6521ab1c4a2ffd6c21a3b662","665500ab8938657b03fbdba8","665792886c9e170b805a4e5e","1513","stimuli/1111001.jpg","2","","prediction_trial","1","","false","","1","true","true","false","false","false","false","[0,1,2]","111","001","0","","","","","","",""
"","","","","","image-keyboard-response","277","352221","0.0-252.0","6521ab1c4a2ffd6c21a3b662","665500ab8938657b03fbdba8","665792886c9e170b805a4e5e","100","stimuli/11110011.jpg"," ","","feedback_trial","0","","","","","","","","","","","","","","","","","","","","",""
"","","","","","image-keyboard-response","278","354096","0.0-253.0","6521ab1c4a2ffd6c21a3b662","665500ab8938657b03fbdba8","665792886c9e170b805a4e5e","1870","stimuli/2011100.jpg","2","","prediction_trial","1","","false","","2","true","true","false","false","false","false","[2,1]","011","100","0","","","","","","",""
"","","","","","image-keyboard-response","279","354213","0.0-254.0","6521ab1c4a2ffd6c21a3b662","665500ab8938657b03fbdba8","665792886c9e170b805a4e5e","112","stimuli/20111001.jpg"," ","","feedback_trial","2","","","","","","","","","","","","","","","","","","","","",""
"","","","","","image-keyboard-response","280","355383","0.0-255.0","6521ab1c4a2ffd6c21a3b662","665500ab8938657b03fbdba8","665792886c9e170b805a4e5e","1165","stimuli/1011010.jpg","1","","prediction_trial","1","","true","","1","false","true","false","false","false","false","[1,2]","011","010","1","","","","","","",""
"","","","","","image-keyboard-response","281","355455","0.0-256.0","6521ab1c4a2ffd6c21a3b662","665500ab8938657b03fbdba8","665792886c9e170b805a4e5e","68","stimuli/10110101.jpg"," ","","feedback_trial","1","","","","","","","","","","","","","","","","","","","","",""
"","","","","","image-keyboard-response","282","356564","0.0-257.0","6521ab1c4a2ffd6c21a3b662","665500ab8938657b03fbdba8","665792886c9e170b805a4e5e","1107","stimuli/0000111.jpg","2","","prediction_trial","0","","false","","0","false","false","true","true","false","false","[0]","000","111","0","","","","","","",""
"","","","","","image-keyboard-response","283","356659","0.0-258.0","6521ab1c4a2ffd6c21a3b662","665500ab8938657b03fbdba8","665792886c9e170b805a4e5e","93","stimuli/00001110.jpg"," ","","feedback_trial","0","","","","","","","","","","","","","","","","","","","","",""
"","","","","","image-keyboard-response","284","357701","0.0-259.0","6521ab1c4a2ffd6c21a3b662","665500ab8938657b03fbdba8","665792886c9e170b805a4e5e","1038","stimuli/2010001.jpg","2","","prediction_trial","2","","true","","2","false","true","true","true","false","true","[2]","010","001","1","","","","","","",""
"","","","","","image-keyboard-response","285","357794","0.0-260.0","6521ab1c4a2ffd6c21a3b662","665500ab8938657b03fbdba8","665792886c9e170b805a4e5e","88","stimuli/20100012.jpg"," ","","feedback_trial","2","","","","","","","","","","","","","","","","","","","","",""
"","","","","","image-keyboard-response","286","358527","0.0-261.0","6521ab1c4a2ffd6c21a3b662","665500ab8938657b03fbdba8","665792886c9e170b805a4e5e","728","stimuli/0010010.jpg","0","","prediction_trial","0","","true","","0","true","true","true","true","true","true","[0]","010","010","1","","","","","","",""
"","","","","","image-keyboard-response","287","358592","0.0-262.0","6521ab1c4a2ffd6c21a3b662","665500ab8938657b03fbdba8","665792886c9e170b805a4e5e","62","stimuli/00100100.jpg"," ","","feedback_trial","0","","","","","","","","","","","","","","","","","","","","",""
"","","","","","image-keyboard-response","288","359906","0.0-263.0","6521ab1c4a2ffd6c21a3b662","665500ab8938657b03fbdba8","665792886c9e170b805a4e5e","1312","stimuli/2110111.jpg","2","","prediction_trial","2","","true","","2","false","false","true","true","false","false","[2]","110","111","1","","","","","","",""
"","","","","","image-keyboard-response","289","359997","0.0-264.0","6521ab1c4a2ffd6c21a3b662","665500ab8938657b03fbdba8","665792886c9e170b805a4e5e","86","stimuli/21101112.jpg"," ","","feedback_trial","2","","","","","","","","","","","","","","","","","","","","",""
"","","","","","image-keyboard-response","290","360747","0.0-265.0","6521ab1c4a2ffd6c21a3b662","665500ab8938657b03fbdba8","665792886c9e170b805a4e5e","746","stimuli/1000101.jpg","1","","prediction_trial","1","","true","","1","true","true","true","true","true","true","[1]","000","101","1","","","","","","",""
"","","","","","image-keyboard-response","291","360806","0.0-266.0","6521ab1c4a2ffd6c21a3b662","665500ab8938657b03fbdba8","665792886c9e170b805a4e5e","54","stimuli/10001011.jpg"," ","","feedback_trial","1","","","","","","","","","","","","","","","","","","","","",""
"","","","","","image-keyboard-response","292","361401","0.0-267.0","6521ab1c4a2ffd6c21a3b662","665500ab8938657b03fbdba8","665792886c9e170b805a4e5e","594","stimuli/0000010.jpg","0","","prediction_trial","0","","true","","0","true","true","true","true","true","true","[0]","000","010","1","","","","","","",""
"","","","","","image-keyboard-response","293","361473","0.0-268.0","6521ab1c4a2ffd6c21a3b662","665500ab8938657b03fbdba8","665792886c9e170b805a4e5e","71","stimuli/00000100.jpg"," ","","feedback_trial","0","","","","","","","","","","","","","","","","","","","","",""
"","","","","","image-keyboard-response","294","362641","0.0-269.0","6521ab1c4a2ffd6c21a3b662","665500ab8938657b03fbdba8","665792886c9e170b805a4e5e","1164","stimuli/0011100.jpg","0","","prediction_trial","0","","true","","0","false","true","true","true","false","true","[0]","011","100","1","","","","","","",""
"","","","","","image-keyboard-response","295","362689","0.0-270.0","6521ab1c4a2ffd6c21a3b662","665500ab8938657b03fbdba8","665792886c9e170b805a4e5e","44","stimuli/00111000.jpg"," ","","feedback_trial","0","","","","","","","","","","","","","","","","","","","","",""
"","","","","","image-keyboard-response","296","363805","0.0-271.0","6521ab1c4a2ffd6c21a3b662","665500ab8938657b03fbdba8","665792886c9e170b805a4e5e","1114","stimuli/0100111.jpg","1","","prediction_trial","0","","false","","0","false","false","false","true","false","false","[0]","100","111","0","","","","","","",""
"","","","","","image-keyboard-response","297","364035","0.0-272.0","6521ab1c4a2ffd6c21a3b662","665500ab8938657b03fbdba8","665792886c9e170b805a4e5e","225","stimuli/01001110.jpg"," ","","feedback_trial","0","","","","","","","","","","","","","","","","","","","","",""
"","","","","","image-keyboard-response","298","365979","0.0-273.0","6521ab1c4a2ffd6c21a3b662","665500ab8938657b03fbdba8","665792886c9e170b805a4e5e","1942","stimuli/0110001.jpg","0","","prediction_trial","1","","false","","0","true","true","false","false","false","false","[1,0]","110","001","0","","","","","","",""
"","","","","","image-keyboard-response","299","366067","0.0-274.0","6521ab1c4a2ffd6c21a3b662","665500ab8938657b03fbdba8","665792886c9e170b805a4e5e","84","stimuli/01100011.jpg"," ","","feedback_trial","1","","","","","","","","","","","","","","","","","","","","",""
"","","","","","image-keyboard-response","300","366945","0.0-275.0","6521ab1c4a2ffd6c21a3b662","665500ab8938657b03fbdba8","665792886c9e170b805a4e5e","873","stimuli/0011001.jpg","0","","prediction_trial","0","","true","","0","true","true","true","true","true","true","[0]","011","001","1","","","","","","",""
"","","","","","image-keyboard-response","301","367004","0.0-276.0","6521ab1c4a2ffd6c21a3b662","665500ab8938657b03fbdba8","665792886c9e170b805a4e5e","55","stimuli/00110010.jpg"," ","","feedback_trial","0","","","","","","","","","","","","","","","","","","","","",""
"","","","","","image-keyboard-response","302","367992","0.0-277.0","6521ab1c4a2ffd6c21a3b662","665500ab8938657b03fbdba8","665792886c9e170b805a4e5e","986","stimuli/2000101.jpg","2","","prediction_trial","2","","true","","2","false","false","true","true","false","false","[2]","000","101","1","","","","","","",""
"","","","","","image-keyboard-response","303","368100","0.0-278.0","6521ab1c4a2ffd6c21a3b662","665500ab8938657b03fbdba8","665792886c9e170b805a4e5e","103","stimuli/20001012.jpg"," ","","feedback_trial","2","","","","","","","","","","","","","","","","","","","","",""
"","","","","","image-keyboard-response","304","369378","0.0-279.0","6521ab1c4a2ffd6c21a3b662","665500ab8938657b03fbdba8","665792886c9e170b805a4e5e","1266","stimuli/2111000.jpg","2","","prediction_trial","0","","false","","2","true","true","false","false","false","false","[0,1,2]","111","000","0","","","","","","",""
"","","","","","image-keyboard-response","305","369484","0.0-280.0","6521ab1c4a2ffd6c21a3b662","665500ab8938657b03fbdba8","665792886c9e170b805a4e5e","101","stimuli/21110000.jpg"," ","","feedback_trial","0","","","","","","","","","","","","","","","","","","","","",""
"","","","","","image-keyboard-response","306","370249","0.0-281.0","6521ab1c4a2ffd6c21a3b662","665500ab8938657b03fbdba8","665792886c9e170b805a4e5e","761","stimuli/0001010.jpg","0","","prediction_trial","0","","true","","0","true","true","true","true","true","true","[0]","001","010","1","","","","","","",""
"","","","","","image-keyboard-response","307","370314","0.0-282.0","6521ab1c4a2ffd6c21a3b662","665500ab8938657b03fbdba8","665792886c9e170b805a4e5e","60","stimuli/00010100.jpg"," ","","feedback_trial","0","","","","","","","","","","","","","","","","","","","","",""
"","","","","","image-keyboard-response","308","371246","0.0-283.0","6521ab1c4a2ffd6c21a3b662","665500ab8938657b03fbdba8","665792886c9e170b805a4e5e","930","stimuli/1111000.jpg","0","","prediction_trial","0","","true","","1","true","true","false","false","false","false","[1,0,2]","111","000","1","","","","","","",""
"","","","","","image-keyboard-response","309","371322","0.0-284.0","6521ab1c4a2ffd6c21a3b662","665500ab8938657b03fbdba8","665792886c9e170b805a4e5e","72","stimuli/11110000.jpg"," ","","feedback_trial","1","","","","","","","","","","","","","","","","","","","","",""
"","","","","","image-keyboard-response","310","373062","0.0-285.0","6521ab1c4a2ffd6c21a3b662","665500ab8938657b03fbdba8","665792886c9e170b805a4e5e","1738","stimuli/1011111.jpg","0","","prediction_trial","1","","false","","1","false","false","false","false","false","false","[2,1]","011","111","0","","","","","","",""
"","","","","","image-keyboard-response","311","373150","0.0-286.0","6521ab1c4a2ffd6c21a3b662","665500ab8938657b03fbdba8","665792886c9e170b805a4e5e","85","stimuli/10111111.jpg"," ","","feedback_trial","2","","","","","","","","","","","","","","","","","","","","",""
"","","","","","image-keyboard-response","312","374981","0.0-287.0","6521ab1c4a2ffd6c21a3b662","665500ab8938657b03fbdba8","665792886c9e170b805a4e5e","1826","stimuli/1011001.jpg","1","","prediction_trial","1","","true","","1","true","true","false","false","false","false","[1,2]","011","001","1","","","","","","",""
"","","","","","image-keyboard-response","313","375068","0.0-288.0","6521ab1c4a2ffd6c21a3b662","665500ab8938657b03fbdba8","665792886c9e170b805a4e5e","83","stimuli/10110011.jpg"," ","","feedback_trial","1","","","","","","","","","","","","","","","","","","","","",""
"","","","","","image-keyboard-response","314","376498","0.0-289.0","6521ab1c4a2ffd6c21a3b662","665500ab8938657b03fbdba8","665792886c9e170b805a4e5e","1425","stimuli/0100110.jpg","1","","prediction_trial","0","","false","","0","false","false","false","true","false","false","[0]","100","110","0","","","","","","",""
"","","","","","image-keyboard-response","315","376556","0.0-290.0","6521ab1c4a2ffd6c21a3b662","665500ab8938657b03fbdba8","665792886c9e170b805a4e5e","54","stimuli/01001100.jpg"," ","","feedback_trial","0","","","","","","","","","","","","","","","","","","","","",""
"","","","","","image-keyboard-response","316","378091","0.0-291.0","6521ab1c4a2ffd6c21a3b662","665500ab8938657b03fbdba8","665792886c9e170b805a4e5e","1534","stimuli/0011110.jpg","1","","prediction_trial","0","","false","","0","false","false","true","true","false","false","[0]","011","110","0","","","","","","",""
"","","","","","image-keyboard-response","317","378151","0.0-292.0","6521ab1c4a2ffd6c21a3b662","665500ab8938657b03fbdba8","665792886c9e170b805a4e5e","55","stimuli/00111100.jpg"," ","","feedback_trial","0","","","","","","","","","","","","","","","","","","","","",""
"","","","","","survey-html-form","318","402893","0.0-293.0","6521ab1c4a2ffd6c21a3b662","665500ab8938657b03fbdba8","665792886c9e170b805a4e5e","24741","","{""feedback"":""I just used my best judgement."",""age"":""24"",""gender"":""Female"",""other_gender"":"""",""race"":""Asian"",""other_race"":"""",""ethnicity"":""Non-Hispanic""}","","exit_survey","","","","","","","","","","","","","","","","I just used my best judgement.","24","Non-Hispanic","Female","Asian","0.5902777777777778","0.5902777777777778"
