"success","timeout","failed_images","failed_audio","failed_video","trial_type","trial_index","time_elapsed","internal_node_id","prolific_id","prolific_study_id","prolific_session_id","rt","stimulus","response","view_history","trial","character_choice","stimulus_dict","accuracy","correct_response","ball_pos","ego_ball_visible","ego_can_infer","alter_ball_visible","alter_can_infer","collective_ball_visible","collective_can_infer","search_locations","alter_occluders","ego_occluders","accuracy_bool","feedback","age","ethnicity","gender","race","overall_accuracy","bonus"
"true","false","[]","[]","[]","preload","0","2959","0.0-0.0","62bd42b72c2ccddf753b655b","665500ab8938657b03fbdba8","665792bef8f30cac8a1cd6d4","","","","","","","","","","","","","","","","","","","","","","","","","","",""
"true","","","","","fullscreen","1","6394","0.0-1.0","62bd42b72c2ccddf753b655b","665500ab8938657b03fbdba8","665792bef8f30cac8a1cd6d4","","","","","","","","","","","","","","","","","","","","","","","","","","",""
"","","","","","html-button-response","2","31862","0.0-2.0","62bd42b72c2ccddf753b655b","665500ab8938657b03fbdba8","665792bef8f30cac8a1cd6d4","25465","<p><b>Consent Form</b></p> <div style=""text-align:left;background-color:lightgrey; padding:20px; max-width:900px;""><p>Please consider this information carefully before deciding whether to participate in this research.</p> <p>The purpose of this research is to examine which factors influence social judgment and decision-making. You will be asked to make judgements about individuals and actions in social scenarios. We are simply interested in your judgement. The study will take less than 1 hour to complete, and you will receive less than $20 on Prolific. Your compensation and time commitment are specified in the study description. There are no anticipated risks associated with participating in this study. The effects of participating should be comparable to those you would ordinarily experience from viewing a computer monitor and using a mouse or keyboard for a similar amount of time. At the end of the study, we will provide an explanation of the questions that motivate this line of research and will describe the potential implications. </p><p> Your participation in this study is completely voluntary and you may refuse to participate or you may choose to withdraw at any time without penalty or loss of benefits to you which are otherwise entitled. Your participation in this study will remain confidential. No personally identifiable information will be associated with your data. Also, all analyses of the data will be averaged across all the participants, so your individual responses will never be specifically analyzed. </p><p> If you have questions or concerns about your participation or payment, or want to request a summary of research findings, please contact Dr. Jonathan Phillips at Jonathan.S.Phillips@dartmouth.edu. </p><p> Please save a copy of this form for your records. </p><p><b>Agreement: </b>The nature and purpose of this research have been sufficiently explained and I agree to participate in this study. I understand that I am free to withdraw at any time without incurring any penalty. Please consent by clicking the button below to continue. Otherwise, please exit the study at any time. </p>","0","","","","","","","","","","","","","","","","","","","","","","","",""
"","","","","","instructions","3","99316","0.0-3.0-0.0","62bd42b72c2ccddf753b655b","665500ab8938657b03fbdba8","665792bef8f30cac8a1cd6d4","67465","","","[{""page_index"":0,""viewing_time"":3709},{""page_index"":1,""viewing_time"":2960},{""page_index"":2,""viewing_time"":3191},{""page_index"":3,""viewing_time"":7336},{""page_index"":4,""viewing_time"":3184},{""page_index"":5,""viewing_time"":2525},{""page_index"":6,""viewing_time"":4572},{""page_index"":7,""viewing_time"":3915},{""page_index"":8,""viewing_time"":2532},{""page_index"":9,""viewing_time"":2381},{""page_index"":10,""viewing_time"":8663},{""page_index"":9,""viewing_time"":170},{""page_index"":8,""viewing_time"":593},{""page_index"":9,""viewing_time"":854},{""page_index"":10,""viewing_time"":7470},{""page_index"":11,""viewing_time"":7280},{""page_index"":12,""viewing_time"":4602},{""page_index"":13,""viewing_time"":1526}]","intro","","","","","","","","","","","","","","","","","","","","","",""
"","","","","","image-keyboard-response","4","104811","0.0-3.0-1.0","62bd42b72c2ccddf753b655b","665500ab8938657b03fbdba8","665792bef8f30cac8a1cd6d4","5490","stimuli/1111110.jpg","1","","prediction_practice","0","{""filepath"":""stimuli/1111110.jpg"",""ball_pos"":1,""ego_ball_visible"":false,""ego_can_infer"":false,""alter_ball_visible"":false,""alter_can_infer"":false,""collective_ball_visible"":false,""collective_can_infer"":false,""search_locations"":[2,0,1],""alter_occluders"":""111"",""ego_occluders"":""110""}","false","","","","","","","","","","","","","","","","","","",""
"","","","","","image-keyboard-response","5","107683","0.0-3.0-2.0","62bd42b72c2ccddf753b655b","665500ab8938657b03fbdba8","665792bef8f30cac8a1cd6d4","2868","stimuli/11111100.jpg"," ","","practrice_feedback","2","","","","","","","","","","","","","","","","","","","","",""
"","","","","","image-keyboard-response","6","111392","0.0-3.0-3.0","62bd42b72c2ccddf753b655b","665500ab8938657b03fbdba8","665792bef8f30cac8a1cd6d4","3707","stimuli/2111110.jpg","1","","prediction_practice","2","{""filepath"":""stimuli/2111110.jpg"",""ball_pos"":2,""ego_ball_visible"":true,""ego_can_infer"":true,""alter_ball_visible"":false,""alter_can_infer"":false,""collective_ball_visible"":false,""collective_can_infer"":false,""search_locations"":[2,1,0],""alter_occluders"":""111"",""ego_occluders"":""110""}","false","","","","","","","","","","","","","","","","","","",""
"","","","","","image-keyboard-response","7","114036","0.0-3.0-4.0","62bd42b72c2ccddf753b655b","665500ab8938657b03fbdba8","665792bef8f30cac8a1cd6d4","2643","stimuli/21111102.jpg"," ","","practrice_feedback","2","","","","","","","","","","","","","","","","","","","","",""
"","","","","","image-keyboard-response","8","117955","0.0-3.0-5.0","62bd42b72c2ccddf753b655b","665500ab8938657b03fbdba8","665792bef8f30cac8a1cd6d4","3917","stimuli/0010100.jpg","0","","prediction_practice","0","{""filepath"":""stimuli/0010100.jpg"",""ball_pos"":0,""ego_ball_visible"":false,""ego_can_infer"":true,""alter_ball_visible"":true,""alter_can_infer"":true,""collective_ball_visible"":false,""collective_can_infer"":true,""search_locations"":[0],""alter_occluders"":""010"",""ego_occluders"":""100""}","true","","","","","","","","","","","","","","","","","","",""
"","","","","","image-keyboard-response","9","120517","0.0-3.0-6.0","62bd42b72c2ccddf753b655b","665500ab8938657b03fbdba8","665792bef8f30cac8a1cd6d4","2557","stimuli/00101000.jpg"," ","","practrice_feedback","0","","","","","","","","","","","","","","","","","","","","",""
"","","","","","image-keyboard-response","10","123137","0.0-3.0-7.0","62bd42b72c2ccddf753b655b","665500ab8938657b03fbdba8","665792bef8f30cac8a1cd6d4","2618","stimuli/2101001.jpg","2","","prediction_practice","2","{""filepath"":""stimuli/2101001.jpg"",""ball_pos"":2,""ego_ball_visible"":false,""ego_can_infer"":true,""alter_ball_visible"":false,""alter_can_infer"":false,""collective_ball_visible"":false,""collective_can_infer"":false,""search_locations"":[2,0],""alter_occluders"":""101"",""ego_occluders"":""001""}","true","","","","","","","","","","","","","","","","","","",""
"","","","","","image-keyboard-response","11","124573","0.0-3.0-8.0","62bd42b72c2ccddf753b655b","665500ab8938657b03fbdba8","665792bef8f30cac8a1cd6d4","1435","stimuli/21010012.jpg"," ","","practrice_feedback","2","","","","","","","","","","","","","","","","","","","","",""
"","","","","","image-keyboard-response","12","128291","0.0-3.0-9.0","62bd42b72c2ccddf753b655b","665500ab8938657b03fbdba8","665792bef8f30cac8a1cd6d4","3717","stimuli/2110101.jpg","0","","prediction_practice","2","{""filepath"":""stimuli/2110101.jpg"",""ball_pos"":2,""ego_ball_visible"":false,""ego_can_infer"":false,""alter_ball_visible"":true,""alter_can_infer"":true,""collective_ball_visible"":false,""collective_can_infer"":false,""search_locations"":[2],""alter_occluders"":""110"",""ego_occluders"":""101""}","false","","","","","","","","","","","","","","","","","","",""
"","","","","","image-keyboard-response","13","129985","0.0-3.0-10.0","62bd42b72c2ccddf753b655b","665500ab8938657b03fbdba8","665792bef8f30cac8a1cd6d4","1692","stimuli/21101012.jpg"," ","","practrice_feedback","2","","","","","","","","","","","","","","","","","","","","",""
"","","","","","image-keyboard-response","14","132765","0.0-3.0-11.0","62bd42b72c2ccddf753b655b","665500ab8938657b03fbdba8","665792bef8f30cac8a1cd6d4","2778","stimuli/2010111.jpg","1","","prediction_practice","2","{""filepath"":""stimuli/2010111.jpg"",""ball_pos"":2,""ego_ball_visible"":false,""ego_can_infer"":false,""alter_ball_visible"":true,""alter_can_infer"":true,""collective_ball_visible"":false,""collective_can_infer"":false,""search_locations"":[2],""alter_occluders"":""010"",""ego_occluders"":""111""}","false","","","","","","","","","","","","","","","","","","",""
"","","","","","image-keyboard-response","15","134501","0.0-3.0-12.0","62bd42b72c2ccddf753b655b","665500ab8938657b03fbdba8","665792bef8f30cac8a1cd6d4","1735","stimuli/20101112.jpg"," ","","practrice_feedback","2","","","","","","","","","","","","","","","","","","","","",""
"","","","","","image-keyboard-response","16","136340","0.0-3.0-13.0","62bd42b72c2ccddf753b655b","665500ab8938657b03fbdba8","665792bef8f30cac8a1cd6d4","1839","stimuli/0110101.jpg","2","","prediction_practice","1","{""filepath"":""stimuli/0110101.jpg"",""ball_pos"":0,""ego_ball_visible"":false,""ego_can_infer"":false,""alter_ball_visible"":false,""alter_can_infer"":false,""collective_ball_visible"":false,""collective_can_infer"":false,""search_locations"":[0,1],""alter_occluders"":""110"",""ego_occluders"":""101""}","false","","","","","","","","","","","","","","","","","","",""
"","","","","","image-keyboard-response","17","137722","0.0-3.0-14.0","62bd42b72c2ccddf753b655b","665500ab8938657b03fbdba8","665792bef8f30cac8a1cd6d4","1380","stimuli/01101011.jpg"," ","","practrice_feedback","0","","","","","","","","","","","","","","","","","","","","",""
"","","","","","image-keyboard-response","18","140240","0.0-3.0-15.0","62bd42b72c2ccddf753b655b","665500ab8938657b03fbdba8","665792bef8f30cac8a1cd6d4","2513","stimuli/1110000.jpg","1","","prediction_practice","0","{""filepath"":""stimuli/1110000.jpg"",""ball_pos"":1,""ego_ball_visible"":true,""ego_can_infer"":true,""alter_ball_visible"":false,""alter_can_infer"":false,""collective_ball_visible"":false,""collective_can_infer"":false,""search_locations"":[0,1],""alter_occluders"":""110"",""ego_occluders"":""000""}","false","","","","","","","","","","","","","","","","","","",""
"","","","","","image-keyboard-response","19","145038","0.0-3.0-16.0","62bd42b72c2ccddf753b655b","665500ab8938657b03fbdba8","665792bef8f30cac8a1cd6d4","4796","stimuli/11100000.jpg"," ","","practrice_feedback","0","","","","","","","","","","","","","","","","","","","","",""
"","","","","","image-keyboard-response","20","146576","0.0-3.0-17.0","62bd42b72c2ccddf753b655b","665500ab8938657b03fbdba8","665792bef8f30cac8a1cd6d4","1538","stimuli/2001001.jpg","2","","prediction_practice","2","{""filepath"":""stimuli/2001001.jpg"",""ball_pos"":2,""ego_ball_visible"":false,""ego_can_infer"":true,""alter_ball_visible"":false,""alter_can_infer"":true,""collective_ball_visible"":false,""collective_can_infer"":true,""search_locations"":[2],""alter_occluders"":""001"",""ego_occluders"":""001""}","true","","","","","","","","","","","","","","","","","","",""
"","","","","","image-keyboard-response","21","147999","0.0-3.0-18.0","62bd42b72c2ccddf753b655b","665500ab8938657b03fbdba8","665792bef8f30cac8a1cd6d4","1421","stimuli/20010012.jpg"," ","","practrice_feedback","2","","","","","","","","","","","","","","","","","","","","",""
"","","","","","image-keyboard-response","22","149793","0.0-3.0-19.0","62bd42b72c2ccddf753b655b","665500ab8938657b03fbdba8","665792bef8f30cac8a1cd6d4","1793","stimuli/1010010.jpg","1","","prediction_practice","1","{""filepath"":""stimuli/1010010.jpg"",""ball_pos"":1,""ego_ball_visible"":false,""ego_can_infer"":true,""alter_ball_visible"":false,""alter_can_infer"":true,""collective_ball_visible"":false,""collective_can_infer"":true,""search_locations"":[1],""alter_occluders"":""010"",""ego_occluders"":""010""}","true","","","","","","","","","","","","","","","","","","",""
"","","","","","image-keyboard-response","23","150863","0.0-3.0-20.0","62bd42b72c2ccddf753b655b","665500ab8938657b03fbdba8","665792bef8f30cac8a1cd6d4","1069","stimuli/10100101.jpg"," ","","practrice_feedback","1","","","","","","","","","","","","","","","","","","","","",""
"","","","","","html-button-response","24","160372","0.0-3.0-21.0","62bd42b72c2ccddf753b655b","665500ab8938657b03fbdba8","665792bef8f30cac8a1cd6d4","9508","Now that you've had some practice, you'll be tested with a couple of easy trials. If you correctly predict Sam's choice, you'll move on to complete the experiment!","0","","","","","","","","","","","","","","","","","","","","","","","",""
"","","","","","image-keyboard-response","25","164472","0.0-3.0-22.0-0.0","62bd42b72c2ccddf753b655b","665500ab8938657b03fbdba8","665792bef8f30cac8a1cd6d4","4099","stimuli/0000011.jpg","arrowleft","","comprehension_quiz","","","true","arrowleft","","","","","","","","","","","","","","","","","",""
"","","","","","image-keyboard-response","26","166897","0.0-3.0-22.0-1.0","62bd42b72c2ccddf753b655b","665500ab8938657b03fbdba8","665792bef8f30cac8a1cd6d4","2423","stimuli/00000110.jpg"," ","","comprehension_quiz","","","true"," ","","","","","","","","","","","","","","","","","",""
"","","","","","image-keyboard-response","27","168505","0.0-3.0-22.0-2.0","62bd42b72c2ccddf753b655b","665500ab8938657b03fbdba8","665792bef8f30cac8a1cd6d4","1606","stimuli/1010010.jpg","arrowdown","","comprehension_quiz","","","true","arrowdown","","","","","","","","","","","","","","","","","",""
"","","","","","image-keyboard-response","28","169524","0.0-3.0-22.0-3.0","62bd42b72c2ccddf753b655b","665500ab8938657b03fbdba8","665792bef8f30cac8a1cd6d4","1017","stimuli/10100101.jpg"," ","","comprehension_quiz","","","true"," ","","","","","","","","","","","","","","","","","",""
"","","","","","html-button-response","29","171724","0.0-4.0","62bd42b72c2ccddf753b655b","665500ab8938657b03fbdba8","665792bef8f30cac8a1cd6d4","2196","The experiment will now begin.","0","","","","","","","","","","","","","","","","","","","","","","","",""
"","","","","","image-keyboard-response","30","176317","0.0-5.0","62bd42b72c2ccddf753b655b","665500ab8938657b03fbdba8","665792bef8f30cac8a1cd6d4","4592","stimuli/2100111.jpg","2","","prediction_trial","2","","true","","2","false","false","true","true","false","false","[2]","100","111","1","","","","","","",""
"","","","","","image-keyboard-response","31","178086","0.0-6.0","62bd42b72c2ccddf753b655b","665500ab8938657b03fbdba8","665792bef8f30cac8a1cd6d4","1767","stimuli/21001112.jpg"," ","","feedback_trial","2","","","","","","","","","","","","","","","","","","","","",""
"","","","","","image-keyboard-response","32","179982","0.0-7.0","62bd42b72c2ccddf753b655b","665500ab8938657b03fbdba8","665792bef8f30cac8a1cd6d4","1895","stimuli/1110100.jpg","1","","prediction_trial","1","","true","","1","true","true","false","false","false","false","[1,0]","110","100","1","","","","","","",""
"","","","","","image-keyboard-response","33","181118","0.0-8.0","62bd42b72c2ccddf753b655b","665500ab8938657b03fbdba8","665792bef8f30cac8a1cd6d4","1138","stimuli/11101001.jpg"," ","","feedback_trial","1","","","","","","","","","","","","","","","","","","","","",""
"","","","","","image-keyboard-response","34","182695","0.0-9.0","62bd42b72c2ccddf753b655b","665500ab8938657b03fbdba8","665792bef8f30cac8a1cd6d4","1575","stimuli/1011110.jpg","0","","prediction_trial","1","","false","","1","false","false","false","false","false","false","[2,1]","011","110","0","","","","","","",""
"","","","","","image-keyboard-response","35","184249","0.0-10.0","62bd42b72c2ccddf753b655b","665500ab8938657b03fbdba8","665792bef8f30cac8a1cd6d4","1552","stimuli/10111101.jpg"," ","","feedback_trial","2","","","","","","","","","","","","","","","","","","","","",""
"","","","","","image-keyboard-response","36","185898","0.0-11.0","62bd42b72c2ccddf753b655b","665500ab8938657b03fbdba8","665792bef8f30cac8a1cd6d4","1648","stimuli/0101110.jpg","1","","prediction_trial","0","","false","","0","false","false","false","false","false","false","[0,2]","101","110","0","","","","","","",""
"","","","","","image-keyboard-response","37","186966","0.0-12.0","62bd42b72c2ccddf753b655b","665500ab8938657b03fbdba8","665792bef8f30cac8a1cd6d4","1067","stimuli/01011100.jpg"," ","","feedback_trial","0","","","","","","","","","","","","","","","","","","","","",""
"","","","","","image-keyboard-response","38","190076","0.0-13.0","62bd42b72c2ccddf753b655b","665500ab8938657b03fbdba8","665792bef8f30cac8a1cd6d4","3109","stimuli/0100000.jpg","0","","prediction_trial","0","","true","","0","true","true","false","true","false","true","[0]","100","000","1","","","","","","",""
"","","","","","image-keyboard-response","39","191650","0.0-14.0","62bd42b72c2ccddf753b655b","665500ab8938657b03fbdba8","665792bef8f30cac8a1cd6d4","1573","stimuli/01000000.jpg"," ","","feedback_trial","0","","","","","","","","","","","","","","","","","","","","",""
"","","","","","image-keyboard-response","40","193526","0.0-15.0","62bd42b72c2ccddf753b655b","665500ab8938657b03fbdba8","665792bef8f30cac8a1cd6d4","1874","stimuli/2001000.jpg","2","","prediction_trial","2","","true","","2","true","true","false","true","false","true","[2]","001","000","1","","","","","","",""
"","","","","","image-keyboard-response","41","194448","0.0-16.0","62bd42b72c2ccddf753b655b","665500ab8938657b03fbdba8","665792bef8f30cac8a1cd6d4","920","stimuli/20010002.jpg"," ","","feedback_trial","2","","","","","","","","","","","","","","","","","","","","",""
"","","","","","image-keyboard-response","42","196020","0.0-17.0","62bd42b72c2ccddf753b655b","665500ab8938657b03fbdba8","665792bef8f30cac8a1cd6d4","1571","stimuli/2101100.jpg","2","","prediction_trial","0","","false","","2","true","true","false","false","false","false","[0,2]","101","100","0","","","","","","",""
"","","","","","image-keyboard-response","43","198490","0.0-18.0","62bd42b72c2ccddf753b655b","665500ab8938657b03fbdba8","665792bef8f30cac8a1cd6d4","2469","stimuli/21011000.jpg"," ","","feedback_trial","0","","","","","","","","","","","","","","","","","","","","",""
"","","","","","image-keyboard-response","44","200594","0.0-19.0","62bd42b72c2ccddf753b655b","665500ab8938657b03fbdba8","665792bef8f30cac8a1cd6d4","2103","stimuli/1010101.jpg","1","","prediction_trial","1","","true","","1","true","true","false","true","false","true","[1]","010","101","1","","","","","","",""
"","","","","","image-keyboard-response","45","201480","0.0-20.0","62bd42b72c2ccddf753b655b","665500ab8938657b03fbdba8","665792bef8f30cac8a1cd6d4","885","stimuli/10101011.jpg"," ","","feedback_trial","1","","","","","","","","","","","","","","","","","","","","",""
"","","","","","image-keyboard-response","46","204651","0.0-21.0","62bd42b72c2ccddf753b655b","665500ab8938657b03fbdba8","665792bef8f30cac8a1cd6d4","3166","stimuli/0110001.jpg","0","","prediction_trial","0","","true","","0","true","true","false","false","false","false","[0,1]","110","001","1","","","","","","",""
"","","","","","image-keyboard-response","47","205472","0.0-22.0","62bd42b72c2ccddf753b655b","665500ab8938657b03fbdba8","665792bef8f30cac8a1cd6d4","820","stimuli/01100010.jpg"," ","","feedback_trial","0","","","","","","","","","","","","","","","","","","","","",""
"","","","","","image-keyboard-response","48","209093","0.0-23.0","62bd42b72c2ccddf753b655b","665500ab8938657b03fbdba8","665792bef8f30cac8a1cd6d4","3620","stimuli/0110111.jpg","1","","prediction_trial","1","","true","","0","false","false","false","false","false","false","[0,1]","110","111","1","","","","","","",""
"","","","","","image-keyboard-response","49","210175","0.0-24.0","62bd42b72c2ccddf753b655b","665500ab8938657b03fbdba8","665792bef8f30cac8a1cd6d4","1081","stimuli/01101111.jpg"," ","","feedback_trial","0","","","","","","","","","","","","","","","","","","","","",""
"","","","","","image-keyboard-response","50","213423","0.0-25.0","62bd42b72c2ccddf753b655b","665500ab8938657b03fbdba8","665792bef8f30cac8a1cd6d4","3247","stimuli/0110110.jpg","0","","prediction_trial","1","","false","","0","false","false","false","false","false","false","[0,1]","110","110","0","","","","","","",""
"","","","","","image-keyboard-response","51","214477","0.0-26.0","62bd42b72c2ccddf753b655b","665500ab8938657b03fbdba8","665792bef8f30cac8a1cd6d4","1053","stimuli/01101101.jpg"," ","","feedback_trial","0","","","","","","","","","","","","","","","","","","","","",""
"","","","","","image-keyboard-response","52","216416","0.0-27.0","62bd42b72c2ccddf753b655b","665500ab8938657b03fbdba8","665792bef8f30cac8a1cd6d4","1939","stimuli/2100110.jpg","2","","prediction_trial","2","","true","","2","true","true","true","true","true","true","[2]","100","110","1","","","","","","",""
"","","","","","image-keyboard-response","53","217220","0.0-28.0","62bd42b72c2ccddf753b655b","665500ab8938657b03fbdba8","665792bef8f30cac8a1cd6d4","803","stimuli/21001102.jpg"," ","","feedback_trial","2","","","","","","","","","","","","","","","","","","","","",""
"","","","","","image-keyboard-response","54","219116","0.0-29.0","62bd42b72c2ccddf753b655b","665500ab8938657b03fbdba8","665792bef8f30cac8a1cd6d4","1894","stimuli/2010011.jpg","1","","prediction_trial","2","","false","","2","false","false","true","true","false","false","[2]","010","011","0","","","","","","",""
"","","","","","image-keyboard-response","55","219856","0.0-30.0","62bd42b72c2ccddf753b655b","665500ab8938657b03fbdba8","665792bef8f30cac8a1cd6d4","739","stimuli/20100112.jpg"," ","","feedback_trial","2","","","","","","","","","","","","","","","","","","","","",""
"","","","","","image-keyboard-response","56","221792","0.0-31.0","62bd42b72c2ccddf753b655b","665500ab8938657b03fbdba8","665792bef8f30cac8a1cd6d4","1936","stimuli/2010100.jpg","2","","prediction_trial","2","","true","","2","true","true","true","true","true","true","[2]","010","100","1","","","","","","",""
"","","","","","image-keyboard-response","57","222807","0.0-32.0","62bd42b72c2ccddf753b655b","665500ab8938657b03fbdba8","665792bef8f30cac8a1cd6d4","1014","stimuli/20101002.jpg"," ","","feedback_trial","2","","","","","","","","","","","","","","","","","","","","",""
"","","","","","image-keyboard-response","58","224711","0.0-33.0","62bd42b72c2ccddf753b655b","665500ab8938657b03fbdba8","665792bef8f30cac8a1cd6d4","1904","stimuli/1110101.jpg","1","","prediction_trial","0","","false","","1","true","true","false","false","false","false","[0,1]","110","101","0","","","","","","",""
"","","","","","image-keyboard-response","59","226072","0.0-34.0","62bd42b72c2ccddf753b655b","665500ab8938657b03fbdba8","665792bef8f30cac8a1cd6d4","1359","stimuli/11101010.jpg"," ","","feedback_trial","0","","","","","","","","","","","","","","","","","","","","",""
"","","","","","image-keyboard-response","60","229057","0.0-35.0","62bd42b72c2ccddf753b655b","665500ab8938657b03fbdba8","665792bef8f30cac8a1cd6d4","2984","stimuli/2000111.jpg","2","","prediction_trial","2","","true","","2","false","false","true","true","false","false","[2]","000","111","1","","","","","","",""
"","","","","","image-keyboard-response","61","230092","0.0-36.0","62bd42b72c2ccddf753b655b","665500ab8938657b03fbdba8","665792bef8f30cac8a1cd6d4","1034","stimuli/20001112.jpg"," ","","feedback_trial","2","","","","","","","","","","","","","","","","","","","","",""
"","","","","","image-keyboard-response","62","231785","0.0-37.0","62bd42b72c2ccddf753b655b","665500ab8938657b03fbdba8","665792bef8f30cac8a1cd6d4","1692","stimuli/0010010.jpg","0","","prediction_trial","0","","true","","0","true","true","true","true","true","true","[0]","010","010","1","","","","","","",""
"","","","","","image-keyboard-response","63","232376","0.0-38.0","62bd42b72c2ccddf753b655b","665500ab8938657b03fbdba8","665792bef8f30cac8a1cd6d4","589","stimuli/00100100.jpg"," ","","feedback_trial","0","","","","","","","","","","","","","","","","","","","","",""
"","","","","","image-keyboard-response","64","234041","0.0-39.0","62bd42b72c2ccddf753b655b","665500ab8938657b03fbdba8","665792bef8f30cac8a1cd6d4","1664","stimuli/2110001.jpg","2","","prediction_trial","2","","true","","2","false","true","true","true","false","true","[2]","110","001","1","","","","","","",""
"","","","","","image-keyboard-response","65","234678","0.0-40.0","62bd42b72c2ccddf753b655b","665500ab8938657b03fbdba8","665792bef8f30cac8a1cd6d4","635","stimuli/21100012.jpg"," ","","feedback_trial","2","","","","","","","","","","","","","","","","","","","","",""
"","","","","","image-keyboard-response","66","236459","0.0-41.0","62bd42b72c2ccddf753b655b","665500ab8938657b03fbdba8","665792bef8f30cac8a1cd6d4","1779","stimuli/2010110.jpg","2","","prediction_trial","2","","true","","2","true","true","true","true","true","true","[2]","010","110","1","","","","","","",""
"","","","","","image-keyboard-response","67","237083","0.0-42.0","62bd42b72c2ccddf753b655b","665500ab8938657b03fbdba8","665792bef8f30cac8a1cd6d4","624","stimuli/20101102.jpg"," ","","feedback_trial","2","","","","","","","","","","","","","","","","","","","","",""
"","","","","","image-keyboard-response","68","238357","0.0-43.0","62bd42b72c2ccddf753b655b","665500ab8938657b03fbdba8","665792bef8f30cac8a1cd6d4","1273","stimuli/1000100.jpg","0","","prediction_trial","1","","false","","1","true","true","true","true","true","true","[1]","000","100","0","","","","","","",""
"","","","","","image-keyboard-response","69","239014","0.0-44.0","62bd42b72c2ccddf753b655b","665500ab8938657b03fbdba8","665792bef8f30cac8a1cd6d4","656","stimuli/10001001.jpg"," ","","feedback_trial","1","","","","","","","","","","","","","","","","","","","","",""
"","","","","","image-keyboard-response","70","243015","0.0-45.0","62bd42b72c2ccddf753b655b","665500ab8938657b03fbdba8","665792bef8f30cac8a1cd6d4","3993","stimuli/2101110.jpg","2","","prediction_trial","0","","false","","2","true","true","false","false","false","false","[0,2]","101","110","0","","","","","","",""
"","","","","","image-keyboard-response","71","243763","0.0-46.0","62bd42b72c2ccddf753b655b","665500ab8938657b03fbdba8","665792bef8f30cac8a1cd6d4","747","stimuli/21011100.jpg"," ","","feedback_trial","0","","","","","","","","","","","","","","","","","","","","",""
"","","","","","image-keyboard-response","72","245206","0.0-47.0","62bd42b72c2ccddf753b655b","665500ab8938657b03fbdba8","665792bef8f30cac8a1cd6d4","1442","stimuli/0100001.jpg","0","","prediction_trial","0","","true","","0","true","true","false","true","false","true","[0]","100","001","1","","","","","","",""
"","","","","","image-keyboard-response","73","245854","0.0-48.0","62bd42b72c2ccddf753b655b","665500ab8938657b03fbdba8","665792bef8f30cac8a1cd6d4","647","stimuli/01000010.jpg"," ","","feedback_trial","0","","","","","","","","","","","","","","","","","","","","",""
"","","","","","image-keyboard-response","74","247768","0.0-49.0","62bd42b72c2ccddf753b655b","665500ab8938657b03fbdba8","665792bef8f30cac8a1cd6d4","1913","stimuli/2001101.jpg","2","","prediction_trial","2","","true","","2","false","false","false","true","false","false","[2]","001","101","1","","","","","","",""
"","","","","","image-keyboard-response","75","248415","0.0-50.0","62bd42b72c2ccddf753b655b","665500ab8938657b03fbdba8","665792bef8f30cac8a1cd6d4","646","stimuli/20011012.jpg"," ","","feedback_trial","2","","","","","","","","","","","","","","","","","","","","",""
"","","","","","image-keyboard-response","76","252438","0.0-51.0","62bd42b72c2ccddf753b655b","665500ab8938657b03fbdba8","665792bef8f30cac8a1cd6d4","4022","stimuli/2111010.jpg","1","","prediction_trial","2","","false","","2","true","true","false","false","false","false","[0,2,1]","111","010","0","","","","","","",""
"","","","","","image-keyboard-response","77","253028","0.0-52.0","62bd42b72c2ccddf753b655b","665500ab8938657b03fbdba8","665792bef8f30cac8a1cd6d4","588","stimuli/21110102.jpg"," ","","feedback_trial","0","","","","","","","","","","","","","","","","","","","","",""
"","","","","","image-keyboard-response","78","255001","0.0-53.0","62bd42b72c2ccddf753b655b","665500ab8938657b03fbdba8","665792bef8f30cac8a1cd6d4","1971","stimuli/2101101.jpg","2","","prediction_trial","2","","true","","2","false","false","false","false","false","false","[2,0]","101","101","1","","","","","","",""
"","","","","","image-keyboard-response","79","255599","0.0-54.0","62bd42b72c2ccddf753b655b","665500ab8938657b03fbdba8","665792bef8f30cac8a1cd6d4","598","stimuli/21011012.jpg"," ","","feedback_trial","2","","","","","","","","","","","","","","","","","","","","",""
"","","","","","image-keyboard-response","80","257093","0.0-55.0","62bd42b72c2ccddf753b655b","665500ab8938657b03fbdba8","665792bef8f30cac8a1cd6d4","1492","stimuli/2000010.jpg","2","","prediction_trial","2","","true","","2","true","true","true","true","true","true","[2]","000","010","1","","","","","","",""
"","","","","","image-keyboard-response","81","257631","0.0-56.0","62bd42b72c2ccddf753b655b","665500ab8938657b03fbdba8","665792bef8f30cac8a1cd6d4","536","stimuli/20000102.jpg"," ","","feedback_trial","2","","","","","","","","","","","","","","","","","","","","",""
"","","","","","image-keyboard-response","82","259050","0.0-57.0","62bd42b72c2ccddf753b655b","665500ab8938657b03fbdba8","665792bef8f30cac8a1cd6d4","1418","stimuli/0001001.jpg","0","","prediction_trial","0","","true","","0","true","true","true","true","true","true","[0]","001","001","1","","","","","","",""
"","","","","","image-keyboard-response","83","259777","0.0-58.0","62bd42b72c2ccddf753b655b","665500ab8938657b03fbdba8","665792bef8f30cac8a1cd6d4","725","stimuli/00010010.jpg"," ","","feedback_trial","0","","","","","","","","","","","","","","","","","","","","",""
"","","","","","image-keyboard-response","84","262192","0.0-59.0","62bd42b72c2ccddf753b655b","665500ab8938657b03fbdba8","665792bef8f30cac8a1cd6d4","2414","stimuli/2111011.jpg","1","","prediction_trial","1","","true","","2","false","false","false","false","false","false","[2,0,1]","111","011","1","","","","","","",""
"","","","","","image-keyboard-response","85","262786","0.0-60.0","62bd42b72c2ccddf753b655b","665500ab8938657b03fbdba8","665792bef8f30cac8a1cd6d4","592","stimuli/21110111.jpg"," ","","feedback_trial","2","","","","","","","","","","","","","","","","","","","","",""
"","","","","","image-keyboard-response","86","264591","0.0-61.0","62bd42b72c2ccddf753b655b","665500ab8938657b03fbdba8","665792bef8f30cac8a1cd6d4","1804","stimuli/1110111.jpg","0","","prediction_trial","0","","true","","1","false","false","false","false","false","false","[0,1]","110","111","1","","","","","","",""
"","","","","","image-keyboard-response","87","265715","0.0-62.0","62bd42b72c2ccddf753b655b","665500ab8938657b03fbdba8","665792bef8f30cac8a1cd6d4","1122","stimuli/11101110.jpg"," ","","feedback_trial","0","","","","","","","","","","","","","","","","","","","","",""
"","","","","","image-keyboard-response","88","267624","0.0-63.0","62bd42b72c2ccddf753b655b","665500ab8938657b03fbdba8","665792bef8f30cac8a1cd6d4","1908","stimuli/1110001.jpg","1","","prediction_trial","0","","false","","1","true","true","false","false","false","false","[0,1]","110","001","0","","","","","","",""
"","","","","","image-keyboard-response","89","268311","0.0-64.0","62bd42b72c2ccddf753b655b","665500ab8938657b03fbdba8","665792bef8f30cac8a1cd6d4","685","stimuli/11100010.jpg"," ","","feedback_trial","0","","","","","","","","","","","","","","","","","","","","",""
"","","","","","image-keyboard-response","90","269986","0.0-65.0","62bd42b72c2ccddf753b655b","665500ab8938657b03fbdba8","665792bef8f30cac8a1cd6d4","1675","stimuli/1011011.jpg","2","","prediction_trial","2","","true","","1","false","false","false","false","false","false","[2,1]","011","011","1","","","","","","",""
"","","","","","image-keyboard-response","91","270565","0.0-66.0","62bd42b72c2ccddf753b655b","665500ab8938657b03fbdba8","665792bef8f30cac8a1cd6d4","577","stimuli/10110112.jpg"," ","","feedback_trial","2","","","","","","","","","","","","","","","","","","","","",""
"","","","","","image-keyboard-response","92","271760","0.0-67.0","62bd42b72c2ccddf753b655b","665500ab8938657b03fbdba8","665792bef8f30cac8a1cd6d4","1193","stimuli/1100100.jpg","1","","prediction_trial","1","","true","","1","true","true","true","true","true","true","[1]","100","100","1","","","","","","",""
"","","","","","image-keyboard-response","93","272526","0.0-68.0","62bd42b72c2ccddf753b655b","665500ab8938657b03fbdba8","665792bef8f30cac8a1cd6d4","765","stimuli/11001001.jpg"," ","","feedback_trial","1","","","","","","","","","","","","","","","","","","","","",""
"","","","","","image-keyboard-response","94","276117","0.0-69.0","62bd42b72c2ccddf753b655b","665500ab8938657b03fbdba8","665792bef8f30cac8a1cd6d4","3590","stimuli/0111111.jpg","0","","prediction_trial","2","","false","","0","false","false","false","false","false","false","[2,1,0]","111","111","0","","","","","","",""
"","","","","","image-keyboard-response","95","276739","0.0-70.0","62bd42b72c2ccddf753b655b","665500ab8938657b03fbdba8","665792bef8f30cac8a1cd6d4","621","stimuli/01111112.jpg"," ","","feedback_trial","2","","","","","","","","","","","","","","","","","","","","",""
"","","","","","image-keyboard-response","96","278717","0.0-71.0","62bd42b72c2ccddf753b655b","665500ab8938657b03fbdba8","665792bef8f30cac8a1cd6d4","1978","stimuli/2100100.jpg","2","","prediction_trial","2","","true","","2","true","true","true","true","true","true","[2]","100","100","1","","","","","","",""
"","","","","","image-keyboard-response","97","279249","0.0-72.0","62bd42b72c2ccddf753b655b","665500ab8938657b03fbdba8","665792bef8f30cac8a1cd6d4","530","stimuli/21001002.jpg"," ","","feedback_trial","2","","","","","","","","","","","","","","","","","","","","",""
"","","","","","image-keyboard-response","98","280131","0.0-73.0","62bd42b72c2ccddf753b655b","665500ab8938657b03fbdba8","665792bef8f30cac8a1cd6d4","878","stimuli/2000000.jpg","2","","prediction_trial","2","","true","","2","true","true","true","true","true","true","[2]","000","000","1","","","","","","",""
"","","","","","image-keyboard-response","99","280614","0.0-74.0","62bd42b72c2ccddf753b655b","665500ab8938657b03fbdba8","665792bef8f30cac8a1cd6d4","482","stimuli/20000002.jpg"," ","","feedback_trial","2","","","","","","","","","","","","","","","","","","","","",""
"","","","","","image-keyboard-response","100","282323","0.0-75.0","62bd42b72c2ccddf753b655b","665500ab8938657b03fbdba8","665792bef8f30cac8a1cd6d4","1709","stimuli/0001010.jpg","0","","prediction_trial","0","","true","","0","true","true","true","true","true","true","[0]","001","010","1","","","","","","",""
"","","","","","image-keyboard-response","101","283098","0.0-76.0","62bd42b72c2ccddf753b655b","665500ab8938657b03fbdba8","665792bef8f30cac8a1cd6d4","774","stimuli/00010100.jpg"," ","","feedback_trial","0","","","","","","","","","","","","","","","","","","","","",""
"","","","","","image-keyboard-response","102","284676","0.0-77.0","62bd42b72c2ccddf753b655b","665500ab8938657b03fbdba8","665792bef8f30cac8a1cd6d4","1576","stimuli/0000111.jpg","1","","prediction_trial","0","","false","","0","false","false","true","true","false","false","[0]","000","111","0","","","","","","",""
"","","","","","image-keyboard-response","103","285176","0.0-78.0","62bd42b72c2ccddf753b655b","665500ab8938657b03fbdba8","665792bef8f30cac8a1cd6d4","498","stimuli/00001110.jpg"," ","","feedback_trial","0","","","","","","","","","","","","","","","","","","","","",""
"","","","","","image-keyboard-response","104","286392","0.0-79.0","62bd42b72c2ccddf753b655b","665500ab8938657b03fbdba8","665792bef8f30cac8a1cd6d4","1215","stimuli/1101000.jpg","1","","prediction_trial","1","","true","","1","true","true","true","true","true","true","[1]","101","000","1","","","","","","",""
"","","","","","image-keyboard-response","105","286859","0.0-80.0","62bd42b72c2ccddf753b655b","665500ab8938657b03fbdba8","665792bef8f30cac8a1cd6d4","465","stimuli/11010001.jpg"," ","","feedback_trial","1","","","","","","","","","","","","","","","","","","","","",""
"","","","","","image-keyboard-response","106","288093","0.0-81.0","62bd42b72c2ccddf753b655b","665500ab8938657b03fbdba8","665792bef8f30cac8a1cd6d4","1234","stimuli/1100001.jpg","1","","prediction_trial","1","","true","","1","true","true","true","true","true","true","[1]","100","001","1","","","","","","",""
"","","","","","image-keyboard-response","107","288568","0.0-82.0","62bd42b72c2ccddf753b655b","665500ab8938657b03fbdba8","665792bef8f30cac8a1cd6d4","475","stimuli/11000011.jpg"," ","","feedback_trial","1","","","","","","","","","","","","","","","","","","","","",""
"","","","","","image-keyboard-response","108","290399","0.0-83.0","62bd42b72c2ccddf753b655b","665500ab8938657b03fbdba8","665792bef8f30cac8a1cd6d4","1829","stimuli/1000011.jpg","2","","prediction_trial","1","","false","","1","false","false","true","true","false","false","[1]","000","011","0","","","","","","",""
"","","","","","image-keyboard-response","109","291036","0.0-84.0","62bd42b72c2ccddf753b655b","665500ab8938657b03fbdba8","665792bef8f30cac8a1cd6d4","635","stimuli/10000111.jpg"," ","","feedback_trial","1","","","","","","","","","","","","","","","","","","","","",""
"","","","","","image-keyboard-response","110","292211","0.0-85.0","62bd42b72c2ccddf753b655b","665500ab8938657b03fbdba8","665792bef8f30cac8a1cd6d4","1174","stimuli/0111110.jpg","1","","prediction_trial","0","","false","","0","false","false","false","false","false","false","[1,2,0]","111","110","0","","","","","","",""
"","","","","","image-keyboard-response","111","292894","0.0-86.0","62bd42b72c2ccddf753b655b","665500ab8938657b03fbdba8","665792bef8f30cac8a1cd6d4","681","stimuli/01111100.jpg"," ","","feedback_trial","1","","","","","","","","","","","","","","","","","","","","",""
"","","","","","image-keyboard-response","112","293887","0.0-87.0","62bd42b72c2ccddf753b655b","665500ab8938657b03fbdba8","665792bef8f30cac8a1cd6d4","993","stimuli/2111110.jpg","2","","prediction_trial","1","","false","","2","true","true","false","false","false","false","[2,1,0]","111","110","0","","","","","","",""
"","","","","","image-keyboard-response","113","294471","0.0-88.0","62bd42b72c2ccddf753b655b","665500ab8938657b03fbdba8","665792bef8f30cac8a1cd6d4","583","stimuli/21111101.jpg"," ","","feedback_trial","2","","","","","","","","","","","","","","","","","","","","",""
"","","","","","image-keyboard-response","114","296203","0.0-89.0","62bd42b72c2ccddf753b655b","665500ab8938657b03fbdba8","665792bef8f30cac8a1cd6d4","1731","stimuli/0000100.jpg","0","","prediction_trial","0","","true","","0","false","true","true","true","false","true","[0]","000","100","1","","","","","","",""
"","","","","","image-keyboard-response","115","296681","0.0-90.0","62bd42b72c2ccddf753b655b","665500ab8938657b03fbdba8","665792bef8f30cac8a1cd6d4","477","stimuli/00001000.jpg"," ","","feedback_trial","0","","","","","","","","","","","","","","","","","","","","",""
"","","","","","image-keyboard-response","116","298197","0.0-91.0","62bd42b72c2ccddf753b655b","665500ab8938657b03fbdba8","665792bef8f30cac8a1cd6d4","1515","stimuli/0010101.jpg","2","","prediction_trial","0","","false","","0","false","false","true","true","false","false","[0]","010","101","0","","","","","","",""
"","","","","","image-keyboard-response","117","298927","0.0-92.0","62bd42b72c2ccddf753b655b","665500ab8938657b03fbdba8","665792bef8f30cac8a1cd6d4","729","stimuli/00101010.jpg"," ","","feedback_trial","0","","","","","","","","","","","","","","","","","","","","",""
"","","","","","image-keyboard-response","118","299978","0.0-93.0","62bd42b72c2ccddf753b655b","665500ab8938657b03fbdba8","665792bef8f30cac8a1cd6d4","1050","stimuli/1011010.jpg","1","","prediction_trial","2","","false","","1","false","true","false","false","false","false","[1,2]","011","010","0","","","","","","",""
"","","","","","image-keyboard-response","119","300742","0.0-94.0","62bd42b72c2ccddf753b655b","665500ab8938657b03fbdba8","665792bef8f30cac8a1cd6d4","762","stimuli/10110102.jpg"," ","","feedback_trial","1","","","","","","","","","","","","","","","","","","","","",""
"","","","","","image-keyboard-response","120","302632","0.0-95.0","62bd42b72c2ccddf753b655b","665500ab8938657b03fbdba8","665792bef8f30cac8a1cd6d4","1889","stimuli/0001100.jpg","0","","prediction_trial","0","","true","","0","false","true","true","true","false","true","[0]","001","100","1","","","","","","",""
"","","","","","image-keyboard-response","121","303316","0.0-96.0","62bd42b72c2ccddf753b655b","665500ab8938657b03fbdba8","665792bef8f30cac8a1cd6d4","689","stimuli/00011000.jpg"," ","","feedback_trial","0","","","","","","","","","","","","","","","","","","","","",""
"","","","","","image-keyboard-response","122","304596","0.0-97.0","62bd42b72c2ccddf753b655b","665500ab8938657b03fbdba8","665792bef8f30cac8a1cd6d4","1279","stimuli/1011001.jpg","1","","prediction_trial","2","","false","","1","true","true","false","false","false","false","[1,2]","011","001","0","","","","","","",""
"","","","","","image-keyboard-response","123","305654","0.0-98.0","62bd42b72c2ccddf753b655b","665500ab8938657b03fbdba8","665792bef8f30cac8a1cd6d4","1057","stimuli/10110012.jpg"," ","","feedback_trial","1","","","","","","","","","","","","","","","","","","","","",""
"","","","","","image-keyboard-response","124","307264","0.0-99.0","62bd42b72c2ccddf753b655b","665500ab8938657b03fbdba8","665792bef8f30cac8a1cd6d4","1608","stimuli/0010110.jpg","1","","prediction_trial","0","","false","","0","false","false","true","true","false","false","[0]","010","110","0","","","","","","",""
"","","","","","image-keyboard-response","125","308121","0.0-100.0","62bd42b72c2ccddf753b655b","665500ab8938657b03fbdba8","665792bef8f30cac8a1cd6d4","856","stimuli/00101100.jpg"," ","","feedback_trial","0","","","","","","","","","","","","","","","","","","","","",""
"","","","","","image-keyboard-response","126","309550","0.0-101.0","62bd42b72c2ccddf753b655b","665500ab8938657b03fbdba8","665792bef8f30cac8a1cd6d4","1427","stimuli/0000000.jpg","0","","prediction_trial","0","","true","","0","true","true","true","true","true","true","[0]","000","000","1","","","","","","",""
"","","","","","image-keyboard-response","127","310116","0.0-102.0","62bd42b72c2ccddf753b655b","665500ab8938657b03fbdba8","665792bef8f30cac8a1cd6d4","565","stimuli/00000000.jpg"," ","","feedback_trial","0","","","","","","","","","","","","","","","","","","","","",""
"","","","","","image-keyboard-response","128","314025","0.0-103.0","62bd42b72c2ccddf753b655b","665500ab8938657b03fbdba8","665792bef8f30cac8a1cd6d4","3908","stimuli/2110011.jpg","1","","prediction_trial","2","","false","","2","false","false","true","true","false","false","[2]","110","011","0","","","","","","",""
"","","","","","image-keyboard-response","129","314741","0.0-104.0","62bd42b72c2ccddf753b655b","665500ab8938657b03fbdba8","665792bef8f30cac8a1cd6d4","714","stimuli/21100112.jpg"," ","","feedback_trial","2","","","","","","","","","","","","","","","","","","","","",""
"","","","","","image-keyboard-response","130","317316","0.0-105.0","62bd42b72c2ccddf753b655b","665500ab8938657b03fbdba8","665792bef8f30cac8a1cd6d4","2574","stimuli/0011011.jpg","0","","prediction_trial","0","","true","","0","true","true","true","true","true","true","[0]","011","011","1","","","","","","",""
"","","","","","image-keyboard-response","131","317918","0.0-106.0","62bd42b72c2ccddf753b655b","665500ab8938657b03fbdba8","665792bef8f30cac8a1cd6d4","601","stimuli/00110110.jpg"," ","","feedback_trial","0","","","","","","","","","","","","","","","","","","","","",""
"","","","","","image-keyboard-response","132","320289","0.0-107.0","62bd42b72c2ccddf753b655b","665500ab8938657b03fbdba8","665792bef8f30cac8a1cd6d4","2370","stimuli/0101000.jpg","2","","prediction_trial","2","","true","","0","true","true","false","false","false","false","[2,0]","101","000","1","","","","","","",""
"","","","","","image-keyboard-response","133","320768","0.0-108.0","62bd42b72c2ccddf753b655b","665500ab8938657b03fbdba8","665792bef8f30cac8a1cd6d4","478","stimuli/01010002.jpg"," ","","feedback_trial","2","","","","","","","","","","","","","","","","","","","","",""
"","","","","","image-keyboard-response","134","324122","0.0-109.0","62bd42b72c2ccddf753b655b","665500ab8938657b03fbdba8","665792bef8f30cac8a1cd6d4","3353","stimuli/1011000.jpg","1","","prediction_trial","1","","true","","1","true","true","false","false","false","false","[2,1]","011","000","1","","","","","","",""
"","","","","","image-keyboard-response","135","325031","0.0-110.0","62bd42b72c2ccddf753b655b","665500ab8938657b03fbdba8","665792bef8f30cac8a1cd6d4","908","stimuli/10110001.jpg"," ","","feedback_trial","2","","","","","","","","","","","","","","","","","","","","",""
"","","","","","image-keyboard-response","136","326295","0.0-111.0","62bd42b72c2ccddf753b655b","665500ab8938657b03fbdba8","665792bef8f30cac8a1cd6d4","1263","stimuli/0100100.jpg","0","","prediction_trial","0","","true","","0","false","true","false","true","false","true","[0]","100","100","1","","","","","","",""
"","","","","","image-keyboard-response","137","326910","0.0-112.0","62bd42b72c2ccddf753b655b","665500ab8938657b03fbdba8","665792bef8f30cac8a1cd6d4","613","stimuli/01001000.jpg"," ","","feedback_trial","0","","","","","","","","","","","","","","","","","","","","",""
"","","","","","image-keyboard-response","138","328828","0.0-113.0","62bd42b72c2ccddf753b655b","665500ab8938657b03fbdba8","665792bef8f30cac8a1cd6d4","1916","stimuli/0000001.jpg","0","","prediction_trial","0","","true","","0","true","true","true","true","true","true","[0]","000","001","1","","","","","","",""
"","","","","","image-keyboard-response","139","329472","0.0-114.0","62bd42b72c2ccddf753b655b","665500ab8938657b03fbdba8","665792bef8f30cac8a1cd6d4","642","stimuli/00000010.jpg"," ","","feedback_trial","0","","","","","","","","","","","","","","","","","","","","",""
"","","","","","image-keyboard-response","140","331757","0.0-115.0","62bd42b72c2ccddf753b655b","665500ab8938657b03fbdba8","665792bef8f30cac8a1cd6d4","2284","stimuli/1000111.jpg","2","","prediction_trial","1","","false","","1","false","false","true","true","false","false","[1]","000","111","0","","","","","","",""
"","","","","","image-keyboard-response","141","332363","0.0-116.0","62bd42b72c2ccddf753b655b","665500ab8938657b03fbdba8","665792bef8f30cac8a1cd6d4","604","stimuli/10001111.jpg"," ","","feedback_trial","1","","","","","","","","","","","","","","","","","","","","",""
"","","","","","image-keyboard-response","142","333701","0.0-117.0","62bd42b72c2ccddf753b655b","665500ab8938657b03fbdba8","665792bef8f30cac8a1cd6d4","1337","stimuli/0101011.jpg","0","","prediction_trial","2","","false","","0","true","true","false","false","false","false","[2,0]","101","011","0","","","","","","",""
"","","","","","image-keyboard-response","143","335558","0.0-118.0","62bd42b72c2ccddf753b655b","665500ab8938657b03fbdba8","665792bef8f30cac8a1cd6d4","1856","stimuli/01010112.jpg"," ","","feedback_trial","2","","","","","","","","","","","","","","","","","","","","",""
"","","","","","image-keyboard-response","144","337542","0.0-119.0","62bd42b72c2ccddf753b655b","665500ab8938657b03fbdba8","665792bef8f30cac8a1cd6d4","1982","stimuli/1111000.jpg","1","","prediction_trial","2","","false","","1","true","true","false","false","false","false","[0,2,1]","111","000","0","","","","","","",""
"","","","","","image-keyboard-response","145","338653","0.0-120.0","62bd42b72c2ccddf753b655b","665500ab8938657b03fbdba8","665792bef8f30cac8a1cd6d4","1110","stimuli/11110002.jpg"," ","","feedback_trial","0","","","","","","","","","","","","","","","","","","","","",""
"","","","","","image-keyboard-response","146","340437","0.0-121.0","62bd42b72c2ccddf753b655b","665500ab8938657b03fbdba8","665792bef8f30cac8a1cd6d4","1783","stimuli/2001011.jpg","2","","prediction_trial","2","","true","","2","false","false","false","true","false","false","[2]","001","011","1","","","","","","",""
"","","","","","image-keyboard-response","147","341038","0.0-122.0","62bd42b72c2ccddf753b655b","665500ab8938657b03fbdba8","665792bef8f30cac8a1cd6d4","601","stimuli/20010112.jpg"," ","","feedback_trial","2","","","","","","","","","","","","","","","","","","","","",""
"","","","","","image-keyboard-response","148","342642","0.0-123.0","62bd42b72c2ccddf753b655b","665500ab8938657b03fbdba8","665792bef8f30cac8a1cd6d4","1603","stimuli/1100110.jpg","0","","prediction_trial","1","","false","","1","false","false","true","true","false","false","[1]","100","110","0","","","","","","",""
"","","","","","image-keyboard-response","149","343181","0.0-124.0","62bd42b72c2ccddf753b655b","665500ab8938657b03fbdba8","665792bef8f30cac8a1cd6d4","539","stimuli/11001101.jpg"," ","","feedback_trial","1","","","","","","","","","","","","","","","","","","","","",""
"","","","","","image-keyboard-response","150","345489","0.0-125.0","62bd42b72c2ccddf753b655b","665500ab8938657b03fbdba8","665792bef8f30cac8a1cd6d4","2307","stimuli/1111001.jpg","1","","prediction_trial","0","","false","","1","true","true","false","false","false","false","[2,0,1]","111","001","0","","","","","","",""
"","","","","","image-keyboard-response","151","346023","0.0-126.0","62bd42b72c2ccddf753b655b","665500ab8938657b03fbdba8","665792bef8f30cac8a1cd6d4","533","stimuli/11110010.jpg"," ","","feedback_trial","2","","","","","","","","","","","","","","","","","","","","",""
"","","","","","image-keyboard-response","152","348090","0.0-127.0","62bd42b72c2ccddf753b655b","665500ab8938657b03fbdba8","665792bef8f30cac8a1cd6d4","2067","stimuli/1110010.jpg","1","","prediction_trial","1","","true","","1","false","true","false","false","false","false","[0,1]","110","010","1","","","","","","",""
"","","","","","image-keyboard-response","153","348600","0.0-128.0","62bd42b72c2ccddf753b655b","665500ab8938657b03fbdba8","665792bef8f30cac8a1cd6d4","508","stimuli/11100101.jpg"," ","","feedback_trial","0","","","","","","","","","","","","","","","","","","","","",""
"","","","","","image-keyboard-response","154","350516","0.0-129.0","62bd42b72c2ccddf753b655b","665500ab8938657b03fbdba8","665792bef8f30cac8a1cd6d4","1915","stimuli/0111001.jpg","2","","prediction_trial","2","","true","","0","true","true","false","false","false","false","[0,1,2]","111","001","1","","","","","","",""
"","","","","","image-keyboard-response","155","351604","0.0-130.0","62bd42b72c2ccddf753b655b","665500ab8938657b03fbdba8","665792bef8f30cac8a1cd6d4","1087","stimuli/01110012.jpg"," ","","feedback_trial","0","","","","","","","","","","","","","","","","","","","","",""
"","","","","","image-keyboard-response","156","353559","0.0-131.0","62bd42b72c2ccddf753b655b","665500ab8938657b03fbdba8","665792bef8f30cac8a1cd6d4","1953","stimuli/2100101.jpg","0","","prediction_trial","2","","false","","2","false","false","true","true","false","false","[2]","100","101","0","","","","","","",""
"","","","","","image-keyboard-response","157","354494","0.0-132.0","62bd42b72c2ccddf753b655b","665500ab8938657b03fbdba8","665792bef8f30cac8a1cd6d4","934","stimuli/21001012.jpg"," ","","feedback_trial","2","","","","","","","","","","","","","","","","","","","","",""
"","","","","","image-keyboard-response","158","355674","0.0-133.0","62bd42b72c2ccddf753b655b","665500ab8938657b03fbdba8","665792bef8f30cac8a1cd6d4","1179","stimuli/2000110.jpg","2","","prediction_trial","2","","true","","2","true","true","true","true","true","true","[2]","000","110","1","","","","","","",""
"","","","","","image-keyboard-response","159","356320","0.0-134.0","62bd42b72c2ccddf753b655b","665500ab8938657b03fbdba8","665792bef8f30cac8a1cd6d4","644","stimuli/20001102.jpg"," ","","feedback_trial","2","","","","","","","","","","","","","","","","","","","","",""
"","","","","","image-keyboard-response","160","360789","0.0-135.0","62bd42b72c2ccddf753b655b","665500ab8938657b03fbdba8","665792bef8f30cac8a1cd6d4","4467","stimuli/1010001.jpg","1","","prediction_trial","1","","true","","1","true","true","false","true","false","true","[1]","010","001","1","","","","","","",""
"","","","","","image-keyboard-response","161","361885","0.0-136.0","62bd42b72c2ccddf753b655b","665500ab8938657b03fbdba8","665792bef8f30cac8a1cd6d4","1095","stimuli/10100011.jpg"," ","","feedback_trial","1","","","","","","","","","","","","","","","","","","","","",""
"","","","","","image-keyboard-response","162","363608","0.0-137.0","62bd42b72c2ccddf753b655b","665500ab8938657b03fbdba8","665792bef8f30cac8a1cd6d4","1719","stimuli/2101001.jpg","2","","prediction_trial","0","","false","","2","false","true","false","false","false","false","[2,0]","101","001","0","","","","","","",""
"","","","","","image-keyboard-response","163","364366","0.0-138.0","62bd42b72c2ccddf753b655b","665500ab8938657b03fbdba8","665792bef8f30cac8a1cd6d4","756","stimuli/21010010.jpg"," ","","feedback_trial","2","","","","","","","","","","","","","","","","","","","","",""
"","","","","","image-keyboard-response","164","369336","0.0-139.0","62bd42b72c2ccddf753b655b","665500ab8938657b03fbdba8","665792bef8f30cac8a1cd6d4","4969","stimuli/0001110.jpg","1","","prediction_trial","0","","false","","0","false","false","true","true","false","false","[0]","001","110","0","","","","","","",""
"","","","","","image-keyboard-response","165","370133","0.0-140.0","62bd42b72c2ccddf753b655b","665500ab8938657b03fbdba8","665792bef8f30cac8a1cd6d4","796","stimuli/00011100.jpg"," ","","feedback_trial","0","","","","","","","","","","","","","","","","","","","","",""
"","","","","","image-keyboard-response","166","372073","0.0-141.0","62bd42b72c2ccddf753b655b","665500ab8938657b03fbdba8","665792bef8f30cac8a1cd6d4","1939","stimuli/0110011.jpg","0","","prediction_trial","0","","true","","0","true","true","false","false","false","false","[1,0]","110","011","1","","","","","","",""
"","","","","","image-keyboard-response","167","372674","0.0-142.0","62bd42b72c2ccddf753b655b","665500ab8938657b03fbdba8","665792bef8f30cac8a1cd6d4","601","stimuli/01100110.jpg"," ","","feedback_trial","1","","","","","","","","","","","","","","","","","","","","",""
"","","","","","image-keyboard-response","168","374216","0.0-143.0","62bd42b72c2ccddf753b655b","665500ab8938657b03fbdba8","665792bef8f30cac8a1cd6d4","1541","stimuli/0100110.jpg","1","","prediction_trial","0","","false","","0","false","false","false","true","false","false","[0]","100","110","0","","","","","","",""
"","","","","","image-keyboard-response","169","377393","0.0-144.0","62bd42b72c2ccddf753b655b","665500ab8938657b03fbdba8","665792bef8f30cac8a1cd6d4","3176","stimuli/01001100.jpg"," ","","feedback_trial","0","","","","","","","","","","","","","","","","","","","","",""
"","","","","","image-keyboard-response","170","381177","0.0-145.0","62bd42b72c2ccddf753b655b","665500ab8938657b03fbdba8","665792bef8f30cac8a1cd6d4","3784","stimuli/2101011.jpg","2","","prediction_trial","2","","true","","2","false","false","false","false","false","false","[2,0]","101","011","1","","","","","","",""
"","","","","","image-keyboard-response","171","381807","0.0-146.0","62bd42b72c2ccddf753b655b","665500ab8938657b03fbdba8","665792bef8f30cac8a1cd6d4","629","stimuli/21010112.jpg"," ","","feedback_trial","2","","","","","","","","","","","","","","","","","","","","",""
"","","","","","image-keyboard-response","172","383386","0.0-147.0","62bd42b72c2ccddf753b655b","665500ab8938657b03fbdba8","665792bef8f30cac8a1cd6d4","1577","stimuli/0100011.jpg","0","","prediction_trial","0","","true","","0","true","true","false","true","false","true","[0]","100","011","1","","","","","","",""
"","","","","","image-keyboard-response","173","383968","0.0-148.0","62bd42b72c2ccddf753b655b","665500ab8938657b03fbdba8","665792bef8f30cac8a1cd6d4","581","stimuli/01000110.jpg"," ","","feedback_trial","0","","","","","","","","","","","","","","","","","","","","",""
"","","","","","image-keyboard-response","174","386208","0.0-149.0","62bd42b72c2ccddf753b655b","665500ab8938657b03fbdba8","665792bef8f30cac8a1cd6d4","2239","stimuli/2011011.jpg","2","","prediction_trial","2","","true","","2","false","false","false","false","false","false","[2,1]","011","011","1","","","","","","",""
"","","","","","image-keyboard-response","175","386821","0.0-150.0","62bd42b72c2ccddf753b655b","665500ab8938657b03fbdba8","665792bef8f30cac8a1cd6d4","611","stimuli/20110112.jpg"," ","","feedback_trial","2","","","","","","","","","","","","","","","","","","","","",""
"","","","","","image-keyboard-response","176","388506","0.0-151.0","62bd42b72c2ccddf753b655b","665500ab8938657b03fbdba8","665792bef8f30cac8a1cd6d4","1685","stimuli/2001001.jpg","2","","prediction_trial","2","","true","","2","false","true","false","true","false","true","[2]","001","001","1","","","","","","",""
"","","","","","image-keyboard-response","177","389037","0.0-152.0","62bd42b72c2ccddf753b655b","665500ab8938657b03fbdba8","665792bef8f30cac8a1cd6d4","530","stimuli/20010012.jpg"," ","","feedback_trial","2","","","","","","","","","","","","","","","","","","","","",""
"","","","","","image-keyboard-response","178","391162","0.0-153.0","62bd42b72c2ccddf753b655b","665500ab8938657b03fbdba8","665792bef8f30cac8a1cd6d4","2123","stimuli/1011111.jpg","1","","prediction_trial","2","","false","","1","false","false","false","false","false","false","[2,1]","011","111","0","","","","","","",""
"","","","","","image-keyboard-response","179","391857","0.0-154.0","62bd42b72c2ccddf753b655b","665500ab8938657b03fbdba8","665792bef8f30cac8a1cd6d4","694","stimuli/10111112.jpg"," ","","feedback_trial","2","","","","","","","","","","","","","","","","","","","","",""
"","","","","","image-keyboard-response","180","395015","0.0-155.0","62bd42b72c2ccddf753b655b","665500ab8938657b03fbdba8","665792bef8f30cac8a1cd6d4","3157","stimuli/1100111.jpg","0","","prediction_trial","1","","false","","1","false","false","true","true","false","false","[1]","100","111","0","","","","","","",""
"","","","","","image-keyboard-response","181","395590","0.0-156.0","62bd42b72c2ccddf753b655b","665500ab8938657b03fbdba8","665792bef8f30cac8a1cd6d4","573","stimuli/11001111.jpg"," ","","feedback_trial","1","","","","","","","","","","","","","","","","","","","","",""
"","","","","","image-keyboard-response","182","396849","0.0-157.0","62bd42b72c2ccddf753b655b","665500ab8938657b03fbdba8","665792bef8f30cac8a1cd6d4","1258","stimuli/0011000.jpg","0","","prediction_trial","0","","true","","0","true","true","true","true","true","true","[0]","011","000","1","","","","","","",""
"","","","","","image-keyboard-response","183","397348","0.0-158.0","62bd42b72c2ccddf753b655b","665500ab8938657b03fbdba8","665792bef8f30cac8a1cd6d4","498","stimuli/00110000.jpg"," ","","feedback_trial","0","","","","","","","","","","","","","","","","","","","","",""
"","","","","","image-keyboard-response","184","398735","0.0-159.0","62bd42b72c2ccddf753b655b","665500ab8938657b03fbdba8","665792bef8f30cac8a1cd6d4","1385","stimuli/2011000.jpg","2","","prediction_trial","1","","false","","2","true","true","false","false","false","false","[2,1]","011","000","0","","","","","","",""
"","","","","","image-keyboard-response","185","399571","0.0-160.0","62bd42b72c2ccddf753b655b","665500ab8938657b03fbdba8","665792bef8f30cac8a1cd6d4","835","stimuli/20110001.jpg"," ","","feedback_trial","2","","","","","","","","","","","","","","","","","","","","",""
"","","","","","image-keyboard-response","186","401747","0.0-161.0","62bd42b72c2ccddf753b655b","665500ab8938657b03fbdba8","665792bef8f30cac8a1cd6d4","2175","stimuli/2111111.jpg","1","","prediction_trial","2","","false","","2","false","false","false","false","false","false","[2,0,1]","111","111","0","","","","","","",""
"","","","","","image-keyboard-response","187","402420","0.0-162.0","62bd42b72c2ccddf753b655b","665500ab8938657b03fbdba8","665792bef8f30cac8a1cd6d4","672","stimuli/21111112.jpg"," ","","feedback_trial","2","","","","","","","","","","","","","","","","","","","","",""
"","","","","","image-keyboard-response","188","404490","0.0-163.0","62bd42b72c2ccddf753b655b","665500ab8938657b03fbdba8","665792bef8f30cac8a1cd6d4","2069","stimuli/1001111.jpg","2","","prediction_trial","1","","false","","1","false","false","true","true","false","false","[1]","001","111","0","","","","","","",""
"","","","","","image-keyboard-response","189","405964","0.0-164.0","62bd42b72c2ccddf753b655b","665500ab8938657b03fbdba8","665792bef8f30cac8a1cd6d4","1473","stimuli/10011111.jpg"," ","","feedback_trial","1","","","","","","","","","","","","","","","","","","","","",""
"","","","","","image-keyboard-response","190","407915","0.0-165.0","62bd42b72c2ccddf753b655b","665500ab8938657b03fbdba8","665792bef8f30cac8a1cd6d4","1949","stimuli/0011001.jpg","0","","prediction_trial","0","","true","","0","true","true","true","true","true","true","[0]","011","001","1","","","","","","",""
"","","","","","image-keyboard-response","191","408460","0.0-166.0","62bd42b72c2ccddf753b655b","665500ab8938657b03fbdba8","665792bef8f30cac8a1cd6d4","544","stimuli/00110010.jpg"," ","","feedback_trial","0","","","","","","","","","","","","","","","","","","","","",""
"","","","","","image-keyboard-response","192","412293","0.0-167.0","62bd42b72c2ccddf753b655b","665500ab8938657b03fbdba8","665792bef8f30cac8a1cd6d4","3832","stimuli/2111100.jpg","0","","prediction_trial","0","","true","","2","true","true","false","false","false","false","[0,1,2]","111","100","1","","","","","","",""
"","","","","","image-keyboard-response","193","412925","0.0-168.0","62bd42b72c2ccddf753b655b","665500ab8938657b03fbdba8","665792bef8f30cac8a1cd6d4","631","stimuli/21111000.jpg"," ","","feedback_trial","0","","","","","","","","","","","","","","","","","","","","",""
"","","","","","image-keyboard-response","194","414707","0.0-169.0","62bd42b72c2ccddf753b655b","665500ab8938657b03fbdba8","665792bef8f30cac8a1cd6d4","1781","stimuli/0000011.jpg","0","","prediction_trial","0","","true","","0","true","true","true","true","true","true","[0]","000","011","1","","","","","","",""
"","","","","","image-keyboard-response","195","415217","0.0-170.0","62bd42b72c2ccddf753b655b","665500ab8938657b03fbdba8","665792bef8f30cac8a1cd6d4","509","stimuli/00000110.jpg"," ","","feedback_trial","0","","","","","","","","","","","","","","","","","","","","",""
"","","","","","image-keyboard-response","196","416484","0.0-171.0","62bd42b72c2ccddf753b655b","665500ab8938657b03fbdba8","665792bef8f30cac8a1cd6d4","1265","stimuli/2110110.jpg","2","","prediction_trial","2","","true","","2","true","true","true","true","true","true","[2]","110","110","1","","","","","","",""
"","","","","","image-keyboard-response","197","417021","0.0-172.0","62bd42b72c2ccddf753b655b","665500ab8938657b03fbdba8","665792bef8f30cac8a1cd6d4","536","stimuli/21101102.jpg"," ","","feedback_trial","2","","","","","","","","","","","","","","","","","","","","",""
"","","","","","image-keyboard-response","198","419204","0.0-173.0","62bd42b72c2ccddf753b655b","665500ab8938657b03fbdba8","665792bef8f30cac8a1cd6d4","2182","stimuli/2000011.jpg","2","","prediction_trial","2","","true","","2","false","false","true","true","false","false","[2]","000","011","1","","","","","","",""
"","","","","","image-keyboard-response","199","419707","0.0-174.0","62bd42b72c2ccddf753b655b","665500ab8938657b03fbdba8","665792bef8f30cac8a1cd6d4","501","stimuli/20000112.jpg"," ","","feedback_trial","2","","","","","","","","","","","","","","","","","","","","",""
"","","","","","image-keyboard-response","200","422347","0.0-175.0","62bd42b72c2ccddf753b655b","665500ab8938657b03fbdba8","665792bef8f30cac8a1cd6d4","2639","stimuli/1011100.jpg","1","","prediction_trial","1","","true","","1","true","true","false","false","false","false","[2,1]","011","100","1","","","","","","",""
"","","","","","image-keyboard-response","201","423471","0.0-176.0","62bd42b72c2ccddf753b655b","665500ab8938657b03fbdba8","665792bef8f30cac8a1cd6d4","1123","stimuli/10111001.jpg"," ","","feedback_trial","2","","","","","","","","","","","","","","","","","","","","",""
"","","","","","image-keyboard-response","202","424929","0.0-177.0","62bd42b72c2ccddf753b655b","665500ab8938657b03fbdba8","665792bef8f30cac8a1cd6d4","1440","stimuli/2100010.jpg","2","","prediction_trial","2","","true","","2","true","true","true","true","true","true","[2]","100","010","1","","","","","","",""
"","","","","","image-keyboard-response","203","425413","0.0-178.0","62bd42b72c2ccddf753b655b","665500ab8938657b03fbdba8","665792bef8f30cac8a1cd6d4","482","stimuli/21000102.jpg"," ","","feedback_trial","2","","","","","","","","","","","","","","","","","","","","",""
"","","","","","image-keyboard-response","204","426871","0.0-179.0","62bd42b72c2ccddf753b655b","665500ab8938657b03fbdba8","665792bef8f30cac8a1cd6d4","1456","stimuli/1001010.jpg","1","","prediction_trial","1","","true","","1","false","true","true","true","false","true","[1]","001","010","1","","","","","","",""
"","","","","","image-keyboard-response","205","427397","0.0-180.0","62bd42b72c2ccddf753b655b","665500ab8938657b03fbdba8","665792bef8f30cac8a1cd6d4","525","stimuli/10010101.jpg"," ","","feedback_trial","1","","","","","","","","","","","","","","","","","","","","",""
"","","","","","image-keyboard-response","206","428917","0.0-181.0","62bd42b72c2ccddf753b655b","665500ab8938657b03fbdba8","665792bef8f30cac8a1cd6d4","1519","stimuli/2000001.jpg","2","","prediction_trial","2","","true","","2","false","true","true","true","false","true","[2]","000","001","1","","","","","","",""
"","","","","","image-keyboard-response","207","429392","0.0-182.0","62bd42b72c2ccddf753b655b","665500ab8938657b03fbdba8","665792bef8f30cac8a1cd6d4","474","stimuli/20000012.jpg"," ","","feedback_trial","2","","","","","","","","","","","","","","","","","","","","",""
"","","","","","image-keyboard-response","208","431148","0.0-183.0","62bd42b72c2ccddf753b655b","665500ab8938657b03fbdba8","665792bef8f30cac8a1cd6d4","1755","stimuli/1101010.jpg","1","","prediction_trial","1","","true","","1","false","true","true","true","false","true","[1]","101","010","1","","","","","","",""
"","","","","","image-keyboard-response","209","431672","0.0-184.0","62bd42b72c2ccddf753b655b","665500ab8938657b03fbdba8","665792bef8f30cac8a1cd6d4","522","stimuli/11010101.jpg"," ","","feedback_trial","1","","","","","","","","","","","","","","","","","","","","",""
"","","","","","image-keyboard-response","210","432980","0.0-185.0","62bd42b72c2ccddf753b655b","665500ab8938657b03fbdba8","665792bef8f30cac8a1cd6d4","1308","stimuli/0000010.jpg","0","","prediction_trial","0","","true","","0","true","true","true","true","true","true","[0]","000","010","1","","","","","","",""
"","","","","","image-keyboard-response","211","433471","0.0-186.0","62bd42b72c2ccddf753b655b","665500ab8938657b03fbdba8","665792bef8f30cac8a1cd6d4","489","stimuli/00000100.jpg"," ","","feedback_trial","0","","","","","","","","","","","","","","","","","","","","",""
"","","","","","image-keyboard-response","212","435202","0.0-187.0","62bd42b72c2ccddf753b655b","665500ab8938657b03fbdba8","665792bef8f30cac8a1cd6d4","1730","stimuli/1010000.jpg","1","","prediction_trial","1","","true","","1","true","true","false","true","false","true","[1]","010","000","1","","","","","","",""
"","","","","","image-keyboard-response","213","436131","0.0-188.0","62bd42b72c2ccddf753b655b","665500ab8938657b03fbdba8","665792bef8f30cac8a1cd6d4","927","stimuli/10100001.jpg"," ","","feedback_trial","1","","","","","","","","","","","","","","","","","","","","",""
"","","","","","image-keyboard-response","214","437648","0.0-189.0","62bd42b72c2ccddf753b655b","665500ab8938657b03fbdba8","665792bef8f30cac8a1cd6d4","1517","stimuli/0111101.jpg","2","","prediction_trial","2","","true","","0","false","false","false","false","false","false","[2,0,1]","111","101","1","","","","","","",""
"","","","","","image-keyboard-response","215","438205","0.0-190.0","62bd42b72c2ccddf753b655b","665500ab8938657b03fbdba8","665792bef8f30cac8a1cd6d4","556","stimuli/01111012.jpg"," ","","feedback_trial","2","","","","","","","","","","","","","","","","","","","","",""
"","","","","","image-keyboard-response","216","439891","0.0-191.0","62bd42b72c2ccddf753b655b","665500ab8938657b03fbdba8","665792bef8f30cac8a1cd6d4","1684","stimuli/1000101.jpg","1","","prediction_trial","1","","true","","1","true","true","true","true","true","true","[1]","000","101","1","","","","","","",""
"","","","","","image-keyboard-response","217","440787","0.0-192.0","62bd42b72c2ccddf753b655b","665500ab8938657b03fbdba8","665792bef8f30cac8a1cd6d4","895","stimuli/10001011.jpg"," ","","feedback_trial","1","","","","","","","","","","","","","","","","","","","","",""
"","","","","","image-keyboard-response","218","442952","0.0-193.0","62bd42b72c2ccddf753b655b","665500ab8938657b03fbdba8","665792bef8f30cac8a1cd6d4","2164","stimuli/2011101.jpg","0","","prediction_trial","1","","false","","2","false","false","false","false","false","false","[1,2]","011","101","0","","","","","","",""
"","","","","","image-keyboard-response","219","447708","0.0-194.0","62bd42b72c2ccddf753b655b","665500ab8938657b03fbdba8","665792bef8f30cac8a1cd6d4","4756","stimuli/20111011.jpg"," ","","feedback_trial","1","","","","","","","","","","","","","","","","","","","","",""
"","","","","","image-keyboard-response","220","448790","0.0-195.0","62bd42b72c2ccddf753b655b","665500ab8938657b03fbdba8","665792bef8f30cac8a1cd6d4","1081","stimuli/1000001.jpg","1","","prediction_trial","1","","true","","1","true","true","true","true","true","true","[1]","000","001","1","","","","","","",""
"","","","","","image-keyboard-response","221","449367","0.0-196.0","62bd42b72c2ccddf753b655b","665500ab8938657b03fbdba8","665792bef8f30cac8a1cd6d4","575","stimuli/10000011.jpg"," ","","feedback_trial","1","","","","","","","","","","","","","","","","","","","","",""
"","","","","","image-keyboard-response","222","450668","0.0-197.0","62bd42b72c2ccddf753b655b","665500ab8938657b03fbdba8","665792bef8f30cac8a1cd6d4","1300","stimuli/1110110.jpg","0","","prediction_trial","1","","false","","1","false","false","false","false","false","false","[0,1]","110","110","0","","","","","","",""
"","","","","","image-keyboard-response","223","451216","0.0-198.0","62bd42b72c2ccddf753b655b","665500ab8938657b03fbdba8","665792bef8f30cac8a1cd6d4","546","stimuli/11101101.jpg"," ","","feedback_trial","0","","","","","","","","","","","","","","","","","","","","",""
"","","","","","image-keyboard-response","224","454086","0.0-199.0","62bd42b72c2ccddf753b655b","665500ab8938657b03fbdba8","665792bef8f30cac8a1cd6d4","2869","stimuli/2110101.jpg","2","","prediction_trial","2","","true","","2","false","false","true","true","false","false","[2]","110","101","1","","","","","","",""
"","","","","","image-keyboard-response","225","454627","0.0-200.0","62bd42b72c2ccddf753b655b","665500ab8938657b03fbdba8","665792bef8f30cac8a1cd6d4","540","stimuli/21101012.jpg"," ","","feedback_trial","2","","","","","","","","","","","","","","","","","","","","",""
"","","","","","image-keyboard-response","226","456354","0.0-201.0","62bd42b72c2ccddf753b655b","665500ab8938657b03fbdba8","665792bef8f30cac8a1cd6d4","1725","stimuli/2000101.jpg","0","","prediction_trial","2","","false","","2","false","false","true","true","false","false","[2]","000","101","0","","","","","","",""
"","","","","","image-keyboard-response","227","457514","0.0-202.0","62bd42b72c2ccddf753b655b","665500ab8938657b03fbdba8","665792bef8f30cac8a1cd6d4","1158","stimuli/20001012.jpg"," ","","feedback_trial","2","","","","","","","","","","","","","","","","","","","","",""
"","","","","","image-keyboard-response","228","459268","0.0-203.0","62bd42b72c2ccddf753b655b","665500ab8938657b03fbdba8","665792bef8f30cac8a1cd6d4","1748","stimuli/2001100.jpg","2","","prediction_trial","2","","true","","2","true","true","false","true","false","true","[2]","001","100","1","","","","","","",""
"","","","","","image-keyboard-response","229","460177","0.0-204.0","62bd42b72c2ccddf753b655b","665500ab8938657b03fbdba8","665792bef8f30cac8a1cd6d4","908","stimuli/20011002.jpg"," ","","feedback_trial","2","","","","","","","","","","","","","","","","","","","","",""
"","","","","","image-keyboard-response","230","462540","0.0-205.0","62bd42b72c2ccddf753b655b","665500ab8938657b03fbdba8","665792bef8f30cac8a1cd6d4","2361","stimuli/0101001.jpg","0","","prediction_trial","2","","false","","0","true","true","false","false","false","false","[2,0]","101","001","0","","","","","","",""
"","","","","","image-keyboard-response","231","463158","0.0-206.0","62bd42b72c2ccddf753b655b","665500ab8938657b03fbdba8","665792bef8f30cac8a1cd6d4","618","stimuli/01010012.jpg"," ","","feedback_trial","2","","","","","","","","","","","","","","","","","","","","",""
"","","","","","image-keyboard-response","232","466296","0.0-207.0","62bd42b72c2ccddf753b655b","665500ab8938657b03fbdba8","665792bef8f30cac8a1cd6d4","3136","stimuli/2010111.jpg","1","","prediction_trial","2","","false","","2","false","false","true","true","false","false","[2]","010","111","0","","","","","","",""
"","","","","","image-keyboard-response","233","467382","0.0-208.0","62bd42b72c2ccddf753b655b","665500ab8938657b03fbdba8","665792bef8f30cac8a1cd6d4","1085","stimuli/20101112.jpg"," ","","feedback_trial","2","","","","","","","","","","","","","","","","","","","","",""
"","","","","","image-keyboard-response","234","469155","0.0-209.0","62bd42b72c2ccddf753b655b","665500ab8938657b03fbdba8","665792bef8f30cac8a1cd6d4","1772","stimuli/1001110.jpg","0","","prediction_trial","1","","false","","1","false","false","true","true","false","false","[1]","001","110","0","","","","","","",""
"","","","","","image-keyboard-response","235","469796","0.0-210.0","62bd42b72c2ccddf753b655b","665500ab8938657b03fbdba8","665792bef8f30cac8a1cd6d4","640","stimuli/10011101.jpg"," ","","feedback_trial","1","","","","","","","","","","","","","","","","","","","","",""
"","","","","","image-keyboard-response","236","471239","0.0-211.0","62bd42b72c2ccddf753b655b","665500ab8938657b03fbdba8","665792bef8f30cac8a1cd6d4","1442","stimuli/2011100.jpg","2","","prediction_trial","2","","true","","2","true","true","false","false","false","false","[1,2]","011","100","1","","","","","","",""
"","","","","","image-keyboard-response","237","471790","0.0-212.0","62bd42b72c2ccddf753b655b","665500ab8938657b03fbdba8","665792bef8f30cac8a1cd6d4","549","stimuli/20111002.jpg"," ","","feedback_trial","1","","","","","","","","","","","","","","","","","","","","",""
"","","","","","image-keyboard-response","238","473088","0.0-213.0","62bd42b72c2ccddf753b655b","665500ab8938657b03fbdba8","665792bef8f30cac8a1cd6d4","1297","stimuli/1001100.jpg","1","","prediction_trial","1","","true","","1","true","true","true","true","true","true","[1]","001","100","1","","","","","","",""
"","","","","","image-keyboard-response","239","473656","0.0-214.0","62bd42b72c2ccddf753b655b","665500ab8938657b03fbdba8","665792bef8f30cac8a1cd6d4","567","stimuli/10011001.jpg"," ","","feedback_trial","1","","","","","","","","","","","","","","","","","","","","",""
"","","","","","image-keyboard-response","240","475005","0.0-215.0","62bd42b72c2ccddf753b655b","665500ab8938657b03fbdba8","665792bef8f30cac8a1cd6d4","1348","stimuli/0110100.jpg","0","","prediction_trial","1","","false","","0","false","true","false","false","false","false","[1,0]","110","100","0","","","","","","",""
"","","","","","image-keyboard-response","241","477070","0.0-216.0","62bd42b72c2ccddf753b655b","665500ab8938657b03fbdba8","665792bef8f30cac8a1cd6d4","2064","stimuli/01101001.jpg"," ","","feedback_trial","1","","","","","","","","","","","","","","","","","","","","",""
"","","","","","image-keyboard-response","242","480292","0.0-217.0","62bd42b72c2ccddf753b655b","665500ab8938657b03fbdba8","665792bef8f30cac8a1cd6d4","3221","stimuli/1011101.jpg","2","","prediction_trial","2","","true","","1","true","true","false","false","false","false","[2,1]","011","101","1","","","","","","",""
"","","","","","image-keyboard-response","243","480862","0.0-218.0","62bd42b72c2ccddf753b655b","665500ab8938657b03fbdba8","665792bef8f30cac8a1cd6d4","568","stimuli/10111012.jpg"," ","","feedback_trial","2","","","","","","","","","","","","","","","","","","","","",""
"","","","","","image-keyboard-response","244","483303","0.0-219.0","62bd42b72c2ccddf753b655b","665500ab8938657b03fbdba8","665792bef8f30cac8a1cd6d4","2440","stimuli/2110111.jpg","1","","prediction_trial","2","","false","","2","false","false","true","true","false","false","[2]","110","111","0","","","","","","",""
"","","","","","image-keyboard-response","245","484791","0.0-220.0","62bd42b72c2ccddf753b655b","665500ab8938657b03fbdba8","665792bef8f30cac8a1cd6d4","1487","stimuli/21101112.jpg"," ","","feedback_trial","2","","","","","","","","","","","","","","","","","","","","",""
"","","","","","image-keyboard-response","246","486464","0.0-221.0","62bd42b72c2ccddf753b655b","665500ab8938657b03fbdba8","665792bef8f30cac8a1cd6d4","1671","stimuli/1101110.jpg","0","","prediction_trial","1","","false","","1","false","false","true","true","false","false","[1]","101","110","0","","","","","","",""
"","","","","","image-keyboard-response","247","487113","0.0-222.0","62bd42b72c2ccddf753b655b","665500ab8938657b03fbdba8","665792bef8f30cac8a1cd6d4","649","stimuli/11011101.jpg"," ","","feedback_trial","1","","","","","","","","","","","","","","","","","","","","",""
"","","","","","image-keyboard-response","248","488390","0.0-223.0","62bd42b72c2ccddf753b655b","665500ab8938657b03fbdba8","665792bef8f30cac8a1cd6d4","1277","stimuli/0011111.jpg","2","","prediction_trial","0","","false","","0","false","false","true","true","false","false","[0]","011","111","0","","","","","","",""
"","","","","","image-keyboard-response","249","489000","0.0-224.0","62bd42b72c2ccddf753b655b","665500ab8938657b03fbdba8","665792bef8f30cac8a1cd6d4","608","stimuli/00111110.jpg"," ","","feedback_trial","0","","","","","","","","","","","","","","","","","","","","",""
"","","","","","image-keyboard-response","250","491252","0.0-225.0","62bd42b72c2ccddf753b655b","665500ab8938657b03fbdba8","665792bef8f30cac8a1cd6d4","2252","stimuli/1111011.jpg","2","","prediction_trial","2","","true","","1","false","false","false","false","false","false","[1,0,2]","111","011","1","","","","","","",""
"","","","","","image-keyboard-response","251","492286","0.0-226.0","62bd42b72c2ccddf753b655b","665500ab8938657b03fbdba8","665792bef8f30cac8a1cd6d4","1033","stimuli/11110112.jpg"," ","","feedback_trial","1","","","","","","","","","","","","","","","","","","","","",""
"","","","","","image-keyboard-response","252","493617","0.0-227.0","62bd42b72c2ccddf753b655b","665500ab8938657b03fbdba8","665792bef8f30cac8a1cd6d4","1330","stimuli/2001111.jpg","2","","prediction_trial","2","","true","","2","false","false","false","true","false","false","[2]","001","111","1","","","","","","",""
"","","","","","image-keyboard-response","253","494194","0.0-228.0","62bd42b72c2ccddf753b655b","665500ab8938657b03fbdba8","665792bef8f30cac8a1cd6d4","576","stimuli/20011112.jpg"," ","","feedback_trial","2","","","","","","","","","","","","","","","","","","","","",""
"","","","","","image-keyboard-response","254","496638","0.0-229.0","62bd42b72c2ccddf753b655b","665500ab8938657b03fbdba8","665792bef8f30cac8a1cd6d4","2443","stimuli/1000110.jpg","1","","prediction_trial","1","","true","","1","false","false","true","true","false","false","[1]","000","110","1","","","","","","",""
"","","","","","image-keyboard-response","255","497133","0.0-230.0","62bd42b72c2ccddf753b655b","665500ab8938657b03fbdba8","665792bef8f30cac8a1cd6d4","495","stimuli/10001101.jpg"," ","","feedback_trial","1","","","","","","","","","","","","","","","","","","","","",""
"","","","","","image-keyboard-response","256","499055","0.0-231.0","62bd42b72c2ccddf753b655b","665500ab8938657b03fbdba8","665792bef8f30cac8a1cd6d4","1921","stimuli/1100011.jpg","2","","prediction_trial","1","","false","","1","false","false","true","true","false","false","[1]","100","011","0","","","","","","",""
"","","","","","image-keyboard-response","257","499659","0.0-232.0","62bd42b72c2ccddf753b655b","665500ab8938657b03fbdba8","665792bef8f30cac8a1cd6d4","603","stimuli/11000111.jpg"," ","","feedback_trial","1","","","","","","","","","","","","","","","","","","","","",""
"","","","","","image-keyboard-response","258","501273","0.0-233.0","62bd42b72c2ccddf753b655b","665500ab8938657b03fbdba8","665792bef8f30cac8a1cd6d4","1613","stimuli/2111101.jpg","0","","prediction_trial","0","","true","","2","false","false","false","false","false","false","[0,1,2]","111","101","1","","","","","","",""
"","","","","","image-keyboard-response","259","501784","0.0-234.0","62bd42b72c2ccddf753b655b","665500ab8938657b03fbdba8","665792bef8f30cac8a1cd6d4","510","stimuli/21111010.jpg"," ","","feedback_trial","0","","","","","","","","","","","","","","","","","","","","",""
"","","","","","image-keyboard-response","260","503080","0.0-235.0","62bd42b72c2ccddf753b655b","665500ab8938657b03fbdba8","665792bef8f30cac8a1cd6d4","1294","stimuli/1100101.jpg","1","","prediction_trial","1","","true","","1","true","true","true","true","true","true","[1]","100","101","1","","","","","","",""
"","","","","","image-keyboard-response","261","503630","0.0-236.0","62bd42b72c2ccddf753b655b","665500ab8938657b03fbdba8","665792bef8f30cac8a1cd6d4","549","stimuli/11001011.jpg"," ","","feedback_trial","1","","","","","","","","","","","","","","","","","","","","",""
"","","","","","image-keyboard-response","262","504747","0.0-237.0","62bd42b72c2ccddf753b655b","665500ab8938657b03fbdba8","665792bef8f30cac8a1cd6d4","1115","stimuli/1000000.jpg","1","","prediction_trial","1","","true","","1","true","true","true","true","true","true","[1]","000","000","1","","","","","","",""
"","","","","","image-keyboard-response","263","505259","0.0-238.0","62bd42b72c2ccddf753b655b","665500ab8938657b03fbdba8","665792bef8f30cac8a1cd6d4","511","stimuli/10000001.jpg"," ","","feedback_trial","1","","","","","","","","","","","","","","","","","","","","",""
"","","","","","image-keyboard-response","264","506342","0.0-239.0","62bd42b72c2ccddf753b655b","665500ab8938657b03fbdba8","665792bef8f30cac8a1cd6d4","1082","stimuli/0000101.jpg","2","","prediction_trial","0","","false","","0","false","false","true","true","false","false","[0]","000","101","0","","","","","","",""
"","","","","","image-keyboard-response","265","506992","0.0-240.0","62bd42b72c2ccddf753b655b","665500ab8938657b03fbdba8","665792bef8f30cac8a1cd6d4","649","stimuli/00001010.jpg"," ","","feedback_trial","0","","","","","","","","","","","","","","","","","","","","",""
"","","","","","image-keyboard-response","266","508259","0.0-241.0","62bd42b72c2ccddf753b655b","665500ab8938657b03fbdba8","665792bef8f30cac8a1cd6d4","1265","stimuli/2010010.jpg","0","","prediction_trial","2","","false","","2","true","true","true","true","true","true","[2]","010","010","0","","","","","","",""
"","","","","","image-keyboard-response","267","508756","0.0-242.0","62bd42b72c2ccddf753b655b","665500ab8938657b03fbdba8","665792bef8f30cac8a1cd6d4","496","stimuli/20100102.jpg"," ","","feedback_trial","2","","","","","","","","","","","","","","","","","","","","",""
"","","","","","image-keyboard-response","268","509911","0.0-243.0","62bd42b72c2ccddf753b655b","665500ab8938657b03fbdba8","665792bef8f30cac8a1cd6d4","1153","stimuli/1010110.jpg","1","","prediction_trial","1","","true","","1","false","false","false","true","false","false","[1]","010","110","1","","","","","","",""
"","","","","","image-keyboard-response","269","510456","0.0-244.0","62bd42b72c2ccddf753b655b","665500ab8938657b03fbdba8","665792bef8f30cac8a1cd6d4","544","stimuli/10101101.jpg"," ","","feedback_trial","1","","","","","","","","","","","","","","","","","","","","",""
"","","","","","image-keyboard-response","270","511601","0.0-245.0","62bd42b72c2ccddf753b655b","665500ab8938657b03fbdba8","665792bef8f30cac8a1cd6d4","1144","stimuli/0110000.jpg","0","","prediction_trial","0","","true","","0","true","true","false","false","false","false","[1,0]","110","000","1","","","","","","",""
"","","","","","image-keyboard-response","271","512165","0.0-246.0","62bd42b72c2ccddf753b655b","665500ab8938657b03fbdba8","665792bef8f30cac8a1cd6d4","563","stimuli/01100000.jpg"," ","","feedback_trial","1","","","","","","","","","","","","","","","","","","","","",""
"","","","","","image-keyboard-response","272","513419","0.0-247.0","62bd42b72c2ccddf753b655b","665500ab8938657b03fbdba8","665792bef8f30cac8a1cd6d4","1253","stimuli/1010010.jpg","1","","prediction_trial","1","","true","","1","false","true","false","true","false","true","[1]","010","010","1","","","","","","",""
"","","","","","image-keyboard-response","273","513938","0.0-248.0","62bd42b72c2ccddf753b655b","665500ab8938657b03fbdba8","665792bef8f30cac8a1cd6d4","519","stimuli/10100101.jpg"," ","","feedback_trial","1","","","","","","","","","","","","","","","","","","","","",""
"","","","","","image-keyboard-response","274","515428","0.0-249.0","62bd42b72c2ccddf753b655b","665500ab8938657b03fbdba8","665792bef8f30cac8a1cd6d4","1489","stimuli/1111110.jpg","0","","prediction_trial","2","","false","","1","false","false","false","false","false","false","[2,0,1]","111","110","0","","","","","","",""
"","","","","","image-keyboard-response","275","517796","0.0-250.0","62bd42b72c2ccddf753b655b","665500ab8938657b03fbdba8","665792bef8f30cac8a1cd6d4","2368","stimuli/11111102.jpg"," ","","feedback_trial","2","","","","","","","","","","","","","","","","","","","","",""
"","","","","","image-keyboard-response","276","519346","0.0-251.0","62bd42b72c2ccddf753b655b","665500ab8938657b03fbdba8","665792bef8f30cac8a1cd6d4","1549","stimuli/0111000.jpg","2","","prediction_trial","1","","false","","0","true","true","false","false","false","false","[0,1,2]","111","000","0","","","","","","",""
"","","","","","image-keyboard-response","277","521110","0.0-252.0","62bd42b72c2ccddf753b655b","665500ab8938657b03fbdba8","665792bef8f30cac8a1cd6d4","1762","stimuli/01110001.jpg"," ","","feedback_trial","0","","","","","","","","","","","","","","","","","","","","",""
"","","","","","image-keyboard-response","278","522143","0.0-253.0","62bd42b72c2ccddf753b655b","665500ab8938657b03fbdba8","665792bef8f30cac8a1cd6d4","1032","stimuli/2101010.jpg","2","","prediction_trial","0","","false","","2","true","true","false","false","false","false","[2,0]","101","010","0","","","","","","",""
"","","","","","image-keyboard-response","279","522745","0.0-254.0","62bd42b72c2ccddf753b655b","665500ab8938657b03fbdba8","665792bef8f30cac8a1cd6d4","601","stimuli/21010100.jpg"," ","","feedback_trial","2","","","","","","","","","","","","","","","","","","","","",""
"","","","","","image-keyboard-response","280","525155","0.0-255.0","62bd42b72c2ccddf753b655b","665500ab8938657b03fbdba8","665792bef8f30cac8a1cd6d4","2403","stimuli/0111010.jpg","1","","prediction_trial","2","","false","","0","true","true","false","false","false","false","[0,2,1]","111","010","0","","","","","","",""
"","","","","","image-keyboard-response","281","525729","0.0-256.0","62bd42b72c2ccddf753b655b","665500ab8938657b03fbdba8","665792bef8f30cac8a1cd6d4","572","stimuli/01110102.jpg"," ","","feedback_trial","0","","","","","","","","","","","","","","","","","","","","",""
"","","","","","image-keyboard-response","282","527595","0.0-257.0","62bd42b72c2ccddf753b655b","665500ab8938657b03fbdba8","665792bef8f30cac8a1cd6d4","1865","stimuli/1010100.jpg","1","","prediction_trial","1","","true","","1","true","true","false","true","false","true","[1]","010","100","1","","","","","","",""
"","","","","","image-keyboard-response","283","528135","0.0-258.0","62bd42b72c2ccddf753b655b","665500ab8938657b03fbdba8","665792bef8f30cac8a1cd6d4","539","stimuli/10101001.jpg"," ","","feedback_trial","1","","","","","","","","","","","","","","","","","","","","",""
"","","","","","image-keyboard-response","284","529787","0.0-259.0","62bd42b72c2ccddf753b655b","665500ab8938657b03fbdba8","665792bef8f30cac8a1cd6d4","1650","stimuli/2010001.jpg","2","","prediction_trial","2","","true","","2","false","true","true","true","false","true","[2]","010","001","1","","","","","","",""
"","","","","","image-keyboard-response","285","530274","0.0-260.0","62bd42b72c2ccddf753b655b","665500ab8938657b03fbdba8","665792bef8f30cac8a1cd6d4","486","stimuli/20100012.jpg"," ","","feedback_trial","2","","","","","","","","","","","","","","","","","","","","",""
"","","","","","image-keyboard-response","286","532630","0.0-261.0","62bd42b72c2ccddf753b655b","665500ab8938657b03fbdba8","665792bef8f30cac8a1cd6d4","2354","stimuli/1010111.jpg","0","","prediction_trial","1","","false","","1","false","false","false","true","false","false","[1]","010","111","0","","","","","","",""
"","","","","","image-keyboard-response","287","534996","0.0-262.0","62bd42b72c2ccddf753b655b","665500ab8938657b03fbdba8","665792bef8f30cac8a1cd6d4","2365","stimuli/10101111.jpg"," ","","feedback_trial","1","","","","","","","","","","","","","","","","","","","","",""
"","","","","","image-keyboard-response","288","536107","0.0-263.0","62bd42b72c2ccddf753b655b","665500ab8938657b03fbdba8","665792bef8f30cac8a1cd6d4","1110","stimuli/0001111.jpg","2","","prediction_trial","0","","false","","0","false","false","true","true","false","false","[0]","001","111","0","","","","","","",""
"","","","","","image-keyboard-response","289","536719","0.0-264.0","62bd42b72c2ccddf753b655b","665500ab8938657b03fbdba8","665792bef8f30cac8a1cd6d4","611","stimuli/00011110.jpg"," ","","feedback_trial","0","","","","","","","","","","","","","","","","","","","","",""
"","","","","","image-keyboard-response","290","539045","0.0-265.0","62bd42b72c2ccddf753b655b","665500ab8938657b03fbdba8","665792bef8f30cac8a1cd6d4","2324","stimuli/0001000.jpg","0","","prediction_trial","0","","true","","0","true","true","true","true","true","true","[0]","001","000","1","","","","","","",""
"","","","","","image-keyboard-response","291","539854","0.0-266.0","62bd42b72c2ccddf753b655b","665500ab8938657b03fbdba8","665792bef8f30cac8a1cd6d4","808","stimuli/00010000.jpg"," ","","feedback_trial","0","","","","","","","","","","","","","","","","","","","","",""
"","","","","","image-keyboard-response","292","543543","0.0-267.0","62bd42b72c2ccddf753b655b","665500ab8938657b03fbdba8","665792bef8f30cac8a1cd6d4","3687","stimuli/0100010.jpg","0","","prediction_trial","0","","true","","0","true","true","false","true","false","true","[0]","100","010","1","","","","","","",""
"","","","","","image-keyboard-response","293","544180","0.0-268.0","62bd42b72c2ccddf753b655b","665500ab8938657b03fbdba8","665792bef8f30cac8a1cd6d4","636","stimuli/01000100.jpg"," ","","feedback_trial","0","","","","","","","","","","","","","","","","","","","","",""
"","","","","","image-keyboard-response","294","546883","0.0-269.0","62bd42b72c2ccddf753b655b","665500ab8938657b03fbdba8","665792bef8f30cac8a1cd6d4","2712","stimuli/1111111.jpg","1","","prediction_trial","0","","false","","1","false","false","false","false","false","false","[0,2,1]","111","111","0","","","","","","",""
"","","","","","image-keyboard-response","295","547490","0.0-270.0","62bd42b72c2ccddf753b655b","665500ab8938657b03fbdba8","665792bef8f30cac8a1cd6d4","605","stimuli/11111110.jpg"," ","","feedback_trial","0","","","","","","","","","","","","","","","","","","","","",""
"","","","","","image-keyboard-response","296","548742","0.0-271.0","62bd42b72c2ccddf753b655b","665500ab8938657b03fbdba8","665792bef8f30cac8a1cd6d4","1251","stimuli/1010011.jpg","2","","prediction_trial","1","","false","","1","false","false","false","true","false","false","[1]","010","011","0","","","","","","",""
"","","","","","image-keyboard-response","297","549687","0.0-272.0","62bd42b72c2ccddf753b655b","665500ab8938657b03fbdba8","665792bef8f30cac8a1cd6d4","944","stimuli/10100111.jpg"," ","","feedback_trial","1","","","","","","","","","","","","","","","","","","","","",""
"","","","","","image-keyboard-response","298","551709","0.0-273.0","62bd42b72c2ccddf753b655b","665500ab8938657b03fbdba8","665792bef8f30cac8a1cd6d4","2021","stimuli/0111011.jpg","2","","prediction_trial","0","","false","","0","true","true","false","false","false","false","[1,0,2]","111","011","0","","","","","","",""
"","","","","","image-keyboard-response","299","552461","0.0-274.0","62bd42b72c2ccddf753b655b","665500ab8938657b03fbdba8","665792bef8f30cac8a1cd6d4","750","stimuli/01110110.jpg"," ","","feedback_trial","1","","","","","","","","","","","","","","","","","","","","",""
"","","","","","image-keyboard-response","300","555664","0.0-275.0","62bd42b72c2ccddf753b655b","665500ab8938657b03fbdba8","665792bef8f30cac8a1cd6d4","3201","stimuli/0011101.jpg","0","","prediction_trial","0","","true","","0","false","false","true","true","false","false","[0]","011","101","1","","","","","","",""
"","","","","","image-keyboard-response","301","556202","0.0-276.0","62bd42b72c2ccddf753b655b","665500ab8938657b03fbdba8","665792bef8f30cac8a1cd6d4","537","stimuli/00111010.jpg"," ","","feedback_trial","0","","","","","","","","","","","","","","","","","","","","",""
"","","","","","image-keyboard-response","302","558404","0.0-277.0","62bd42b72c2ccddf753b655b","665500ab8938657b03fbdba8","665792bef8f30cac8a1cd6d4","2201","stimuli/0011010.jpg","0","","prediction_trial","0","","true","","0","true","true","true","true","true","true","[0]","011","010","1","","","","","","",""
"","","","","","image-keyboard-response","303","559490","0.0-278.0","62bd42b72c2ccddf753b655b","665500ab8938657b03fbdba8","665792bef8f30cac8a1cd6d4","1084","stimuli/00110100.jpg"," ","","feedback_trial","0","","","","","","","","","","","","","","","","","","","","",""
"","","","","","image-keyboard-response","304","562705","0.0-279.0","62bd42b72c2ccddf753b655b","665500ab8938657b03fbdba8","665792bef8f30cac8a1cd6d4","3214","stimuli/0110101.jpg","2","","prediction_trial","0","","false","","0","false","false","false","false","false","false","[0,1]","110","101","0","","","","","","",""
"","","","","","image-keyboard-response","305","563272","0.0-280.0","62bd42b72c2ccddf753b655b","665500ab8938657b03fbdba8","665792bef8f30cac8a1cd6d4","566","stimuli/01101010.jpg"," ","","feedback_trial","0","","","","","","","","","","","","","","","","","","","","",""
"","","","","","image-keyboard-response","306","564640","0.0-281.0","62bd42b72c2ccddf753b655b","665500ab8938657b03fbdba8","665792bef8f30cac8a1cd6d4","1366","stimuli/1101100.jpg","1","","prediction_trial","1","","true","","1","true","true","true","true","true","true","[1]","101","100","1","","","","","","",""
"","","","","","image-keyboard-response","307","565227","0.0-282.0","62bd42b72c2ccddf753b655b","665500ab8938657b03fbdba8","665792bef8f30cac8a1cd6d4","586","stimuli/11011001.jpg"," ","","feedback_trial","1","","","","","","","","","","","","","","","","","","","","",""
"","","","","","image-keyboard-response","308","566753","0.0-283.0","62bd42b72c2ccddf753b655b","665500ab8938657b03fbdba8","665792bef8f30cac8a1cd6d4","1525","stimuli/0101100.jpg","0","","prediction_trial","0","","true","","0","false","true","false","false","false","false","[2,0]","101","100","1","","","","","","",""
"","","","","","image-keyboard-response","309","567326","0.0-284.0","62bd42b72c2ccddf753b655b","665500ab8938657b03fbdba8","665792bef8f30cac8a1cd6d4","572","stimuli/01011000.jpg"," ","","feedback_trial","2","","","","","","","","","","","","","","","","","","","","",""
"","","","","","image-keyboard-response","310","569845","0.0-285.0","62bd42b72c2ccddf753b655b","665500ab8938657b03fbdba8","665792bef8f30cac8a1cd6d4","2518","stimuli/0000110.jpg","1","","prediction_trial","0","","false","","0","false","false","true","true","false","false","[0]","000","110","0","","","","","","",""
"","","","","","image-keyboard-response","311","570426","0.0-286.0","62bd42b72c2ccddf753b655b","665500ab8938657b03fbdba8","665792bef8f30cac8a1cd6d4","579","stimuli/00001100.jpg"," ","","feedback_trial","0","","","","","","","","","","","","","","","","","","","","",""
"","","","","","image-keyboard-response","312","573788","0.0-287.0","62bd42b72c2ccddf753b655b","665500ab8938657b03fbdba8","665792bef8f30cac8a1cd6d4","3361","stimuli/0101010.jpg","2","","prediction_trial","2","","true","","0","true","true","false","false","false","false","[2,0]","101","010","1","","","","","","",""
"","","","","","image-keyboard-response","313","574345","0.0-288.0","62bd42b72c2ccddf753b655b","665500ab8938657b03fbdba8","665792bef8f30cac8a1cd6d4","556","stimuli/01010102.jpg"," ","","feedback_trial","2","","","","","","","","","","","","","","","","","","","","",""
"","","","","","image-keyboard-response","314","576139","0.0-289.0","62bd42b72c2ccddf753b655b","665500ab8938657b03fbdba8","665792bef8f30cac8a1cd6d4","1793","stimuli/0010001.jpg","0","","prediction_trial","0","","true","","0","true","true","true","true","true","true","[0]","010","001","1","","","","","","",""
"","","","","","image-keyboard-response","315","577276","0.0-290.0","62bd42b72c2ccddf753b655b","665500ab8938657b03fbdba8","665792bef8f30cac8a1cd6d4","1136","stimuli/00100010.jpg"," ","","feedback_trial","0","","","","","","","","","","","","","","","","","","","","",""
"","","","","","image-keyboard-response","316","578662","0.0-291.0","62bd42b72c2ccddf753b655b","665500ab8938657b03fbdba8","665792bef8f30cac8a1cd6d4","1385","stimuli/0101111.jpg","1","","prediction_trial","2","","false","","0","false","false","false","false","false","false","[0,2]","101","111","0","","","","","","",""
"","","","","","image-keyboard-response","317","579731","0.0-292.0","62bd42b72c2ccddf753b655b","665500ab8938657b03fbdba8","665792bef8f30cac8a1cd6d4","1068","stimuli/01011112.jpg"," ","","feedback_trial","0","","","","","","","","","","","","","","","","","","","","",""
"","","","","","survey-html-form","318","624668","0.0-293.0","62bd42b72c2ccddf753b655b","665500ab8938657b03fbdba8","665792bef8f30cac8a1cd6d4","44922","","{""feedback"":""Sometimes where i could see it and he couldnt sometimes just random"",""age"":""61"",""gender"":""Female"",""other_gender"":"""",""race"":""White"",""other_race"":"""",""ethnicity"":""Non-Hispanic""}","","exit_survey","","","","","","","","","","","","","","","","Sometimes where i could see it and he couldnt sometimes just random","61","Non-Hispanic","Female","White","0.5902777777777778","0.5902777777777778"
