"success","timeout","failed_images","failed_audio","failed_video","trial_type","trial_index","time_elapsed","internal_node_id","prolific_id","prolific_study_id","prolific_session_id","rt","stimulus","response","view_history","trial","character_choice","stimulus_dict","accuracy","correct_response","ball_pos","ego_ball_visible","ego_can_infer","alter_ball_visible","alter_can_infer","collective_ball_visible","collective_can_infer","search_locations","alter_occluders","ego_occluders","accuracy_bool","feedback","age","ethnicity","gender","race","overall_accuracy","bonus"
"true","false","[]","[]","[]","preload","0","2445","0.0-0.0","5cbde499f015c800186299f2","665500ab8938657b03fbdba8","665779ef228463969a5a4922","","","","","","","","","","","","","","","","","","","","","","","","","","",""
"true","","","","","fullscreen","1","6167","0.0-1.0","5cbde499f015c800186299f2","665500ab8938657b03fbdba8","665779ef228463969a5a4922","","","","","","","","","","","","","","","","","","","","","","","","","","",""
"","","","","","html-button-response","2","8699","0.0-2.0","5cbde499f015c800186299f2","665500ab8938657b03fbdba8","665779ef228463969a5a4922","2529","<p><b>Consent Form</b></p> <div style=""text-align:left;background-color:lightgrey; padding:20px; max-width:900px;""><p>Please consider this information carefully before deciding whether to participate in this research.</p> <p>The purpose of this research is to examine which factors influence social judgment and decision-making. You will be asked to make judgements about individuals and actions in social scenarios. We are simply interested in your judgement. The study will take less than 1 hour to complete, and you will receive less than $20 on Prolific. Your compensation and time commitment are specified in the study description. There are no anticipated risks associated with participating in this study. The effects of participating should be comparable to those you would ordinarily experience from viewing a computer monitor and using a mouse or keyboard for a similar amount of time. At the end of the study, we will provide an explanation of the questions that motivate this line of research and will describe the potential implications. </p><p> Your participation in this study is completely voluntary and you may refuse to participate or you may choose to withdraw at any time without penalty or loss of benefits to you which are otherwise entitled. Your participation in this study will remain confidential. No personally identifiable information will be associated with your data. Also, all analyses of the data will be averaged across all the participants, so your individual responses will never be specifically analyzed. </p><p> If you have questions or concerns about your participation or payment, or want to request a summary of research findings, please contact Dr. Jonathan Phillips at Jonathan.S.Phillips@dartmouth.edu. </p><p> Please save a copy of this form for your records. </p><p><b>Agreement: </b>The nature and purpose of this research have been sufficiently explained and I agree to participate in this study. I understand that I am free to withdraw at any time without incurring any penalty. Please consent by clicking the button below to continue. Otherwise, please exit the study at any time. </p>","0","","","","","","","","","","","","","","","","","","","","","","","",""
"","","","","","instructions","3","71898","0.0-3.0-0.0","5cbde499f015c800186299f2","665500ab8938657b03fbdba8","665779ef228463969a5a4922","63197","","","[{""page_index"":0,""viewing_time"":1755},{""page_index"":1,""viewing_time"":1737},{""page_index"":2,""viewing_time"":1924},{""page_index"":3,""viewing_time"":6891},{""page_index"":4,""viewing_time"":3614},{""page_index"":5,""viewing_time"":3991},{""page_index"":6,""viewing_time"":3444},{""page_index"":7,""viewing_time"":3130},{""page_index"":8,""viewing_time"":4363},{""page_index"":9,""viewing_time"":4204},{""page_index"":10,""viewing_time"":9382},{""page_index"":11,""viewing_time"":6961},{""page_index"":12,""viewing_time"":10313},{""page_index"":13,""viewing_time"":1487}]","intro","","","","","","","","","","","","","","","","","","","","","",""
"","","","","","image-keyboard-response","4","74975","0.0-3.0-1.0","5cbde499f015c800186299f2","665500ab8938657b03fbdba8","665779ef228463969a5a4922","3071","stimuli/2101101.jpg","2","","prediction_practice","2","{""filepath"":""stimuli/2101101.jpg"",""ball_pos"":2,""ego_ball_visible"":false,""ego_can_infer"":false,""alter_ball_visible"":false,""alter_can_infer"":false,""collective_ball_visible"":false,""collective_can_infer"":false,""search_locations"":[0,2],""alter_occluders"":""101"",""ego_occluders"":""101""}","true","","","","","","","","","","","","","","","","","","",""
"","","","","","image-keyboard-response","5","77035","0.0-3.0-2.0","5cbde499f015c800186299f2","665500ab8938657b03fbdba8","665779ef228463969a5a4922","2057","stimuli/21011012.jpg"," ","","practrice_feedback","0","","","","","","","","","","","","","","","","","","","","",""
"","","","","","image-keyboard-response","6","78695","0.0-3.0-3.0","5cbde499f015c800186299f2","665500ab8938657b03fbdba8","665779ef228463969a5a4922","1653","stimuli/1000001.jpg","1","","prediction_practice","1","{""filepath"":""stimuli/1000001.jpg"",""ball_pos"":1,""ego_ball_visible"":true,""ego_can_infer"":true,""alter_ball_visible"":true,""alter_can_infer"":true,""collective_ball_visible"":true,""collective_can_infer"":true,""search_locations"":[1],""alter_occluders"":""000"",""ego_occluders"":""001""}","true","","","","","","","","","","","","","","","","","","",""
"","","","","","image-keyboard-response","7","79885","0.0-3.0-4.0","5cbde499f015c800186299f2","665500ab8938657b03fbdba8","665779ef228463969a5a4922","1183","stimuli/10000011.jpg"," ","","practrice_feedback","1","","","","","","","","","","","","","","","","","","","","",""
"","","","","","image-keyboard-response","8","83415","0.0-3.0-5.0","5cbde499f015c800186299f2","665500ab8938657b03fbdba8","665779ef228463969a5a4922","3522","stimuli/2010011.jpg","1","","prediction_practice","2","{""filepath"":""stimuli/2010011.jpg"",""ball_pos"":2,""ego_ball_visible"":false,""ego_can_infer"":false,""alter_ball_visible"":true,""alter_can_infer"":true,""collective_ball_visible"":false,""collective_can_infer"":false,""search_locations"":[2],""alter_occluders"":""010"",""ego_occluders"":""011""}","false","","","","","","","","","","","","","","","","","","",""
"","","","","","image-keyboard-response","9","88655","0.0-3.0-6.0","5cbde499f015c800186299f2","665500ab8938657b03fbdba8","665779ef228463969a5a4922","5234","stimuli/20100112.jpg"," ","","practrice_feedback","2","","","","","","","","","","","","","","","","","","","","",""
"","","","","","image-keyboard-response","10","91169","0.0-3.0-7.0","5cbde499f015c800186299f2","665500ab8938657b03fbdba8","665779ef228463969a5a4922","2508","stimuli/1010000.jpg","1","","prediction_practice","1","{""filepath"":""stimuli/1010000.jpg"",""ball_pos"":1,""ego_ball_visible"":true,""ego_can_infer"":true,""alter_ball_visible"":false,""alter_can_infer"":true,""collective_ball_visible"":false,""collective_can_infer"":true,""search_locations"":[1],""alter_occluders"":""010"",""ego_occluders"":""000""}","true","","","","","","","","","","","","","","","","","","",""
"","","","","","image-keyboard-response","11","92193","0.0-3.0-8.0","5cbde499f015c800186299f2","665500ab8938657b03fbdba8","665779ef228463969a5a4922","1017","stimuli/10100001.jpg"," ","","practrice_feedback","1","","","","","","","","","","","","","","","","","","","","",""
"","","","","","image-keyboard-response","12","97517","0.0-3.0-9.0","5cbde499f015c800186299f2","665500ab8938657b03fbdba8","665779ef228463969a5a4922","5315","stimuli/1110010.jpg","1","","prediction_practice","1","{""filepath"":""stimuli/1110010.jpg"",""ball_pos"":1,""ego_ball_visible"":false,""ego_can_infer"":true,""alter_ball_visible"":false,""alter_can_infer"":false,""collective_ball_visible"":false,""collective_can_infer"":false,""search_locations"":[0,1],""alter_occluders"":""110"",""ego_occluders"":""010""}","true","","","","","","","","","","","","","","","","","","",""
"","","","","","image-keyboard-response","13","99051","0.0-3.0-10.0","5cbde499f015c800186299f2","665500ab8938657b03fbdba8","665779ef228463969a5a4922","1527","stimuli/11100101.jpg"," ","","practrice_feedback","0","","","","","","","","","","","","","","","","","","","","",""
"","","","","","image-keyboard-response","14","101083","0.0-3.0-11.0","5cbde499f015c800186299f2","665500ab8938657b03fbdba8","665779ef228463969a5a4922","2024","stimuli/0010011.jpg","0","","prediction_practice","0","{""filepath"":""stimuli/0010011.jpg"",""ball_pos"":0,""ego_ball_visible"":true,""ego_can_infer"":true,""alter_ball_visible"":true,""alter_can_infer"":true,""collective_ball_visible"":true,""collective_can_infer"":true,""search_locations"":[0],""alter_occluders"":""010"",""ego_occluders"":""011""}","true","","","","","","","","","","","","","","","","","","",""
"","","","","","image-keyboard-response","15","102086","0.0-3.0-12.0","5cbde499f015c800186299f2","665500ab8938657b03fbdba8","665779ef228463969a5a4922","996","stimuli/00100110.jpg"," ","","practrice_feedback","0","","","","","","","","","","","","","","","","","","","","",""
"","","","","","image-keyboard-response","16","104060","0.0-3.0-13.0","5cbde499f015c800186299f2","665500ab8938657b03fbdba8","665779ef228463969a5a4922","1968","stimuli/0111000.jpg","1","","prediction_practice","2","{""filepath"":""stimuli/0111000.jpg"",""ball_pos"":0,""ego_ball_visible"":true,""ego_can_infer"":true,""alter_ball_visible"":false,""alter_can_infer"":false,""collective_ball_visible"":false,""collective_can_infer"":false,""search_locations"":[2,1,0],""alter_occluders"":""111"",""ego_occluders"":""000""}","false","","","","","","","","","","","","","","","","","","",""
"","","","","","image-keyboard-response","17","105646","0.0-3.0-14.0","5cbde499f015c800186299f2","665500ab8938657b03fbdba8","665779ef228463969a5a4922","1581","stimuli/01110002.jpg"," ","","practrice_feedback","2","","","","","","","","","","","","","","","","","","","","",""
"","","","","","image-keyboard-response","18","109448","0.0-3.0-15.0","5cbde499f015c800186299f2","665500ab8938657b03fbdba8","665779ef228463969a5a4922","3797","stimuli/1000011.jpg","2","","prediction_practice","1","{""filepath"":""stimuli/1000011.jpg"",""ball_pos"":1,""ego_ball_visible"":false,""ego_can_infer"":false,""alter_ball_visible"":true,""alter_can_infer"":true,""collective_ball_visible"":false,""collective_can_infer"":false,""search_locations"":[1],""alter_occluders"":""000"",""ego_occluders"":""011""}","false","","","","","","","","","","","","","","","","","","",""
"","","","","","image-keyboard-response","19","110924","0.0-3.0-16.0","5cbde499f015c800186299f2","665500ab8938657b03fbdba8","665779ef228463969a5a4922","1472","stimuli/10000111.jpg"," ","","practrice_feedback","1","","","","","","","","","","","","","","","","","","","","",""
"","","","","","image-keyboard-response","20","114411","0.0-3.0-17.0","5cbde499f015c800186299f2","665500ab8938657b03fbdba8","665779ef228463969a5a4922","3480","stimuli/2001100.jpg","2","","prediction_practice","2","{""filepath"":""stimuli/2001100.jpg"",""ball_pos"":2,""ego_ball_visible"":true,""ego_can_infer"":true,""alter_ball_visible"":false,""alter_can_infer"":true,""collective_ball_visible"":false,""collective_can_infer"":true,""search_locations"":[2],""alter_occluders"":""001"",""ego_occluders"":""100""}","true","","","","","","","","","","","","","","","","","","",""
"","","","","","image-keyboard-response","21","115729","0.0-3.0-18.0","5cbde499f015c800186299f2","665500ab8938657b03fbdba8","665779ef228463969a5a4922","1310","stimuli/20011002.jpg"," ","","practrice_feedback","2","","","","","","","","","","","","","","","","","","","","",""
"","","","","","image-keyboard-response","22","117321","0.0-3.0-19.0","5cbde499f015c800186299f2","665500ab8938657b03fbdba8","665779ef228463969a5a4922","1585","stimuli/0010010.jpg","0","","prediction_practice","0","{""filepath"":""stimuli/0010010.jpg"",""ball_pos"":0,""ego_ball_visible"":true,""ego_can_infer"":true,""alter_ball_visible"":true,""alter_can_infer"":true,""collective_ball_visible"":true,""collective_can_infer"":true,""search_locations"":[0],""alter_occluders"":""010"",""ego_occluders"":""010""}","true","","","","","","","","","","","","","","","","","","",""
"","","","","","image-keyboard-response","23","118052","0.0-3.0-20.0","5cbde499f015c800186299f2","665500ab8938657b03fbdba8","665779ef228463969a5a4922","723","stimuli/00100100.jpg"," ","","practrice_feedback","0","","","","","","","","","","","","","","","","","","","","",""
"","","","","","html-button-response","24","125437","0.0-3.0-21.0","5cbde499f015c800186299f2","665500ab8938657b03fbdba8","665779ef228463969a5a4922","7383","Now that you've had some practice, you'll be tested with a couple of easy trials. If you correctly predict Sam's choice, you'll move on to complete the experiment!","0","","","","","","","","","","","","","","","","","","","","","","","",""
"","","","","","image-keyboard-response","25","126888","0.0-3.0-22.0-0.0","5cbde499f015c800186299f2","665500ab8938657b03fbdba8","665779ef228463969a5a4922","1446","stimuli/0000011.jpg","arrowleft","","comprehension_quiz","","","true","arrowleft","","","","","","","","","","","","","","","","","",""
"","","","","","image-keyboard-response","26","128432","0.0-3.0-22.0-1.0","5cbde499f015c800186299f2","665500ab8938657b03fbdba8","665779ef228463969a5a4922","1537","stimuli/00000110.jpg"," ","","comprehension_quiz","","","true"," ","","","","","","","","","","","","","","","","","",""
"","","","","","image-keyboard-response","27","130579","0.0-3.0-22.0-2.0","5cbde499f015c800186299f2","665500ab8938657b03fbdba8","665779ef228463969a5a4922","2139","stimuli/1010010.jpg","arrowdown","","comprehension_quiz","","","true","arrowdown","","","","","","","","","","","","","","","","","",""
"","","","","","image-keyboard-response","28","131795","0.0-3.0-22.0-3.0","5cbde499f015c800186299f2","665500ab8938657b03fbdba8","665779ef228463969a5a4922","1209","stimuli/10100101.jpg"," ","","comprehension_quiz","","","true"," ","","","","","","","","","","","","","","","","","",""
"","","","","","html-button-response","29","136639","0.0-4.0","5cbde499f015c800186299f2","665500ab8938657b03fbdba8","665779ef228463969a5a4922","4840","The experiment will now begin.","0","","","","","","","","","","","","","","","","","","","","","","","",""
"","","","","","image-keyboard-response","30","146623","0.0-5.0","5cbde499f015c800186299f2","665500ab8938657b03fbdba8","665779ef228463969a5a4922","9976","stimuli/1110011.jpg","2","","prediction_trial","0","","false","","1","false","false","false","false","false","false","[0,1]","110","011","0","","","","","","",""
"","","","","","image-keyboard-response","31","150109","0.0-6.0","5cbde499f015c800186299f2","665500ab8938657b03fbdba8","665779ef228463969a5a4922","3480","stimuli/11100110.jpg"," ","","feedback_trial","0","","","","","","","","","","","","","","","","","","","","",""
"","","","","","image-keyboard-response","32","154539","0.0-7.0","5cbde499f015c800186299f2","665500ab8938657b03fbdba8","665779ef228463969a5a4922","4424","stimuli/1111101.jpg","1","","prediction_trial","2","","false","","1","true","true","false","false","false","false","[1,0,2]","111","101","0","","","","","","",""
"","","","","","image-keyboard-response","33","155738","0.0-8.0","5cbde499f015c800186299f2","665500ab8938657b03fbdba8","665779ef228463969a5a4922","1193","stimuli/11111012.jpg"," ","","feedback_trial","1","","","","","","","","","","","","","","","","","","","","",""
"","","","","","image-keyboard-response","34","156915","0.0-9.0","5cbde499f015c800186299f2","665500ab8938657b03fbdba8","665779ef228463969a5a4922","1170","stimuli/1100000.jpg","1","","prediction_trial","1","","true","","1","true","true","true","true","true","true","[1]","100","000","1","","","","","","",""
"","","","","","image-keyboard-response","35","157788","0.0-10.0","5cbde499f015c800186299f2","665500ab8938657b03fbdba8","665779ef228463969a5a4922","864","stimuli/11000001.jpg"," ","","feedback_trial","1","","","","","","","","","","","","","","","","","","","","",""
"","","","","","image-keyboard-response","36","161638","0.0-11.0","5cbde499f015c800186299f2","665500ab8938657b03fbdba8","665779ef228463969a5a4922","3843","stimuli/2111100.jpg","2","","prediction_trial","0","","false","","2","true","true","false","false","false","false","[2,1,0]","111","100","0","","","","","","",""
"","","","","","image-keyboard-response","37","162828","0.0-12.0","5cbde499f015c800186299f2","665500ab8938657b03fbdba8","665779ef228463969a5a4922","1183","stimuli/21111000.jpg"," ","","feedback_trial","2","","","","","","","","","","","","","","","","","","","","",""
"","","","","","image-keyboard-response","38","165436","0.0-13.0","5cbde499f015c800186299f2","665500ab8938657b03fbdba8","665779ef228463969a5a4922","2599","stimuli/0010101.jpg","2","","prediction_trial","0","","false","","0","false","false","true","true","false","false","[0]","010","101","0","","","","","","",""
"","","","","","image-keyboard-response","39","166559","0.0-14.0","5cbde499f015c800186299f2","665500ab8938657b03fbdba8","665779ef228463969a5a4922","1116","stimuli/00101010.jpg"," ","","feedback_trial","0","","","","","","","","","","","","","","","","","","","","",""
"","","","","","image-keyboard-response","40","168727","0.0-15.0","5cbde499f015c800186299f2","665500ab8938657b03fbdba8","665779ef228463969a5a4922","2160","stimuli/2011000.jpg","2","","prediction_trial","1","","false","","2","true","true","false","false","false","false","[1,2]","011","000","0","","","","","","",""
"","","","","","image-keyboard-response","41","170046","0.0-16.0","5cbde499f015c800186299f2","665500ab8938657b03fbdba8","665779ef228463969a5a4922","1312","stimuli/20110001.jpg"," ","","feedback_trial","1","","","","","","","","","","","","","","","","","","","","",""
"","","","","","image-keyboard-response","42","172409","0.0-17.0","5cbde499f015c800186299f2","665500ab8938657b03fbdba8","665779ef228463969a5a4922","2356","stimuli/1010011.jpg","2","","prediction_trial","1","","false","","1","false","false","false","true","false","false","[1]","010","011","0","","","","","","",""
"","","","","","image-keyboard-response","43","173708","0.0-18.0","5cbde499f015c800186299f2","665500ab8938657b03fbdba8","665779ef228463969a5a4922","1292","stimuli/10100111.jpg"," ","","feedback_trial","1","","","","","","","","","","","","","","","","","","","","",""
"","","","","","image-keyboard-response","44","175106","0.0-19.0","5cbde499f015c800186299f2","665500ab8938657b03fbdba8","665779ef228463969a5a4922","1391","stimuli/0010001.jpg","0","","prediction_trial","0","","true","","0","true","true","true","true","true","true","[0]","010","001","1","","","","","","",""
"","","","","","image-keyboard-response","45","175958","0.0-20.0","5cbde499f015c800186299f2","665500ab8938657b03fbdba8","665779ef228463969a5a4922","844","stimuli/00100010.jpg"," ","","feedback_trial","0","","","","","","","","","","","","","","","","","","","","",""
"","","","","","image-keyboard-response","46","178732","0.0-21.0","5cbde499f015c800186299f2","665500ab8938657b03fbdba8","665779ef228463969a5a4922","2767","stimuli/1001011.jpg","1","","prediction_trial","1","","true","","1","false","false","true","true","false","false","[1]","001","011","1","","","","","","",""
"","","","","","image-keyboard-response","47","179784","0.0-22.0","5cbde499f015c800186299f2","665500ab8938657b03fbdba8","665779ef228463969a5a4922","1045","stimuli/10010111.jpg"," ","","feedback_trial","1","","","","","","","","","","","","","","","","","","","","",""
"","","","","","image-keyboard-response","48","181000","0.0-23.0","5cbde499f015c800186299f2","665500ab8938657b03fbdba8","665779ef228463969a5a4922","1210","stimuli/1100100.jpg","1","","prediction_trial","1","","true","","1","true","true","true","true","true","true","[1]","100","100","1","","","","","","",""
"","","","","","image-keyboard-response","49","181782","0.0-24.0","5cbde499f015c800186299f2","665500ab8938657b03fbdba8","665779ef228463969a5a4922","774","stimuli/11001001.jpg"," ","","feedback_trial","1","","","","","","","","","","","","","","","","","","","","",""
"","","","","","image-keyboard-response","50","183189","0.0-25.0","5cbde499f015c800186299f2","665500ab8938657b03fbdba8","665779ef228463969a5a4922","1399","stimuli/2010100.jpg","2","","prediction_trial","2","","true","","2","true","true","true","true","true","true","[2]","010","100","1","","","","","","",""
"","","","","","image-keyboard-response","51","183995","0.0-26.0","5cbde499f015c800186299f2","665500ab8938657b03fbdba8","665779ef228463969a5a4922","799","stimuli/20101002.jpg"," ","","feedback_trial","2","","","","","","","","","","","","","","","","","","","","",""
"","","","","","image-keyboard-response","52","188004","0.0-27.0","5cbde499f015c800186299f2","665500ab8938657b03fbdba8","665779ef228463969a5a4922","4002","stimuli/2010111.jpg","0","","prediction_trial","2","","false","","2","false","false","true","true","false","false","[2]","010","111","0","","","","","","",""
"","","","","","image-keyboard-response","53","188993","0.0-28.0","5cbde499f015c800186299f2","665500ab8938657b03fbdba8","665779ef228463969a5a4922","981","stimuli/20101112.jpg"," ","","feedback_trial","2","","","","","","","","","","","","","","","","","","","","",""
"","","","","","image-keyboard-response","54","191911","0.0-29.0","5cbde499f015c800186299f2","665500ab8938657b03fbdba8","665779ef228463969a5a4922","2912","stimuli/2001101.jpg","0","","prediction_trial","2","","false","","2","false","false","false","true","false","false","[2]","001","101","0","","","","","","",""
"","","","","","image-keyboard-response","55","193083","0.0-30.0","5cbde499f015c800186299f2","665500ab8938657b03fbdba8","665779ef228463969a5a4922","1164","stimuli/20011012.jpg"," ","","feedback_trial","2","","","","","","","","","","","","","","","","","","","","",""
"","","","","","image-keyboard-response","56","198335","0.0-31.0","5cbde499f015c800186299f2","665500ab8938657b03fbdba8","665779ef228463969a5a4922","5245","stimuli/0100111.jpg","2","","prediction_trial","0","","false","","0","false","false","false","true","false","false","[0]","100","111","0","","","","","","",""
"","","","","","image-keyboard-response","57","199207","0.0-32.0","5cbde499f015c800186299f2","665500ab8938657b03fbdba8","665779ef228463969a5a4922","865","stimuli/01001110.jpg"," ","","feedback_trial","0","","","","","","","","","","","","","","","","","","","","",""
"","","","","","image-keyboard-response","58","201457","0.0-33.0","5cbde499f015c800186299f2","665500ab8938657b03fbdba8","665779ef228463969a5a4922","2242","stimuli/2111111.jpg","1","","prediction_trial","1","","true","","2","false","false","false","false","false","false","[2,1,0]","111","111","1","","","","","","",""
"","","","","","image-keyboard-response","59","202866","0.0-34.0","5cbde499f015c800186299f2","665500ab8938657b03fbdba8","665779ef228463969a5a4922","1402","stimuli/21111111.jpg"," ","","feedback_trial","2","","","","","","","","","","","","","","","","","","","","",""
"","","","","","image-keyboard-response","60","205645","0.0-35.0","5cbde499f015c800186299f2","665500ab8938657b03fbdba8","665779ef228463969a5a4922","2772","stimuli/2001110.jpg","2","","prediction_trial","2","","true","","2","true","true","false","true","false","true","[2]","001","110","1","","","","","","",""
"","","","","","image-keyboard-response","61","206528","0.0-36.0","5cbde499f015c800186299f2","665500ab8938657b03fbdba8","665779ef228463969a5a4922","876","stimuli/20011102.jpg"," ","","feedback_trial","2","","","","","","","","","","","","","","","","","","","","",""
"","","","","","image-keyboard-response","62","208353","0.0-37.0","5cbde499f015c800186299f2","665500ab8938657b03fbdba8","665779ef228463969a5a4922","1817","stimuli/2110001.jpg","2","","prediction_trial","2","","true","","2","false","true","true","true","false","true","[2]","110","001","1","","","","","","",""
"","","","","","image-keyboard-response","63","209070","0.0-38.0","5cbde499f015c800186299f2","665500ab8938657b03fbdba8","665779ef228463969a5a4922","712","stimuli/21100012.jpg"," ","","feedback_trial","2","","","","","","","","","","","","","","","","","","","","",""
"","","","","","image-keyboard-response","64","211519","0.0-39.0","5cbde499f015c800186299f2","665500ab8938657b03fbdba8","665779ef228463969a5a4922","2443","stimuli/1010100.jpg","1","","prediction_trial","1","","true","","1","true","true","false","true","false","true","[1]","010","100","1","","","","","","",""
"","","","","","image-keyboard-response","65","212171","0.0-40.0","5cbde499f015c800186299f2","665500ab8938657b03fbdba8","665779ef228463969a5a4922","645","stimuli/10101001.jpg"," ","","feedback_trial","1","","","","","","","","","","","","","","","","","","","","",""
"","","","","","image-keyboard-response","66","213382","0.0-41.0","5cbde499f015c800186299f2","665500ab8938657b03fbdba8","665779ef228463969a5a4922","1204","stimuli/1001100.jpg","1","","prediction_trial","1","","true","","1","true","true","true","true","true","true","[1]","001","100","1","","","","","","",""
"","","","","","image-keyboard-response","67","214019","0.0-42.0","5cbde499f015c800186299f2","665500ab8938657b03fbdba8","665779ef228463969a5a4922","630","stimuli/10011001.jpg"," ","","feedback_trial","1","","","","","","","","","","","","","","","","","","","","",""
"","","","","","image-keyboard-response","68","216551","0.0-43.0","5cbde499f015c800186299f2","665500ab8938657b03fbdba8","665779ef228463969a5a4922","2525","stimuli/0110001.jpg","0","","prediction_trial","1","","false","","0","true","true","false","false","false","false","[0,1]","110","001","0","","","","","","",""
"","","","","","image-keyboard-response","69","217414","0.0-44.0","5cbde499f015c800186299f2","665500ab8938657b03fbdba8","665779ef228463969a5a4922","857","stimuli/01100011.jpg"," ","","feedback_trial","0","","","","","","","","","","","","","","","","","","","","",""
"","","","","","image-keyboard-response","70","219436","0.0-45.0","5cbde499f015c800186299f2","665500ab8938657b03fbdba8","665779ef228463969a5a4922","2015","stimuli/2101000.jpg","2","","prediction_trial","0","","false","","2","true","true","false","false","false","false","[0,2]","101","000","0","","","","","","",""
"","","","","","image-keyboard-response","71","220261","0.0-46.0","5cbde499f015c800186299f2","665500ab8938657b03fbdba8","665779ef228463969a5a4922","816","stimuli/21010000.jpg"," ","","feedback_trial","0","","","","","","","","","","","","","","","","","","","","",""
"","","","","","image-keyboard-response","72","222082","0.0-47.0","5cbde499f015c800186299f2","665500ab8938657b03fbdba8","665779ef228463969a5a4922","1814","stimuli/1001010.jpg","1","","prediction_trial","1","","true","","1","false","true","true","true","false","true","[1]","001","010","1","","","","","","",""
"","","","","","image-keyboard-response","73","222714","0.0-48.0","5cbde499f015c800186299f2","665500ab8938657b03fbdba8","665779ef228463969a5a4922","624","stimuli/10010101.jpg"," ","","feedback_trial","1","","","","","","","","","","","","","","","","","","","","",""
"","","","","","image-keyboard-response","74","223614","0.0-49.0","5cbde499f015c800186299f2","665500ab8938657b03fbdba8","665779ef228463969a5a4922","893","stimuli/0000010.jpg","0","","prediction_trial","0","","true","","0","true","true","true","true","true","true","[0]","000","010","1","","","","","","",""
"","","","","","image-keyboard-response","75","224255","0.0-50.0","5cbde499f015c800186299f2","665500ab8938657b03fbdba8","665779ef228463969a5a4922","635","stimuli/00000100.jpg"," ","","feedback_trial","0","","","","","","","","","","","","","","","","","","","","",""
"","","","","","image-keyboard-response","76","225425","0.0-51.0","5cbde499f015c800186299f2","665500ab8938657b03fbdba8","665779ef228463969a5a4922","1163","stimuli/1000001.jpg","1","","prediction_trial","1","","true","","1","true","true","true","true","true","true","[1]","000","001","1","","","","","","",""
"","","","","","image-keyboard-response","77","226069","0.0-52.0","5cbde499f015c800186299f2","665500ab8938657b03fbdba8","665779ef228463969a5a4922","638","stimuli/10000011.jpg"," ","","feedback_trial","1","","","","","","","","","","","","","","","","","","","","",""
"","","","","","image-keyboard-response","78","230858","0.0-53.0","5cbde499f015c800186299f2","665500ab8938657b03fbdba8","665779ef228463969a5a4922","4781","stimuli/2011101.jpg","1","","prediction_trial","2","","false","","2","false","false","false","false","false","false","[1,2]","011","101","0","","","","","","",""
"","","","","","image-keyboard-response","79","231739","0.0-54.0","5cbde499f015c800186299f2","665500ab8938657b03fbdba8","665779ef228463969a5a4922","874","stimuli/20111012.jpg"," ","","feedback_trial","1","","","","","","","","","","","","","","","","","","","","",""
"","","","","","image-keyboard-response","80","233334","0.0-55.0","5cbde499f015c800186299f2","665500ab8938657b03fbdba8","665779ef228463969a5a4922","1587","stimuli/1111001.jpg","1","","prediction_trial","1","","true","","1","true","true","false","false","false","false","[1,0,2]","111","001","1","","","","","","",""
"","","","","","image-keyboard-response","81","234092","0.0-56.0","5cbde499f015c800186299f2","665500ab8938657b03fbdba8","665779ef228463969a5a4922","753","stimuli/11110011.jpg"," ","","feedback_trial","1","","","","","","","","","","","","","","","","","","","","",""
"","","","","","image-keyboard-response","82","235153","0.0-57.0","5cbde499f015c800186299f2","665500ab8938657b03fbdba8","665779ef228463969a5a4922","1053","stimuli/0001010.jpg","0","","prediction_trial","0","","true","","0","true","true","true","true","true","true","[0]","001","010","1","","","","","","",""
"","","","","","image-keyboard-response","83","235738","0.0-58.0","5cbde499f015c800186299f2","665500ab8938657b03fbdba8","665779ef228463969a5a4922","579","stimuli/00010100.jpg"," ","","feedback_trial","0","","","","","","","","","","","","","","","","","","","","",""
"","","","","","image-keyboard-response","84","236774","0.0-59.0","5cbde499f015c800186299f2","665500ab8938657b03fbdba8","665779ef228463969a5a4922","1028","stimuli/0001011.jpg","0","","prediction_trial","0","","true","","0","true","true","true","true","true","true","[0]","001","011","1","","","","","","",""
"","","","","","image-keyboard-response","85","237341","0.0-60.0","5cbde499f015c800186299f2","665500ab8938657b03fbdba8","665779ef228463969a5a4922","561","stimuli/00010110.jpg"," ","","feedback_trial","0","","","","","","","","","","","","","","","","","","","","",""
"","","","","","image-keyboard-response","86","238426","0.0-61.0","5cbde499f015c800186299f2","665500ab8938657b03fbdba8","665779ef228463969a5a4922","1078","stimuli/2110010.jpg","2","","prediction_trial","2","","true","","2","true","true","true","true","true","true","[2]","110","010","1","","","","","","",""
"","","","","","image-keyboard-response","87","238978","0.0-62.0","5cbde499f015c800186299f2","665500ab8938657b03fbdba8","665779ef228463969a5a4922","543","stimuli/21100102.jpg"," ","","feedback_trial","2","","","","","","","","","","","","","","","","","","","","",""
"","","","","","image-keyboard-response","88","239944","0.0-63.0","5cbde499f015c800186299f2","665500ab8938657b03fbdba8","665779ef228463969a5a4922","959","stimuli/1001101.jpg","1","","prediction_trial","1","","true","","1","true","true","true","true","true","true","[1]","001","101","1","","","","","","",""
"","","","","","image-keyboard-response","89","240533","0.0-64.0","5cbde499f015c800186299f2","665500ab8938657b03fbdba8","665779ef228463969a5a4922","583","stimuli/10011011.jpg"," ","","feedback_trial","1","","","","","","","","","","","","","","","","","","","","",""
"","","","","","image-keyboard-response","90","242026","0.0-65.0","5cbde499f015c800186299f2","665500ab8938657b03fbdba8","665779ef228463969a5a4922","1486","stimuli/1010000.jpg","1","","prediction_trial","1","","true","","1","true","true","false","true","false","true","[1]","010","000","1","","","","","","",""
"","","","","","image-keyboard-response","91","242585","0.0-66.0","5cbde499f015c800186299f2","665500ab8938657b03fbdba8","665779ef228463969a5a4922","554","stimuli/10100001.jpg"," ","","feedback_trial","1","","","","","","","","","","","","","","","","","","","","",""
"","","","","","image-keyboard-response","92","243622","0.0-67.0","5cbde499f015c800186299f2","665500ab8938657b03fbdba8","665779ef228463969a5a4922","1031","stimuli/0011000.jpg","0","","prediction_trial","0","","true","","0","true","true","true","true","true","true","[0]","011","000","1","","","","","","",""
"","","","","","image-keyboard-response","93","244153","0.0-68.0","5cbde499f015c800186299f2","665500ab8938657b03fbdba8","665779ef228463969a5a4922","524","stimuli/00110000.jpg"," ","","feedback_trial","0","","","","","","","","","","","","","","","","","","","","",""
"","","","","","image-keyboard-response","94","245792","0.0-69.0","5cbde499f015c800186299f2","665500ab8938657b03fbdba8","665779ef228463969a5a4922","1632","stimuli/2011110.jpg","2","","prediction_trial","2","","true","","2","true","true","false","false","false","false","[1,2]","011","110","1","","","","","","",""
"","","","","","image-keyboard-response","95","246457","0.0-70.0","5cbde499f015c800186299f2","665500ab8938657b03fbdba8","665779ef228463969a5a4922","658","stimuli/20111102.jpg"," ","","feedback_trial","1","","","","","","","","","","","","","","","","","","","","",""
"","","","","","image-keyboard-response","96","248144","0.0-71.0","5cbde499f015c800186299f2","665500ab8938657b03fbdba8","665779ef228463969a5a4922","1681","stimuli/1000110.jpg","1","","prediction_trial","1","","true","","1","false","false","true","true","false","false","[1]","000","110","1","","","","","","",""
"","","","","","image-keyboard-response","97","248851","0.0-72.0","5cbde499f015c800186299f2","665500ab8938657b03fbdba8","665779ef228463969a5a4922","701","stimuli/10001101.jpg"," ","","feedback_trial","1","","","","","","","","","","","","","","","","","","","","",""
"","","","","","image-keyboard-response","98","250423","0.0-73.0","5cbde499f015c800186299f2","665500ab8938657b03fbdba8","665779ef228463969a5a4922","1566","stimuli/1101111.jpg","0","","prediction_trial","1","","false","","1","false","false","true","true","false","false","[1]","101","111","0","","","","","","",""
"","","","","","image-keyboard-response","99","251392","0.0-74.0","5cbde499f015c800186299f2","665500ab8938657b03fbdba8","665779ef228463969a5a4922","962","stimuli/11011111.jpg"," ","","feedback_trial","1","","","","","","","","","","","","","","","","","","","","",""
"","","","","","image-keyboard-response","100","253456","0.0-75.0","5cbde499f015c800186299f2","665500ab8938657b03fbdba8","665779ef228463969a5a4922","2057","stimuli/2100111.jpg","2","","prediction_trial","2","","true","","2","false","false","true","true","false","false","[2]","100","111","1","","","","","","",""
"","","","","","image-keyboard-response","101","254256","0.0-76.0","5cbde499f015c800186299f2","665500ab8938657b03fbdba8","665779ef228463969a5a4922","793","stimuli/21001112.jpg"," ","","feedback_trial","2","","","","","","","","","","","","","","","","","","","","",""
"","","","","","image-keyboard-response","102","256234","0.0-77.0","5cbde499f015c800186299f2","665500ab8938657b03fbdba8","665779ef228463969a5a4922","1970","stimuli/0111101.jpg","0","","prediction_trial","0","","true","","0","false","false","false","false","false","false","[2,1,0]","111","101","1","","","","","","",""
"","","","","","image-keyboard-response","103","257027","0.0-78.0","5cbde499f015c800186299f2","665500ab8938657b03fbdba8","665779ef228463969a5a4922","785","stimuli/01111010.jpg"," ","","feedback_trial","2","","","","","","","","","","","","","","","","","","","","",""
"","","","","","image-keyboard-response","104","258123","0.0-79.0","5cbde499f015c800186299f2","665500ab8938657b03fbdba8","665779ef228463969a5a4922","1082","stimuli/1001000.jpg","1","","prediction_trial","1","","true","","1","true","true","true","true","true","true","[1]","001","000","1","","","","","","",""
"","","","","","image-keyboard-response","105","258693","0.0-80.0","5cbde499f015c800186299f2","665500ab8938657b03fbdba8","665779ef228463969a5a4922","565","stimuli/10010001.jpg"," ","","feedback_trial","1","","","","","","","","","","","","","","","","","","","","",""
"","","","","","image-keyboard-response","106","260457","0.0-81.0","5cbde499f015c800186299f2","665500ab8938657b03fbdba8","665779ef228463969a5a4922","1757","stimuli/2101001.jpg","2","","prediction_trial","0","","false","","2","false","true","false","false","false","false","[2,0]","101","001","0","","","","","","",""
"","","","","","image-keyboard-response","107","261352","0.0-82.0","5cbde499f015c800186299f2","665500ab8938657b03fbdba8","665779ef228463969a5a4922","889","stimuli/21010010.jpg"," ","","feedback_trial","2","","","","","","","","","","","","","","","","","","","","",""
"","","","","","image-keyboard-response","108","262124","0.0-83.0","5cbde499f015c800186299f2","665500ab8938657b03fbdba8","665779ef228463969a5a4922","765","stimuli/2100000.jpg","2","","prediction_trial","2","","true","","2","true","true","true","true","true","true","[2]","100","000","1","","","","","","",""
"","","","","","image-keyboard-response","109","262765","0.0-84.0","5cbde499f015c800186299f2","665500ab8938657b03fbdba8","665779ef228463969a5a4922","632","stimuli/21000002.jpg"," ","","feedback_trial","2","","","","","","","","","","","","","","","","","","","","",""
"","","","","","image-keyboard-response","110","263629","0.0-85.0","5cbde499f015c800186299f2","665500ab8938657b03fbdba8","665779ef228463969a5a4922","858","stimuli/2110110.jpg","2","","prediction_trial","2","","true","","2","true","true","true","true","true","true","[2]","110","110","1","","","","","","",""
"","","","","","image-keyboard-response","111","264261","0.0-86.0","5cbde499f015c800186299f2","665500ab8938657b03fbdba8","665779ef228463969a5a4922","625","stimuli/21101102.jpg"," ","","feedback_trial","2","","","","","","","","","","","","","","","","","","","","",""
"","","","","","image-keyboard-response","112","266321","0.0-87.0","5cbde499f015c800186299f2","665500ab8938657b03fbdba8","665779ef228463969a5a4922","2053","stimuli/1111111.jpg","1","","prediction_trial","2","","false","","1","false","false","false","false","false","false","[1,2,0]","111","111","0","","","","","","",""
"","","","","","image-keyboard-response","113","267348","0.0-88.0","5cbde499f015c800186299f2","665500ab8938657b03fbdba8","665779ef228463969a5a4922","1021","stimuli/11111112.jpg"," ","","feedback_trial","1","","","","","","","","","","","","","","","","","","","","",""
"","","","","","image-keyboard-response","114","268546","0.0-89.0","5cbde499f015c800186299f2","665500ab8938657b03fbdba8","665779ef228463969a5a4922","1191","stimuli/0100000.jpg","0","","prediction_trial","0","","true","","0","true","true","false","true","false","true","[0]","100","000","1","","","","","","",""
"","","","","","image-keyboard-response","115","269112","0.0-90.0","5cbde499f015c800186299f2","665500ab8938657b03fbdba8","665779ef228463969a5a4922","559","stimuli/01000000.jpg"," ","","feedback_trial","0","","","","","","","","","","","","","","","","","","","","",""
"","","","","","image-keyboard-response","116","270065","0.0-91.0","5cbde499f015c800186299f2","665500ab8938657b03fbdba8","665779ef228463969a5a4922","946","stimuli/1101100.jpg","1","","prediction_trial","1","","true","","1","true","true","true","true","true","true","[1]","101","100","1","","","","","","",""
"","","","","","image-keyboard-response","117","270526","0.0-92.0","5cbde499f015c800186299f2","665500ab8938657b03fbdba8","665779ef228463969a5a4922","454","stimuli/11011001.jpg"," ","","feedback_trial","1","","","","","","","","","","","","","","","","","","","","",""
"","","","","","image-keyboard-response","118","271884","0.0-93.0","5cbde499f015c800186299f2","665500ab8938657b03fbdba8","665779ef228463969a5a4922","1350","stimuli/1101010.jpg","1","","prediction_trial","1","","true","","1","false","true","true","true","false","true","[1]","101","010","1","","","","","","",""
"","","","","","image-keyboard-response","119","272418","0.0-94.0","5cbde499f015c800186299f2","665500ab8938657b03fbdba8","665779ef228463969a5a4922","526","stimuli/11010101.jpg"," ","","feedback_trial","1","","","","","","","","","","","","","","","","","","","","",""
"","","","","","image-keyboard-response","120","273430","0.0-95.0","5cbde499f015c800186299f2","665500ab8938657b03fbdba8","665779ef228463969a5a4922","1005","stimuli/0011011.jpg","0","","prediction_trial","0","","true","","0","true","true","true","true","true","true","[0]","011","011","1","","","","","","",""
"","","","","","image-keyboard-response","121","273921","0.0-96.0","5cbde499f015c800186299f2","665500ab8938657b03fbdba8","665779ef228463969a5a4922","485","stimuli/00110110.jpg"," ","","feedback_trial","0","","","","","","","","","","","","","","","","","","","","",""
"","","","","","image-keyboard-response","122","275461","0.0-97.0","5cbde499f015c800186299f2","665500ab8938657b03fbdba8","665779ef228463969a5a4922","1533","stimuli/2101101.jpg","0","","prediction_trial","0","","true","","2","false","false","false","false","false","false","[0,2]","101","101","1","","","","","","",""
"","","","","","image-keyboard-response","123","276132","0.0-98.0","5cbde499f015c800186299f2","665500ab8938657b03fbdba8","665779ef228463969a5a4922","664","stimuli/21011010.jpg"," ","","feedback_trial","0","","","","","","","","","","","","","","","","","","","","",""
"","","","","","image-keyboard-response","124","278841","0.0-99.0","5cbde499f015c800186299f2","665500ab8938657b03fbdba8","665779ef228463969a5a4922","2702","stimuli/1010111.jpg","2","","prediction_trial","1","","false","","1","false","false","false","true","false","false","[1]","010","111","0","","","","","","",""
"","","","","","image-keyboard-response","125","279615","0.0-100.0","5cbde499f015c800186299f2","665500ab8938657b03fbdba8","665779ef228463969a5a4922","768","stimuli/10101111.jpg"," ","","feedback_trial","1","","","","","","","","","","","","","","","","","","","","",""
"","","","","","image-keyboard-response","126","281008","0.0-101.0","5cbde499f015c800186299f2","665500ab8938657b03fbdba8","665779ef228463969a5a4922","1387","stimuli/1100111.jpg","2","","prediction_trial","1","","false","","1","false","false","true","true","false","false","[1]","100","111","0","","","","","","",""
"","","","","","image-keyboard-response","127","281688","0.0-102.0","5cbde499f015c800186299f2","665500ab8938657b03fbdba8","665779ef228463969a5a4922","674","stimuli/11001111.jpg"," ","","feedback_trial","1","","","","","","","","","","","","","","","","","","","","",""
"","","","","","image-keyboard-response","128","283372","0.0-103.0","5cbde499f015c800186299f2","665500ab8938657b03fbdba8","665779ef228463969a5a4922","1677","stimuli/1101110.jpg","1","","prediction_trial","1","","true","","1","false","false","true","true","false","false","[1]","101","110","1","","","","","","",""
"","","","","","image-keyboard-response","129","284008","0.0-104.0","5cbde499f015c800186299f2","665500ab8938657b03fbdba8","665779ef228463969a5a4922","630","stimuli/11011101.jpg"," ","","feedback_trial","1","","","","","","","","","","","","","","","","","","","","",""
"","","","","","image-keyboard-response","130","284853","0.0-105.0","5cbde499f015c800186299f2","665500ab8938657b03fbdba8","665779ef228463969a5a4922","839","stimuli/2110100.jpg","2","","prediction_trial","2","","true","","2","true","true","true","true","true","true","[2]","110","100","1","","","","","","",""
"","","","","","image-keyboard-response","131","285454","0.0-106.0","5cbde499f015c800186299f2","665500ab8938657b03fbdba8","665779ef228463969a5a4922","595","stimuli/21101002.jpg"," ","","feedback_trial","2","","","","","","","","","","","","","","","","","","","","",""
"","","","","","image-keyboard-response","132","286809","0.0-107.0","5cbde499f015c800186299f2","665500ab8938657b03fbdba8","665779ef228463969a5a4922","1348","stimuli/2010001.jpg","2","","prediction_trial","2","","true","","2","false","true","true","true","false","true","[2]","010","001","1","","","","","","",""
"","","","","","image-keyboard-response","133","287470","0.0-108.0","5cbde499f015c800186299f2","665500ab8938657b03fbdba8","665779ef228463969a5a4922","654","stimuli/20100012.jpg"," ","","feedback_trial","2","","","","","","","","","","","","","","","","","","","","",""
"","","","","","image-keyboard-response","134","288893","0.0-109.0","5cbde499f015c800186299f2","665500ab8938657b03fbdba8","665779ef228463969a5a4922","1416","stimuli/2101010.jpg","2","","prediction_trial","0","","false","","2","true","true","false","false","false","false","[2,0]","101","010","0","","","","","","",""
"","","","","","image-keyboard-response","135","289537","0.0-110.0","5cbde499f015c800186299f2","665500ab8938657b03fbdba8","665779ef228463969a5a4922","633","stimuli/21010100.jpg"," ","","feedback_trial","2","","","","","","","","","","","","","","","","","","","","",""
"","","","","","image-keyboard-response","136","290816","0.0-111.0","5cbde499f015c800186299f2","665500ab8938657b03fbdba8","665779ef228463969a5a4922","1271","stimuli/1111000.jpg","1","","prediction_trial","1","","true","","1","true","true","false","false","false","false","[2,1,0]","111","000","1","","","","","","",""
"","","","","","image-keyboard-response","137","291378","0.0-112.0","5cbde499f015c800186299f2","665500ab8938657b03fbdba8","665779ef228463969a5a4922","556","stimuli/11110001.jpg"," ","","feedback_trial","2","","","","","","","","","","","","","","","","","","","","",""
"","","","","","image-keyboard-response","138","293042","0.0-113.0","5cbde499f015c800186299f2","665500ab8938657b03fbdba8","665779ef228463969a5a4922","1657","stimuli/1001111.jpg","1","","prediction_trial","1","","true","","1","false","false","true","true","false","false","[1]","001","111","1","","","","","","",""
"","","","","","image-keyboard-response","139","293948","0.0-114.0","5cbde499f015c800186299f2","665500ab8938657b03fbdba8","665779ef228463969a5a4922","901","stimuli/10011111.jpg"," ","","feedback_trial","1","","","","","","","","","","","","","","","","","","","","",""
"","","","","","image-keyboard-response","140","295524","0.0-115.0","5cbde499f015c800186299f2","665500ab8938657b03fbdba8","665779ef228463969a5a4922","1568","stimuli/2000011.jpg","1","","prediction_trial","2","","false","","2","false","false","true","true","false","false","[2]","000","011","0","","","","","","",""
"","","","","","image-keyboard-response","141","296239","0.0-116.0","5cbde499f015c800186299f2","665500ab8938657b03fbdba8","665779ef228463969a5a4922","708","stimuli/20000112.jpg"," ","","feedback_trial","2","","","","","","","","","","","","","","","","","","","","",""
"","","","","","image-keyboard-response","142","297762","0.0-117.0","5cbde499f015c800186299f2","665500ab8938657b03fbdba8","665779ef228463969a5a4922","1512","stimuli/0111110.jpg","1","","prediction_trial","0","","false","","0","false","false","false","false","false","false","[0,2,1]","111","110","0","","","","","","",""
"","","","","","image-keyboard-response","143","298644","0.0-118.0","5cbde499f015c800186299f2","665500ab8938657b03fbdba8","665779ef228463969a5a4922","876","stimuli/01111100.jpg"," ","","feedback_trial","0","","","","","","","","","","","","","","","","","","","","",""
"","","","","","image-keyboard-response","144","300451","0.0-119.0","5cbde499f015c800186299f2","665500ab8938657b03fbdba8","665779ef228463969a5a4922","1801","stimuli/2001011.jpg","2","","prediction_trial","2","","true","","2","false","false","false","true","false","false","[2]","001","011","1","","","","","","",""
"","","","","","image-keyboard-response","145","301433","0.0-120.0","5cbde499f015c800186299f2","665500ab8938657b03fbdba8","665779ef228463969a5a4922","975","stimuli/20010112.jpg"," ","","feedback_trial","2","","","","","","","","","","","","","","","","","","","","",""
"","","","","","image-keyboard-response","146","302670","0.0-121.0","5cbde499f015c800186299f2","665500ab8938657b03fbdba8","665779ef228463969a5a4922","1230","stimuli/1111110.jpg","1","","prediction_trial","0","","false","","1","false","false","false","false","false","false","[1,0,2]","111","110","0","","","","","","",""
"","","","","","image-keyboard-response","147","303407","0.0-122.0","5cbde499f015c800186299f2","665500ab8938657b03fbdba8","665779ef228463969a5a4922","730","stimuli/11111100.jpg"," ","","feedback_trial","1","","","","","","","","","","","","","","","","","","","","",""
"","","","","","image-keyboard-response","148","304246","0.0-123.0","5cbde499f015c800186299f2","665500ab8938657b03fbdba8","665779ef228463969a5a4922","832","stimuli/0001001.jpg","0","","prediction_trial","0","","true","","0","true","true","true","true","true","true","[0]","001","001","1","","","","","","",""
"","","","","","image-keyboard-response","149","304744","0.0-124.0","5cbde499f015c800186299f2","665500ab8938657b03fbdba8","665779ef228463969a5a4922","492","stimuli/00010010.jpg"," ","","feedback_trial","0","","","","","","","","","","","","","","","","","","","","",""
"","","","","","image-keyboard-response","150","306035","0.0-125.0","5cbde499f015c800186299f2","665500ab8938657b03fbdba8","665779ef228463969a5a4922","1285","stimuli/0010111.jpg","1","","prediction_trial","0","","false","","0","false","false","true","true","false","false","[0]","010","111","0","","","","","","",""
"","","","","","image-keyboard-response","151","306701","0.0-126.0","5cbde499f015c800186299f2","665500ab8938657b03fbdba8","665779ef228463969a5a4922","659","stimuli/00101110.jpg"," ","","feedback_trial","0","","","","","","","","","","","","","","","","","","","","",""
"","","","","","image-keyboard-response","152","308050","0.0-127.0","5cbde499f015c800186299f2","665500ab8938657b03fbdba8","665779ef228463969a5a4922","1341","stimuli/2001010.jpg","2","","prediction_trial","2","","true","","2","true","true","false","true","false","true","[2]","001","010","1","","","","","","",""
"","","","","","image-keyboard-response","153","308541","0.0-128.0","5cbde499f015c800186299f2","665500ab8938657b03fbdba8","665779ef228463969a5a4922","485","stimuli/20010102.jpg"," ","","feedback_trial","2","","","","","","","","","","","","","","","","","","","","",""
"","","","","","image-keyboard-response","154","309647","0.0-129.0","5cbde499f015c800186299f2","665500ab8938657b03fbdba8","665779ef228463969a5a4922","1099","stimuli/1110101.jpg","1","","prediction_trial","0","","false","","1","true","true","false","false","false","false","[0,1]","110","101","0","","","","","","",""
"","","","","","image-keyboard-response","155","310275","0.0-130.0","5cbde499f015c800186299f2","665500ab8938657b03fbdba8","665779ef228463969a5a4922","621","stimuli/11101010.jpg"," ","","feedback_trial","0","","","","","","","","","","","","","","","","","","","","",""
"","","","","","image-keyboard-response","156","311139","0.0-131.0","5cbde499f015c800186299f2","665500ab8938657b03fbdba8","665779ef228463969a5a4922","857","stimuli/1110000.jpg","1","","prediction_trial","1","","true","","1","true","true","false","false","false","false","[1,0]","110","000","1","","","","","","",""
"","","","","","image-keyboard-response","157","311819","0.0-132.0","5cbde499f015c800186299f2","665500ab8938657b03fbdba8","665779ef228463969a5a4922","676","stimuli/11100001.jpg"," ","","feedback_trial","1","","","","","","","","","","","","","","","","","","","","",""
"","","","","","image-keyboard-response","158","313954","0.0-133.0","5cbde499f015c800186299f2","665500ab8938657b03fbdba8","665779ef228463969a5a4922","2130","stimuli/2111010.jpg","2","","prediction_trial","0","","false","","2","true","true","false","false","false","false","[1,0,2]","111","010","0","","","","","","",""
"","","","","","image-keyboard-response","159","314805","0.0-134.0","5cbde499f015c800186299f2","665500ab8938657b03fbdba8","665779ef228463969a5a4922","845","stimuli/21110100.jpg"," ","","feedback_trial","1","","","","","","","","","","","","","","","","","","","","",""
"","","","","","image-keyboard-response","160","315725","0.0-135.0","5cbde499f015c800186299f2","665500ab8938657b03fbdba8","665779ef228463969a5a4922","916","stimuli/1011000.jpg","1","","prediction_trial","2","","false","","1","true","true","false","false","false","false","[1,2]","011","000","0","","","","","","",""
"","","","","","image-keyboard-response","161","316671","0.0-136.0","5cbde499f015c800186299f2","665500ab8938657b03fbdba8","665779ef228463969a5a4922","942","stimuli/10110002.jpg"," ","","feedback_trial","1","","","","","","","","","","","","","","","","","","","","",""
"","","","","","image-keyboard-response","162","318179","0.0-137.0","5cbde499f015c800186299f2","665500ab8938657b03fbdba8","665779ef228463969a5a4922","1501","stimuli/1000111.jpg","0","","prediction_trial","1","","false","","1","false","false","true","true","false","false","[1]","000","111","0","","","","","","",""
"","","","","","image-keyboard-response","163","319058","0.0-138.0","5cbde499f015c800186299f2","665500ab8938657b03fbdba8","665779ef228463969a5a4922","873","stimuli/10001111.jpg"," ","","feedback_trial","1","","","","","","","","","","","","","","","","","","","","",""
"","","","","","image-keyboard-response","164","319843","0.0-139.0","5cbde499f015c800186299f2","665500ab8938657b03fbdba8","665779ef228463969a5a4922","781","stimuli/1100001.jpg","1","","prediction_trial","1","","true","","1","true","true","true","true","true","true","[1]","100","001","1","","","","","","",""
"","","","","","image-keyboard-response","165","320273","0.0-140.0","5cbde499f015c800186299f2","665500ab8938657b03fbdba8","665779ef228463969a5a4922","426","stimuli/11000011.jpg"," ","","feedback_trial","1","","","","","","","","","","","","","","","","","","","","",""
"","","","","","image-keyboard-response","166","321692","0.0-141.0","5cbde499f015c800186299f2","665500ab8938657b03fbdba8","665779ef228463969a5a4922","1413","stimuli/2010011.jpg","2","","prediction_trial","2","","true","","2","false","false","true","true","false","false","[2]","010","011","1","","","","","","",""
"","","","","","image-keyboard-response","167","322224","0.0-142.0","5cbde499f015c800186299f2","665500ab8938657b03fbdba8","665779ef228463969a5a4922","525","stimuli/20100112.jpg"," ","","feedback_trial","2","","","","","","","","","","","","","","","","","","","","",""
"","","","","","image-keyboard-response","168","323130","0.0-143.0","5cbde499f015c800186299f2","665500ab8938657b03fbdba8","665779ef228463969a5a4922","903","stimuli/1000101.jpg","1","","prediction_trial","1","","true","","1","true","true","true","true","true","true","[1]","000","101","1","","","","","","",""
"","","","","","image-keyboard-response","169","323557","0.0-144.0","5cbde499f015c800186299f2","665500ab8938657b03fbdba8","665779ef228463969a5a4922","420","stimuli/10001011.jpg"," ","","feedback_trial","1","","","","","","","","","","","","","","","","","","","","",""
"","","","","","image-keyboard-response","170","324677","0.0-145.0","5cbde499f015c800186299f2","665500ab8938657b03fbdba8","665779ef228463969a5a4922","1113","stimuli/1100110.jpg","1","","prediction_trial","1","","true","","1","false","false","true","true","false","false","[1]","100","110","1","","","","","","",""
"","","","","","image-keyboard-response","171","325270","0.0-146.0","5cbde499f015c800186299f2","665500ab8938657b03fbdba8","665779ef228463969a5a4922","586","stimuli/11001101.jpg"," ","","feedback_trial","1","","","","","","","","","","","","","","","","","","","","",""
"","","","","","image-keyboard-response","172","326011","0.0-147.0","5cbde499f015c800186299f2","665500ab8938657b03fbdba8","665779ef228463969a5a4922","735","stimuli/2000110.jpg","2","","prediction_trial","2","","true","","2","true","true","true","true","true","true","[2]","000","110","1","","","","","","",""
"","","","","","image-keyboard-response","173","326440","0.0-148.0","5cbde499f015c800186299f2","665500ab8938657b03fbdba8","665779ef228463969a5a4922","424","stimuli/20001102.jpg"," ","","feedback_trial","2","","","","","","","","","","","","","","","","","","","","",""
"","","","","","image-keyboard-response","174","327980","0.0-149.0","5cbde499f015c800186299f2","665500ab8938657b03fbdba8","665779ef228463969a5a4922","1534","stimuli/0101100.jpg","0","","prediction_trial","2","","false","","0","false","true","false","false","false","false","[0,2]","101","100","0","","","","","","",""
"","","","","","image-keyboard-response","175","328944","0.0-150.0","5cbde499f015c800186299f2","665500ab8938657b03fbdba8","665779ef228463969a5a4922","955","stimuli/01011002.jpg"," ","","feedback_trial","0","","","","","","","","","","","","","","","","","","","","",""
"","","","","","image-keyboard-response","176","330937","0.0-151.0","5cbde499f015c800186299f2","665500ab8938657b03fbdba8","665779ef228463969a5a4922","1987","stimuli/2001100.jpg","2","","prediction_trial","2","","true","","2","true","true","false","true","false","true","[2]","001","100","1","","","","","","",""
"","","","","","image-keyboard-response","177","331394","0.0-152.0","5cbde499f015c800186299f2","665500ab8938657b03fbdba8","665779ef228463969a5a4922","450","stimuli/20011002.jpg"," ","","feedback_trial","2","","","","","","","","","","","","","","","","","","","","",""
"","","","","","image-keyboard-response","178","333083","0.0-153.0","5cbde499f015c800186299f2","665500ab8938657b03fbdba8","665779ef228463969a5a4922","1683","stimuli/0000111.jpg","1","","prediction_trial","0","","false","","0","false","false","true","true","false","false","[0]","000","111","0","","","","","","",""
"","","","","","image-keyboard-response","179","333903","0.0-154.0","5cbde499f015c800186299f2","665500ab8938657b03fbdba8","665779ef228463969a5a4922","817","stimuli/00001110.jpg"," ","","feedback_trial","0","","","","","","","","","","","","","","","","","","","","",""
"","","","","","image-keyboard-response","180","335746","0.0-155.0","5cbde499f015c800186299f2","665500ab8938657b03fbdba8","665779ef228463969a5a4922","1836","stimuli/0101011.jpg","0","","prediction_trial","0","","true","","0","true","true","false","false","false","false","[2,0]","101","011","1","","","","","","",""
"","","","","","image-keyboard-response","181","336262","0.0-156.0","5cbde499f015c800186299f2","665500ab8938657b03fbdba8","665779ef228463969a5a4922","509","stimuli/01010110.jpg"," ","","feedback_trial","2","","","","","","","","","","","","","","","","","","","","",""
"","","","","","image-keyboard-response","182","337761","0.0-157.0","5cbde499f015c800186299f2","665500ab8938657b03fbdba8","665779ef228463969a5a4922","1493","stimuli/1100011.jpg","2","","prediction_trial","1","","false","","1","false","false","true","true","false","false","[1]","100","011","0","","","","","","",""
"","","","","","image-keyboard-response","183","338586","0.0-158.0","5cbde499f015c800186299f2","665500ab8938657b03fbdba8","665779ef228463969a5a4922","817","stimuli/11000111.jpg"," ","","feedback_trial","1","","","","","","","","","","","","","","","","","","","","",""
"","","","","","image-keyboard-response","184","339370","0.0-159.0","5cbde499f015c800186299f2","665500ab8938657b03fbdba8","665779ef228463969a5a4922","781","stimuli/1101001.jpg","1","","prediction_trial","1","","true","","1","true","true","true","true","true","true","[1]","101","001","1","","","","","","",""
"","","","","","image-keyboard-response","185","339789","0.0-160.0","5cbde499f015c800186299f2","665500ab8938657b03fbdba8","665779ef228463969a5a4922","413","stimuli/11010011.jpg"," ","","feedback_trial","1","","","","","","","","","","","","","","","","","","","","",""
"","","","","","image-keyboard-response","186","340596","0.0-161.0","5cbde499f015c800186299f2","665500ab8938657b03fbdba8","665779ef228463969a5a4922","797","stimuli/2100110.jpg","2","","prediction_trial","2","","true","","2","true","true","true","true","true","true","[2]","100","110","1","","","","","","",""
"","","","","","image-keyboard-response","187","340978","0.0-162.0","5cbde499f015c800186299f2","665500ab8938657b03fbdba8","665779ef228463969a5a4922","377","stimuli/21001102.jpg"," ","","feedback_trial","2","","","","","","","","","","","","","","","","","","","","",""
"","","","","","image-keyboard-response","188","342524","0.0-163.0","5cbde499f015c800186299f2","665500ab8938657b03fbdba8","665779ef228463969a5a4922","1534","stimuli/0110110.jpg","1","","prediction_trial","1","","true","","0","false","false","false","false","false","false","[0,1]","110","110","1","","","","","","",""
"","","","","","image-keyboard-response","189","343052","0.0-164.0","5cbde499f015c800186299f2","665500ab8938657b03fbdba8","665779ef228463969a5a4922","518","stimuli/01101101.jpg"," ","","feedback_trial","0","","","","","","","","","","","","","","","","","","","","",""
"","","","","","image-keyboard-response","190","344615","0.0-165.0","5cbde499f015c800186299f2","665500ab8938657b03fbdba8","665779ef228463969a5a4922","1558","stimuli/0101110.jpg","1","","prediction_trial","0","","false","","0","false","false","false","false","false","false","[2,0]","101","110","0","","","","","","",""
"","","","","","image-keyboard-response","191","345776","0.0-166.0","5cbde499f015c800186299f2","665500ab8938657b03fbdba8","665779ef228463969a5a4922","1153","stimuli/01011100.jpg"," ","","feedback_trial","2","","","","","","","","","","","","","","","","","","","","",""
"","","","","","image-keyboard-response","192","348135","0.0-167.0","5cbde499f015c800186299f2","665500ab8938657b03fbdba8","665779ef228463969a5a4922","2353","stimuli/2000101.jpg","0","","prediction_trial","2","","false","","2","false","false","true","true","false","false","[2]","000","101","0","","","","","","",""
"","","","","","image-keyboard-response","193","348912","0.0-168.0","5cbde499f015c800186299f2","665500ab8938657b03fbdba8","665779ef228463969a5a4922","772","stimuli/20001012.jpg"," ","","feedback_trial","2","","","","","","","","","","","","","","","","","","","","",""
"","","","","","image-keyboard-response","194","349829","0.0-169.0","5cbde499f015c800186299f2","665500ab8938657b03fbdba8","665779ef228463969a5a4922","908","stimuli/2000010.jpg","2","","prediction_trial","2","","true","","2","true","true","true","true","true","true","[2]","000","010","1","","","","","","",""
"","","","","","image-keyboard-response","195","350328","0.0-170.0","5cbde499f015c800186299f2","665500ab8938657b03fbdba8","665779ef228463969a5a4922","493","stimuli/20000102.jpg"," ","","feedback_trial","2","","","","","","","","","","","","","","","","","","","","",""
"","","","","","image-keyboard-response","196","351795","0.0-171.0","5cbde499f015c800186299f2","665500ab8938657b03fbdba8","665779ef228463969a5a4922","1460","stimuli/2010101.jpg","2","","prediction_trial","2","","true","","2","false","false","true","true","false","false","[2]","010","101","1","","","","","","",""
"","","","","","image-keyboard-response","197","352548","0.0-172.0","5cbde499f015c800186299f2","665500ab8938657b03fbdba8","665779ef228463969a5a4922","747","stimuli/20101012.jpg"," ","","feedback_trial","2","","","","","","","","","","","","","","","","","","","","",""
"","","","","","image-keyboard-response","198","354472","0.0-173.0","5cbde499f015c800186299f2","665500ab8938657b03fbdba8","665779ef228463969a5a4922","1917","stimuli/2110111.jpg","1","","prediction_trial","2","","false","","2","false","false","true","true","false","false","[2]","110","111","0","","","","","","",""
"","","","","","image-keyboard-response","199","355305","0.0-174.0","5cbde499f015c800186299f2","665500ab8938657b03fbdba8","665779ef228463969a5a4922","827","stimuli/21101112.jpg"," ","","feedback_trial","2","","","","","","","","","","","","","","","","","","","","",""
"","","","","","image-keyboard-response","200","357638","0.0-175.0","5cbde499f015c800186299f2","665500ab8938657b03fbdba8","665779ef228463969a5a4922","2327","stimuli/2011100.jpg","2","","prediction_trial","1","","false","","2","true","true","false","false","false","false","[1,2]","011","100","0","","","","","","",""
"","","","","","image-keyboard-response","201","358344","0.0-176.0","5cbde499f015c800186299f2","665500ab8938657b03fbdba8","665779ef228463969a5a4922","699","stimuli/20111001.jpg"," ","","feedback_trial","1","","","","","","","","","","","","","","","","","","","","",""
"","","","","","image-keyboard-response","202","360067","0.0-177.0","5cbde499f015c800186299f2","665500ab8938657b03fbdba8","665779ef228463969a5a4922","1715","stimuli/2011001.jpg","2","","prediction_trial","2","","true","","2","false","true","false","false","false","false","[1,2]","011","001","1","","","","","","",""
"","","","","","image-keyboard-response","203","360668","0.0-178.0","5cbde499f015c800186299f2","665500ab8938657b03fbdba8","665779ef228463969a5a4922","594","stimuli/20110012.jpg"," ","","feedback_trial","1","","","","","","","","","","","","","","","","","","","","",""
"","","","","","image-keyboard-response","204","361550","0.0-179.0","5cbde499f015c800186299f2","665500ab8938657b03fbdba8","665779ef228463969a5a4922","874","stimuli/1100101.jpg","1","","prediction_trial","1","","true","","1","true","true","true","true","true","true","[1]","100","101","1","","","","","","",""
"","","","","","image-keyboard-response","205","361916","0.0-180.0","5cbde499f015c800186299f2","665500ab8938657b03fbdba8","665779ef228463969a5a4922","362","stimuli/11001011.jpg"," ","","feedback_trial","1","","","","","","","","","","","","","","","","","","","","",""
"","","","","","image-keyboard-response","206","363580","0.0-181.0","5cbde499f015c800186299f2","665500ab8938657b03fbdba8","665779ef228463969a5a4922","1657","stimuli/1010001.jpg","1","","prediction_trial","1","","true","","1","true","true","false","true","false","true","[1]","010","001","1","","","","","","",""
"","","","","","image-keyboard-response","207","364009","0.0-182.0","5cbde499f015c800186299f2","665500ab8938657b03fbdba8","665779ef228463969a5a4922","422","stimuli/10100011.jpg"," ","","feedback_trial","1","","","","","","","","","","","","","","","","","","","","",""
"","","","","","image-keyboard-response","208","365284","0.0-183.0","5cbde499f015c800186299f2","665500ab8938657b03fbdba8","665779ef228463969a5a4922","1271","stimuli/1110100.jpg","1","","prediction_trial","1","","true","","1","true","true","false","false","false","false","[1,0]","110","100","1","","","","","","",""
"","","","","","image-keyboard-response","209","365958","0.0-184.0","5cbde499f015c800186299f2","665500ab8938657b03fbdba8","665779ef228463969a5a4922","667","stimuli/11101001.jpg"," ","","feedback_trial","1","","","","","","","","","","","","","","","","","","","","",""
"","","","","","image-keyboard-response","210","368342","0.0-185.0","5cbde499f015c800186299f2","665500ab8938657b03fbdba8","665779ef228463969a5a4922","2378","stimuli/0000110.jpg","1","","prediction_trial","0","","false","","0","false","false","true","true","false","false","[0]","000","110","0","","","","","","",""
"","","","","","image-keyboard-response","211","369093","0.0-186.0","5cbde499f015c800186299f2","665500ab8938657b03fbdba8","665779ef228463969a5a4922","745","stimuli/00001100.jpg"," ","","feedback_trial","0","","","","","","","","","","","","","","","","","","","","",""
"","","","","","image-keyboard-response","212","371050","0.0-187.0","5cbde499f015c800186299f2","665500ab8938657b03fbdba8","665779ef228463969a5a4922","1950","stimuli/0111111.jpg","0","","prediction_trial","1","","false","","0","false","false","false","false","false","false","[1,0,2]","111","111","0","","","","","","",""
"","","","","","image-keyboard-response","213","371975","0.0-188.0","5cbde499f015c800186299f2","665500ab8938657b03fbdba8","665779ef228463969a5a4922","919","stimuli/01111111.jpg"," ","","feedback_trial","1","","","","","","","","","","","","","","","","","","","","",""
"","","","","","image-keyboard-response","214","373292","0.0-189.0","5cbde499f015c800186299f2","665500ab8938657b03fbdba8","665779ef228463969a5a4922","1311","stimuli/1110111.jpg","1","","prediction_trial","1","","true","","1","false","false","false","false","false","false","[0,1]","110","111","1","","","","","","",""
"","","","","","image-keyboard-response","215","374047","0.0-190.0","5cbde499f015c800186299f2","665500ab8938657b03fbdba8","665779ef228463969a5a4922","748","stimuli/11101111.jpg"," ","","feedback_trial","0","","","","","","","","","","","","","","","","","","","","",""
"","","","","","image-keyboard-response","216","376032","0.0-191.0","5cbde499f015c800186299f2","665500ab8938657b03fbdba8","665779ef228463969a5a4922","1977","stimuli/0011110.jpg","1","","prediction_trial","0","","false","","0","false","false","true","true","false","false","[0]","011","110","0","","","","","","",""
"","","","","","image-keyboard-response","217","376910","0.0-192.0","5cbde499f015c800186299f2","665500ab8938657b03fbdba8","665779ef228463969a5a4922","871","stimuli/00111100.jpg"," ","","feedback_trial","0","","","","","","","","","","","","","","","","","","","","",""
"","","","","","image-keyboard-response","218","379997","0.0-193.0","5cbde499f015c800186299f2","665500ab8938657b03fbdba8","665779ef228463969a5a4922","3079","stimuli/0011101.jpg","0","","prediction_trial","0","","true","","0","false","false","true","true","false","false","[0]","011","101","1","","","","","","",""
"","","","","","image-keyboard-response","219","380811","0.0-194.0","5cbde499f015c800186299f2","665500ab8938657b03fbdba8","665779ef228463969a5a4922","807","stimuli/00111010.jpg"," ","","feedback_trial","0","","","","","","","","","","","","","","","","","","","","",""
"","","","","","image-keyboard-response","220","382595","0.0-195.0","5cbde499f015c800186299f2","665500ab8938657b03fbdba8","665779ef228463969a5a4922","1778","stimuli/0100100.jpg","0","","prediction_trial","0","","true","","0","false","true","false","true","false","true","[0]","100","100","1","","","","","","",""
"","","","","","image-keyboard-response","221","383005","0.0-196.0","5cbde499f015c800186299f2","665500ab8938657b03fbdba8","665779ef228463969a5a4922","403","stimuli/01001000.jpg"," ","","feedback_trial","0","","","","","","","","","","","","","","","","","","","","",""
"","","","","","image-keyboard-response","222","385125","0.0-197.0","5cbde499f015c800186299f2","665500ab8938657b03fbdba8","665779ef228463969a5a4922","2113","stimuli/0111011.jpg","0","","prediction_trial","1","","false","","0","true","true","false","false","false","false","[1,0,2]","111","011","0","","","","","","",""
"","","","","","image-keyboard-response","223","385830","0.0-198.0","5cbde499f015c800186299f2","665500ab8938657b03fbdba8","665779ef228463969a5a4922","698","stimuli/01110111.jpg"," ","","feedback_trial","1","","","","","","","","","","","","","","","","","","","","",""
"","","","","","image-keyboard-response","224","387291","0.0-199.0","5cbde499f015c800186299f2","665500ab8938657b03fbdba8","665779ef228463969a5a4922","1455","stimuli/0100011.jpg","0","","prediction_trial","0","","true","","0","true","true","false","true","false","true","[0]","100","011","1","","","","","","",""
"","","","","","image-keyboard-response","225","387993","0.0-200.0","5cbde499f015c800186299f2","665500ab8938657b03fbdba8","665779ef228463969a5a4922","696","stimuli/01000110.jpg"," ","","feedback_trial","0","","","","","","","","","","","","","","","","","","","","",""
"","","","","","image-keyboard-response","226","389628","0.0-201.0","5cbde499f015c800186299f2","665500ab8938657b03fbdba8","665779ef228463969a5a4922","1628","stimuli/0100110.jpg","1","","prediction_trial","0","","false","","0","false","false","false","true","false","false","[0]","100","110","0","","","","","","",""
"","","","","","image-keyboard-response","227","390371","0.0-202.0","5cbde499f015c800186299f2","665500ab8938657b03fbdba8","665779ef228463969a5a4922","738","stimuli/01001100.jpg"," ","","feedback_trial","0","","","","","","","","","","","","","","","","","","","","",""
"","","","","","image-keyboard-response","228","391545","0.0-203.0","5cbde499f015c800186299f2","665500ab8938657b03fbdba8","665779ef228463969a5a4922","1170","stimuli/1010010.jpg","1","","prediction_trial","1","","true","","1","false","true","false","true","false","true","[1]","010","010","1","","","","","","",""
"","","","","","image-keyboard-response","229","392004","0.0-204.0","5cbde499f015c800186299f2","665500ab8938657b03fbdba8","665779ef228463969a5a4922","454","stimuli/10100101.jpg"," ","","feedback_trial","1","","","","","","","","","","","","","","","","","","","","",""
"","","","","","image-keyboard-response","230","393096","0.0-205.0","5cbde499f015c800186299f2","665500ab8938657b03fbdba8","665779ef228463969a5a4922","1087","stimuli/2000100.jpg","2","","prediction_trial","2","","true","","2","true","true","true","true","true","true","[2]","000","100","1","","","","","","",""
"","","","","","image-keyboard-response","231","393494","0.0-206.0","5cbde499f015c800186299f2","665500ab8938657b03fbdba8","665779ef228463969a5a4922","392","stimuli/20001002.jpg"," ","","feedback_trial","2","","","","","","","","","","","","","","","","","","","","",""
"","","","","","image-keyboard-response","232","394803","0.0-207.0","5cbde499f015c800186299f2","665500ab8938657b03fbdba8","665779ef228463969a5a4922","1304","stimuli/2110011.jpg","2","","prediction_trial","2","","true","","2","false","false","true","true","false","false","[2]","110","011","1","","","","","","",""
"","","","","","image-keyboard-response","233","395510","0.0-208.0","5cbde499f015c800186299f2","665500ab8938657b03fbdba8","665779ef228463969a5a4922","701","stimuli/21100112.jpg"," ","","feedback_trial","2","","","","","","","","","","","","","","","","","","","","",""
"","","","","","image-keyboard-response","234","397357","0.0-209.0","5cbde499f015c800186299f2","665500ab8938657b03fbdba8","665779ef228463969a5a4922","1841","stimuli/1011011.jpg","1","","prediction_trial","1","","true","","1","false","false","false","false","false","false","[1,2]","011","011","1","","","","","","",""
"","","","","","image-keyboard-response","235","398120","0.0-210.0","5cbde499f015c800186299f2","665500ab8938657b03fbdba8","665779ef228463969a5a4922","755","stimuli/10110111.jpg"," ","","feedback_trial","1","","","","","","","","","","","","","","","","","","","","",""
"","","","","","image-keyboard-response","236","398986","0.0-211.0","5cbde499f015c800186299f2","665500ab8938657b03fbdba8","665779ef228463969a5a4922","860","stimuli/1001001.jpg","1","","prediction_trial","1","","true","","1","true","true","true","true","true","true","[1]","001","001","1","","","","","","",""
"","","","","","image-keyboard-response","237","399443","0.0-212.0","5cbde499f015c800186299f2","665500ab8938657b03fbdba8","665779ef228463969a5a4922","450","stimuli/10010011.jpg"," ","","feedback_trial","1","","","","","","","","","","","","","","","","","","","","",""
"","","","","","image-keyboard-response","238","401099","0.0-213.0","5cbde499f015c800186299f2","665500ab8938657b03fbdba8","665779ef228463969a5a4922","1650","stimuli/2100001.jpg","2","","prediction_trial","2","","true","","2","false","true","true","true","false","true","[2]","100","001","1","","","","","","",""
"","","","","","image-keyboard-response","239","401650","0.0-214.0","5cbde499f015c800186299f2","665500ab8938657b03fbdba8","665779ef228463969a5a4922","544","stimuli/21000012.jpg"," ","","feedback_trial","2","","","","","","","","","","","","","","","","","","","","",""
"","","","","","image-keyboard-response","240","403495","0.0-215.0","5cbde499f015c800186299f2","665500ab8938657b03fbdba8","665779ef228463969a5a4922","1838","stimuli/1010110.jpg","0","","prediction_trial","1","","false","","1","false","false","false","true","false","false","[1]","010","110","0","","","","","","",""
"","","","","","image-keyboard-response","241","404298","0.0-216.0","5cbde499f015c800186299f2","665500ab8938657b03fbdba8","665779ef228463969a5a4922","799","stimuli/10101101.jpg"," ","","feedback_trial","1","","","","","","","","","","","","","","","","","","","","",""
"","","","","","image-keyboard-response","242","406608","0.0-217.0","5cbde499f015c800186299f2","665500ab8938657b03fbdba8","665779ef228463969a5a4922","2305","stimuli/2100011.jpg","1","","prediction_trial","2","","false","","2","false","false","true","true","false","false","[2]","100","011","0","","","","","","",""
"","","","","","image-keyboard-response","243","407339","0.0-218.0","5cbde499f015c800186299f2","665500ab8938657b03fbdba8","665779ef228463969a5a4922","724","stimuli/21000112.jpg"," ","","feedback_trial","2","","","","","","","","","","","","","","","","","","","","",""
"","","","","","image-keyboard-response","244","408348","0.0-219.0","5cbde499f015c800186299f2","665500ab8938657b03fbdba8","665779ef228463969a5a4922","1002","stimuli/2000001.jpg","2","","prediction_trial","2","","true","","2","false","true","true","true","false","true","[2]","000","001","1","","","","","","",""
"","","","","","image-keyboard-response","245","408866","0.0-220.0","5cbde499f015c800186299f2","665500ab8938657b03fbdba8","665779ef228463969a5a4922","511","stimuli/20000012.jpg"," ","","feedback_trial","2","","","","","","","","","","","","","","","","","","","","",""
"","","","","","image-keyboard-response","246","410330","0.0-221.0","5cbde499f015c800186299f2","665500ab8938657b03fbdba8","665779ef228463969a5a4922","1457","stimuli/0110000.jpg","0","","prediction_trial","0","","true","","0","true","true","false","false","false","false","[1,0]","110","000","1","","","","","","",""
"","","","","","image-keyboard-response","247","411049","0.0-222.0","5cbde499f015c800186299f2","665500ab8938657b03fbdba8","665779ef228463969a5a4922","711","stimuli/01100000.jpg"," ","","feedback_trial","1","","","","","","","","","","","","","","","","","","","","",""
"","","","","","image-keyboard-response","248","412484","0.0-223.0","5cbde499f015c800186299f2","665500ab8938657b03fbdba8","665779ef228463969a5a4922","1427","stimuli/0000100.jpg","0","","prediction_trial","0","","true","","0","false","true","true","true","false","true","[0]","000","100","1","","","","","","",""
"","","","","","image-keyboard-response","249","413006","0.0-224.0","5cbde499f015c800186299f2","665500ab8938657b03fbdba8","665779ef228463969a5a4922","517","stimuli/00001000.jpg"," ","","feedback_trial","0","","","","","","","","","","","","","","","","","","","","",""
"","","","","","image-keyboard-response","250","415015","0.0-225.0","5cbde499f015c800186299f2","665500ab8938657b03fbdba8","665779ef228463969a5a4922","2003","stimuli/1011001.jpg","1","","prediction_trial","2","","false","","1","true","true","false","false","false","false","[2,1]","011","001","0","","","","","","",""
"","","","","","image-keyboard-response","251","415670","0.0-226.0","5cbde499f015c800186299f2","665500ab8938657b03fbdba8","665779ef228463969a5a4922","648","stimuli/10110012.jpg"," ","","feedback_trial","2","","","","","","","","","","","","","","","","","","","","",""
"","","","","","image-keyboard-response","252","417281","0.0-227.0","5cbde499f015c800186299f2","665500ab8938657b03fbdba8","665779ef228463969a5a4922","1605","stimuli/0000101.jpg","2","","prediction_trial","0","","false","","0","false","false","true","true","false","false","[0]","000","101","0","","","","","","",""
"","","","","","image-keyboard-response","253","417954","0.0-228.0","5cbde499f015c800186299f2","665500ab8938657b03fbdba8","665779ef228463969a5a4922","666","stimuli/00001010.jpg"," ","","feedback_trial","0","","","","","","","","","","","","","","","","","","","","",""
"","","","","","image-keyboard-response","254","419567","0.0-229.0","5cbde499f015c800186299f2","665500ab8938657b03fbdba8","665779ef228463969a5a4922","1606","stimuli/0101001.jpg","0","","prediction_trial","2","","false","","0","true","true","false","false","false","false","[2,0]","101","001","0","","","","","","",""
"","","","","","image-keyboard-response","255","420306","0.0-230.0","5cbde499f015c800186299f2","665500ab8938657b03fbdba8","665779ef228463969a5a4922","732","stimuli/01010012.jpg"," ","","feedback_trial","2","","","","","","","","","","","","","","","","","","","","",""
"","","","","","image-keyboard-response","256","422116","0.0-231.0","5cbde499f015c800186299f2","665500ab8938657b03fbdba8","665779ef228463969a5a4922","1803","stimuli/1000011.jpg","2","","prediction_trial","1","","false","","1","false","false","true","true","false","false","[1]","000","011","0","","","","","","",""
"","","","","","image-keyboard-response","257","422885","0.0-232.0","5cbde499f015c800186299f2","665500ab8938657b03fbdba8","665779ef228463969a5a4922","763","stimuli/10000111.jpg"," ","","feedback_trial","1","","","","","","","","","","","","","","","","","","","","",""
"","","","","","image-keyboard-response","258","423800","0.0-233.0","5cbde499f015c800186299f2","665500ab8938657b03fbdba8","665779ef228463969a5a4922","908","stimuli/2100010.jpg","2","","prediction_trial","2","","true","","2","true","true","true","true","true","true","[2]","100","010","1","","","","","","",""
"","","","","","image-keyboard-response","259","424262","0.0-234.0","5cbde499f015c800186299f2","665500ab8938657b03fbdba8","665779ef228463969a5a4922","456","stimuli/21000102.jpg"," ","","feedback_trial","2","","","","","","","","","","","","","","","","","","","","",""
"","","","","","image-keyboard-response","260","425272","0.0-235.0","5cbde499f015c800186299f2","665500ab8938657b03fbdba8","665779ef228463969a5a4922","1004","stimuli/1110001.jpg","1","","prediction_trial","0","","false","","1","true","true","false","false","false","false","[1,0]","110","001","0","","","","","","",""
"","","","","","image-keyboard-response","261","425855","0.0-236.0","5cbde499f015c800186299f2","665500ab8938657b03fbdba8","665779ef228463969a5a4922","577","stimuli/11100010.jpg"," ","","feedback_trial","1","","","","","","","","","","","","","","","","","","","","",""
"","","","","","image-keyboard-response","262","427135","0.0-237.0","5cbde499f015c800186299f2","665500ab8938657b03fbdba8","665779ef228463969a5a4922","1274","stimuli/0010100.jpg","0","","prediction_trial","0","","true","","0","false","true","true","true","false","true","[0]","010","100","1","","","","","","",""
"","","","","","image-keyboard-response","263","427545","0.0-238.0","5cbde499f015c800186299f2","665500ab8938657b03fbdba8","665779ef228463969a5a4922","402","stimuli/00101000.jpg"," ","","feedback_trial","0","","","","","","","","","","","","","","","","","","","","",""
"","","","","","image-keyboard-response","264","429253","0.0-239.0","5cbde499f015c800186299f2","665500ab8938657b03fbdba8","665779ef228463969a5a4922","1701","stimuli/2111000.jpg","2","","prediction_trial","0","","false","","2","true","true","false","false","false","false","[1,0,2]","111","000","0","","","","","","",""
"","","","","","image-keyboard-response","265","429957","0.0-240.0","5cbde499f015c800186299f2","665500ab8938657b03fbdba8","665779ef228463969a5a4922","697","stimuli/21110000.jpg"," ","","feedback_trial","1","","","","","","","","","","","","","","","","","","","","",""
"","","","","","image-keyboard-response","266","432389","0.0-241.0","5cbde499f015c800186299f2","665500ab8938657b03fbdba8","665779ef228463969a5a4922","2426","stimuli/1100010.jpg","1","","prediction_trial","1","","true","","1","false","true","true","true","false","true","[1]","100","010","1","","","","","","",""
"","","","","","image-keyboard-response","267","432867","0.0-242.0","5cbde499f015c800186299f2","665500ab8938657b03fbdba8","665779ef228463969a5a4922","471","stimuli/11000101.jpg"," ","","feedback_trial","1","","","","","","","","","","","","","","","","","","","","",""
"","","","","","image-keyboard-response","268","436573","0.0-243.0","5cbde499f015c800186299f2","665500ab8938657b03fbdba8","665779ef228463969a5a4922","3699","stimuli/2110101.jpg","0","","prediction_trial","2","","false","","2","false","false","true","true","false","false","[2]","110","101","0","","","","","","",""
"","","","","","image-keyboard-response","269","437217","0.0-244.0","5cbde499f015c800186299f2","665500ab8938657b03fbdba8","665779ef228463969a5a4922","637","stimuli/21101012.jpg"," ","","feedback_trial","2","","","","","","","","","","","","","","","","","","","","",""
"","","","","","image-keyboard-response","270","439559","0.0-245.0","5cbde499f015c800186299f2","665500ab8938657b03fbdba8","665779ef228463969a5a4922","2334","stimuli/1101011.jpg","1","","prediction_trial","1","","true","","1","false","false","true","true","false","false","[1]","101","011","1","","","","","","",""
"","","","","","image-keyboard-response","271","440057","0.0-246.0","5cbde499f015c800186299f2","665500ab8938657b03fbdba8","665779ef228463969a5a4922","492","stimuli/11010111.jpg"," ","","feedback_trial","1","","","","","","","","","","","","","","","","","","","","",""
"","","","","","image-keyboard-response","272","441292","0.0-247.0","5cbde499f015c800186299f2","665500ab8938657b03fbdba8","665779ef228463969a5a4922","1227","stimuli/1111100.jpg","1","","prediction_trial","2","","false","","1","true","true","false","false","false","false","[2,0,1]","111","100","0","","","","","","",""
"","","","","","image-keyboard-response","273","441867","0.0-248.0","5cbde499f015c800186299f2","665500ab8938657b03fbdba8","665779ef228463969a5a4922","568","stimuli/11111002.jpg"," ","","feedback_trial","2","","","","","","","","","","","","","","","","","","","","",""
"","","","","","image-keyboard-response","274","442696","0.0-249.0","5cbde499f015c800186299f2","665500ab8938657b03fbdba8","665779ef228463969a5a4922","821","stimuli/0001000.jpg","0","","prediction_trial","0","","true","","0","true","true","true","true","true","true","[0]","001","000","1","","","","","","",""
"","","","","","image-keyboard-response","275","443152","0.0-250.0","5cbde499f015c800186299f2","665500ab8938657b03fbdba8","665779ef228463969a5a4922","450","stimuli/00010000.jpg"," ","","feedback_trial","0","","","","","","","","","","","","","","","","","","","","",""
"","","","","","image-keyboard-response","276","444243","0.0-251.0","5cbde499f015c800186299f2","665500ab8938657b03fbdba8","665779ef228463969a5a4922","1084","stimuli/0101101.jpg","2","","prediction_trial","0","","false","","0","false","false","false","false","false","false","[2,0]","101","101","0","","","","","","",""
"","","","","","image-keyboard-response","277","444909","0.0-252.0","5cbde499f015c800186299f2","665500ab8938657b03fbdba8","665779ef228463969a5a4922","659","stimuli/01011010.jpg"," ","","feedback_trial","2","","","","","","","","","","","","","","","","","","","","",""
"","","","","","image-keyboard-response","278","446639","0.0-253.0","5cbde499f015c800186299f2","665500ab8938657b03fbdba8","665779ef228463969a5a4922","1723","stimuli/2001111.jpg","1","","prediction_trial","2","","false","","2","false","false","false","true","false","false","[2]","001","111","0","","","","","","",""
"","","","","","image-keyboard-response","279","447279","0.0-254.0","5cbde499f015c800186299f2","665500ab8938657b03fbdba8","665779ef228463969a5a4922","634","stimuli/20011112.jpg"," ","","feedback_trial","2","","","","","","","","","","","","","","","","","","","","",""
"","","","","","image-keyboard-response","280","448495","0.0-255.0","5cbde499f015c800186299f2","665500ab8938657b03fbdba8","665779ef228463969a5a4922","1210","stimuli/0111000.jpg","0","","prediction_trial","0","","true","","0","true","true","false","false","false","false","[2,1,0]","111","000","1","","","","","","",""
"","","","","","image-keyboard-response","281","449100","0.0-256.0","5cbde499f015c800186299f2","665500ab8938657b03fbdba8","665779ef228463969a5a4922","598","stimuli/01110000.jpg"," ","","feedback_trial","2","","","","","","","","","","","","","","","","","","","","",""
"","","","","","image-keyboard-response","282","450320","0.0-257.0","5cbde499f015c800186299f2","665500ab8938657b03fbdba8","665779ef228463969a5a4922","1213","stimuli/2111011.jpg","2","","prediction_trial","1","","false","","2","false","false","false","false","false","false","[0,2,1]","111","011","0","","","","","","",""
"","","","","","image-keyboard-response","283","450934","0.0-258.0","5cbde499f015c800186299f2","665500ab8938657b03fbdba8","665779ef228463969a5a4922","606","stimuli/21110111.jpg"," ","","feedback_trial","0","","","","","","","","","","","","","","","","","","","","",""
"","","","","","image-keyboard-response","284","453080","0.0-259.0","5cbde499f015c800186299f2","665500ab8938657b03fbdba8","665779ef228463969a5a4922","2139","stimuli/1111011.jpg","2","","prediction_trial","0","","false","","1","false","false","false","false","false","false","[1,2,0]","111","011","0","","","","","","",""
"","","","","","image-keyboard-response","285","453766","0.0-260.0","5cbde499f015c800186299f2","665500ab8938657b03fbdba8","665779ef228463969a5a4922","680","stimuli/11110110.jpg"," ","","feedback_trial","1","","","","","","","","","","","","","","","","","","","","",""
"","","","","","image-keyboard-response","286","454719","0.0-261.0","5cbde499f015c800186299f2","665500ab8938657b03fbdba8","665779ef228463969a5a4922","948","stimuli/1101000.jpg","1","","prediction_trial","1","","true","","1","true","true","true","true","true","true","[1]","101","000","1","","","","","","",""
"","","","","","image-keyboard-response","287","455193","0.0-262.0","5cbde499f015c800186299f2","665500ab8938657b03fbdba8","665779ef228463969a5a4922","467","stimuli/11010001.jpg"," ","","feedback_trial","1","","","","","","","","","","","","","","","","","","","","",""
"","","","","","image-keyboard-response","288","455978","0.0-263.0","5cbde499f015c800186299f2","665500ab8938657b03fbdba8","665779ef228463969a5a4922","778","stimuli/2010010.jpg","2","","prediction_trial","2","","true","","2","true","true","true","true","true","true","[2]","010","010","1","","","","","","",""
"","","","","","image-keyboard-response","289","456363","0.0-264.0","5cbde499f015c800186299f2","665500ab8938657b03fbdba8","665779ef228463969a5a4922","380","stimuli/20100102.jpg"," ","","feedback_trial","2","","","","","","","","","","","","","","","","","","","","",""
"","","","","","image-keyboard-response","290","457349","0.0-265.0","5cbde499f015c800186299f2","665500ab8938657b03fbdba8","665779ef228463969a5a4922","980","stimuli/2101111.jpg","1","","prediction_trial","2","","false","","2","false","false","false","false","false","false","[2,0]","101","111","0","","","","","","",""
"","","","","","image-keyboard-response","291","457995","0.0-266.0","5cbde499f015c800186299f2","665500ab8938657b03fbdba8","665779ef228463969a5a4922","640","stimuli/21011112.jpg"," ","","feedback_trial","2","","","","","","","","","","","","","","","","","","","","",""
"","","","","","image-keyboard-response","292","459175","0.0-267.0","5cbde499f015c800186299f2","665500ab8938657b03fbdba8","665779ef228463969a5a4922","1173","stimuli/0101000.jpg","0","","prediction_trial","0","","true","","0","true","true","false","false","false","false","[2,0]","101","000","1","","","","","","",""
"","","","","","image-keyboard-response","293","459728","0.0-268.0","5cbde499f015c800186299f2","665500ab8938657b03fbdba8","665779ef228463969a5a4922","546","stimuli/01010000.jpg"," ","","feedback_trial","2","","","","","","","","","","","","","","","","","","","","",""
"","","","","","image-keyboard-response","294","460691","0.0-269.0","5cbde499f015c800186299f2","665500ab8938657b03fbdba8","665779ef228463969a5a4922","956","stimuli/2100100.jpg","2","","prediction_trial","2","","true","","2","true","true","true","true","true","true","[2]","100","100","1","","","","","","",""
"","","","","","image-keyboard-response","295","461084","0.0-270.0","5cbde499f015c800186299f2","665500ab8938657b03fbdba8","665779ef228463969a5a4922","385","stimuli/21001002.jpg"," ","","feedback_trial","2","","","","","","","","","","","","","","","","","","","","",""
"","","","","","image-keyboard-response","296","461950","0.0-271.0","5cbde499f015c800186299f2","665500ab8938657b03fbdba8","665779ef228463969a5a4922","859","stimuli/0010011.jpg","0","","prediction_trial","0","","true","","0","true","true","true","true","true","true","[0]","010","011","1","","","","","","",""
"","","","","","image-keyboard-response","297","462365","0.0-272.0","5cbde499f015c800186299f2","665500ab8938657b03fbdba8","665779ef228463969a5a4922","409","stimuli/00100110.jpg"," ","","feedback_trial","0","","","","","","","","","","","","","","","","","","","","",""
"","","","","","image-keyboard-response","298","463615","0.0-273.0","5cbde499f015c800186299f2","665500ab8938657b03fbdba8","665779ef228463969a5a4922","1242","stimuli/1110110.jpg","1","","prediction_trial","0","","false","","1","false","false","false","false","false","false","[0,1]","110","110","0","","","","","","",""
"","","","","","image-keyboard-response","299","464234","0.0-274.0","5cbde499f015c800186299f2","665500ab8938657b03fbdba8","665779ef228463969a5a4922","613","stimuli/11101100.jpg"," ","","feedback_trial","0","","","","","","","","","","","","","","","","","","","","",""
"","","","","","image-keyboard-response","300","465643","0.0-275.0","5cbde499f015c800186299f2","665500ab8938657b03fbdba8","665779ef228463969a5a4922","1401","stimuli/1010101.jpg","1","","prediction_trial","1","","true","","1","true","true","false","true","false","true","[1]","010","101","1","","","","","","",""
"","","","","","image-keyboard-response","301","466044","0.0-276.0","5cbde499f015c800186299f2","665500ab8938657b03fbdba8","665779ef228463969a5a4922","395","stimuli/10101011.jpg"," ","","feedback_trial","1","","","","","","","","","","","","","","","","","","","","",""
"","","","","","image-keyboard-response","302","466786","0.0-277.0","5cbde499f015c800186299f2","665500ab8938657b03fbdba8","665779ef228463969a5a4922","734","stimuli/0011001.jpg","0","","prediction_trial","0","","true","","0","true","true","true","true","true","true","[0]","011","001","1","","","","","","",""
"","","","","","image-keyboard-response","303","467172","0.0-278.0","5cbde499f015c800186299f2","665500ab8938657b03fbdba8","665779ef228463969a5a4922","379","stimuli/00110010.jpg"," ","","feedback_trial","0","","","","","","","","","","","","","","","","","","","","",""
"","","","","","image-keyboard-response","304","468589","0.0-279.0","5cbde499f015c800186299f2","665500ab8938657b03fbdba8","665779ef228463969a5a4922","1411","stimuli/0101111.jpg","1","","prediction_trial","2","","false","","0","false","false","false","false","false","false","[2,0]","101","111","0","","","","","","",""
"","","","","","image-keyboard-response","305","469122","0.0-280.0","5cbde499f015c800186299f2","665500ab8938657b03fbdba8","665779ef228463969a5a4922","528","stimuli/01011112.jpg"," ","","feedback_trial","2","","","","","","","","","","","","","","","","","","","","",""
"","","","","","image-keyboard-response","306","470481","0.0-281.0","5cbde499f015c800186299f2","665500ab8938657b03fbdba8","665779ef228463969a5a4922","1352","stimuli/0011100.jpg","0","","prediction_trial","0","","true","","0","false","true","true","true","false","true","[0]","011","100","1","","","","","","",""
"","","","","","image-keyboard-response","307","470861","0.0-282.0","5cbde499f015c800186299f2","665500ab8938657b03fbdba8","665779ef228463969a5a4922","374","stimuli/00111000.jpg"," ","","feedback_trial","0","","","","","","","","","","","","","","","","","","","","",""
"","","","","","image-keyboard-response","308","472690","0.0-283.0","5cbde499f015c800186299f2","665500ab8938657b03fbdba8","665779ef228463969a5a4922","1822","stimuli/1011101.jpg","1","","prediction_trial","1","","true","","1","true","true","false","false","false","false","[2,1]","011","101","1","","","","","","",""
"","","","","","image-keyboard-response","309","473305","0.0-284.0","5cbde499f015c800186299f2","665500ab8938657b03fbdba8","665779ef228463969a5a4922","609","stimuli/10111011.jpg"," ","","feedback_trial","2","","","","","","","","","","","","","","","","","","","","",""
"","","","","","image-keyboard-response","310","474774","0.0-285.0","5cbde499f015c800186299f2","665500ab8938657b03fbdba8","665779ef228463969a5a4922","1462","stimuli/1001110.jpg","1","","prediction_trial","1","","true","","1","false","false","true","true","false","false","[1]","001","110","1","","","","","","",""
"","","","","","image-keyboard-response","311","475296","0.0-286.0","5cbde499f015c800186299f2","665500ab8938657b03fbdba8","665779ef228463969a5a4922","516","stimuli/10011101.jpg"," ","","feedback_trial","1","","","","","","","","","","","","","","","","","","","","",""
"","","","","","image-keyboard-response","312","476599","0.0-287.0","5cbde499f015c800186299f2","665500ab8938657b03fbdba8","665779ef228463969a5a4922","1298","stimuli/0111010.jpg","0","","prediction_trial","0","","true","","0","true","true","false","false","false","false","[1,2,0]","111","010","1","","","","","","",""
"","","","","","image-keyboard-response","313","477201","0.0-288.0","5cbde499f015c800186299f2","665500ab8938657b03fbdba8","665779ef228463969a5a4922","595","stimuli/01110100.jpg"," ","","feedback_trial","1","","","","","","","","","","","","","","","","","","","","",""
"","","","","","image-keyboard-response","314","478069","0.0-289.0","5cbde499f015c800186299f2","665500ab8938657b03fbdba8","665779ef228463969a5a4922","861","stimuli/0011010.jpg","0","","prediction_trial","0","","true","","0","true","true","true","true","true","true","[0]","011","010","1","","","","","","",""
"","","","","","image-keyboard-response","315","478431","0.0-290.0","5cbde499f015c800186299f2","665500ab8938657b03fbdba8","665779ef228463969a5a4922","355","stimuli/00110100.jpg"," ","","feedback_trial","0","","","","","","","","","","","","","","","","","","","","",""
"","","","","","image-keyboard-response","316","479473","0.0-291.0","5cbde499f015c800186299f2","665500ab8938657b03fbdba8","665779ef228463969a5a4922","1037","stimuli/1000010.jpg","1","","prediction_trial","1","","true","","1","false","true","true","true","false","true","[1]","000","010","1","","","","","","",""
"","","","","","image-keyboard-response","317","479893","0.0-292.0","5cbde499f015c800186299f2","665500ab8938657b03fbdba8","665779ef228463969a5a4922","414","stimuli/10000101.jpg"," ","","feedback_trial","1","","","","","","","","","","","","","","","","","","","","",""
"","","","","","survey-html-form","318","527091","0.0-293.0","5cbde499f015c800186299f2","665500ab8938657b03fbdba8","665779ef228463969a5a4922","47192","","{""feedback"":""what he could see vs what I could see, not too many times in a row in the same spot"",""age"":""54"",""gender"":""Female"",""other_gender"":"""",""race"":""White"",""other_race"":"""",""ethnicity"":""Non-Hispanic""}","","exit_survey","","","","","","","","","","","","","","","","what he could see vs what I could see, not too many times in a row in the same spot","54","Non-Hispanic","Female","White","0.6180555555555556","0.6180555555555556"
