"success","timeout","failed_images","failed_audio","failed_video","trial_type","trial_index","time_elapsed","internal_node_id","prolific_id","prolific_study_id","prolific_session_id","rt","stimulus","response","view_history","trial","character_choice","stimulus_dict","accuracy","correct_response","ball_pos","ego_ball_visible","ego_can_infer","alter_ball_visible","alter_can_infer","collective_ball_visible","collective_can_infer","search_locations","alter_occluders","ego_occluders","accuracy_bool","feedback","age","ethnicity","gender","race","overall_accuracy","bonus"
"true","false","[]","[]","[]","preload","0","1386","0.0-0.0","5fcbe82a12a0c80009d6e9cf","665500ab8938657b03fbdba8","665792d91522714ef7571bc4","","","","","","","","","","","","","","","","","","","","","","","","","","",""
"true","","","","","fullscreen","1","4047","0.0-1.0","5fcbe82a12a0c80009d6e9cf","665500ab8938657b03fbdba8","665792d91522714ef7571bc4","","","","","","","","","","","","","","","","","","","","","","","","","","",""
"","","","","","html-button-response","2","8788","0.0-2.0","5fcbe82a12a0c80009d6e9cf","665500ab8938657b03fbdba8","665792d91522714ef7571bc4","4737","<p><b>Consent Form</b></p> <div style=""text-align:left;background-color:lightgrey; padding:20px; max-width:900px;""><p>Please consider this information carefully before deciding whether to participate in this research.</p> <p>The purpose of this research is to examine which factors influence social judgment and decision-making. You will be asked to make judgements about individuals and actions in social scenarios. We are simply interested in your judgement. The study will take less than 1 hour to complete, and you will receive less than $20 on Prolific. Your compensation and time commitment are specified in the study description. There are no anticipated risks associated with participating in this study. The effects of participating should be comparable to those you would ordinarily experience from viewing a computer monitor and using a mouse or keyboard for a similar amount of time. At the end of the study, we will provide an explanation of the questions that motivate this line of research and will describe the potential implications. </p><p> Your participation in this study is completely voluntary and you may refuse to participate or you may choose to withdraw at any time without penalty or loss of benefits to you which are otherwise entitled. Your participation in this study will remain confidential. No personally identifiable information will be associated with your data. Also, all analyses of the data will be averaged across all the participants, so your individual responses will never be specifically analyzed. </p><p> If you have questions or concerns about your participation or payment, or want to request a summary of research findings, please contact Dr. Jonathan Phillips at Jonathan.S.Phillips@dartmouth.edu. </p><p> Please save a copy of this form for your records. </p><p><b>Agreement: </b>The nature and purpose of this research have been sufficiently explained and I agree to participate in this study. I understand that I am free to withdraw at any time without incurring any penalty. Please consent by clicking the button below to continue. Otherwise, please exit the study at any time. </p>","0","","","","","","","","","","","","","","","","","","","","","","","",""
"","","","","","instructions","3","178287","0.0-3.0-0.0","5fcbe82a12a0c80009d6e9cf","665500ab8938657b03fbdba8","665792d91522714ef7571bc4","169498","","","[{""page_index"":0,""viewing_time"":1407},{""page_index"":1,""viewing_time"":1721},{""page_index"":2,""viewing_time"":1692},{""page_index"":3,""viewing_time"":106615},{""page_index"":4,""viewing_time"":6991},{""page_index"":5,""viewing_time"":1720},{""page_index"":6,""viewing_time"":2563},{""page_index"":7,""viewing_time"":2340},{""page_index"":8,""viewing_time"":2193},{""page_index"":9,""viewing_time"":1258},{""page_index"":10,""viewing_time"":35934},{""page_index"":11,""viewing_time"":1947},{""page_index"":12,""viewing_time"":2103},{""page_index"":13,""viewing_time"":1014}]","intro","","","","","","","","","","","","","","","","","","","","","",""
"","","","","","image-keyboard-response","4","181772","0.0-3.0-1.0","5fcbe82a12a0c80009d6e9cf","665500ab8938657b03fbdba8","665792d91522714ef7571bc4","3476","stimuli/0011010.jpg","0","","prediction_practice","0","{""filepath"":""stimuli/0011010.jpg"",""ball_pos"":0,""ego_ball_visible"":true,""ego_can_infer"":true,""alter_ball_visible"":true,""alter_can_infer"":true,""collective_ball_visible"":true,""collective_can_infer"":true,""search_locations"":[0],""alter_occluders"":""011"",""ego_occluders"":""010""}","true","","","","","","","","","","","","","","","","","","",""
"","","","","","image-keyboard-response","5","182961","0.0-3.0-2.0","5fcbe82a12a0c80009d6e9cf","665500ab8938657b03fbdba8","665792d91522714ef7571bc4","1186","stimuli/00110100.jpg"," ","","practrice_feedback","0","","","","","","","","","","","","","","","","","","","","",""
"","","","","","image-keyboard-response","6","189343","0.0-3.0-3.0","5fcbe82a12a0c80009d6e9cf","665500ab8938657b03fbdba8","665792d91522714ef7571bc4","6381","stimuli/0010110.jpg","1","","prediction_practice","0","{""filepath"":""stimuli/0010110.jpg"",""ball_pos"":0,""ego_ball_visible"":false,""ego_can_infer"":false,""alter_ball_visible"":true,""alter_can_infer"":true,""collective_ball_visible"":false,""collective_can_infer"":false,""search_locations"":[0],""alter_occluders"":""010"",""ego_occluders"":""110""}","false","","","","","","","","","","","","","","","","","","",""
"","","","","","image-keyboard-response","7","194677","0.0-3.0-4.0","5fcbe82a12a0c80009d6e9cf","665500ab8938657b03fbdba8","665792d91522714ef7571bc4","5332","stimuli/00101100.jpg"," ","","practrice_feedback","0","","","","","","","","","","","","","","","","","","","","",""
"","","","","","image-keyboard-response","8","198686","0.0-3.0-5.0","5fcbe82a12a0c80009d6e9cf","665500ab8938657b03fbdba8","665792d91522714ef7571bc4","4007","stimuli/1011011.jpg","1","","prediction_practice","1","{""filepath"":""stimuli/1011011.jpg"",""ball_pos"":1,""ego_ball_visible"":false,""ego_can_infer"":false,""alter_ball_visible"":false,""alter_can_infer"":false,""collective_ball_visible"":false,""collective_can_infer"":false,""search_locations"":[1,2],""alter_occluders"":""011"",""ego_occluders"":""011""}","true","","","","","","","","","","","","","","","","","","",""
"","","","","","image-keyboard-response","9","201759","0.0-3.0-6.0","5fcbe82a12a0c80009d6e9cf","665500ab8938657b03fbdba8","665792d91522714ef7571bc4","3071","stimuli/10110111.jpg"," ","","practrice_feedback","1","","","","","","","","","","","","","","","","","","","","",""
"","","","","","image-keyboard-response","10","206555","0.0-3.0-7.0","5fcbe82a12a0c80009d6e9cf","665500ab8938657b03fbdba8","665792d91522714ef7571bc4","4794","stimuli/0101110.jpg","1","","prediction_practice","2","{""filepath"":""stimuli/0101110.jpg"",""ball_pos"":0,""ego_ball_visible"":false,""ego_can_infer"":false,""alter_ball_visible"":false,""alter_can_infer"":false,""collective_ball_visible"":false,""collective_can_infer"":false,""search_locations"":[2,0],""alter_occluders"":""101"",""ego_occluders"":""110""}","false","","","","","","","","","","","","","","","","","","",""
"","","","","","image-keyboard-response","11","210091","0.0-3.0-8.0","5fcbe82a12a0c80009d6e9cf","665500ab8938657b03fbdba8","665792d91522714ef7571bc4","3528","stimuli/01011102.jpg"," ","","practrice_feedback","2","","","","","","","","","","","","","","","","","","","","",""
"","","","","","image-keyboard-response","12","212366","0.0-3.0-9.0","5fcbe82a12a0c80009d6e9cf","665500ab8938657b03fbdba8","665792d91522714ef7571bc4","2274","stimuli/0001001.jpg","0","","prediction_practice","0","{""filepath"":""stimuli/0001001.jpg"",""ball_pos"":0,""ego_ball_visible"":true,""ego_can_infer"":true,""alter_ball_visible"":true,""alter_can_infer"":true,""collective_ball_visible"":true,""collective_can_infer"":true,""search_locations"":[0],""alter_occluders"":""001"",""ego_occluders"":""001""}","true","","","","","","","","","","","","","","","","","","",""
"","","","","","image-keyboard-response","13","213318","0.0-3.0-10.0","5fcbe82a12a0c80009d6e9cf","665500ab8938657b03fbdba8","665792d91522714ef7571bc4","951","stimuli/00010010.jpg"," ","","practrice_feedback","0","","","","","","","","","","","","","","","","","","","","",""
"","","","","","image-keyboard-response","14","216062","0.0-3.0-11.0","5fcbe82a12a0c80009d6e9cf","665500ab8938657b03fbdba8","665792d91522714ef7571bc4","2743","stimuli/0101001.jpg","0","","prediction_practice","2","{""filepath"":""stimuli/0101001.jpg"",""ball_pos"":0,""ego_ball_visible"":true,""ego_can_infer"":true,""alter_ball_visible"":false,""alter_can_infer"":false,""collective_ball_visible"":false,""collective_can_infer"":false,""search_locations"":[0,2],""alter_occluders"":""101"",""ego_occluders"":""001""}","false","","","","","","","","","","","","","","","","","","",""
"","","","","","image-keyboard-response","15","217080","0.0-3.0-12.0","5fcbe82a12a0c80009d6e9cf","665500ab8938657b03fbdba8","665792d91522714ef7571bc4","1017","stimuli/01010012.jpg"," ","","practrice_feedback","0","","","","","","","","","","","","","","","","","","","","",""
"","","","","","image-keyboard-response","16","221290","0.0-3.0-13.0","5fcbe82a12a0c80009d6e9cf","665500ab8938657b03fbdba8","665792d91522714ef7571bc4","4208","stimuli/1100111.jpg","0","","prediction_practice","1","{""filepath"":""stimuli/1100111.jpg"",""ball_pos"":1,""ego_ball_visible"":false,""ego_can_infer"":false,""alter_ball_visible"":true,""alter_can_infer"":true,""collective_ball_visible"":false,""collective_can_infer"":false,""search_locations"":[1],""alter_occluders"":""100"",""ego_occluders"":""111""}","false","","","","","","","","","","","","","","","","","","",""
"","","","","","image-keyboard-response","17","222380","0.0-3.0-14.0","5fcbe82a12a0c80009d6e9cf","665500ab8938657b03fbdba8","665792d91522714ef7571bc4","1089","stimuli/11001111.jpg"," ","","practrice_feedback","1","","","","","","","","","","","","","","","","","","","","",""
"","","","","","image-keyboard-response","18","227388","0.0-3.0-15.0","5fcbe82a12a0c80009d6e9cf","665500ab8938657b03fbdba8","665792d91522714ef7571bc4","5004","stimuli/1011111.jpg","1","","prediction_practice","2","{""filepath"":""stimuli/1011111.jpg"",""ball_pos"":1,""ego_ball_visible"":false,""ego_can_infer"":false,""alter_ball_visible"":false,""alter_can_infer"":false,""collective_ball_visible"":false,""collective_can_infer"":false,""search_locations"":[2,1],""alter_occluders"":""011"",""ego_occluders"":""111""}","false","","","","","","","","","","","","","","","","","","",""
"","","","","","image-keyboard-response","19","228256","0.0-3.0-16.0","5fcbe82a12a0c80009d6e9cf","665500ab8938657b03fbdba8","665792d91522714ef7571bc4","867","stimuli/10111112.jpg"," ","","practrice_feedback","2","","","","","","","","","","","","","","","","","","","","",""
"","","","","","image-keyboard-response","20","231503","0.0-3.0-17.0","5fcbe82a12a0c80009d6e9cf","665500ab8938657b03fbdba8","665792d91522714ef7571bc4","3246","stimuli/0010000.jpg","0","","prediction_practice","0","{""filepath"":""stimuli/0010000.jpg"",""ball_pos"":0,""ego_ball_visible"":true,""ego_can_infer"":true,""alter_ball_visible"":true,""alter_can_infer"":true,""collective_ball_visible"":true,""collective_can_infer"":true,""search_locations"":[0],""alter_occluders"":""010"",""ego_occluders"":""000""}","true","","","","","","","","","","","","","","","","","","",""
"","","","","","image-keyboard-response","21","232295","0.0-3.0-18.0","5fcbe82a12a0c80009d6e9cf","665500ab8938657b03fbdba8","665792d91522714ef7571bc4","791","stimuli/00100000.jpg"," ","","practrice_feedback","0","","","","","","","","","","","","","","","","","","","","",""
"","","","","","image-keyboard-response","22","241372","0.0-3.0-19.0","5fcbe82a12a0c80009d6e9cf","665500ab8938657b03fbdba8","665792d91522714ef7571bc4","9076","stimuli/1101011.jpg","0","","prediction_practice","1","{""filepath"":""stimuli/1101011.jpg"",""ball_pos"":1,""ego_ball_visible"":false,""ego_can_infer"":false,""alter_ball_visible"":true,""alter_can_infer"":true,""collective_ball_visible"":false,""collective_can_infer"":false,""search_locations"":[1],""alter_occluders"":""101"",""ego_occluders"":""011""}","false","","","","","","","","","","","","","","","","","","",""
"","","","","","image-keyboard-response","23","242834","0.0-3.0-20.0","5fcbe82a12a0c80009d6e9cf","665500ab8938657b03fbdba8","665792d91522714ef7571bc4","1461","stimuli/11010111.jpg"," ","","practrice_feedback","1","","","","","","","","","","","","","","","","","","","","",""
"","","","","","html-button-response","24","246478","0.0-3.0-21.0","5fcbe82a12a0c80009d6e9cf","665500ab8938657b03fbdba8","665792d91522714ef7571bc4","3643","Now that you've had some practice, you'll be tested with a couple of easy trials. If you correctly predict Sam's choice, you'll move on to complete the experiment!","0","","","","","","","","","","","","","","","","","","","","","","","",""
"","","","","","image-keyboard-response","25","251916","0.0-3.0-22.0-0.0","5fcbe82a12a0c80009d6e9cf","665500ab8938657b03fbdba8","665792d91522714ef7571bc4","5437","stimuli/0000011.jpg","arrowdown","","comprehension_quiz","","","false","arrowleft","","","","","","","","","","","","","","","","","",""
"","","","","","image-keyboard-response","26","253658","0.0-3.0-22.0-1.0","5fcbe82a12a0c80009d6e9cf","665500ab8938657b03fbdba8","665792d91522714ef7571bc4","1739","stimuli/00000110.jpg"," ","","comprehension_quiz","","","true"," ","","","","","","","","","","","","","","","","","",""
"","","","","","image-keyboard-response","27","255062","0.0-3.0-22.0-2.0","5fcbe82a12a0c80009d6e9cf","665500ab8938657b03fbdba8","665792d91522714ef7571bc4","1403","stimuli/1010010.jpg","arrowdown","","comprehension_quiz","","","true","arrowdown","","","","","","","","","","","","","","","","","",""
"","","","","","image-keyboard-response","28","255591","0.0-3.0-22.0-3.0","5fcbe82a12a0c80009d6e9cf","665500ab8938657b03fbdba8","665792d91522714ef7571bc4","528","stimuli/10100101.jpg"," ","","comprehension_quiz","","","true"," ","","","","","","","","","","","","","","","","","",""
"","","","","","html-button-response","29","257931","0.0-3.0-23.0-0.0","5fcbe82a12a0c80009d6e9cf","665500ab8938657b03fbdba8","665792d91522714ef7571bc4","2338","<p> Oops! You have answered one or more questions incorrectly.</p><p> Please Review the instructions again before continuing with the experiment </p>","0","","fail_message","","","false","","","","","","","","","","","","","","","","","","",""
"","","","","","instructions","30","283341","0.0-3.1-0.1","5fcbe82a12a0c80009d6e9cf","665500ab8938657b03fbdba8","665792d91522714ef7571bc4","25409","","","[{""page_index"":0,""viewing_time"":788},{""page_index"":1,""viewing_time"":1281},{""page_index"":2,""viewing_time"":912},{""page_index"":3,""viewing_time"":2176},{""page_index"":4,""viewing_time"":1496},{""page_index"":5,""viewing_time"":1508},{""page_index"":6,""viewing_time"":2901},{""page_index"":7,""viewing_time"":2062},{""page_index"":8,""viewing_time"":3015},{""page_index"":9,""viewing_time"":1503},{""page_index"":10,""viewing_time"":1783},{""page_index"":11,""viewing_time"":3209},{""page_index"":12,""viewing_time"":1623},{""page_index"":13,""viewing_time"":1152}]","intro","","","","","","","","","","","","","","","","","","","","","",""
"","","","","","image-keyboard-response","31","284913","0.0-3.1-1.1","5fcbe82a12a0c80009d6e9cf","665500ab8938657b03fbdba8","665792d91522714ef7571bc4","1570","stimuli/0011010.jpg","0","","prediction_practice","0","{""filepath"":""stimuli/0011010.jpg"",""ball_pos"":0,""ego_ball_visible"":true,""ego_can_infer"":true,""alter_ball_visible"":true,""alter_can_infer"":true,""collective_ball_visible"":true,""collective_can_infer"":true,""search_locations"":[0],""alter_occluders"":""011"",""ego_occluders"":""010""}","true","","","","","","","","","","","","","","","","","","",""
"","","","","","image-keyboard-response","32","285512","0.0-3.1-2.1","5fcbe82a12a0c80009d6e9cf","665500ab8938657b03fbdba8","665792d91522714ef7571bc4","597","stimuli/00110100.jpg"," ","","practrice_feedback","0","","","","","","","","","","","","","","","","","","","","",""
"","","","","","image-keyboard-response","33","287599","0.0-3.1-3.1","5fcbe82a12a0c80009d6e9cf","665500ab8938657b03fbdba8","665792d91522714ef7571bc4","2085","stimuli/0010110.jpg","1","","prediction_practice","0","{""filepath"":""stimuli/0010110.jpg"",""ball_pos"":0,""ego_ball_visible"":false,""ego_can_infer"":false,""alter_ball_visible"":true,""alter_can_infer"":true,""collective_ball_visible"":false,""collective_can_infer"":false,""search_locations"":[0],""alter_occluders"":""010"",""ego_occluders"":""110""}","false","","","","","","","","","","","","","","","","","","",""
"","","","","","image-keyboard-response","34","288920","0.0-3.1-4.1","5fcbe82a12a0c80009d6e9cf","665500ab8938657b03fbdba8","665792d91522714ef7571bc4","1319","stimuli/00101100.jpg"," ","","practrice_feedback","0","","","","","","","","","","","","","","","","","","","","",""
"","","","","","image-keyboard-response","35","290423","0.0-3.1-5.1","5fcbe82a12a0c80009d6e9cf","665500ab8938657b03fbdba8","665792d91522714ef7571bc4","1502","stimuli/1011011.jpg","1","","prediction_practice","1","{""filepath"":""stimuli/1011011.jpg"",""ball_pos"":1,""ego_ball_visible"":false,""ego_can_infer"":false,""alter_ball_visible"":false,""alter_can_infer"":false,""collective_ball_visible"":false,""collective_can_infer"":false,""search_locations"":[1,2],""alter_occluders"":""011"",""ego_occluders"":""011""}","true","","","","","","","","","","","","","","","","","","",""
"","","","","","image-keyboard-response","36","291047","0.0-3.1-6.1","5fcbe82a12a0c80009d6e9cf","665500ab8938657b03fbdba8","665792d91522714ef7571bc4","622","stimuli/10110111.jpg"," ","","practrice_feedback","1","","","","","","","","","","","","","","","","","","","","",""
"","","","","","image-keyboard-response","37","291791","0.0-3.1-7.1","5fcbe82a12a0c80009d6e9cf","665500ab8938657b03fbdba8","665792d91522714ef7571bc4","742","stimuli/0101110.jpg","0","","prediction_practice","2","{""filepath"":""stimuli/0101110.jpg"",""ball_pos"":0,""ego_ball_visible"":false,""ego_can_infer"":false,""alter_ball_visible"":false,""alter_can_infer"":false,""collective_ball_visible"":false,""collective_can_infer"":false,""search_locations"":[2,0],""alter_occluders"":""101"",""ego_occluders"":""110""}","false","","","","","","","","","","","","","","","","","","",""
"","","","","","image-keyboard-response","38","292409","0.0-3.1-8.1","5fcbe82a12a0c80009d6e9cf","665500ab8938657b03fbdba8","665792d91522714ef7571bc4","617","stimuli/01011102.jpg"," ","","practrice_feedback","2","","","","","","","","","","","","","","","","","","","","",""
"","","","","","image-keyboard-response","39","293917","0.0-3.1-9.1","5fcbe82a12a0c80009d6e9cf","665500ab8938657b03fbdba8","665792d91522714ef7571bc4","1507","stimuli/0001001.jpg","0","","prediction_practice","0","{""filepath"":""stimuli/0001001.jpg"",""ball_pos"":0,""ego_ball_visible"":true,""ego_can_infer"":true,""alter_ball_visible"":true,""alter_can_infer"":true,""collective_ball_visible"":true,""collective_can_infer"":true,""search_locations"":[0],""alter_occluders"":""001"",""ego_occluders"":""001""}","true","","","","","","","","","","","","","","","","","","",""
"","","","","","image-keyboard-response","40","294563","0.0-3.1-10.1","5fcbe82a12a0c80009d6e9cf","665500ab8938657b03fbdba8","665792d91522714ef7571bc4","644","stimuli/00010010.jpg"," ","","practrice_feedback","0","","","","","","","","","","","","","","","","","","","","",""
"","","","","","image-keyboard-response","41","300344","0.0-3.1-11.1","5fcbe82a12a0c80009d6e9cf","665500ab8938657b03fbdba8","665792d91522714ef7571bc4","5781","stimuli/0101001.jpg","0","","prediction_practice","2","{""filepath"":""stimuli/0101001.jpg"",""ball_pos"":0,""ego_ball_visible"":true,""ego_can_infer"":true,""alter_ball_visible"":false,""alter_can_infer"":false,""collective_ball_visible"":false,""collective_can_infer"":false,""search_locations"":[0,2],""alter_occluders"":""101"",""ego_occluders"":""001""}","false","","","","","","","","","","","","","","","","","","",""
"","","","","","image-keyboard-response","42","300879","0.0-3.1-12.1","5fcbe82a12a0c80009d6e9cf","665500ab8938657b03fbdba8","665792d91522714ef7571bc4","533","stimuli/01010012.jpg"," ","","practrice_feedback","0","","","","","","","","","","","","","","","","","","","","",""
"","","","","","image-keyboard-response","43","302597","0.0-3.1-13.1","5fcbe82a12a0c80009d6e9cf","665500ab8938657b03fbdba8","665792d91522714ef7571bc4","1718","stimuli/1100111.jpg","0","","prediction_practice","1","{""filepath"":""stimuli/1100111.jpg"",""ball_pos"":1,""ego_ball_visible"":false,""ego_can_infer"":false,""alter_ball_visible"":true,""alter_can_infer"":true,""collective_ball_visible"":false,""collective_can_infer"":false,""search_locations"":[1],""alter_occluders"":""100"",""ego_occluders"":""111""}","false","","","","","","","","","","","","","","","","","","",""
"","","","","","image-keyboard-response","44","303097","0.0-3.1-14.1","5fcbe82a12a0c80009d6e9cf","665500ab8938657b03fbdba8","665792d91522714ef7571bc4","492","stimuli/11001111.jpg"," ","","practrice_feedback","1","","","","","","","","","","","","","","","","","","","","",""
"","","","","","image-keyboard-response","45","305884","0.0-3.1-15.1","5fcbe82a12a0c80009d6e9cf","665500ab8938657b03fbdba8","665792d91522714ef7571bc4","2785","stimuli/1011111.jpg","1","","prediction_practice","2","{""filepath"":""stimuli/1011111.jpg"",""ball_pos"":1,""ego_ball_visible"":false,""ego_can_infer"":false,""alter_ball_visible"":false,""alter_can_infer"":false,""collective_ball_visible"":false,""collective_can_infer"":false,""search_locations"":[2,1],""alter_occluders"":""011"",""ego_occluders"":""111""}","false","","","","","","","","","","","","","","","","","","",""
"","","","","","image-keyboard-response","46","306403","0.0-3.1-16.1","5fcbe82a12a0c80009d6e9cf","665500ab8938657b03fbdba8","665792d91522714ef7571bc4","517","stimuli/10111112.jpg"," ","","practrice_feedback","2","","","","","","","","","","","","","","","","","","","","",""
"","","","","","image-keyboard-response","47","307183","0.0-3.1-17.1","5fcbe82a12a0c80009d6e9cf","665500ab8938657b03fbdba8","665792d91522714ef7571bc4","779","stimuli/0010000.jpg","0","","prediction_practice","0","{""filepath"":""stimuli/0010000.jpg"",""ball_pos"":0,""ego_ball_visible"":true,""ego_can_infer"":true,""alter_ball_visible"":true,""alter_can_infer"":true,""collective_ball_visible"":true,""collective_can_infer"":true,""search_locations"":[0],""alter_occluders"":""010"",""ego_occluders"":""000""}","true","","","","","","","","","","","","","","","","","","",""
"","","","","","image-keyboard-response","48","307596","0.0-3.1-18.1","5fcbe82a12a0c80009d6e9cf","665500ab8938657b03fbdba8","665792d91522714ef7571bc4","412","stimuli/00100000.jpg"," ","","practrice_feedback","0","","","","","","","","","","","","","","","","","","","","",""
"","","","","","image-keyboard-response","49","308353","0.0-3.1-19.1","5fcbe82a12a0c80009d6e9cf","665500ab8938657b03fbdba8","665792d91522714ef7571bc4","757","stimuli/1101011.jpg","1","","prediction_practice","1","{""filepath"":""stimuli/1101011.jpg"",""ball_pos"":1,""ego_ball_visible"":false,""ego_can_infer"":false,""alter_ball_visible"":true,""alter_can_infer"":true,""collective_ball_visible"":false,""collective_can_infer"":false,""search_locations"":[1],""alter_occluders"":""101"",""ego_occluders"":""011""}","true","","","","","","","","","","","","","","","","","","",""
"","","","","","image-keyboard-response","50","308742","0.0-3.1-20.1","5fcbe82a12a0c80009d6e9cf","665500ab8938657b03fbdba8","665792d91522714ef7571bc4","387","stimuli/11010111.jpg"," ","","practrice_feedback","1","","","","","","","","","","","","","","","","","","","","",""
"","","","","","html-button-response","51","313026","0.0-3.1-21.1","5fcbe82a12a0c80009d6e9cf","665500ab8938657b03fbdba8","665792d91522714ef7571bc4","4283","Now that you've had some practice, you'll be tested with a couple of easy trials. If you correctly predict Sam's choice, you'll move on to complete the experiment!","0","","","","","","","","","","","","","","","","","","","","","","","",""
"","","","","","image-keyboard-response","52","314484","0.0-3.1-22.1-0.1","5fcbe82a12a0c80009d6e9cf","665500ab8938657b03fbdba8","665792d91522714ef7571bc4","1452","stimuli/0000011.jpg","arrowleft","","comprehension_quiz","","","true","arrowleft","","","","","","","","","","","","","","","","","",""
"","","","","","image-keyboard-response","53","315733","0.0-3.1-22.1-1.1","5fcbe82a12a0c80009d6e9cf","665500ab8938657b03fbdba8","665792d91522714ef7571bc4","1246","stimuli/00000110.jpg"," ","","comprehension_quiz","","","true"," ","","","","","","","","","","","","","","","","","",""
"","","","","","image-keyboard-response","54","316846","0.0-3.1-22.1-2.1","5fcbe82a12a0c80009d6e9cf","665500ab8938657b03fbdba8","665792d91522714ef7571bc4","1112","stimuli/1010010.jpg","arrowdown","","comprehension_quiz","","","true","arrowdown","","","","","","","","","","","","","","","","","",""
"","","","","","image-keyboard-response","55","317372","0.0-3.1-22.1-3.1","5fcbe82a12a0c80009d6e9cf","665500ab8938657b03fbdba8","665792d91522714ef7571bc4","525","stimuli/10100101.jpg"," ","","comprehension_quiz","","","true"," ","","","","","","","","","","","","","","","","","",""
"","","","","","html-button-response","56","320227","0.0-4.0","5fcbe82a12a0c80009d6e9cf","665500ab8938657b03fbdba8","665792d91522714ef7571bc4","2854","The experiment will now begin.","0","","","","","","","","","","","","","","","","","","","","","","","",""
"","","","","","image-keyboard-response","57","324018","0.0-5.0","5fcbe82a12a0c80009d6e9cf","665500ab8938657b03fbdba8","665792d91522714ef7571bc4","3790","stimuli/0000010.jpg","0","","prediction_trial","0","","true","","0","true","true","true","true","true","true","[0]","000","010","1","","","","","","",""
"","","","","","image-keyboard-response","58","324579","0.0-6.0","5fcbe82a12a0c80009d6e9cf","665500ab8938657b03fbdba8","665792d91522714ef7571bc4","560","stimuli/00000100.jpg"," ","","feedback_trial","0","","","","","","","","","","","","","","","","","","","","",""
"","","","","","image-keyboard-response","59","325156","0.0-7.0","5fcbe82a12a0c80009d6e9cf","665500ab8938657b03fbdba8","665792d91522714ef7571bc4","575","stimuli/1000101.jpg","1","","prediction_trial","1","","true","","1","true","true","true","true","true","true","[1]","000","101","1","","","","","","",""
"","","","","","image-keyboard-response","60","325485","0.0-8.0","5fcbe82a12a0c80009d6e9cf","665500ab8938657b03fbdba8","665792d91522714ef7571bc4","327","stimuli/10001011.jpg"," ","","feedback_trial","1","","","","","","","","","","","","","","","","","","","","",""
"","","","","","image-keyboard-response","61","326506","0.0-9.0","5fcbe82a12a0c80009d6e9cf","665500ab8938657b03fbdba8","665792d91522714ef7571bc4","1019","stimuli/2110011.jpg","1","","prediction_trial","2","","false","","2","false","false","true","true","false","false","[2]","110","011","0","","","","","","",""
"","","","","","image-keyboard-response","62","327286","0.0-10.0","5fcbe82a12a0c80009d6e9cf","665500ab8938657b03fbdba8","665792d91522714ef7571bc4","779","stimuli/21100112.jpg"," ","","feedback_trial","2","","","","","","","","","","","","","","","","","","","","",""
"","","","","","image-keyboard-response","63","327951","0.0-11.0","5fcbe82a12a0c80009d6e9cf","665500ab8938657b03fbdba8","665792d91522714ef7571bc4","664","stimuli/0000101.jpg","0","","prediction_trial","0","","true","","0","false","false","true","true","false","false","[0]","000","101","1","","","","","","",""
"","","","","","image-keyboard-response","64","328296","0.0-12.0","5fcbe82a12a0c80009d6e9cf","665500ab8938657b03fbdba8","665792d91522714ef7571bc4","344","stimuli/00001010.jpg"," ","","feedback_trial","0","","","","","","","","","","","","","","","","","","","","",""
"","","","","","image-keyboard-response","65","329001","0.0-13.0","5fcbe82a12a0c80009d6e9cf","665500ab8938657b03fbdba8","665792d91522714ef7571bc4","703","stimuli/2111000.jpg","2","","prediction_trial","0","","false","","2","true","true","false","false","false","false","[2,1,0]","111","000","0","","","","","","",""
"","","","","","image-keyboard-response","66","329553","0.0-14.0","5fcbe82a12a0c80009d6e9cf","665500ab8938657b03fbdba8","665792d91522714ef7571bc4","550","stimuli/21110000.jpg"," ","","feedback_trial","2","","","","","","","","","","","","","","","","","","","","",""
"","","","","","image-keyboard-response","67","333583","0.0-15.0","5fcbe82a12a0c80009d6e9cf","665500ab8938657b03fbdba8","665792d91522714ef7571bc4","4023","stimuli/0101100.jpg","0","","prediction_trial","2","","false","","0","false","true","false","false","false","false","[0,2]","101","100","0","","","","","","",""
"","","","","","image-keyboard-response","68","334154","0.0-16.0","5fcbe82a12a0c80009d6e9cf","665500ab8938657b03fbdba8","665792d91522714ef7571bc4","569","stimuli/01011002.jpg"," ","","feedback_trial","0","","","","","","","","","","","","","","","","","","","","",""
"","","","","","image-keyboard-response","69","334870","0.0-17.0","5fcbe82a12a0c80009d6e9cf","665500ab8938657b03fbdba8","665792d91522714ef7571bc4","715","stimuli/0101010.jpg","0","","prediction_trial","0","","true","","0","true","true","false","false","false","false","[2,0]","101","010","1","","","","","","",""
"","","","","","image-keyboard-response","70","335218","0.0-18.0","5fcbe82a12a0c80009d6e9cf","665500ab8938657b03fbdba8","665792d91522714ef7571bc4","348","stimuli/01010100.jpg"," ","","feedback_trial","2","","","","","","","","","","","","","","","","","","","","",""
"","","","","","image-keyboard-response","71","336978","0.0-19.0","5fcbe82a12a0c80009d6e9cf","665500ab8938657b03fbdba8","665792d91522714ef7571bc4","1759","stimuli/2001101.jpg","2","","prediction_trial","2","","true","","2","false","false","false","true","false","false","[2]","001","101","1","","","","","","",""
"","","","","","image-keyboard-response","72","337326","0.0-20.0","5fcbe82a12a0c80009d6e9cf","665500ab8938657b03fbdba8","665792d91522714ef7571bc4","347","stimuli/20011012.jpg"," ","","feedback_trial","2","","","","","","","","","","","","","","","","","","","","",""
"","","","","","image-keyboard-response","73","337995","0.0-21.0","5fcbe82a12a0c80009d6e9cf","665500ab8938657b03fbdba8","665792d91522714ef7571bc4","668","stimuli/1111011.jpg","2","","prediction_trial","1","","false","","1","false","false","false","false","false","false","[2,1,0]","111","011","0","","","","","","",""
"","","","","","image-keyboard-response","74","338305","0.0-22.0","5fcbe82a12a0c80009d6e9cf","665500ab8938657b03fbdba8","665792d91522714ef7571bc4","309","stimuli/11110111.jpg"," ","","feedback_trial","2","","","","","","","","","","","","","","","","","","","","",""
"","","","","","image-keyboard-response","75","338915","0.0-23.0","5fcbe82a12a0c80009d6e9cf","665500ab8938657b03fbdba8","665792d91522714ef7571bc4","609","stimuli/2110111.jpg","0","","prediction_trial","2","","false","","2","false","false","true","true","false","false","[2]","110","111","0","","","","","","",""
"","","","","","image-keyboard-response","76","339791","0.0-24.0","5fcbe82a12a0c80009d6e9cf","665500ab8938657b03fbdba8","665792d91522714ef7571bc4","875","stimuli/21101112.jpg"," ","","feedback_trial","2","","","","","","","","","","","","","","","","","","","","",""
"","","","","","image-keyboard-response","77","340657","0.0-25.0","5fcbe82a12a0c80009d6e9cf","665500ab8938657b03fbdba8","665792d91522714ef7571bc4","865","stimuli/0011001.jpg","0","","prediction_trial","0","","true","","0","true","true","true","true","true","true","[0]","011","001","1","","","","","","",""
"","","","","","image-keyboard-response","78","341049","0.0-26.0","5fcbe82a12a0c80009d6e9cf","665500ab8938657b03fbdba8","665792d91522714ef7571bc4","391","stimuli/00110010.jpg"," ","","feedback_trial","0","","","","","","","","","","","","","","","","","","","","",""
"","","","","","image-keyboard-response","79","341854","0.0-27.0","5fcbe82a12a0c80009d6e9cf","665500ab8938657b03fbdba8","665792d91522714ef7571bc4","803","stimuli/1001101.jpg","1","","prediction_trial","1","","true","","1","true","true","true","true","true","true","[1]","001","101","1","","","","","","",""
"","","","","","image-keyboard-response","80","342171","0.0-28.0","5fcbe82a12a0c80009d6e9cf","665500ab8938657b03fbdba8","665792d91522714ef7571bc4","316","stimuli/10011011.jpg"," ","","feedback_trial","1","","","","","","","","","","","","","","","","","","","","",""
"","","","","","image-keyboard-response","81","343852","0.0-29.0","5fcbe82a12a0c80009d6e9cf","665500ab8938657b03fbdba8","665792d91522714ef7571bc4","1673","stimuli/1110000.jpg","1","","prediction_trial","0","","false","","1","true","true","false","false","false","false","[1,0]","110","000","0","","","","","","",""
"","","","","","image-keyboard-response","82","344225","0.0-30.0","5fcbe82a12a0c80009d6e9cf","665500ab8938657b03fbdba8","665792d91522714ef7571bc4","371","stimuli/11100000.jpg"," ","","feedback_trial","1","","","","","","","","","","","","","","","","","","","","",""
"","","","","","image-keyboard-response","83","344846","0.0-31.0","5fcbe82a12a0c80009d6e9cf","665500ab8938657b03fbdba8","665792d91522714ef7571bc4","621","stimuli/0110110.jpg","1","","prediction_trial","0","","false","","0","false","false","false","false","false","false","[1,0]","110","110","0","","","","","","",""
"","","","","","image-keyboard-response","84","345259","0.0-32.0","5fcbe82a12a0c80009d6e9cf","665500ab8938657b03fbdba8","665792d91522714ef7571bc4","411","stimuli/01101100.jpg"," ","","feedback_trial","1","","","","","","","","","","","","","","","","","","","","",""
"","","","","","image-keyboard-response","85","347196","0.0-33.0","5fcbe82a12a0c80009d6e9cf","665500ab8938657b03fbdba8","665792d91522714ef7571bc4","1935","stimuli/0000110.jpg","1","","prediction_trial","0","","false","","0","false","false","true","true","false","false","[0]","000","110","0","","","","","","",""
"","","","","","image-keyboard-response","86","347603","0.0-34.0","5fcbe82a12a0c80009d6e9cf","665500ab8938657b03fbdba8","665792d91522714ef7571bc4","405","stimuli/00001100.jpg"," ","","feedback_trial","0","","","","","","","","","","","","","","","","","","","","",""
"","","","","","image-keyboard-response","87","349446","0.0-35.0","5fcbe82a12a0c80009d6e9cf","665500ab8938657b03fbdba8","665792d91522714ef7571bc4","1841","stimuli/0010100.jpg","1","","prediction_trial","0","","false","","0","false","true","true","true","false","true","[0]","010","100","0","","","","","","",""
"","","","","","image-keyboard-response","88","350156","0.0-36.0","5fcbe82a12a0c80009d6e9cf","665500ab8938657b03fbdba8","665792d91522714ef7571bc4","708","stimuli/00101000.jpg"," ","","feedback_trial","0","","","","","","","","","","","","","","","","","","","","",""
"","","","","","image-keyboard-response","89","350906","0.0-37.0","5fcbe82a12a0c80009d6e9cf","665500ab8938657b03fbdba8","665792d91522714ef7571bc4","750","stimuli/0011011.jpg","0","","prediction_trial","0","","true","","0","true","true","true","true","true","true","[0]","011","011","1","","","","","","",""
"","","","","","image-keyboard-response","90","351173","0.0-38.0","5fcbe82a12a0c80009d6e9cf","665500ab8938657b03fbdba8","665792d91522714ef7571bc4","266","stimuli/00110110.jpg"," ","","feedback_trial","0","","","","","","","","","","","","","","","","","","","","",""
"","","","","","image-keyboard-response","91","351878","0.0-39.0","5fcbe82a12a0c80009d6e9cf","665500ab8938657b03fbdba8","665792d91522714ef7571bc4","704","stimuli/0000001.jpg","0","","prediction_trial","0","","true","","0","true","true","true","true","true","true","[0]","000","001","1","","","","","","",""
"","","","","","image-keyboard-response","92","352162","0.0-40.0","5fcbe82a12a0c80009d6e9cf","665500ab8938657b03fbdba8","665792d91522714ef7571bc4","282","stimuli/00000010.jpg"," ","","feedback_trial","0","","","","","","","","","","","","","","","","","","","","",""
"","","","","","image-keyboard-response","93","353094","0.0-41.0","5fcbe82a12a0c80009d6e9cf","665500ab8938657b03fbdba8","665792d91522714ef7571bc4","929","stimuli/2010100.jpg","2","","prediction_trial","2","","true","","2","true","true","true","true","true","true","[2]","010","100","1","","","","","","",""
"","","","","","image-keyboard-response","94","353454","0.0-42.0","5fcbe82a12a0c80009d6e9cf","665500ab8938657b03fbdba8","665792d91522714ef7571bc4","358","stimuli/20101002.jpg"," ","","feedback_trial","2","","","","","","","","","","","","","","","","","","","","",""
"","","","","","image-keyboard-response","95","354293","0.0-43.0","5fcbe82a12a0c80009d6e9cf","665500ab8938657b03fbdba8","665792d91522714ef7571bc4","831","stimuli/2011001.jpg","0","","prediction_trial","2","","false","","2","false","true","false","false","false","false","[1,2]","011","001","0","","","","","","",""
"","","","","","image-keyboard-response","96","354712","0.0-44.0","5fcbe82a12a0c80009d6e9cf","665500ab8938657b03fbdba8","665792d91522714ef7571bc4","418","stimuli/20110012.jpg"," ","","feedback_trial","1","","","","","","","","","","","","","","","","","","","","",""
"","","","","","image-keyboard-response","97","355454","0.0-45.0","5fcbe82a12a0c80009d6e9cf","665500ab8938657b03fbdba8","665792d91522714ef7571bc4","740","stimuli/2111111.jpg","2","","prediction_trial","1","","false","","2","false","false","false","false","false","false","[1,0,2]","111","111","0","","","","","","",""
"","","","","","image-keyboard-response","98","355834","0.0-46.0","5fcbe82a12a0c80009d6e9cf","665500ab8938657b03fbdba8","665792d91522714ef7571bc4","379","stimuli/21111111.jpg"," ","","feedback_trial","1","","","","","","","","","","","","","","","","","","","","",""
"","","","","","image-keyboard-response","99","356548","0.0-47.0","5fcbe82a12a0c80009d6e9cf","665500ab8938657b03fbdba8","665792d91522714ef7571bc4","712","stimuli/0010011.jpg","0","","prediction_trial","0","","true","","0","true","true","true","true","true","true","[0]","010","011","1","","","","","","",""
"","","","","","image-keyboard-response","100","356910","0.0-48.0","5fcbe82a12a0c80009d6e9cf","665500ab8938657b03fbdba8","665792d91522714ef7571bc4","361","stimuli/00100110.jpg"," ","","feedback_trial","0","","","","","","","","","","","","","","","","","","","","",""
"","","","","","image-keyboard-response","101","357571","0.0-49.0","5fcbe82a12a0c80009d6e9cf","665500ab8938657b03fbdba8","665792d91522714ef7571bc4","660","stimuli/1001001.jpg","1","","prediction_trial","1","","true","","1","true","true","true","true","true","true","[1]","001","001","1","","","","","","",""
"","","","","","image-keyboard-response","102","357869","0.0-50.0","5fcbe82a12a0c80009d6e9cf","665500ab8938657b03fbdba8","665792d91522714ef7571bc4","290","stimuli/10010011.jpg"," ","","feedback_trial","1","","","","","","","","","","","","","","","","","","","","",""
"","","","","","image-keyboard-response","103","360462","0.0-51.0","5fcbe82a12a0c80009d6e9cf","665500ab8938657b03fbdba8","665792d91522714ef7571bc4","2592","stimuli/2000001.jpg","2","","prediction_trial","2","","true","","2","false","true","true","true","false","true","[2]","000","001","1","","","","","","",""
"","","","","","image-keyboard-response","104","360813","0.0-52.0","5fcbe82a12a0c80009d6e9cf","665500ab8938657b03fbdba8","665792d91522714ef7571bc4","349","stimuli/20000012.jpg"," ","","feedback_trial","2","","","","","","","","","","","","","","","","","","","","",""
"","","","","","image-keyboard-response","105","362713","0.0-53.0","5fcbe82a12a0c80009d6e9cf","665500ab8938657b03fbdba8","665792d91522714ef7571bc4","1900","stimuli/1010110.jpg","0","","prediction_trial","1","","false","","1","false","false","false","true","false","false","[1]","010","110","0","","","","","","",""
"","","","","","image-keyboard-response","106","363206","0.0-54.0","5fcbe82a12a0c80009d6e9cf","665500ab8938657b03fbdba8","665792d91522714ef7571bc4","492","stimuli/10101101.jpg"," ","","feedback_trial","1","","","","","","","","","","","","","","","","","","","","",""
"","","","","","image-keyboard-response","107","363919","0.0-55.0","5fcbe82a12a0c80009d6e9cf","665500ab8938657b03fbdba8","665792d91522714ef7571bc4","711","stimuli/1111010.jpg","1","","prediction_trial","1","","true","","1","false","true","false","false","false","false","[2,0,1]","111","010","1","","","","","","",""
"","","","","","image-keyboard-response","108","364224","0.0-56.0","5fcbe82a12a0c80009d6e9cf","665500ab8938657b03fbdba8","665792d91522714ef7571bc4","305","stimuli/11110101.jpg"," ","","feedback_trial","2","","","","","","","","","","","","","","","","","","","","",""
"","","","","","image-keyboard-response","109","364980","0.0-57.0","5fcbe82a12a0c80009d6e9cf","665500ab8938657b03fbdba8","665792d91522714ef7571bc4","750","stimuli/0011000.jpg","0","","prediction_trial","0","","true","","0","true","true","true","true","true","true","[0]","011","000","1","","","","","","",""
"","","","","","image-keyboard-response","110","365242","0.0-58.0","5fcbe82a12a0c80009d6e9cf","665500ab8938657b03fbdba8","665792d91522714ef7571bc4","260","stimuli/00110000.jpg"," ","","feedback_trial","0","","","","","","","","","","","","","","","","","","","","",""
"","","","","","image-keyboard-response","111","377599","0.0-59.0","5fcbe82a12a0c80009d6e9cf","665500ab8938657b03fbdba8","665792d91522714ef7571bc4","12356","stimuli/0101001.jpg","0","","prediction_trial","0","","true","","0","true","true","false","false","false","false","[0,2]","101","001","1","","","","","","",""
"","","","","","image-keyboard-response","112","378192","0.0-60.0","5fcbe82a12a0c80009d6e9cf","665500ab8938657b03fbdba8","665792d91522714ef7571bc4","591","stimuli/01010010.jpg"," ","","feedback_trial","0","","","","","","","","","","","","","","","","","","","","",""
"","","","","","image-keyboard-response","113","379078","0.0-61.0","5fcbe82a12a0c80009d6e9cf","665500ab8938657b03fbdba8","665792d91522714ef7571bc4","884","stimuli/1100101.jpg","1","","prediction_trial","1","","true","","1","true","true","true","true","true","true","[1]","100","101","1","","","","","","",""
"","","","","","image-keyboard-response","114","379329","0.0-62.0","5fcbe82a12a0c80009d6e9cf","665500ab8938657b03fbdba8","665792d91522714ef7571bc4","250","stimuli/11001011.jpg"," ","","feedback_trial","1","","","","","","","","","","","","","","","","","","","","",""
"","","","","","image-keyboard-response","115","379988","0.0-63.0","5fcbe82a12a0c80009d6e9cf","665500ab8938657b03fbdba8","665792d91522714ef7571bc4","657","stimuli/1000100.jpg","1","","prediction_trial","1","","true","","1","true","true","true","true","true","true","[1]","000","100","1","","","","","","",""
"","","","","","image-keyboard-response","116","380194","0.0-64.0","5fcbe82a12a0c80009d6e9cf","665500ab8938657b03fbdba8","665792d91522714ef7571bc4","205","stimuli/10001001.jpg"," ","","feedback_trial","1","","","","","","","","","","","","","","","","","","","","",""
"","","","","","image-keyboard-response","117","380763","0.0-65.0","5fcbe82a12a0c80009d6e9cf","665500ab8938657b03fbdba8","665792d91522714ef7571bc4","567","stimuli/0001011.jpg","0","","prediction_trial","0","","true","","0","true","true","true","true","true","true","[0]","001","011","1","","","","","","",""
"","","","","","image-keyboard-response","118","380964","0.0-66.0","5fcbe82a12a0c80009d6e9cf","665500ab8938657b03fbdba8","665792d91522714ef7571bc4","200","stimuli/00010110.jpg"," ","","feedback_trial","0","","","","","","","","","","","","","","","","","","","","",""
"","","","","","image-keyboard-response","119","381501","0.0-67.0","5fcbe82a12a0c80009d6e9cf","665500ab8938657b03fbdba8","665792d91522714ef7571bc4","535","stimuli/0101000.jpg","0","","prediction_trial","2","","false","","0","true","true","false","false","false","false","[0,2]","101","000","0","","","","","","",""
"","","","","","image-keyboard-response","120","382041","0.0-68.0","5fcbe82a12a0c80009d6e9cf","665500ab8938657b03fbdba8","665792d91522714ef7571bc4","539","stimuli/01010002.jpg"," ","","feedback_trial","0","","","","","","","","","","","","","","","","","","","","",""
"","","","","","image-keyboard-response","121","457642","0.0-69.0","5fcbe82a12a0c80009d6e9cf","665500ab8938657b03fbdba8","665792d91522714ef7571bc4","75599","stimuli/1011001.jpg","2","","prediction_trial","2","","true","","1","true","true","false","false","false","false","[1,2]","011","001","1","","","","","","",""
"","","","","","image-keyboard-response","122","458955","0.0-70.0","5fcbe82a12a0c80009d6e9cf","665500ab8938657b03fbdba8","665792d91522714ef7571bc4","1312","stimuli/10110012.jpg"," ","","feedback_trial","1","","","","","","","","","","","","","","","","","","","","",""
"","","","","","image-keyboard-response","123","460370","0.0-71.0","5fcbe82a12a0c80009d6e9cf","665500ab8938657b03fbdba8","665792d91522714ef7571bc4","1408","stimuli/2011110.jpg","2","","prediction_trial","2","","true","","2","true","true","false","false","false","false","[1,2]","011","110","1","","","","","","",""
"","","","","","image-keyboard-response","124","460759","0.0-72.0","5fcbe82a12a0c80009d6e9cf","665500ab8938657b03fbdba8","665792d91522714ef7571bc4","388","stimuli/20111102.jpg"," ","","feedback_trial","1","","","","","","","","","","","","","","","","","","","","",""
"","","","","","image-keyboard-response","125","461976","0.0-73.0","5fcbe82a12a0c80009d6e9cf","665500ab8938657b03fbdba8","665792d91522714ef7571bc4","1216","stimuli/1110110.jpg","1","","prediction_trial","0","","false","","1","false","false","false","false","false","false","[0,1]","110","110","0","","","","","","",""
"","","","","","image-keyboard-response","126","462320","0.0-74.0","5fcbe82a12a0c80009d6e9cf","665500ab8938657b03fbdba8","665792d91522714ef7571bc4","342","stimuli/11101100.jpg"," ","","feedback_trial","0","","","","","","","","","","","","","","","","","","","","",""
"","","","","","image-keyboard-response","127","464895","0.0-75.0","5fcbe82a12a0c80009d6e9cf","665500ab8938657b03fbdba8","665792d91522714ef7571bc4","2573","stimuli/2100001.jpg","2","","prediction_trial","2","","true","","2","false","true","true","true","false","true","[2]","100","001","1","","","","","","",""
"","","","","","image-keyboard-response","128","465289","0.0-76.0","5fcbe82a12a0c80009d6e9cf","665500ab8938657b03fbdba8","665792d91522714ef7571bc4","394","stimuli/21000012.jpg"," ","","feedback_trial","2","","","","","","","","","","","","","","","","","","","","",""
"","","","","","image-keyboard-response","129","467428","0.0-77.0","5fcbe82a12a0c80009d6e9cf","665500ab8938657b03fbdba8","665792d91522714ef7571bc4","2137","stimuli/0110010.jpg","0","","prediction_trial","1","","false","","0","true","true","false","false","false","false","[0,1]","110","010","0","","","","","","",""
"","","","","","image-keyboard-response","130","467805","0.0-78.0","5fcbe82a12a0c80009d6e9cf","665500ab8938657b03fbdba8","665792d91522714ef7571bc4","375","stimuli/01100101.jpg"," ","","feedback_trial","0","","","","","","","","","","","","","","","","","","","","",""
"","","","","","image-keyboard-response","131","469060","0.0-79.0","5fcbe82a12a0c80009d6e9cf","665500ab8938657b03fbdba8","665792d91522714ef7571bc4","1253","stimuli/1010011.jpg","2","","prediction_trial","1","","false","","1","false","false","false","true","false","false","[1]","010","011","0","","","","","","",""
"","","","","","image-keyboard-response","132","469437","0.0-80.0","5fcbe82a12a0c80009d6e9cf","665500ab8938657b03fbdba8","665792d91522714ef7571bc4","375","stimuli/10100111.jpg"," ","","feedback_trial","1","","","","","","","","","","","","","","","","","","","","",""
"","","","","","image-keyboard-response","133","470973","0.0-81.0","5fcbe82a12a0c80009d6e9cf","665500ab8938657b03fbdba8","665792d91522714ef7571bc4","1534","stimuli/1011111.jpg","0","","prediction_trial","2","","false","","1","false","false","false","false","false","false","[2,1]","011","111","0","","","","","","",""
"","","","","","image-keyboard-response","134","471312","0.0-82.0","5fcbe82a12a0c80009d6e9cf","665500ab8938657b03fbdba8","665792d91522714ef7571bc4","338","stimuli/10111112.jpg"," ","","feedback_trial","2","","","","","","","","","","","","","","","","","","","","",""
"","","","","","image-keyboard-response","135","473053","0.0-83.0","5fcbe82a12a0c80009d6e9cf","665500ab8938657b03fbdba8","665792d91522714ef7571bc4","1739","stimuli/0110100.jpg","0","","prediction_trial","0","","true","","0","false","true","false","false","false","false","[1,0]","110","100","1","","","","","","",""
"","","","","","image-keyboard-response","136","473366","0.0-84.0","5fcbe82a12a0c80009d6e9cf","665500ab8938657b03fbdba8","665792d91522714ef7571bc4","313","stimuli/01101000.jpg"," ","","feedback_trial","1","","","","","","","","","","","","","","","","","","","","",""
"","","","","","image-keyboard-response","137","474482","0.0-85.0","5fcbe82a12a0c80009d6e9cf","665500ab8938657b03fbdba8","665792d91522714ef7571bc4","1115","stimuli/0110000.jpg","1","","prediction_trial","1","","true","","0","true","true","false","false","false","false","[1,0]","110","000","1","","","","","","",""
"","","","","","image-keyboard-response","138","474787","0.0-86.0","5fcbe82a12a0c80009d6e9cf","665500ab8938657b03fbdba8","665792d91522714ef7571bc4","303","stimuli/01100001.jpg"," ","","feedback_trial","1","","","","","","","","","","","","","","","","","","","","",""
"","","","","","image-keyboard-response","139","477689","0.0-87.0","5fcbe82a12a0c80009d6e9cf","665500ab8938657b03fbdba8","665792d91522714ef7571bc4","2902","stimuli/0011100.jpg","1","","prediction_trial","0","","false","","0","false","true","true","true","false","true","[0]","011","100","0","","","","","","",""
"","","","","","image-keyboard-response","140","478046","0.0-88.0","5fcbe82a12a0c80009d6e9cf","665500ab8938657b03fbdba8","665792d91522714ef7571bc4","356","stimuli/00111000.jpg"," ","","feedback_trial","0","","","","","","","","","","","","","","","","","","","","",""
"","","","","","image-keyboard-response","141","479428","0.0-89.0","5fcbe82a12a0c80009d6e9cf","665500ab8938657b03fbdba8","665792d91522714ef7571bc4","1380","stimuli/2001010.jpg","2","","prediction_trial","2","","true","","2","true","true","false","true","false","true","[2]","001","010","1","","","","","","",""
"","","","","","image-keyboard-response","142","479713","0.0-90.0","5fcbe82a12a0c80009d6e9cf","665500ab8938657b03fbdba8","665792d91522714ef7571bc4","284","stimuli/20010102.jpg"," ","","feedback_trial","2","","","","","","","","","","","","","","","","","","","","",""
"","","","","","image-keyboard-response","143","480924","0.0-91.0","5fcbe82a12a0c80009d6e9cf","665500ab8938657b03fbdba8","665792d91522714ef7571bc4","1209","stimuli/1010001.jpg","1","","prediction_trial","1","","true","","1","true","true","false","true","false","true","[1]","010","001","1","","","","","","",""
"","","","","","image-keyboard-response","144","481259","0.0-92.0","5fcbe82a12a0c80009d6e9cf","665500ab8938657b03fbdba8","665792d91522714ef7571bc4","333","stimuli/10100011.jpg"," ","","feedback_trial","1","","","","","","","","","","","","","","","","","","","","",""
"","","","","","image-keyboard-response","145","483703","0.0-93.0","5fcbe82a12a0c80009d6e9cf","665500ab8938657b03fbdba8","665792d91522714ef7571bc4","2442","stimuli/2101100.jpg","0","","prediction_trial","0","","true","","2","true","true","false","false","false","false","[2,0]","101","100","1","","","","","","",""
"","","","","","image-keyboard-response","146","484130","0.0-94.0","5fcbe82a12a0c80009d6e9cf","665500ab8938657b03fbdba8","665792d91522714ef7571bc4","426","stimuli/21011000.jpg"," ","","feedback_trial","2","","","","","","","","","","","","","","","","","","","","",""
"","","","","","image-keyboard-response","147","485055","0.0-95.0","5fcbe82a12a0c80009d6e9cf","665500ab8938657b03fbdba8","665792d91522714ef7571bc4","923","stimuli/1010010.jpg","1","","prediction_trial","1","","true","","1","false","true","false","true","false","true","[1]","010","010","1","","","","","","",""
"","","","","","image-keyboard-response","148","485369","0.0-96.0","5fcbe82a12a0c80009d6e9cf","665500ab8938657b03fbdba8","665792d91522714ef7571bc4","313","stimuli/10100101.jpg"," ","","feedback_trial","1","","","","","","","","","","","","","","","","","","","","",""
"","","","","","image-keyboard-response","149","486452","0.0-97.0","5fcbe82a12a0c80009d6e9cf","665500ab8938657b03fbdba8","665792d91522714ef7571bc4","1081","stimuli/2000010.jpg","2","","prediction_trial","2","","true","","2","true","true","true","true","true","true","[2]","000","010","1","","","","","","",""
"","","","","","image-keyboard-response","150","486746","0.0-98.0","5fcbe82a12a0c80009d6e9cf","665500ab8938657b03fbdba8","665792d91522714ef7571bc4","293","stimuli/20000102.jpg"," ","","feedback_trial","2","","","","","","","","","","","","","","","","","","","","",""
"","","","","","image-keyboard-response","151","487507","0.0-99.0","5fcbe82a12a0c80009d6e9cf","665500ab8938657b03fbdba8","665792d91522714ef7571bc4","759","stimuli/2100110.jpg","2","","prediction_trial","2","","true","","2","true","true","true","true","true","true","[2]","100","110","1","","","","","","",""
"","","","","","image-keyboard-response","152","487802","0.0-100.0","5fcbe82a12a0c80009d6e9cf","665500ab8938657b03fbdba8","665792d91522714ef7571bc4","293","stimuli/21001102.jpg"," ","","feedback_trial","2","","","","","","","","","","","","","","","","","","","","",""
"","","","","","image-keyboard-response","153","489736","0.0-101.0","5fcbe82a12a0c80009d6e9cf","665500ab8938657b03fbdba8","665792d91522714ef7571bc4","1933","stimuli/2001111.jpg","1","","prediction_trial","2","","false","","2","false","false","false","true","false","false","[2]","001","111","0","","","","","","",""
"","","","","","image-keyboard-response","154","490143","0.0-102.0","5fcbe82a12a0c80009d6e9cf","665500ab8938657b03fbdba8","665792d91522714ef7571bc4","405","stimuli/20011112.jpg"," ","","feedback_trial","2","","","","","","","","","","","","","","","","","","","","",""
"","","","","","image-keyboard-response","155","491493","0.0-103.0","5fcbe82a12a0c80009d6e9cf","665500ab8938657b03fbdba8","665792d91522714ef7571bc4","1349","stimuli/1011011.jpg","1","","prediction_trial","1","","true","","1","false","false","false","false","false","false","[1,2]","011","011","1","","","","","","",""
"","","","","","image-keyboard-response","156","491821","0.0-104.0","5fcbe82a12a0c80009d6e9cf","665500ab8938657b03fbdba8","665792d91522714ef7571bc4","326","stimuli/10110111.jpg"," ","","feedback_trial","1","","","","","","","","","","","","","","","","","","","","",""
"","","","","","image-keyboard-response","157","492701","0.0-105.0","5fcbe82a12a0c80009d6e9cf","665500ab8938657b03fbdba8","665792d91522714ef7571bc4","879","stimuli/2000111.jpg","1","","prediction_trial","2","","false","","2","false","false","true","true","false","false","[2]","000","111","0","","","","","","",""
"","","","","","image-keyboard-response","158","493083","0.0-106.0","5fcbe82a12a0c80009d6e9cf","665500ab8938657b03fbdba8","665792d91522714ef7571bc4","380","stimuli/20001112.jpg"," ","","feedback_trial","2","","","","","","","","","","","","","","","","","","","","",""
"","","","","","image-keyboard-response","159","494106","0.0-107.0","5fcbe82a12a0c80009d6e9cf","665500ab8938657b03fbdba8","665792d91522714ef7571bc4","1023","stimuli/2110100.jpg","2","","prediction_trial","2","","true","","2","true","true","true","true","true","true","[2]","110","100","1","","","","","","",""
"","","","","","image-keyboard-response","160","494402","0.0-108.0","5fcbe82a12a0c80009d6e9cf","665500ab8938657b03fbdba8","665792d91522714ef7571bc4","294","stimuli/21101002.jpg"," ","","feedback_trial","2","","","","","","","","","","","","","","","","","","","","",""
"","","","","","image-keyboard-response","161","495116","0.0-109.0","5fcbe82a12a0c80009d6e9cf","665500ab8938657b03fbdba8","665792d91522714ef7571bc4","712","stimuli/2000110.jpg","2","","prediction_trial","2","","true","","2","true","true","true","true","true","true","[2]","000","110","1","","","","","","",""
"","","","","","image-keyboard-response","162","495556","0.0-110.0","5fcbe82a12a0c80009d6e9cf","665500ab8938657b03fbdba8","665792d91522714ef7571bc4","439","stimuli/20001102.jpg"," ","","feedback_trial","2","","","","","","","","","","","","","","","","","","","","",""
"","","","","","image-keyboard-response","163","496229","0.0-111.0","5fcbe82a12a0c80009d6e9cf","665500ab8938657b03fbdba8","665792d91522714ef7571bc4","671","stimuli/1010100.jpg","1","","prediction_trial","1","","true","","1","true","true","false","true","false","true","[1]","010","100","1","","","","","","",""
"","","","","","image-keyboard-response","164","496587","0.0-112.0","5fcbe82a12a0c80009d6e9cf","665500ab8938657b03fbdba8","665792d91522714ef7571bc4","357","stimuli/10101001.jpg"," ","","feedback_trial","1","","","","","","","","","","","","","","","","","","","","",""
"","","","","","image-keyboard-response","165","497257","0.0-113.0","5fcbe82a12a0c80009d6e9cf","665500ab8938657b03fbdba8","665792d91522714ef7571bc4","664","stimuli/2001100.jpg","2","","prediction_trial","2","","true","","2","true","true","false","true","false","true","[2]","001","100","1","","","","","","",""
"","","","","","image-keyboard-response","166","497496","0.0-114.0","5fcbe82a12a0c80009d6e9cf","665500ab8938657b03fbdba8","665792d91522714ef7571bc4","238","stimuli/20011002.jpg"," ","","feedback_trial","2","","","","","","","","","","","","","","","","","","","","",""
"","","","","","image-keyboard-response","167","498102","0.0-115.0","5fcbe82a12a0c80009d6e9cf","665500ab8938657b03fbdba8","665792d91522714ef7571bc4","605","stimuli/1000010.jpg","1","","prediction_trial","1","","true","","1","false","true","true","true","false","true","[1]","000","010","1","","","","","","",""
"","","","","","image-keyboard-response","168","498380","0.0-116.0","5fcbe82a12a0c80009d6e9cf","665500ab8938657b03fbdba8","665792d91522714ef7571bc4","277","stimuli/10000101.jpg"," ","","feedback_trial","1","","","","","","","","","","","","","","","","","","","","",""
"","","","","","image-keyboard-response","169","498866","0.0-117.0","5fcbe82a12a0c80009d6e9cf","665500ab8938657b03fbdba8","665792d91522714ef7571bc4","486","stimuli/1101000.jpg","1","","prediction_trial","1","","true","","1","true","true","true","true","true","true","[1]","101","000","1","","","","","","",""
"","","","","","image-keyboard-response","170","499152","0.0-118.0","5fcbe82a12a0c80009d6e9cf","665500ab8938657b03fbdba8","665792d91522714ef7571bc4","284","stimuli/11010001.jpg"," ","","feedback_trial","1","","","","","","","","","","","","","","","","","","","","",""
"","","","","","image-keyboard-response","171","499667","0.0-119.0","5fcbe82a12a0c80009d6e9cf","665500ab8938657b03fbdba8","665792d91522714ef7571bc4","514","stimuli/2011111.jpg","1","","prediction_trial","1","","true","","2","false","false","false","false","false","false","[2,1]","011","111","1","","","","","","",""
"","","","","","image-keyboard-response","172","499982","0.0-120.0","5fcbe82a12a0c80009d6e9cf","665500ab8938657b03fbdba8","665792d91522714ef7571bc4","313","stimuli/20111111.jpg"," ","","feedback_trial","2","","","","","","","","","","","","","","","","","","","","",""
"","","","","","image-keyboard-response","173","500760","0.0-121.0","5fcbe82a12a0c80009d6e9cf","665500ab8938657b03fbdba8","665792d91522714ef7571bc4","776","stimuli/0100100.jpg","0","","prediction_trial","0","","true","","0","false","true","false","true","false","true","[0]","100","100","1","","","","","","",""
"","","","","","image-keyboard-response","174","501010","0.0-122.0","5fcbe82a12a0c80009d6e9cf","665500ab8938657b03fbdba8","665792d91522714ef7571bc4","248","stimuli/01001000.jpg"," ","","feedback_trial","0","","","","","","","","","","","","","","","","","","","","",""
"","","","","","image-keyboard-response","175","501898","0.0-123.0","5fcbe82a12a0c80009d6e9cf","665500ab8938657b03fbdba8","665792d91522714ef7571bc4","887","stimuli/1111111.jpg","1","","prediction_trial","0","","false","","1","false","false","false","false","false","false","[0,2,1]","111","111","0","","","","","","",""
"","","","","","image-keyboard-response","176","502141","0.0-124.0","5fcbe82a12a0c80009d6e9cf","665500ab8938657b03fbdba8","665792d91522714ef7571bc4","241","stimuli/11111110.jpg"," ","","feedback_trial","0","","","","","","","","","","","","","","","","","","","","",""
"","","","","","image-keyboard-response","177","502789","0.0-125.0","5fcbe82a12a0c80009d6e9cf","665500ab8938657b03fbdba8","665792d91522714ef7571bc4","647","stimuli/1000000.jpg","1","","prediction_trial","1","","true","","1","true","true","true","true","true","true","[1]","000","000","1","","","","","","",""
"","","","","","image-keyboard-response","178","502997","0.0-126.0","5fcbe82a12a0c80009d6e9cf","665500ab8938657b03fbdba8","665792d91522714ef7571bc4","206","stimuli/10000001.jpg"," ","","feedback_trial","1","","","","","","","","","","","","","","","","","","","","",""
"","","","","","image-keyboard-response","179","503484","0.0-127.0","5fcbe82a12a0c80009d6e9cf","665500ab8938657b03fbdba8","665792d91522714ef7571bc4","481","stimuli/0111111.jpg","1","","prediction_trial","1","","true","","0","false","false","false","false","false","false","[0,2,1]","111","111","1","","","","","","",""
"","","","","","image-keyboard-response","180","503831","0.0-128.0","5fcbe82a12a0c80009d6e9cf","665500ab8938657b03fbdba8","665792d91522714ef7571bc4","346","stimuli/01111111.jpg"," ","","feedback_trial","0","","","","","","","","","","","","","","","","","","","","",""
"","","","","","image-keyboard-response","181","504389","0.0-129.0","5fcbe82a12a0c80009d6e9cf","665500ab8938657b03fbdba8","665792d91522714ef7571bc4","556","stimuli/2000011.jpg","1","","prediction_trial","2","","false","","2","false","false","true","true","false","false","[2]","000","011","0","","","","","","",""
"","","","","","image-keyboard-response","182","505006","0.0-130.0","5fcbe82a12a0c80009d6e9cf","665500ab8938657b03fbdba8","665792d91522714ef7571bc4","616","stimuli/20000112.jpg"," ","","feedback_trial","2","","","","","","","","","","","","","","","","","","","","",""
"","","","","","image-keyboard-response","183","505496","0.0-131.0","5fcbe82a12a0c80009d6e9cf","665500ab8938657b03fbdba8","665792d91522714ef7571bc4","490","stimuli/2001110.jpg","2","","prediction_trial","2","","true","","2","true","true","false","true","false","true","[2]","001","110","1","","","","","","",""
"","","","","","image-keyboard-response","184","505755","0.0-132.0","5fcbe82a12a0c80009d6e9cf","665500ab8938657b03fbdba8","665792d91522714ef7571bc4","257","stimuli/20011102.jpg"," ","","feedback_trial","2","","","","","","","","","","","","","","","","","","","","",""
"","","","","","image-keyboard-response","185","506570","0.0-133.0","5fcbe82a12a0c80009d6e9cf","665500ab8938657b03fbdba8","665792d91522714ef7571bc4","814","stimuli/1000011.jpg","1","","prediction_trial","1","","true","","1","false","false","true","true","false","false","[1]","000","011","1","","","","","","",""
"","","","","","image-keyboard-response","186","506939","0.0-134.0","5fcbe82a12a0c80009d6e9cf","665500ab8938657b03fbdba8","665792d91522714ef7571bc4","367","stimuli/10000111.jpg"," ","","feedback_trial","1","","","","","","","","","","","","","","","","","","","","",""
"","","","","","image-keyboard-response","187","507441","0.0-135.0","5fcbe82a12a0c80009d6e9cf","665500ab8938657b03fbdba8","665792d91522714ef7571bc4","501","stimuli/0001001.jpg","0","","prediction_trial","0","","true","","0","true","true","true","true","true","true","[0]","001","001","1","","","","","","",""
"","","","","","image-keyboard-response","188","507700","0.0-136.0","5fcbe82a12a0c80009d6e9cf","665500ab8938657b03fbdba8","665792d91522714ef7571bc4","257","stimuli/00010010.jpg"," ","","feedback_trial","0","","","","","","","","","","","","","","","","","","","","",""
"","","","","","image-keyboard-response","189","508226","0.0-137.0","5fcbe82a12a0c80009d6e9cf","665500ab8938657b03fbdba8","665792d91522714ef7571bc4","524","stimuli/1000001.jpg","1","","prediction_trial","1","","true","","1","true","true","true","true","true","true","[1]","000","001","1","","","","","","",""
"","","","","","image-keyboard-response","190","508499","0.0-138.0","5fcbe82a12a0c80009d6e9cf","665500ab8938657b03fbdba8","665792d91522714ef7571bc4","271","stimuli/10000011.jpg"," ","","feedback_trial","1","","","","","","","","","","","","","","","","","","","","",""
"","","","","","image-keyboard-response","191","509165","0.0-139.0","5fcbe82a12a0c80009d6e9cf","665500ab8938657b03fbdba8","665792d91522714ef7571bc4","665","stimuli/0100110.jpg","0","","prediction_trial","0","","true","","0","false","false","false","true","false","false","[0]","100","110","1","","","","","","",""
"","","","","","image-keyboard-response","192","509455","0.0-140.0","5fcbe82a12a0c80009d6e9cf","665500ab8938657b03fbdba8","665792d91522714ef7571bc4","289","stimuli/01001100.jpg"," ","","feedback_trial","0","","","","","","","","","","","","","","","","","","","","",""
"","","","","","image-keyboard-response","193","510094","0.0-141.0","5fcbe82a12a0c80009d6e9cf","665500ab8938657b03fbdba8","665792d91522714ef7571bc4","632","stimuli/0001100.jpg","0","","prediction_trial","0","","true","","0","false","true","true","true","false","true","[0]","001","100","1","","","","","","",""
"","","","","","image-keyboard-response","194","510372","0.0-142.0","5fcbe82a12a0c80009d6e9cf","665500ab8938657b03fbdba8","665792d91522714ef7571bc4","278","stimuli/00011000.jpg"," ","","feedback_trial","0","","","","","","","","","","","","","","","","","","","","",""
"","","","","","image-keyboard-response","195","511007","0.0-143.0","5fcbe82a12a0c80009d6e9cf","665500ab8938657b03fbdba8","665792d91522714ef7571bc4","634","stimuli/1101011.jpg","1","","prediction_trial","1","","true","","1","false","false","true","true","false","false","[1]","101","011","1","","","","","","",""
"","","","","","image-keyboard-response","196","511752","0.0-144.0","5fcbe82a12a0c80009d6e9cf","665500ab8938657b03fbdba8","665792d91522714ef7571bc4","744","stimuli/11010111.jpg"," ","","feedback_trial","1","","","","","","","","","","","","","","","","","","","","",""
"","","","","","image-keyboard-response","197","512444","0.0-145.0","5fcbe82a12a0c80009d6e9cf","665500ab8938657b03fbdba8","665792d91522714ef7571bc4","690","stimuli/1011100.jpg","1","","prediction_trial","2","","false","","1","true","true","false","false","false","false","[2,1]","011","100","0","","","","","","",""
"","","","","","image-keyboard-response","198","512838","0.0-146.0","5fcbe82a12a0c80009d6e9cf","665500ab8938657b03fbdba8","665792d91522714ef7571bc4","393","stimuli/10111002.jpg"," ","","feedback_trial","2","","","","","","","","","","","","","","","","","","","","",""
"","","","","","image-keyboard-response","199","513510","0.0-147.0","5fcbe82a12a0c80009d6e9cf","665500ab8938657b03fbdba8","665792d91522714ef7571bc4","671","stimuli/1101101.jpg","1","","prediction_trial","1","","true","","1","true","true","true","true","true","true","[1]","101","101","1","","","","","","",""
"","","","","","image-keyboard-response","200","513730","0.0-148.0","5fcbe82a12a0c80009d6e9cf","665500ab8938657b03fbdba8","665792d91522714ef7571bc4","214","stimuli/11011011.jpg"," ","","feedback_trial","1","","","","","","","","","","","","","","","","","","","","",""
"","","","","","image-keyboard-response","201","514445","0.0-149.0","5fcbe82a12a0c80009d6e9cf","665500ab8938657b03fbdba8","665792d91522714ef7571bc4","713","stimuli/1110010.jpg","1","","prediction_trial","1","","true","","1","false","true","false","false","false","false","[1,0]","110","010","1","","","","","","",""
"","","","","","image-keyboard-response","202","514682","0.0-150.0","5fcbe82a12a0c80009d6e9cf","665500ab8938657b03fbdba8","665792d91522714ef7571bc4","235","stimuli/11100101.jpg"," ","","feedback_trial","1","","","","","","","","","","","","","","","","","","","","",""
"","","","","","image-keyboard-response","203","515685","0.0-151.0","5fcbe82a12a0c80009d6e9cf","665500ab8938657b03fbdba8","665792d91522714ef7571bc4","1002","stimuli/2101001.jpg","2","","prediction_trial","0","","false","","2","false","true","false","false","false","false","[2,0]","101","001","0","","","","","","",""
"","","","","","image-keyboard-response","204","515979","0.0-152.0","5fcbe82a12a0c80009d6e9cf","665500ab8938657b03fbdba8","665792d91522714ef7571bc4","292","stimuli/21010010.jpg"," ","","feedback_trial","2","","","","","","","","","","","","","","","","","","","","",""
"","","","","","image-keyboard-response","205","516891","0.0-153.0","5fcbe82a12a0c80009d6e9cf","665500ab8938657b03fbdba8","665792d91522714ef7571bc4","910","stimuli/1101111.jpg","2","","prediction_trial","1","","false","","1","false","false","true","true","false","false","[1]","101","111","0","","","","","","",""
"","","","","","image-keyboard-response","206","517162","0.0-154.0","5fcbe82a12a0c80009d6e9cf","665500ab8938657b03fbdba8","665792d91522714ef7571bc4","270","stimuli/11011111.jpg"," ","","feedback_trial","1","","","","","","","","","","","","","","","","","","","","",""
"","","","","","image-keyboard-response","207","517765","0.0-155.0","5fcbe82a12a0c80009d6e9cf","665500ab8938657b03fbdba8","665792d91522714ef7571bc4","594","stimuli/2000000.jpg","2","","prediction_trial","2","","true","","2","true","true","true","true","true","true","[2]","000","000","1","","","","","","",""
"","","","","","image-keyboard-response","208","518039","0.0-156.0","5fcbe82a12a0c80009d6e9cf","665500ab8938657b03fbdba8","665792d91522714ef7571bc4","273","stimuli/20000002.jpg"," ","","feedback_trial","2","","","","","","","","","","","","","","","","","","","","",""
"","","","","","image-keyboard-response","209","518921","0.0-157.0","5fcbe82a12a0c80009d6e9cf","665500ab8938657b03fbdba8","665792d91522714ef7571bc4","881","stimuli/1001011.jpg","2","","prediction_trial","1","","false","","1","false","false","true","true","false","false","[1]","001","011","0","","","","","","",""
"","","","","","image-keyboard-response","210","519226","0.0-158.0","5fcbe82a12a0c80009d6e9cf","665500ab8938657b03fbdba8","665792d91522714ef7571bc4","303","stimuli/10010111.jpg"," ","","feedback_trial","1","","","","","","","","","","","","","","","","","","","","",""
"","","","","","image-keyboard-response","211","519830","0.0-159.0","5fcbe82a12a0c80009d6e9cf","665500ab8938657b03fbdba8","665792d91522714ef7571bc4","603","stimuli/2010010.jpg","2","","prediction_trial","2","","true","","2","true","true","true","true","true","true","[2]","010","010","1","","","","","","",""
"","","","","","image-keyboard-response","212","520073","0.0-160.0","5fcbe82a12a0c80009d6e9cf","665500ab8938657b03fbdba8","665792d91522714ef7571bc4","242","stimuli/20100102.jpg"," ","","feedback_trial","2","","","","","","","","","","","","","","","","","","","","",""
"","","","","","image-keyboard-response","213","520741","0.0-161.0","5fcbe82a12a0c80009d6e9cf","665500ab8938657b03fbdba8","665792d91522714ef7571bc4","666","stimuli/1100001.jpg","1","","prediction_trial","1","","true","","1","true","true","true","true","true","true","[1]","100","001","1","","","","","","",""
"","","","","","image-keyboard-response","214","521011","0.0-162.0","5fcbe82a12a0c80009d6e9cf","665500ab8938657b03fbdba8","665792d91522714ef7571bc4","263","stimuli/11000011.jpg"," ","","feedback_trial","1","","","","","","","","","","","","","","","","","","","","",""
"","","","","","image-keyboard-response","215","521881","0.0-163.0","5fcbe82a12a0c80009d6e9cf","665500ab8938657b03fbdba8","665792d91522714ef7571bc4","869","stimuli/2111010.jpg","2","","prediction_trial","2","","true","","2","true","true","false","false","false","false","[0,1,2]","111","010","1","","","","","","",""
"","","","","","image-keyboard-response","216","522200","0.0-164.0","5fcbe82a12a0c80009d6e9cf","665500ab8938657b03fbdba8","665792d91522714ef7571bc4","318","stimuli/21110102.jpg"," ","","feedback_trial","0","","","","","","","","","","","","","","","","","","","","",""
"","","","","","image-keyboard-response","217","523042","0.0-165.0","5fcbe82a12a0c80009d6e9cf","665500ab8938657b03fbdba8","665792d91522714ef7571bc4","841","stimuli/0110011.jpg","0","","prediction_trial","0","","true","","0","true","true","false","false","false","false","[0,1]","110","011","1","","","","","","",""
"","","","","","image-keyboard-response","218","523314","0.0-166.0","5fcbe82a12a0c80009d6e9cf","665500ab8938657b03fbdba8","665792d91522714ef7571bc4","271","stimuli/01100110.jpg"," ","","feedback_trial","0","","","","","","","","","","","","","","","","","","","","",""
"","","","","","image-keyboard-response","219","524004","0.0-167.0","5fcbe82a12a0c80009d6e9cf","665500ab8938657b03fbdba8","665792d91522714ef7571bc4","688","stimuli/1110011.jpg","0","","prediction_trial","1","","false","","1","false","false","false","false","false","false","[0,1]","110","011","0","","","","","","",""
"","","","","","image-keyboard-response","220","524627","0.0-168.0","5fcbe82a12a0c80009d6e9cf","665500ab8938657b03fbdba8","665792d91522714ef7571bc4","621","stimuli/11100111.jpg"," ","","feedback_trial","0","","","","","","","","","","","","","","","","","","","","",""
"","","","","","image-keyboard-response","221","525317","0.0-169.0","5fcbe82a12a0c80009d6e9cf","665500ab8938657b03fbdba8","665792d91522714ef7571bc4","685","stimuli/0100011.jpg","0","","prediction_trial","0","","true","","0","true","true","false","true","false","true","[0]","100","011","1","","","","","","",""
"","","","","","image-keyboard-response","222","525585","0.0-170.0","5fcbe82a12a0c80009d6e9cf","665500ab8938657b03fbdba8","665792d91522714ef7571bc4","265","stimuli/01000110.jpg"," ","","feedback_trial","0","","","","","","","","","","","","","","","","","","","","",""
"","","","","","image-keyboard-response","223","526552","0.0-171.0","5fcbe82a12a0c80009d6e9cf","665500ab8938657b03fbdba8","665792d91522714ef7571bc4","966","stimuli/2010110.jpg","0","","prediction_trial","2","","false","","2","true","true","true","true","true","true","[2]","010","110","0","","","","","","",""
"","","","","","image-keyboard-response","224","526868","0.0-172.0","5fcbe82a12a0c80009d6e9cf","665500ab8938657b03fbdba8","665792d91522714ef7571bc4","315","stimuli/20101102.jpg"," ","","feedback_trial","2","","","","","","","","","","","","","","","","","","","","",""
"","","","","","image-keyboard-response","225","527439","0.0-173.0","5fcbe82a12a0c80009d6e9cf","665500ab8938657b03fbdba8","665792d91522714ef7571bc4","569","stimuli/2100000.jpg","2","","prediction_trial","2","","true","","2","true","true","true","true","true","true","[2]","100","000","1","","","","","","",""
"","","","","","image-keyboard-response","226","527683","0.0-174.0","5fcbe82a12a0c80009d6e9cf","665500ab8938657b03fbdba8","665792d91522714ef7571bc4","242","stimuli/21000002.jpg"," ","","feedback_trial","2","","","","","","","","","","","","","","","","","","","","",""
"","","","","","image-keyboard-response","227","528392","0.0-175.0","5fcbe82a12a0c80009d6e9cf","665500ab8938657b03fbdba8","665792d91522714ef7571bc4","707","stimuli/1000110.jpg","0","","prediction_trial","1","","false","","1","false","false","true","true","false","false","[1]","000","110","0","","","","","","",""
"","","","","","image-keyboard-response","228","528694","0.0-176.0","5fcbe82a12a0c80009d6e9cf","665500ab8938657b03fbdba8","665792d91522714ef7571bc4","295","stimuli/10001101.jpg"," ","","feedback_trial","1","","","","","","","","","","","","","","","","","","","","",""
"","","","","","image-keyboard-response","229","529375","0.0-177.0","5fcbe82a12a0c80009d6e9cf","665500ab8938657b03fbdba8","665792d91522714ef7571bc4","680","stimuli/1111000.jpg","1","","prediction_trial","2","","false","","1","true","true","false","false","false","false","[1,0,2]","111","000","0","","","","","","",""
"","","","","","image-keyboard-response","230","529683","0.0-178.0","5fcbe82a12a0c80009d6e9cf","665500ab8938657b03fbdba8","665792d91522714ef7571bc4","307","stimuli/11110002.jpg"," ","","feedback_trial","1","","","","","","","","","","","","","","","","","","","","",""
"","","","","","image-keyboard-response","231","530535","0.0-179.0","5fcbe82a12a0c80009d6e9cf","665500ab8938657b03fbdba8","665792d91522714ef7571bc4","850","stimuli/0100000.jpg","0","","prediction_trial","0","","true","","0","true","true","false","true","false","true","[0]","100","000","1","","","","","","",""
"","","","","","image-keyboard-response","232","530818","0.0-180.0","5fcbe82a12a0c80009d6e9cf","665500ab8938657b03fbdba8","665792d91522714ef7571bc4","281","stimuli/01000000.jpg"," ","","feedback_trial","0","","","","","","","","","","","","","","","","","","","","",""
"","","","","","image-keyboard-response","233","531588","0.0-181.0","5fcbe82a12a0c80009d6e9cf","665500ab8938657b03fbdba8","665792d91522714ef7571bc4","769","stimuli/0111010.jpg","0","","prediction_trial","2","","false","","0","true","true","false","false","false","false","[0,1,2]","111","010","0","","","","","","",""
"","","","","","image-keyboard-response","234","531907","0.0-182.0","5fcbe82a12a0c80009d6e9cf","665500ab8938657b03fbdba8","665792d91522714ef7571bc4","318","stimuli/01110102.jpg"," ","","feedback_trial","0","","","","","","","","","","","","","","","","","","","","",""
"","","","","","image-keyboard-response","235","532648","0.0-183.0","5fcbe82a12a0c80009d6e9cf","665500ab8938657b03fbdba8","665792d91522714ef7571bc4","734","stimuli/1001111.jpg","2","","prediction_trial","1","","false","","1","false","false","true","true","false","false","[1]","001","111","0","","","","","","",""
"","","","","","image-keyboard-response","236","533361","0.0-184.0","5fcbe82a12a0c80009d6e9cf","665500ab8938657b03fbdba8","665792d91522714ef7571bc4","712","stimuli/10011111.jpg"," ","","feedback_trial","1","","","","","","","","","","","","","","","","","","","","",""
"","","","","","image-keyboard-response","237","533917","0.0-185.0","5fcbe82a12a0c80009d6e9cf","665500ab8938657b03fbdba8","665792d91522714ef7571bc4","554","stimuli/2111110.jpg","1","","prediction_trial","0","","false","","2","true","true","false","false","false","false","[0,1,2]","111","110","0","","","","","","",""
"","","","","","image-keyboard-response","238","534527","0.0-186.0","5fcbe82a12a0c80009d6e9cf","665500ab8938657b03fbdba8","665792d91522714ef7571bc4","609","stimuli/21111100.jpg"," ","","feedback_trial","0","","","","","","","","","","","","","","","","","","","","",""
"","","","","","image-keyboard-response","239","534933","0.0-187.0","5fcbe82a12a0c80009d6e9cf","665500ab8938657b03fbdba8","665792d91522714ef7571bc4","405","stimuli/2111011.jpg","0","","prediction_trial","0","","true","","2","false","false","false","false","false","false","[1,0,2]","111","011","1","","","","","","",""
"","","","","","image-keyboard-response","240","535326","0.0-188.0","5fcbe82a12a0c80009d6e9cf","665500ab8938657b03fbdba8","665792d91522714ef7571bc4","392","stimuli/21110110.jpg"," ","","feedback_trial","1","","","","","","","","","","","","","","","","","","","","",""
"","","","","","image-keyboard-response","241","535898","0.0-189.0","5fcbe82a12a0c80009d6e9cf","665500ab8938657b03fbdba8","665792d91522714ef7571bc4","571","stimuli/1010000.jpg","1","","prediction_trial","1","","true","","1","true","true","false","true","false","true","[1]","010","000","1","","","","","","",""
"","","","","","image-keyboard-response","242","536234","0.0-190.0","5fcbe82a12a0c80009d6e9cf","665500ab8938657b03fbdba8","665792d91522714ef7571bc4","334","stimuli/10100001.jpg"," ","","feedback_trial","1","","","","","","","","","","","","","","","","","","","","",""
"","","","","","image-keyboard-response","243","536734","0.0-191.0","5fcbe82a12a0c80009d6e9cf","665500ab8938657b03fbdba8","665792d91522714ef7571bc4","498","stimuli/1011000.jpg","1","","prediction_trial","1","","true","","1","true","true","false","false","false","false","[1,2]","011","000","1","","","","","","",""
"","","","","","image-keyboard-response","244","537092","0.0-192.0","5fcbe82a12a0c80009d6e9cf","665500ab8938657b03fbdba8","665792d91522714ef7571bc4","356","stimuli/10110001.jpg"," ","","feedback_trial","1","","","","","","","","","","","","","","","","","","","","",""
"","","","","","image-keyboard-response","245","537545","0.0-193.0","5fcbe82a12a0c80009d6e9cf","665500ab8938657b03fbdba8","665792d91522714ef7571bc4","452","stimuli/1101100.jpg","1","","prediction_trial","1","","true","","1","true","true","true","true","true","true","[1]","101","100","1","","","","","","",""
"","","","","","image-keyboard-response","246","537851","0.0-194.0","5fcbe82a12a0c80009d6e9cf","665500ab8938657b03fbdba8","665792d91522714ef7571bc4","304","stimuli/11011001.jpg"," ","","feedback_trial","1","","","","","","","","","","","","","","","","","","","","",""
"","","","","","image-keyboard-response","247","538439","0.0-195.0","5fcbe82a12a0c80009d6e9cf","665500ab8938657b03fbdba8","665792d91522714ef7571bc4","587","stimuli/0111100.jpg","0","","prediction_trial","1","","false","","0","false","true","false","false","false","false","[2,0,1]","111","100","0","","","","","","",""
"","","","","","image-keyboard-response","248","538835","0.0-196.0","5fcbe82a12a0c80009d6e9cf","665500ab8938657b03fbdba8","665792d91522714ef7571bc4","394","stimuli/01111001.jpg"," ","","feedback_trial","2","","","","","","","","","","","","","","","","","","","","",""
"","","","","","image-keyboard-response","249","539328","0.0-197.0","5fcbe82a12a0c80009d6e9cf","665500ab8938657b03fbdba8","665792d91522714ef7571bc4","491","stimuli/1100010.jpg","1","","prediction_trial","1","","true","","1","false","true","true","true","false","true","[1]","100","010","1","","","","","","",""
"","","","","","image-keyboard-response","250","539756","0.0-198.0","5fcbe82a12a0c80009d6e9cf","665500ab8938657b03fbdba8","665792d91522714ef7571bc4","426","stimuli/11000101.jpg"," ","","feedback_trial","1","","","","","","","","","","","","","","","","","","","","",""
"","","","","","image-keyboard-response","251","540485","0.0-199.0","5fcbe82a12a0c80009d6e9cf","665500ab8938657b03fbdba8","665792d91522714ef7571bc4","727","stimuli/0000100.jpg","0","","prediction_trial","0","","true","","0","false","true","true","true","false","true","[0]","000","100","1","","","","","","",""
"","","","","","image-keyboard-response","252","540857","0.0-200.0","5fcbe82a12a0c80009d6e9cf","665500ab8938657b03fbdba8","665792d91522714ef7571bc4","370","stimuli/00001000.jpg"," ","","feedback_trial","0","","","","","","","","","","","","","","","","","","","","",""
"","","","","","image-keyboard-response","253","542044","0.0-201.0","5fcbe82a12a0c80009d6e9cf","665500ab8938657b03fbdba8","665792d91522714ef7571bc4","1186","stimuli/2000101.jpg","0","","prediction_trial","2","","false","","2","false","false","true","true","false","false","[2]","000","101","0","","","","","","",""
"","","","","","image-keyboard-response","254","542386","0.0-202.0","5fcbe82a12a0c80009d6e9cf","665500ab8938657b03fbdba8","665792d91522714ef7571bc4","341","stimuli/20001012.jpg"," ","","feedback_trial","2","","","","","","","","","","","","","","","","","","","","",""
"","","","","","image-keyboard-response","255","543063","0.0-203.0","5fcbe82a12a0c80009d6e9cf","665500ab8938657b03fbdba8","665792d91522714ef7571bc4","676","stimuli/0111110.jpg","1","","prediction_trial","0","","false","","0","false","false","false","false","false","false","[0,1,2]","111","110","0","","","","","","",""
"","","","","","image-keyboard-response","256","543406","0.0-204.0","5fcbe82a12a0c80009d6e9cf","665500ab8938657b03fbdba8","665792d91522714ef7571bc4","336","stimuli/01111100.jpg"," ","","feedback_trial","0","","","","","","","","","","","","","","","","","","","","",""
"","","","","","image-keyboard-response","257","543918","0.0-205.0","5fcbe82a12a0c80009d6e9cf","665500ab8938657b03fbdba8","665792d91522714ef7571bc4","510","stimuli/2100111.jpg","2","","prediction_trial","2","","true","","2","false","false","true","true","false","false","[2]","100","111","1","","","","","","",""
"","","","","","image-keyboard-response","258","544247","0.0-206.0","5fcbe82a12a0c80009d6e9cf","665500ab8938657b03fbdba8","665792d91522714ef7571bc4","328","stimuli/21001112.jpg"," ","","feedback_trial","2","","","","","","","","","","","","","","","","","","","","",""
"","","","","","image-keyboard-response","259","544738","0.0-207.0","5fcbe82a12a0c80009d6e9cf","665500ab8938657b03fbdba8","665792d91522714ef7571bc4","489","stimuli/0000111.jpg","0","","prediction_trial","0","","true","","0","false","false","true","true","false","false","[0]","000","111","1","","","","","","",""
"","","","","","image-keyboard-response","260","545091","0.0-208.0","5fcbe82a12a0c80009d6e9cf","665500ab8938657b03fbdba8","665792d91522714ef7571bc4","352","stimuli/00001110.jpg"," ","","feedback_trial","0","","","","","","","","","","","","","","","","","","","","",""
"","","","","","image-keyboard-response","261","545620","0.0-209.0","5fcbe82a12a0c80009d6e9cf","665500ab8938657b03fbdba8","665792d91522714ef7571bc4","528","stimuli/0111001.jpg","0","","prediction_trial","0","","true","","0","true","true","false","false","false","false","[0,1,2]","111","001","1","","","","","","",""
"","","","","","image-keyboard-response","262","545958","0.0-210.0","5fcbe82a12a0c80009d6e9cf","665500ab8938657b03fbdba8","665792d91522714ef7571bc4","337","stimuli/01110010.jpg"," ","","feedback_trial","0","","","","","","","","","","","","","","","","","","","","",""
"","","","","","image-keyboard-response","263","546539","0.0-211.0","5fcbe82a12a0c80009d6e9cf","665500ab8938657b03fbdba8","665792d91522714ef7571bc4","576","stimuli/0000011.jpg","0","","prediction_trial","0","","true","","0","true","true","true","true","true","true","[0]","000","011","1","","","","","","",""
"","","","","","image-keyboard-response","264","546854","0.0-212.0","5fcbe82a12a0c80009d6e9cf","665500ab8938657b03fbdba8","665792d91522714ef7571bc4","314","stimuli/00000110.jpg"," ","","feedback_trial","0","","","","","","","","","","","","","","","","","","","","",""
"","","","","","image-keyboard-response","265","547457","0.0-213.0","5fcbe82a12a0c80009d6e9cf","665500ab8938657b03fbdba8","665792d91522714ef7571bc4","602","stimuli/2011000.jpg","2","","prediction_trial","1","","false","","2","true","true","false","false","false","false","[2,1]","011","000","0","","","","","","",""
"","","","","","image-keyboard-response","266","547791","0.0-214.0","5fcbe82a12a0c80009d6e9cf","665500ab8938657b03fbdba8","665792d91522714ef7571bc4","332","stimuli/20110001.jpg"," ","","feedback_trial","2","","","","","","","","","","","","","","","","","","","","",""
"","","","","","image-keyboard-response","267","548278","0.0-215.0","5fcbe82a12a0c80009d6e9cf","665500ab8938657b03fbdba8","665792d91522714ef7571bc4","486","stimuli/0011101.jpg","2","","prediction_trial","0","","false","","0","false","false","true","true","false","false","[0]","011","101","0","","","","","","",""
"","","","","","image-keyboard-response","268","548634","0.0-216.0","5fcbe82a12a0c80009d6e9cf","665500ab8938657b03fbdba8","665792d91522714ef7571bc4","355","stimuli/00111010.jpg"," ","","feedback_trial","0","","","","","","","","","","","","","","","","","","","","",""
"","","","","","image-keyboard-response","269","549492","0.0-217.0","5fcbe82a12a0c80009d6e9cf","665500ab8938657b03fbdba8","665792d91522714ef7571bc4","857","stimuli/1110101.jpg","2","","prediction_trial","1","","false","","1","true","true","false","false","false","false","[0,1]","110","101","0","","","","","","",""
"","","","","","image-keyboard-response","270","549863","0.0-218.0","5fcbe82a12a0c80009d6e9cf","665500ab8938657b03fbdba8","665792d91522714ef7571bc4","365","stimuli/11101011.jpg"," ","","feedback_trial","0","","","","","","","","","","","","","","","","","","","","",""
"","","","","","image-keyboard-response","271","550274","0.0-219.0","5fcbe82a12a0c80009d6e9cf","665500ab8938657b03fbdba8","665792d91522714ef7571bc4","410","stimuli/0001101.jpg","2","","prediction_trial","0","","false","","0","false","false","true","true","false","false","[0]","001","101","0","","","","","","",""
"","","","","","image-keyboard-response","272","550605","0.0-220.0","5fcbe82a12a0c80009d6e9cf","665500ab8938657b03fbdba8","665792d91522714ef7571bc4","330","stimuli/00011010.jpg"," ","","feedback_trial","0","","","","","","","","","","","","","","","","","","","","",""
"","","","","","image-keyboard-response","273","551007","0.0-221.0","5fcbe82a12a0c80009d6e9cf","665500ab8938657b03fbdba8","665792d91522714ef7571bc4","400","stimuli/0010101.jpg","1","","prediction_trial","0","","false","","0","false","false","true","true","false","false","[0]","010","101","0","","","","","","",""
"","","","","","image-keyboard-response","274","551720","0.0-222.0","5fcbe82a12a0c80009d6e9cf","665500ab8938657b03fbdba8","665792d91522714ef7571bc4","711","stimuli/00101010.jpg"," ","","feedback_trial","0","","","","","","","","","","","","","","","","","","","","",""
"","","","","","image-keyboard-response","275","552286","0.0-223.0","5fcbe82a12a0c80009d6e9cf","665500ab8938657b03fbdba8","665792d91522714ef7571bc4","565","stimuli/2111100.jpg","2","","prediction_trial","0","","false","","2","true","true","false","false","false","false","[0,1,2]","111","100","0","","","","","","",""
"","","","","","image-keyboard-response","276","552563","0.0-224.0","5fcbe82a12a0c80009d6e9cf","665500ab8938657b03fbdba8","665792d91522714ef7571bc4","276","stimuli/21111000.jpg"," ","","feedback_trial","0","","","","","","","","","","","","","","","","","","","","",""
"","","","","","image-keyboard-response","277","553091","0.0-225.0","5fcbe82a12a0c80009d6e9cf","665500ab8938657b03fbdba8","665792d91522714ef7571bc4","520","stimuli/2010111.jpg","2","","prediction_trial","2","","true","","2","false","false","true","true","false","false","[2]","010","111","1","","","","","","",""
"","","","","","image-keyboard-response","278","553516","0.0-226.0","5fcbe82a12a0c80009d6e9cf","665500ab8938657b03fbdba8","665792d91522714ef7571bc4","423","stimuli/20101112.jpg"," ","","feedback_trial","2","","","","","","","","","","","","","","","","","","","","",""
"","","","","","image-keyboard-response","279","554097","0.0-227.0","5fcbe82a12a0c80009d6e9cf","665500ab8938657b03fbdba8","665792d91522714ef7571bc4","580","stimuli/1111101.jpg","1","","prediction_trial","1","","true","","1","true","true","false","false","false","false","[1,0,2]","111","101","1","","","","","","",""
"","","","","","image-keyboard-response","280","554386","0.0-228.0","5fcbe82a12a0c80009d6e9cf","665500ab8938657b03fbdba8","665792d91522714ef7571bc4","288","stimuli/11111011.jpg"," ","","feedback_trial","1","","","","","","","","","","","","","","","","","","","","",""
"","","","","","image-keyboard-response","281","554816","0.0-229.0","5fcbe82a12a0c80009d6e9cf","665500ab8938657b03fbdba8","665792d91522714ef7571bc4","428","stimuli/1100110.jpg","1","","prediction_trial","1","","true","","1","false","false","true","true","false","false","[1]","100","110","1","","","","","","",""
"","","","","","image-keyboard-response","282","555233","0.0-230.0","5fcbe82a12a0c80009d6e9cf","665500ab8938657b03fbdba8","665792d91522714ef7571bc4","415","stimuli/11001101.jpg"," ","","feedback_trial","1","","","","","","","","","","","","","","","","","","","","",""
"","","","","","image-keyboard-response","283","555705","0.0-231.0","5fcbe82a12a0c80009d6e9cf","665500ab8938657b03fbdba8","665792d91522714ef7571bc4","471","stimuli/2111101.jpg","1","","prediction_trial","0","","false","","2","false","false","false","false","false","false","[2,1,0]","111","101","0","","","","","","",""
"","","","","","image-keyboard-response","284","556335","0.0-232.0","5fcbe82a12a0c80009d6e9cf","665500ab8938657b03fbdba8","665792d91522714ef7571bc4","628","stimuli/21111010.jpg"," ","","feedback_trial","2","","","","","","","","","","","","","","","","","","","","",""
"","","","","","image-keyboard-response","285","557172","0.0-233.0","5fcbe82a12a0c80009d6e9cf","665500ab8938657b03fbdba8","665792d91522714ef7571bc4","836","stimuli/1100000.jpg","0","","prediction_trial","1","","false","","1","true","true","true","true","true","true","[1]","100","000","0","","","","","","",""
"","","","","","image-keyboard-response","286","557523","0.0-234.0","5fcbe82a12a0c80009d6e9cf","665500ab8938657b03fbdba8","665792d91522714ef7571bc4","350","stimuli/11000001.jpg"," ","","feedback_trial","1","","","","","","","","","","","","","","","","","","","","",""
"","","","","","image-keyboard-response","287","557984","0.0-235.0","5fcbe82a12a0c80009d6e9cf","665500ab8938657b03fbdba8","665792d91522714ef7571bc4","460","stimuli/1110111.jpg","1","","prediction_trial","0","","false","","1","false","false","false","false","false","false","[0,1]","110","111","0","","","","","","",""
"","","","","","image-keyboard-response","288","558383","0.0-236.0","5fcbe82a12a0c80009d6e9cf","665500ab8938657b03fbdba8","665792d91522714ef7571bc4","398","stimuli/11101110.jpg"," ","","feedback_trial","0","","","","","","","","","","","","","","","","","","","","",""
"","","","","","image-keyboard-response","289","558922","0.0-237.0","5fcbe82a12a0c80009d6e9cf","665500ab8938657b03fbdba8","665792d91522714ef7571bc4","537","stimuli/2100101.jpg","1","","prediction_trial","2","","false","","2","false","false","true","true","false","false","[2]","100","101","0","","","","","","",""
"","","","","","image-keyboard-response","290","559577","0.0-238.0","5fcbe82a12a0c80009d6e9cf","665500ab8938657b03fbdba8","665792d91522714ef7571bc4","653","stimuli/21001012.jpg"," ","","feedback_trial","2","","","","","","","","","","","","","","","","","","","","",""
"","","","","","image-keyboard-response","291","560287","0.0-239.0","5fcbe82a12a0c80009d6e9cf","665500ab8938657b03fbdba8","665792d91522714ef7571bc4","703","stimuli/2110110.jpg","2","","prediction_trial","2","","true","","2","true","true","true","true","true","true","[2]","110","110","1","","","","","","",""
"","","","","","image-keyboard-response","292","560620","0.0-240.0","5fcbe82a12a0c80009d6e9cf","665500ab8938657b03fbdba8","665792d91522714ef7571bc4","331","stimuli/21101102.jpg"," ","","feedback_trial","2","","","","","","","","","","","","","","","","","","","","",""
"","","","","","image-keyboard-response","293","561200","0.0-241.0","5fcbe82a12a0c80009d6e9cf","665500ab8938657b03fbdba8","665792d91522714ef7571bc4","580","stimuli/2011010.jpg","2","","prediction_trial","2","","true","","2","true","true","false","false","false","false","[2,1]","011","010","1","","","","","","",""
"","","","","","image-keyboard-response","294","561523","0.0-242.0","5fcbe82a12a0c80009d6e9cf","665500ab8938657b03fbdba8","665792d91522714ef7571bc4","321","stimuli/20110102.jpg"," ","","feedback_trial","2","","","","","","","","","","","","","","","","","","","","",""
"","","","","","image-keyboard-response","295","562048","0.0-243.0","5fcbe82a12a0c80009d6e9cf","665500ab8938657b03fbdba8","665792d91522714ef7571bc4","524","stimuli/0001010.jpg","0","","prediction_trial","0","","true","","0","true","true","true","true","true","true","[0]","001","010","1","","","","","","",""
"","","","","","image-keyboard-response","296","562334","0.0-244.0","5fcbe82a12a0c80009d6e9cf","665500ab8938657b03fbdba8","665792d91522714ef7571bc4","285","stimuli/00010100.jpg"," ","","feedback_trial","0","","","","","","","","","","","","","","","","","","","","",""
"","","","","","image-keyboard-response","297","562983","0.0-245.0","5fcbe82a12a0c80009d6e9cf","665500ab8938657b03fbdba8","665792d91522714ef7571bc4","649","stimuli/1011101.jpg","1","","prediction_trial","1","","true","","1","true","true","false","false","false","false","[1,2]","011","101","1","","","","","","",""
"","","","","","image-keyboard-response","298","563382","0.0-246.0","5fcbe82a12a0c80009d6e9cf","665500ab8938657b03fbdba8","665792d91522714ef7571bc4","397","stimuli/10111011.jpg"," ","","feedback_trial","1","","","","","","","","","","","","","","","","","","","","",""
"","","","","","image-keyboard-response","299","563974","0.0-247.0","5fcbe82a12a0c80009d6e9cf","665500ab8938657b03fbdba8","665792d91522714ef7571bc4","589","stimuli/2010101.jpg","1","","prediction_trial","2","","false","","2","false","false","true","true","false","false","[2]","010","101","0","","","","","","",""
"","","","","","image-keyboard-response","300","564492","0.0-248.0","5fcbe82a12a0c80009d6e9cf","665500ab8938657b03fbdba8","665792d91522714ef7571bc4","517","stimuli/20101012.jpg"," ","","feedback_trial","2","","","","","","","","","","","","","","","","","","","","",""
"","","","","","image-keyboard-response","301","564993","0.0-249.0","5fcbe82a12a0c80009d6e9cf","665500ab8938657b03fbdba8","665792d91522714ef7571bc4","499","stimuli/2100011.jpg","0","","prediction_trial","2","","false","","2","false","false","true","true","false","false","[2]","100","011","0","","","","","","",""
"","","","","","image-keyboard-response","302","565434","0.0-250.0","5fcbe82a12a0c80009d6e9cf","665500ab8938657b03fbdba8","665792d91522714ef7571bc4","439","stimuli/21000112.jpg"," ","","feedback_trial","2","","","","","","","","","","","","","","","","","","","","",""
"","","","","","image-keyboard-response","303","565945","0.0-251.0","5fcbe82a12a0c80009d6e9cf","665500ab8938657b03fbdba8","665792d91522714ef7571bc4","511","stimuli/0001000.jpg","1","","prediction_trial","0","","false","","0","true","true","true","true","true","true","[0]","001","000","0","","","","","","",""
"","","","","","image-keyboard-response","304","566429","0.0-252.0","5fcbe82a12a0c80009d6e9cf","665500ab8938657b03fbdba8","665792d91522714ef7571bc4","482","stimuli/00010000.jpg"," ","","feedback_trial","0","","","","","","","","","","","","","","","","","","","","",""
"","","","","","image-keyboard-response","305","566919","0.0-253.0","5fcbe82a12a0c80009d6e9cf","665500ab8938657b03fbdba8","665792d91522714ef7571bc4","485","stimuli/1100100.jpg","1","","prediction_trial","1","","true","","1","true","true","true","true","true","true","[1]","100","100","1","","","","","","",""
"","","","","","image-keyboard-response","306","567300","0.0-254.0","5fcbe82a12a0c80009d6e9cf","665500ab8938657b03fbdba8","665792d91522714ef7571bc4","379","stimuli/11001001.jpg"," ","","feedback_trial","1","","","","","","","","","","","","","","","","","","","","",""
"","","","","","image-keyboard-response","307","567612","0.0-255.0","5fcbe82a12a0c80009d6e9cf","665500ab8938657b03fbdba8","665792d91522714ef7571bc4","311","stimuli/2011100.jpg","1","","prediction_trial","1","","true","","2","true","true","false","false","false","false","[2,1]","011","100","1","","","","","","",""
"","","","","","image-keyboard-response","308","568129","0.0-256.0","5fcbe82a12a0c80009d6e9cf","665500ab8938657b03fbdba8","665792d91522714ef7571bc4","515","stimuli/20111001.jpg"," ","","feedback_trial","2","","","","","","","","","","","","","","","","","","","","",""
"","","","","","image-keyboard-response","309","568610","0.0-257.0","5fcbe82a12a0c80009d6e9cf","665500ab8938657b03fbdba8","665792d91522714ef7571bc4","480","stimuli/2101101.jpg","1","","prediction_trial","0","","false","","2","false","false","false","false","false","false","[2,0]","101","101","0","","","","","","",""
