"success","timeout","failed_images","failed_audio","failed_video","trial_type","trial_index","time_elapsed","internal_node_id","prolific_id","prolific_study_id","prolific_session_id","rt","stimulus","response","view_history","trial","character_choice","stimulus_dict","accuracy","correct_response","ball_pos","ego_ball_visible","ego_can_infer","alter_ball_visible","alter_can_infer","collective_ball_visible","collective_can_infer","search_locations","alter_occluders","ego_occluders","accuracy_bool","feedback","age","ethnicity","gender","race","overall_accuracy","bonus"
"true","false","[]","[]","[]","preload","0","2322","0.0-0.0","62865e3456c142785cfad2a7","665500ab8938657b03fbdba8","665792a3ff0ff4d2fa1486df","","","","","","","","","","","","","","","","","","","","","","","","","","",""
"true","","","","","fullscreen","1","9037","0.0-1.0","62865e3456c142785cfad2a7","665500ab8938657b03fbdba8","665792a3ff0ff4d2fa1486df","","","","","","","","","","","","","","","","","","","","","","","","","","",""
"","","","","","html-button-response","2","35161","0.0-2.0","62865e3456c142785cfad2a7","665500ab8938657b03fbdba8","665792a3ff0ff4d2fa1486df","26122","<p><b>Consent Form</b></p> <div style=""text-align:left;background-color:lightgrey; padding:20px; max-width:900px;""><p>Please consider this information carefully before deciding whether to participate in this research.</p> <p>The purpose of this research is to examine which factors influence social judgment and decision-making. You will be asked to make judgements about individuals and actions in social scenarios. We are simply interested in your judgement. The study will take less than 1 hour to complete, and you will receive less than $20 on Prolific. Your compensation and time commitment are specified in the study description. There are no anticipated risks associated with participating in this study. The effects of participating should be comparable to those you would ordinarily experience from viewing a computer monitor and using a mouse or keyboard for a similar amount of time. At the end of the study, we will provide an explanation of the questions that motivate this line of research and will describe the potential implications. </p><p> Your participation in this study is completely voluntary and you may refuse to participate or you may choose to withdraw at any time without penalty or loss of benefits to you which are otherwise entitled. Your participation in this study will remain confidential. No personally identifiable information will be associated with your data. Also, all analyses of the data will be averaged across all the participants, so your individual responses will never be specifically analyzed. </p><p> If you have questions or concerns about your participation or payment, or want to request a summary of research findings, please contact Dr. Jonathan Phillips at Jonathan.S.Phillips@dartmouth.edu. </p><p> Please save a copy of this form for your records. </p><p><b>Agreement: </b>The nature and purpose of this research have been sufficiently explained and I agree to participate in this study. I understand that I am free to withdraw at any time without incurring any penalty. Please consent by clicking the button below to continue. Otherwise, please exit the study at any time. </p>","0","","","","","","","","","","","","","","","","","","","","","","","",""
"","","","","","instructions","3","100945","0.0-3.0-0.0","62865e3456c142785cfad2a7","665500ab8938657b03fbdba8","665792a3ff0ff4d2fa1486df","65783","","","[{""page_index"":0,""viewing_time"":3278},{""page_index"":1,""viewing_time"":4160},{""page_index"":2,""viewing_time"":3632},{""page_index"":3,""viewing_time"":6760},{""page_index"":4,""viewing_time"":3647},{""page_index"":5,""viewing_time"":3513},{""page_index"":6,""viewing_time"":3544},{""page_index"":7,""viewing_time"":4328},{""page_index"":8,""viewing_time"":5345},{""page_index"":9,""viewing_time"":2399},{""page_index"":10,""viewing_time"":10912},{""page_index"":11,""viewing_time"":7728},{""page_index"":12,""viewing_time"":5240},{""page_index"":13,""viewing_time"":1296}]","intro","","","","","","","","","","","","","","","","","","","","","",""
"","","","","","image-keyboard-response","4","103803","0.0-3.0-1.0","62865e3456c142785cfad2a7","665500ab8938657b03fbdba8","665792a3ff0ff4d2fa1486df","2852","stimuli/2110100.jpg","2","","prediction_practice","2","{""filepath"":""stimuli/2110100.jpg"",""ball_pos"":2,""ego_ball_visible"":true,""ego_can_infer"":true,""alter_ball_visible"":true,""alter_can_infer"":true,""collective_ball_visible"":true,""collective_can_infer"":true,""search_locations"":[2],""alter_occluders"":""110"",""ego_occluders"":""100""}","true","","","","","","","","","","","","","","","","","","",""
"","","","","","image-keyboard-response","5","105146","0.0-3.0-2.0","62865e3456c142785cfad2a7","665500ab8938657b03fbdba8","665792a3ff0ff4d2fa1486df","1338","stimuli/21101002.jpg"," ","","practrice_feedback","2","","","","","","","","","","","","","","","","","","","","",""
"","","","","","image-keyboard-response","6","106314","0.0-3.0-3.0","62865e3456c142785cfad2a7","665500ab8938657b03fbdba8","665792a3ff0ff4d2fa1486df","1160","stimuli/0111010.jpg","0","","prediction_practice","1","{""filepath"":""stimuli/0111010.jpg"",""ball_pos"":0,""ego_ball_visible"":true,""ego_can_infer"":true,""alter_ball_visible"":false,""alter_can_infer"":false,""collective_ball_visible"":false,""collective_can_infer"":false,""search_locations"":[1,2,0],""alter_occluders"":""111"",""ego_occluders"":""010""}","false","","","","","","","","","","","","","","","","","","",""
"","","","","","image-keyboard-response","7","107875","0.0-3.0-4.0","62865e3456c142785cfad2a7","665500ab8938657b03fbdba8","665792a3ff0ff4d2fa1486df","1554","stimuli/01110101.jpg"," ","","practrice_feedback","1","","","","","","","","","","","","","","","","","","","","",""
"","","","","","image-keyboard-response","8","109930","0.0-3.0-5.0","62865e3456c142785cfad2a7","665500ab8938657b03fbdba8","665792a3ff0ff4d2fa1486df","2050","stimuli/2000111.jpg","1","","prediction_practice","2","{""filepath"":""stimuli/2000111.jpg"",""ball_pos"":2,""ego_ball_visible"":false,""ego_can_infer"":false,""alter_ball_visible"":true,""alter_can_infer"":true,""collective_ball_visible"":false,""collective_can_infer"":false,""search_locations"":[2],""alter_occluders"":""000"",""ego_occluders"":""111""}","false","","","","","","","","","","","","","","","","","","",""
"","","","","","image-keyboard-response","9","111522","0.0-3.0-6.0","62865e3456c142785cfad2a7","665500ab8938657b03fbdba8","665792a3ff0ff4d2fa1486df","1587","stimuli/20001112.jpg"," ","","practrice_feedback","2","","","","","","","","","","","","","","","","","","","","",""
"","","","","","image-keyboard-response","10","112986","0.0-3.0-7.0","62865e3456c142785cfad2a7","665500ab8938657b03fbdba8","665792a3ff0ff4d2fa1486df","1461","stimuli/1111000.jpg","1","","prediction_practice","1","{""filepath"":""stimuli/1111000.jpg"",""ball_pos"":1,""ego_ball_visible"":true,""ego_can_infer"":true,""alter_ball_visible"":false,""alter_can_infer"":false,""collective_ball_visible"":false,""collective_can_infer"":false,""search_locations"":[0,1,2],""alter_occluders"":""111"",""ego_occluders"":""000""}","true","","","","","","","","","","","","","","","","","","",""
"","","","","","image-keyboard-response","11","114482","0.0-3.0-8.0","62865e3456c142785cfad2a7","665500ab8938657b03fbdba8","665792a3ff0ff4d2fa1486df","1490","stimuli/11110001.jpg"," ","","practrice_feedback","0","","","","","","","","","","","","","","","","","","","","",""
"","","","","","image-keyboard-response","12","115890","0.0-3.0-9.0","62865e3456c142785cfad2a7","665500ab8938657b03fbdba8","665792a3ff0ff4d2fa1486df","1402","stimuli/2111011.jpg","2","","prediction_practice","0","{""filepath"":""stimuli/2111011.jpg"",""ball_pos"":2,""ego_ball_visible"":false,""ego_can_infer"":false,""alter_ball_visible"":false,""alter_can_infer"":false,""collective_ball_visible"":false,""collective_can_infer"":false,""search_locations"":[2,0,1],""alter_occluders"":""111"",""ego_occluders"":""011""}","false","","","","","","","","","","","","","","","","","","",""
"","","","","","image-keyboard-response","13","117249","0.0-3.0-10.0","62865e3456c142785cfad2a7","665500ab8938657b03fbdba8","665792a3ff0ff4d2fa1486df","1353","stimuli/21110110.jpg"," ","","practrice_feedback","2","","","","","","","","","","","","","","","","","","","","",""
"","","","","","image-keyboard-response","14","120602","0.0-3.0-11.0","62865e3456c142785cfad2a7","665500ab8938657b03fbdba8","665792a3ff0ff4d2fa1486df","3348","stimuli/0010110.jpg","1","","prediction_practice","0","{""filepath"":""stimuli/0010110.jpg"",""ball_pos"":0,""ego_ball_visible"":false,""ego_can_infer"":false,""alter_ball_visible"":true,""alter_can_infer"":true,""collective_ball_visible"":false,""collective_can_infer"":false,""search_locations"":[0],""alter_occluders"":""010"",""ego_occluders"":""110""}","false","","","","","","","","","","","","","","","","","","",""
"","","","","","image-keyboard-response","15","121922","0.0-3.0-12.0","62865e3456c142785cfad2a7","665500ab8938657b03fbdba8","665792a3ff0ff4d2fa1486df","1314","stimuli/00101100.jpg"," ","","practrice_feedback","0","","","","","","","","","","","","","","","","","","","","",""
"","","","","","image-keyboard-response","16","124466","0.0-3.0-13.0","62865e3456c142785cfad2a7","665500ab8938657b03fbdba8","665792a3ff0ff4d2fa1486df","2539","stimuli/2010001.jpg","2","","prediction_practice","2","{""filepath"":""stimuli/2010001.jpg"",""ball_pos"":2,""ego_ball_visible"":false,""ego_can_infer"":true,""alter_ball_visible"":true,""alter_can_infer"":true,""collective_ball_visible"":false,""collective_can_infer"":true,""search_locations"":[2],""alter_occluders"":""010"",""ego_occluders"":""001""}","true","","","","","","","","","","","","","","","","","","",""
"","","","","","image-keyboard-response","17","125466","0.0-3.0-14.0","62865e3456c142785cfad2a7","665500ab8938657b03fbdba8","665792a3ff0ff4d2fa1486df","989","stimuli/20100012.jpg"," ","","practrice_feedback","2","","","","","","","","","","","","","","","","","","","","",""
"","","","","","image-keyboard-response","18","126779","0.0-3.0-15.0","62865e3456c142785cfad2a7","665500ab8938657b03fbdba8","665792a3ff0ff4d2fa1486df","1306","stimuli/1000001.jpg","1","","prediction_practice","1","{""filepath"":""stimuli/1000001.jpg"",""ball_pos"":1,""ego_ball_visible"":true,""ego_can_infer"":true,""alter_ball_visible"":true,""alter_can_infer"":true,""collective_ball_visible"":true,""collective_can_infer"":true,""search_locations"":[1],""alter_occluders"":""000"",""ego_occluders"":""001""}","true","","","","","","","","","","","","","","","","","","",""
"","","","","","image-keyboard-response","19","127594","0.0-3.0-16.0","62865e3456c142785cfad2a7","665500ab8938657b03fbdba8","665792a3ff0ff4d2fa1486df","810","stimuli/10000011.jpg"," ","","practrice_feedback","1","","","","","","","","","","","","","","","","","","","","",""
"","","","","","image-keyboard-response","20","129723","0.0-3.0-17.0","62865e3456c142785cfad2a7","665500ab8938657b03fbdba8","665792a3ff0ff4d2fa1486df","2122","stimuli/2111001.jpg","2","","prediction_practice","2","{""filepath"":""stimuli/2111001.jpg"",""ball_pos"":2,""ego_ball_visible"":false,""ego_can_infer"":true,""alter_ball_visible"":false,""alter_can_infer"":false,""collective_ball_visible"":false,""collective_can_infer"":false,""search_locations"":[1,0,2],""alter_occluders"":""111"",""ego_occluders"":""001""}","true","","","","","","","","","","","","","","","","","","",""
"","","","","","image-keyboard-response","21","130659","0.0-3.0-18.0","62865e3456c142785cfad2a7","665500ab8938657b03fbdba8","665792a3ff0ff4d2fa1486df","922","stimuli/21110012.jpg"," ","","practrice_feedback","1","","","","","","","","","","","","","","","","","","","","",""
"","","","","","image-keyboard-response","22","132450","0.0-3.0-19.0","62865e3456c142785cfad2a7","665500ab8938657b03fbdba8","665792a3ff0ff4d2fa1486df","1787","stimuli/2011110.jpg","2","","prediction_practice","2","{""filepath"":""stimuli/2011110.jpg"",""ball_pos"":2,""ego_ball_visible"":true,""ego_can_infer"":true,""alter_ball_visible"":false,""alter_can_infer"":false,""collective_ball_visible"":false,""collective_can_infer"":false,""search_locations"":[2,1],""alter_occluders"":""011"",""ego_occluders"":""110""}","true","","","","","","","","","","","","","","","","","","",""
"","","","","","image-keyboard-response","23","133435","0.0-3.0-20.0","62865e3456c142785cfad2a7","665500ab8938657b03fbdba8","665792a3ff0ff4d2fa1486df","978","stimuli/20111102.jpg"," ","","practrice_feedback","2","","","","","","","","","","","","","","","","","","","","",""
"","","","","","html-button-response","24","140490","0.0-3.0-21.0","62865e3456c142785cfad2a7","665500ab8938657b03fbdba8","665792a3ff0ff4d2fa1486df","7053","Now that you've had some practice, you'll be tested with a couple of easy trials. If you correctly predict Sam's choice, you'll move on to complete the experiment!","0","","","","","","","","","","","","","","","","","","","","","","","",""
"","","","","","image-keyboard-response","25","143042","0.0-3.0-22.0-0.0","62865e3456c142785cfad2a7","665500ab8938657b03fbdba8","665792a3ff0ff4d2fa1486df","2550","stimuli/0000011.jpg","arrowleft","","comprehension_quiz","","","true","arrowleft","","","","","","","","","","","","","","","","","",""
"","","","","","image-keyboard-response","26","143778","0.0-3.0-22.0-1.0","62865e3456c142785cfad2a7","665500ab8938657b03fbdba8","665792a3ff0ff4d2fa1486df","730","stimuli/00000110.jpg"," ","","comprehension_quiz","","","true"," ","","","","","","","","","","","","","","","","","",""
"","","","","","image-keyboard-response","27","145138","0.0-3.0-22.0-2.0","62865e3456c142785cfad2a7","665500ab8938657b03fbdba8","665792a3ff0ff4d2fa1486df","1355","stimuli/1010010.jpg","arrowdown","","comprehension_quiz","","","true","arrowdown","","","","","","","","","","","","","","","","","",""
"","","","","","image-keyboard-response","28","145739","0.0-3.0-22.0-3.0","62865e3456c142785cfad2a7","665500ab8938657b03fbdba8","665792a3ff0ff4d2fa1486df","589","stimuli/10100101.jpg"," ","","comprehension_quiz","","","true"," ","","","","","","","","","","","","","","","","","",""
"","","","","","html-button-response","29","148337","0.0-4.0","62865e3456c142785cfad2a7","665500ab8938657b03fbdba8","665792a3ff0ff4d2fa1486df","2598","The experiment will now begin.","0","","","","","","","","","","","","","","","","","","","","","","","",""
"","","","","","image-keyboard-response","30","151203","0.0-5.0","62865e3456c142785cfad2a7","665500ab8938657b03fbdba8","665792a3ff0ff4d2fa1486df","2861","stimuli/2000101.jpg","2","","prediction_trial","2","","true","","2","false","false","true","true","false","false","[2]","000","101","1","","","","","","",""
"","","","","","image-keyboard-response","31","152186","0.0-6.0","62865e3456c142785cfad2a7","665500ab8938657b03fbdba8","665792a3ff0ff4d2fa1486df","973","stimuli/20001012.jpg"," ","","feedback_trial","2","","","","","","","","","","","","","","","","","","","","",""
"","","","","","image-keyboard-response","32","154234","0.0-7.0","62865e3456c142785cfad2a7","665500ab8938657b03fbdba8","665792a3ff0ff4d2fa1486df","2041","stimuli/1110010.jpg","1","","prediction_trial","0","","false","","1","false","true","false","false","false","false","[1,0]","110","010","0","","","","","","",""
"","","","","","image-keyboard-response","33","155290","0.0-8.0","62865e3456c142785cfad2a7","665500ab8938657b03fbdba8","665792a3ff0ff4d2fa1486df","1050","stimuli/11100100.jpg"," ","","feedback_trial","1","","","","","","","","","","","","","","","","","","","","",""
"","","","","","image-keyboard-response","34","157843","0.0-9.0","62865e3456c142785cfad2a7","665500ab8938657b03fbdba8","665792a3ff0ff4d2fa1486df","2545","stimuli/1100110.jpg","1","","prediction_trial","1","","true","","1","false","false","true","true","false","false","[1]","100","110","1","","","","","","",""
"","","","","","image-keyboard-response","35","158610","0.0-10.0","62865e3456c142785cfad2a7","665500ab8938657b03fbdba8","665792a3ff0ff4d2fa1486df","762","stimuli/11001101.jpg"," ","","feedback_trial","1","","","","","","","","","","","","","","","","","","","","",""
"","","","","","image-keyboard-response","36","159595","0.0-11.0","62865e3456c142785cfad2a7","665500ab8938657b03fbdba8","665792a3ff0ff4d2fa1486df","974","stimuli/1000100.jpg","1","","prediction_trial","1","","true","","1","true","true","true","true","true","true","[1]","000","100","1","","","","","","",""
"","","","","","image-keyboard-response","37","160179","0.0-12.0","62865e3456c142785cfad2a7","665500ab8938657b03fbdba8","665792a3ff0ff4d2fa1486df","578","stimuli/10001001.jpg"," ","","feedback_trial","1","","","","","","","","","","","","","","","","","","","","",""
"","","","","","image-keyboard-response","38","161251","0.0-13.0","62865e3456c142785cfad2a7","665500ab8938657b03fbdba8","665792a3ff0ff4d2fa1486df","1069","stimuli/0000011.jpg","0","","prediction_trial","0","","true","","0","true","true","true","true","true","true","[0]","000","011","1","","","","","","",""
"","","","","","image-keyboard-response","39","161818","0.0-14.0","62865e3456c142785cfad2a7","665500ab8938657b03fbdba8","665792a3ff0ff4d2fa1486df","567","stimuli/00000110.jpg"," ","","feedback_trial","0","","","","","","","","","","","","","","","","","","","","",""
"","","","","","image-keyboard-response","40","162930","0.0-15.0","62865e3456c142785cfad2a7","665500ab8938657b03fbdba8","665792a3ff0ff4d2fa1486df","1105","stimuli/0001000.jpg","0","","prediction_trial","0","","true","","0","true","true","true","true","true","true","[0]","001","000","1","","","","","","",""
"","","","","","image-keyboard-response","41","163506","0.0-16.0","62865e3456c142785cfad2a7","665500ab8938657b03fbdba8","665792a3ff0ff4d2fa1486df","568","stimuli/00010000.jpg"," ","","feedback_trial","0","","","","","","","","","","","","","","","","","","","","",""
"","","","","","image-keyboard-response","42","165882","0.0-17.0","62865e3456c142785cfad2a7","665500ab8938657b03fbdba8","665792a3ff0ff4d2fa1486df","2372","stimuli/1000011.jpg","1","","prediction_trial","1","","true","","1","false","false","true","true","false","false","[1]","000","011","1","","","","","","",""
"","","","","","image-keyboard-response","43","166594","0.0-18.0","62865e3456c142785cfad2a7","665500ab8938657b03fbdba8","665792a3ff0ff4d2fa1486df","702","stimuli/10000111.jpg"," ","","feedback_trial","1","","","","","","","","","","","","","","","","","","","","",""
"","","","","","image-keyboard-response","44","169907","0.0-19.0","62865e3456c142785cfad2a7","665500ab8938657b03fbdba8","665792a3ff0ff4d2fa1486df","3306","stimuli/0010111.jpg","2","","prediction_trial","0","","false","","0","false","false","true","true","false","false","[0]","010","111","0","","","","","","",""
"","","","","","image-keyboard-response","45","171139","0.0-20.0","62865e3456c142785cfad2a7","665500ab8938657b03fbdba8","665792a3ff0ff4d2fa1486df","1221","stimuli/00101110.jpg"," ","","feedback_trial","0","","","","","","","","","","","","","","","","","","","","",""
"","","","","","image-keyboard-response","46","173569","0.0-21.0","62865e3456c142785cfad2a7","665500ab8938657b03fbdba8","665792a3ff0ff4d2fa1486df","2426","stimuli/0001110.jpg","1","","prediction_trial","0","","false","","0","false","false","true","true","false","false","[0]","001","110","0","","","","","","",""
"","","","","","image-keyboard-response","47","174322","0.0-22.0","62865e3456c142785cfad2a7","665500ab8938657b03fbdba8","665792a3ff0ff4d2fa1486df","748","stimuli/00011100.jpg"," ","","feedback_trial","0","","","","","","","","","","","","","","","","","","","","",""
"","","","","","image-keyboard-response","48","175859","0.0-23.0","62865e3456c142785cfad2a7","665500ab8938657b03fbdba8","665792a3ff0ff4d2fa1486df","1532","stimuli/1110001.jpg","1","","prediction_trial","1","","true","","1","true","true","false","false","false","false","[1,0]","110","001","1","","","","","","",""
"","","","","","image-keyboard-response","49","176547","0.0-24.0","62865e3456c142785cfad2a7","665500ab8938657b03fbdba8","665792a3ff0ff4d2fa1486df","674","stimuli/11100011.jpg"," ","","feedback_trial","1","","","","","","","","","","","","","","","","","","","","",""
"","","","","","image-keyboard-response","50","177626","0.0-25.0","62865e3456c142785cfad2a7","665500ab8938657b03fbdba8","665792a3ff0ff4d2fa1486df","1073","stimuli/1110100.jpg","1","","prediction_trial","0","","false","","1","true","true","false","false","false","false","[1,0]","110","100","0","","","","","","",""
"","","","","","image-keyboard-response","51","178643","0.0-26.0","62865e3456c142785cfad2a7","665500ab8938657b03fbdba8","665792a3ff0ff4d2fa1486df","1006","stimuli/11101000.jpg"," ","","feedback_trial","1","","","","","","","","","","","","","","","","","","","","",""
"","","","","","image-keyboard-response","52","179425","0.0-27.0","62865e3456c142785cfad2a7","665500ab8938657b03fbdba8","665792a3ff0ff4d2fa1486df","769","stimuli/0010010.jpg","0","","prediction_trial","0","","true","","0","true","true","true","true","true","true","[0]","010","010","1","","","","","","",""
"","","","","","image-keyboard-response","53","180138","0.0-28.0","62865e3456c142785cfad2a7","665500ab8938657b03fbdba8","665792a3ff0ff4d2fa1486df","708","stimuli/00100100.jpg"," ","","feedback_trial","0","","","","","","","","","","","","","","","","","","","","",""
"","","","","","image-keyboard-response","54","181626","0.0-29.0","62865e3456c142785cfad2a7","665500ab8938657b03fbdba8","665792a3ff0ff4d2fa1486df","1481","stimuli/0110100.jpg","0","","prediction_trial","1","","false","","0","false","true","false","false","false","false","[0,1]","110","100","0","","","","","","",""
"","","","","","image-keyboard-response","55","182450","0.0-30.0","62865e3456c142785cfad2a7","665500ab8938657b03fbdba8","665792a3ff0ff4d2fa1486df","819","stimuli/01101001.jpg"," ","","feedback_trial","0","","","","","","","","","","","","","","","","","","","","",""
"","","","","","image-keyboard-response","56","184242","0.0-31.0","62865e3456c142785cfad2a7","665500ab8938657b03fbdba8","665792a3ff0ff4d2fa1486df","1786","stimuli/2000011.jpg","1","","prediction_trial","2","","false","","2","false","false","true","true","false","false","[2]","000","011","0","","","","","","",""
"","","","","","image-keyboard-response","57","185019","0.0-32.0","62865e3456c142785cfad2a7","665500ab8938657b03fbdba8","665792a3ff0ff4d2fa1486df","770","stimuli/20000112.jpg"," ","","feedback_trial","2","","","","","","","","","","","","","","","","","","","","",""
"","","","","","image-keyboard-response","58","186795","0.0-33.0","62865e3456c142785cfad2a7","665500ab8938657b03fbdba8","665792a3ff0ff4d2fa1486df","1770","stimuli/1011011.jpg","1","","prediction_trial","2","","false","","1","false","false","false","false","false","false","[2,1]","011","011","0","","","","","","",""
"","","","","","image-keyboard-response","59","187475","0.0-34.0","62865e3456c142785cfad2a7","665500ab8938657b03fbdba8","665792a3ff0ff4d2fa1486df","673","stimuli/10110112.jpg"," ","","feedback_trial","2","","","","","","","","","","","","","","","","","","","","",""
"","","","","","image-keyboard-response","60","188898","0.0-35.0","62865e3456c142785cfad2a7","665500ab8938657b03fbdba8","665792a3ff0ff4d2fa1486df","1417","stimuli/1011111.jpg","0","","prediction_trial","2","","false","","1","false","false","false","false","false","false","[1,2]","011","111","0","","","","","","",""
"","","","","","image-keyboard-response","61","189650","0.0-36.0","62865e3456c142785cfad2a7","665500ab8938657b03fbdba8","665792a3ff0ff4d2fa1486df","748","stimuli/10111112.jpg"," ","","feedback_trial","1","","","","","","","","","","","","","","","","","","","","",""
"","","","","","image-keyboard-response","62","190649","0.0-37.0","62865e3456c142785cfad2a7","665500ab8938657b03fbdba8","665792a3ff0ff4d2fa1486df","993","stimuli/1001000.jpg","1","","prediction_trial","1","","true","","1","true","true","true","true","true","true","[1]","001","000","1","","","","","","",""
"","","","","","image-keyboard-response","63","191234","0.0-38.0","62865e3456c142785cfad2a7","665500ab8938657b03fbdba8","665792a3ff0ff4d2fa1486df","579","stimuli/10010001.jpg"," ","","feedback_trial","1","","","","","","","","","","","","","","","","","","","","",""
"","","","","","image-keyboard-response","64","192130","0.0-39.0","62865e3456c142785cfad2a7","665500ab8938657b03fbdba8","665792a3ff0ff4d2fa1486df","885","stimuli/1101000.jpg","1","","prediction_trial","1","","true","","1","true","true","true","true","true","true","[1]","101","000","1","","","","","","",""
"","","","","","image-keyboard-response","65","192635","0.0-40.0","62865e3456c142785cfad2a7","665500ab8938657b03fbdba8","665792a3ff0ff4d2fa1486df","499","stimuli/11010001.jpg"," ","","feedback_trial","1","","","","","","","","","","","","","","","","","","","","",""
"","","","","","image-keyboard-response","66","193682","0.0-41.0","62865e3456c142785cfad2a7","665500ab8938657b03fbdba8","665792a3ff0ff4d2fa1486df","1040","stimuli/1111100.jpg","1","","prediction_trial","2","","false","","1","true","true","false","false","false","false","[2,0,1]","111","100","0","","","","","","",""
"","","","","","image-keyboard-response","67","194338","0.0-42.0","62865e3456c142785cfad2a7","665500ab8938657b03fbdba8","665792a3ff0ff4d2fa1486df","649","stimuli/11111002.jpg"," ","","feedback_trial","2","","","","","","","","","","","","","","","","","","","","",""
"","","","","","image-keyboard-response","68","196346","0.0-43.0","62865e3456c142785cfad2a7","665500ab8938657b03fbdba8","665792a3ff0ff4d2fa1486df","2003","stimuli/1011101.jpg","1","","prediction_trial","1","","true","","1","true","true","false","false","false","false","[2,1]","011","101","1","","","","","","",""
"","","","","","image-keyboard-response","69","196962","0.0-44.0","62865e3456c142785cfad2a7","665500ab8938657b03fbdba8","665792a3ff0ff4d2fa1486df","610","stimuli/10111011.jpg"," ","","feedback_trial","2","","","","","","","","","","","","","","","","","","","","",""
"","","","","","image-keyboard-response","70","198490","0.0-45.0","62865e3456c142785cfad2a7","665500ab8938657b03fbdba8","665792a3ff0ff4d2fa1486df","1523","stimuli/0000100.jpg","0","","prediction_trial","0","","true","","0","false","true","true","true","false","true","[0]","000","100","1","","","","","","",""
"","","","","","image-keyboard-response","71","199018","0.0-46.0","62865e3456c142785cfad2a7","665500ab8938657b03fbdba8","665792a3ff0ff4d2fa1486df","517","stimuli/00001000.jpg"," ","","feedback_trial","0","","","","","","","","","","","","","","","","","","","","",""
"","","","","","image-keyboard-response","72","201674","0.0-47.0","62865e3456c142785cfad2a7","665500ab8938657b03fbdba8","665792a3ff0ff4d2fa1486df","2650","stimuli/0111111.jpg","2","","prediction_trial","1","","false","","0","false","false","false","false","false","false","[1,0,2]","111","111","0","","","","","","",""
"","","","","","image-keyboard-response","73","202394","0.0-48.0","62865e3456c142785cfad2a7","665500ab8938657b03fbdba8","665792a3ff0ff4d2fa1486df","714","stimuli/01111111.jpg"," ","","feedback_trial","1","","","","","","","","","","","","","","","","","","","","",""
"","","","","","image-keyboard-response","74","206058","0.0-49.0","62865e3456c142785cfad2a7","665500ab8938657b03fbdba8","665792a3ff0ff4d2fa1486df","3653","stimuli/1010011.jpg","2","","prediction_trial","1","","false","","1","false","false","false","true","false","false","[1]","010","011","0","","","","","","",""
"","","","","","image-keyboard-response","75","206747","0.0-50.0","62865e3456c142785cfad2a7","665500ab8938657b03fbdba8","665792a3ff0ff4d2fa1486df","682","stimuli/10100111.jpg"," ","","feedback_trial","1","","","","","","","","","","","","","","","","","","","","",""
"","","","","","image-keyboard-response","76","209130","0.0-51.0","62865e3456c142785cfad2a7","665500ab8938657b03fbdba8","665792a3ff0ff4d2fa1486df","2373","stimuli/1001011.jpg","2","","prediction_trial","1","","false","","1","false","false","true","true","false","false","[1]","001","011","0","","","","","","",""
"","","","","","image-keyboard-response","77","209778","0.0-52.0","62865e3456c142785cfad2a7","665500ab8938657b03fbdba8","665792a3ff0ff4d2fa1486df","642","stimuli/10010111.jpg"," ","","feedback_trial","1","","","","","","","","","","","","","","","","","","","","",""
"","","","","","image-keyboard-response","78","211634","0.0-53.0","62865e3456c142785cfad2a7","665500ab8938657b03fbdba8","665792a3ff0ff4d2fa1486df","1854","stimuli/2000111.jpg","1","","prediction_trial","2","","false","","2","false","false","true","true","false","false","[2]","000","111","0","","","","","","",""
"","","","","","image-keyboard-response","79","212219","0.0-54.0","62865e3456c142785cfad2a7","665500ab8938657b03fbdba8","665792a3ff0ff4d2fa1486df","583","stimuli/20001112.jpg"," ","","feedback_trial","2","","","","","","","","","","","","","","","","","","","","",""
"","","","","","image-keyboard-response","80","213001","0.0-55.0","62865e3456c142785cfad2a7","665500ab8938657b03fbdba8","665792a3ff0ff4d2fa1486df","777","stimuli/2110010.jpg","2","","prediction_trial","2","","true","","2","true","true","true","true","true","true","[2]","110","010","1","","","","","","",""
"","","","","","image-keyboard-response","81","213530","0.0-56.0","62865e3456c142785cfad2a7","665500ab8938657b03fbdba8","665792a3ff0ff4d2fa1486df","522","stimuli/21100102.jpg"," ","","feedback_trial","2","","","","","","","","","","","","","","","","","","","","",""
"","","","","","image-keyboard-response","82","215114","0.0-57.0","62865e3456c142785cfad2a7","665500ab8938657b03fbdba8","665792a3ff0ff4d2fa1486df","1578","stimuli/1101010.jpg","1","","prediction_trial","1","","true","","1","false","true","true","true","false","true","[1]","101","010","1","","","","","","",""
"","","","","","image-keyboard-response","83","215498","0.0-58.0","62865e3456c142785cfad2a7","665500ab8938657b03fbdba8","665792a3ff0ff4d2fa1486df","382","stimuli/11010101.jpg"," ","","feedback_trial","1","","","","","","","","","","","","","","","","","","","","",""
"","","","","","image-keyboard-response","84","216914","0.0-59.0","62865e3456c142785cfad2a7","665500ab8938657b03fbdba8","665792a3ff0ff4d2fa1486df","1409","stimuli/1111101.jpg","1","","prediction_trial","2","","false","","1","true","true","false","false","false","false","[0,2,1]","111","101","0","","","","","","",""
"","","","","","image-keyboard-response","85","217441","0.0-60.0","62865e3456c142785cfad2a7","665500ab8938657b03fbdba8","665792a3ff0ff4d2fa1486df","521","stimuli/11111012.jpg"," ","","feedback_trial","0","","","","","","","","","","","","","","","","","","","","",""
"","","","","","image-keyboard-response","86","218425","0.0-61.0","62865e3456c142785cfad2a7","665500ab8938657b03fbdba8","665792a3ff0ff4d2fa1486df","981","stimuli/2110000.jpg","2","","prediction_trial","2","","true","","2","true","true","true","true","true","true","[2]","110","000","1","","","","","","",""
"","","","","","image-keyboard-response","87","218843","0.0-62.0","62865e3456c142785cfad2a7","665500ab8938657b03fbdba8","665792a3ff0ff4d2fa1486df","414","stimuli/21100002.jpg"," ","","feedback_trial","2","","","","","","","","","","","","","","","","","","","","",""
"","","","","","image-keyboard-response","88","220170","0.0-63.0","62865e3456c142785cfad2a7","665500ab8938657b03fbdba8","665792a3ff0ff4d2fa1486df","1313","stimuli/2011010.jpg","2","","prediction_trial","2","","true","","2","true","true","false","false","false","false","[1,2]","011","010","1","","","","","","",""
"","","","","","image-keyboard-response","89","220603","0.0-64.0","62865e3456c142785cfad2a7","665500ab8938657b03fbdba8","665792a3ff0ff4d2fa1486df","426","stimuli/20110102.jpg"," ","","feedback_trial","1","","","","","","","","","","","","","","","","","","","","",""
"","","","","","image-keyboard-response","90","222594","0.0-65.0","62865e3456c142785cfad2a7","665500ab8938657b03fbdba8","665792a3ff0ff4d2fa1486df","1980","stimuli/1011010.jpg","1","","prediction_trial","2","","false","","1","false","true","false","false","false","false","[2,1]","011","010","0","","","","","","",""
"","","","","","image-keyboard-response","91","223153","0.0-66.0","62865e3456c142785cfad2a7","665500ab8938657b03fbdba8","665792a3ff0ff4d2fa1486df","554","stimuli/10110102.jpg"," ","","feedback_trial","2","","","","","","","","","","","","","","","","","","","","",""
"","","","","","image-keyboard-response","92","224691","0.0-67.0","62865e3456c142785cfad2a7","665500ab8938657b03fbdba8","665792a3ff0ff4d2fa1486df","1531","stimuli/0000000.jpg","0","","prediction_trial","0","","true","","0","true","true","true","true","true","true","[0]","000","000","1","","","","","","",""
"","","","","","image-keyboard-response","93","225171","0.0-68.0","62865e3456c142785cfad2a7","665500ab8938657b03fbdba8","665792a3ff0ff4d2fa1486df","475","stimuli/00000000.jpg"," ","","feedback_trial","0","","","","","","","","","","","","","","","","","","","","",""
"","","","","","image-keyboard-response","94","226514","0.0-69.0","62865e3456c142785cfad2a7","665500ab8938657b03fbdba8","665792a3ff0ff4d2fa1486df","1338","stimuli/0011100.jpg","0","","prediction_trial","0","","true","","0","false","true","true","true","false","true","[0]","011","100","1","","","","","","",""
"","","","","","image-keyboard-response","95","226962","0.0-70.0","62865e3456c142785cfad2a7","665500ab8938657b03fbdba8","665792a3ff0ff4d2fa1486df","442","stimuli/00111000.jpg"," ","","feedback_trial","0","","","","","","","","","","","","","","","","","","","","",""
"","","","","","image-keyboard-response","96","228458","0.0-71.0","62865e3456c142785cfad2a7","665500ab8938657b03fbdba8","665792a3ff0ff4d2fa1486df","1491","stimuli/0000111.jpg","2","","prediction_trial","0","","false","","0","false","false","true","true","false","false","[0]","000","111","0","","","","","","",""
"","","","","","image-keyboard-response","97","229106","0.0-72.0","62865e3456c142785cfad2a7","665500ab8938657b03fbdba8","665792a3ff0ff4d2fa1486df","643","stimuli/00001110.jpg"," ","","feedback_trial","0","","","","","","","","","","","","","","","","","","","","",""
"","","","","","image-keyboard-response","98","231538","0.0-73.0","62865e3456c142785cfad2a7","665500ab8938657b03fbdba8","665792a3ff0ff4d2fa1486df","2426","stimuli/2100011.jpg","1","","prediction_trial","2","","false","","2","false","false","true","true","false","false","[2]","100","011","0","","","","","","",""
"","","","","","image-keyboard-response","99","232034","0.0-74.0","62865e3456c142785cfad2a7","665500ab8938657b03fbdba8","665792a3ff0ff4d2fa1486df","490","stimuli/21000112.jpg"," ","","feedback_trial","2","","","","","","","","","","","","","","","","","","","","",""
"","","","","","image-keyboard-response","100","232914","0.0-75.0","62865e3456c142785cfad2a7","665500ab8938657b03fbdba8","665792a3ff0ff4d2fa1486df","873","stimuli/0010011.jpg","0","","prediction_trial","0","","true","","0","true","true","true","true","true","true","[0]","010","011","1","","","","","","",""
"","","","","","image-keyboard-response","101","233299","0.0-76.0","62865e3456c142785cfad2a7","665500ab8938657b03fbdba8","665792a3ff0ff4d2fa1486df","379","stimuli/00100110.jpg"," ","","feedback_trial","0","","","","","","","","","","","","","","","","","","","","",""
"","","","","","image-keyboard-response","102","234451","0.0-77.0","62865e3456c142785cfad2a7","665500ab8938657b03fbdba8","665792a3ff0ff4d2fa1486df","1137","stimuli/0111000.jpg","0","","prediction_trial","1","","false","","0","true","true","false","false","false","false","[0,1,2]","111","000","0","","","","","","",""
"","","","","","image-keyboard-response","103","235226","0.0-78.0","62865e3456c142785cfad2a7","665500ab8938657b03fbdba8","665792a3ff0ff4d2fa1486df","769","stimuli/01110001.jpg"," ","","feedback_trial","0","","","","","","","","","","","","","","","","","","","","",""
"","","","","","image-keyboard-response","104","236419","0.0-79.0","62865e3456c142785cfad2a7","665500ab8938657b03fbdba8","665792a3ff0ff4d2fa1486df","1188","stimuli/0100010.jpg","0","","prediction_trial","0","","true","","0","true","true","false","true","false","true","[0]","100","010","1","","","","","","",""
"","","","","","image-keyboard-response","105","236961","0.0-80.0","62865e3456c142785cfad2a7","665500ab8938657b03fbdba8","665792a3ff0ff4d2fa1486df","538","stimuli/01000100.jpg"," ","","feedback_trial","0","","","","","","","","","","","","","","","","","","","","",""
"","","","","","image-keyboard-response","106","239308","0.0-81.0","62865e3456c142785cfad2a7","665500ab8938657b03fbdba8","665792a3ff0ff4d2fa1486df","2341","stimuli/0000110.jpg","0","","prediction_trial","0","","true","","0","false","false","true","true","false","false","[0]","000","110","1","","","","","","",""
"","","","","","image-keyboard-response","107","239882","0.0-82.0","62865e3456c142785cfad2a7","665500ab8938657b03fbdba8","665792a3ff0ff4d2fa1486df","569","stimuli/00001100.jpg"," ","","feedback_trial","0","","","","","","","","","","","","","","","","","","","","",""
"","","","","","image-keyboard-response","108","240634","0.0-83.0","62865e3456c142785cfad2a7","665500ab8938657b03fbdba8","665792a3ff0ff4d2fa1486df","745","stimuli/1001101.jpg","1","","prediction_trial","1","","true","","1","true","true","true","true","true","true","[1]","001","101","1","","","","","","",""
"","","","","","image-keyboard-response","109","241043","0.0-84.0","62865e3456c142785cfad2a7","665500ab8938657b03fbdba8","665792a3ff0ff4d2fa1486df","403","stimuli/10011011.jpg"," ","","feedback_trial","1","","","","","","","","","","","","","","","","","","","","",""
"","","","","","image-keyboard-response","110","242690","0.0-85.0","62865e3456c142785cfad2a7","665500ab8938657b03fbdba8","665792a3ff0ff4d2fa1486df","1641","stimuli/2101100.jpg","2","","prediction_trial","0","","false","","2","true","true","false","false","false","false","[0,2]","101","100","0","","","","","","",""
"","","","","","image-keyboard-response","111","243395","0.0-86.0","62865e3456c142785cfad2a7","665500ab8938657b03fbdba8","665792a3ff0ff4d2fa1486df","697","stimuli/21011000.jpg"," ","","feedback_trial","0","","","","","","","","","","","","","","","","","","","","",""
"","","","","","image-keyboard-response","112","247410","0.0-87.0","62865e3456c142785cfad2a7","665500ab8938657b03fbdba8","665792a3ff0ff4d2fa1486df","4010","stimuli/0010101.jpg","2","","prediction_trial","0","","false","","0","false","false","true","true","false","false","[0]","010","101","0","","","","","","",""
"","","","","","image-keyboard-response","113","248010","0.0-88.0","62865e3456c142785cfad2a7","665500ab8938657b03fbdba8","665792a3ff0ff4d2fa1486df","596","stimuli/00101010.jpg"," ","","feedback_trial","0","","","","","","","","","","","","","","","","","","","","",""
"","","","","","image-keyboard-response","114","248688","0.0-89.0","62865e3456c142785cfad2a7","665500ab8938657b03fbdba8","665792a3ff0ff4d2fa1486df","672","stimuli/2000110.jpg","2","","prediction_trial","2","","true","","2","true","true","true","true","true","true","[2]","000","110","1","","","","","","",""
"","","","","","image-keyboard-response","115","249044","0.0-90.0","62865e3456c142785cfad2a7","665500ab8938657b03fbdba8","665792a3ff0ff4d2fa1486df","351","stimuli/20001102.jpg"," ","","feedback_trial","2","","","","","","","","","","","","","","","","","","","","",""
"","","","","","image-keyboard-response","116","250633","0.0-91.0","62865e3456c142785cfad2a7","665500ab8938657b03fbdba8","665792a3ff0ff4d2fa1486df","1583","stimuli/0101000.jpg","0","","prediction_trial","2","","false","","0","true","true","false","false","false","false","[2,0]","101","000","0","","","","","","",""
"","","","","","image-keyboard-response","117","251474","0.0-92.0","62865e3456c142785cfad2a7","665500ab8938657b03fbdba8","665792a3ff0ff4d2fa1486df","836","stimuli/01010002.jpg"," ","","feedback_trial","2","","","","","","","","","","","","","","","","","","","","",""
"","","","","","image-keyboard-response","118","252570","0.0-93.0","62865e3456c142785cfad2a7","665500ab8938657b03fbdba8","665792a3ff0ff4d2fa1486df","1090","stimuli/1101101.jpg","1","","prediction_trial","1","","true","","1","true","true","true","true","true","true","[1]","101","101","1","","","","","","",""
"","","","","","image-keyboard-response","119","252929","0.0-94.0","62865e3456c142785cfad2a7","665500ab8938657b03fbdba8","665792a3ff0ff4d2fa1486df","355","stimuli/11011011.jpg"," ","","feedback_trial","1","","","","","","","","","","","","","","","","","","","","",""
"","","","","","image-keyboard-response","120","254122","0.0-95.0","62865e3456c142785cfad2a7","665500ab8938657b03fbdba8","665792a3ff0ff4d2fa1486df","1189","stimuli/2001100.jpg","2","","prediction_trial","2","","true","","2","true","true","false","true","false","true","[2]","001","100","1","","","","","","",""
"","","","","","image-keyboard-response","121","254617","0.0-96.0","62865e3456c142785cfad2a7","665500ab8938657b03fbdba8","665792a3ff0ff4d2fa1486df","489","stimuli/20011002.jpg"," ","","feedback_trial","2","","","","","","","","","","","","","","","","","","","","",""
"","","","","","image-keyboard-response","122","255562","0.0-97.0","62865e3456c142785cfad2a7","665500ab8938657b03fbdba8","665792a3ff0ff4d2fa1486df","939","stimuli/0001100.jpg","0","","prediction_trial","0","","true","","0","false","true","true","true","false","true","[0]","001","100","1","","","","","","",""
"","","","","","image-keyboard-response","123","256019","0.0-98.0","62865e3456c142785cfad2a7","665500ab8938657b03fbdba8","665792a3ff0ff4d2fa1486df","450","stimuli/00011000.jpg"," ","","feedback_trial","0","","","","","","","","","","","","","","","","","","","","",""
"","","","","","image-keyboard-response","124","257426","0.0-99.0","62865e3456c142785cfad2a7","665500ab8938657b03fbdba8","665792a3ff0ff4d2fa1486df","1401","stimuli/2010101.jpg","2","","prediction_trial","2","","true","","2","false","false","true","true","false","false","[2]","010","101","1","","","","","","",""
"","","","","","image-keyboard-response","125","257891","0.0-100.0","62865e3456c142785cfad2a7","665500ab8938657b03fbdba8","665792a3ff0ff4d2fa1486df","454","stimuli/20101012.jpg"," ","","feedback_trial","2","","","","","","","","","","","","","","","","","","","","",""
"","","","","","image-keyboard-response","126","259354","0.0-101.0","62865e3456c142785cfad2a7","665500ab8938657b03fbdba8","665792a3ff0ff4d2fa1486df","1457","stimuli/0011111.jpg","0","","prediction_trial","0","","true","","0","false","false","true","true","false","false","[0]","011","111","1","","","","","","",""
"","","","","","image-keyboard-response","127","260114","0.0-102.0","62865e3456c142785cfad2a7","665500ab8938657b03fbdba8","665792a3ff0ff4d2fa1486df","749","stimuli/00111110.jpg"," ","","feedback_trial","0","","","","","","","","","","","","","","","","","","","","",""
"","","","","","image-keyboard-response","128","261938","0.0-103.0","62865e3456c142785cfad2a7","665500ab8938657b03fbdba8","665792a3ff0ff4d2fa1486df","1817","stimuli/0101101.jpg","2","","prediction_trial","2","","true","","0","false","false","false","false","false","false","[0,2]","101","101","1","","","","","","",""
"","","","","","image-keyboard-response","129","262547","0.0-104.0","62865e3456c142785cfad2a7","665500ab8938657b03fbdba8","665792a3ff0ff4d2fa1486df","602","stimuli/01011012.jpg"," ","","feedback_trial","0","","","","","","","","","","","","","","","","","","","","",""
"","","","","","image-keyboard-response","130","263898","0.0-105.0","62865e3456c142785cfad2a7","665500ab8938657b03fbdba8","665792a3ff0ff4d2fa1486df","1345","stimuli/2001001.jpg","2","","prediction_trial","2","","true","","2","false","true","false","true","false","true","[2]","001","001","1","","","","","","",""
"","","","","","image-keyboard-response","131","264370","0.0-106.0","62865e3456c142785cfad2a7","665500ab8938657b03fbdba8","665792a3ff0ff4d2fa1486df","466","stimuli/20010012.jpg"," ","","feedback_trial","2","","","","","","","","","","","","","","","","","","","","",""
"","","","","","image-keyboard-response","132","266019","0.0-107.0","62865e3456c142785cfad2a7","665500ab8938657b03fbdba8","665792a3ff0ff4d2fa1486df","1638","stimuli/2111001.jpg","2","","prediction_trial","1","","false","","2","false","true","false","false","false","false","[1,0,2]","111","001","0","","","","","","",""
"","","","","","image-keyboard-response","133","266532","0.0-108.0","62865e3456c142785cfad2a7","665500ab8938657b03fbdba8","665792a3ff0ff4d2fa1486df","507","stimuli/21110011.jpg"," ","","feedback_trial","1","","","","","","","","","","","","","","","","","","","","",""
"","","","","","image-keyboard-response","134","267706","0.0-109.0","62865e3456c142785cfad2a7","665500ab8938657b03fbdba8","665792a3ff0ff4d2fa1486df","1168","stimuli/2010001.jpg","2","","prediction_trial","2","","true","","2","false","true","true","true","false","true","[2]","010","001","1","","","","","","",""
"","","","","","image-keyboard-response","135","268115","0.0-110.0","62865e3456c142785cfad2a7","665500ab8938657b03fbdba8","665792a3ff0ff4d2fa1486df","402","stimuli/20100012.jpg"," ","","feedback_trial","2","","","","","","","","","","","","","","","","","","","","",""
"","","","","","image-keyboard-response","136","269659","0.0-111.0","62865e3456c142785cfad2a7","665500ab8938657b03fbdba8","665792a3ff0ff4d2fa1486df","1537","stimuli/0110011.jpg","0","","prediction_trial","1","","false","","0","true","true","false","false","false","false","[1,0]","110","011","0","","","","","","",""
"","","","","","image-keyboard-response","137","270170","0.0-112.0","62865e3456c142785cfad2a7","665500ab8938657b03fbdba8","665792a3ff0ff4d2fa1486df","506","stimuli/01100111.jpg"," ","","feedback_trial","1","","","","","","","","","","","","","","","","","","","","",""
"","","","","","image-keyboard-response","138","271322","0.0-113.0","62865e3456c142785cfad2a7","665500ab8938657b03fbdba8","665792a3ff0ff4d2fa1486df","1145","stimuli/2011000.jpg","2","","prediction_trial","1","","false","","2","true","true","false","false","false","false","[1,2]","011","000","0","","","","","","",""
"","","","","","image-keyboard-response","139","271793","0.0-114.0","62865e3456c142785cfad2a7","665500ab8938657b03fbdba8","665792a3ff0ff4d2fa1486df","467","stimuli/20110001.jpg"," ","","feedback_trial","1","","","","","","","","","","","","","","","","","","","","",""
"","","","","","image-keyboard-response","140","273426","0.0-115.0","62865e3456c142785cfad2a7","665500ab8938657b03fbdba8","665792a3ff0ff4d2fa1486df","1629","stimuli/2110111.jpg","2","","prediction_trial","2","","true","","2","false","false","true","true","false","false","[2]","110","111","1","","","","","","",""
"","","","","","image-keyboard-response","141","273850","0.0-116.0","62865e3456c142785cfad2a7","665500ab8938657b03fbdba8","665792a3ff0ff4d2fa1486df","420","stimuli/21101112.jpg"," ","","feedback_trial","2","","","","","","","","","","","","","","","","","","","","",""
"","","","","","image-keyboard-response","142","275594","0.0-117.0","62865e3456c142785cfad2a7","665500ab8938657b03fbdba8","665792a3ff0ff4d2fa1486df","1739","stimuli/1000110.jpg","1","","prediction_trial","1","","true","","1","false","false","true","true","false","false","[1]","000","110","1","","","","","","",""
"","","","","","image-keyboard-response","143","276124","0.0-118.0","62865e3456c142785cfad2a7","665500ab8938657b03fbdba8","665792a3ff0ff4d2fa1486df","517","stimuli/10001101.jpg"," ","","feedback_trial","1","","","","","","","","","","","","","","","","","","","","",""
"","","","","","image-keyboard-response","144","277250","0.0-119.0","62865e3456c142785cfad2a7","665500ab8938657b03fbdba8","665792a3ff0ff4d2fa1486df","1120","stimuli/0111001.jpg","0","","prediction_trial","2","","false","","0","true","true","false","false","false","false","[1,2,0]","111","001","0","","","","","","",""
"","","","","","image-keyboard-response","145","277754","0.0-120.0","62865e3456c142785cfad2a7","665500ab8938657b03fbdba8","665792a3ff0ff4d2fa1486df","497","stimuli/01110012.jpg"," ","","feedback_trial","1","","","","","","","","","","","","","","","","","","","","",""
"","","","","","image-keyboard-response","146","280083","0.0-121.0","62865e3456c142785cfad2a7","665500ab8938657b03fbdba8","665792a3ff0ff4d2fa1486df","2317","stimuli/1100111.jpg","0","","prediction_trial","1","","false","","1","false","false","true","true","false","false","[1]","100","111","0","","","","","","",""
"","","","","","image-keyboard-response","147","280699","0.0-122.0","62865e3456c142785cfad2a7","665500ab8938657b03fbdba8","665792a3ff0ff4d2fa1486df","612","stimuli/11001111.jpg"," ","","feedback_trial","1","","","","","","","","","","","","","","","","","","","","",""
"","","","","","image-keyboard-response","148","282298","0.0-123.0","62865e3456c142785cfad2a7","665500ab8938657b03fbdba8","665792a3ff0ff4d2fa1486df","1594","stimuli/0110010.jpg","0","","prediction_trial","0","","true","","0","true","true","false","false","false","false","[1,0]","110","010","1","","","","","","",""
"","","","","","image-keyboard-response","149","282810","0.0-124.0","62865e3456c142785cfad2a7","665500ab8938657b03fbdba8","665792a3ff0ff4d2fa1486df","507","stimuli/01100100.jpg"," ","","feedback_trial","1","","","","","","","","","","","","","","","","","","","","",""
"","","","","","image-keyboard-response","150","283778","0.0-125.0","62865e3456c142785cfad2a7","665500ab8938657b03fbdba8","665792a3ff0ff4d2fa1486df","963","stimuli/1011000.jpg","1","","prediction_trial","1","","true","","1","true","true","false","false","false","false","[1,2]","011","000","1","","","","","","",""
"","","","","","image-keyboard-response","151","284299","0.0-126.0","62865e3456c142785cfad2a7","665500ab8938657b03fbdba8","665792a3ff0ff4d2fa1486df","511","stimuli/10110001.jpg"," ","","feedback_trial","1","","","","","","","","","","","","","","","","","","","","",""
"","","","","","image-keyboard-response","152","286146","0.0-127.0","62865e3456c142785cfad2a7","665500ab8938657b03fbdba8","665792a3ff0ff4d2fa1486df","1841","stimuli/0111101.jpg","2","","prediction_trial","2","","true","","0","false","false","false","false","false","false","[2,0,1]","111","101","1","","","","","","",""
"","","","","","image-keyboard-response","153","286634","0.0-128.0","62865e3456c142785cfad2a7","665500ab8938657b03fbdba8","665792a3ff0ff4d2fa1486df","482","stimuli/01111012.jpg"," ","","feedback_trial","2","","","","","","","","","","","","","","","","","","","","",""
"","","","","","image-keyboard-response","154","287810","0.0-129.0","62865e3456c142785cfad2a7","665500ab8938657b03fbdba8","665792a3ff0ff4d2fa1486df","1168","stimuli/0100001.jpg","0","","prediction_trial","0","","true","","0","true","true","false","true","false","true","[0]","100","001","1","","","","","","",""
"","","","","","image-keyboard-response","155","288306","0.0-130.0","62865e3456c142785cfad2a7","665500ab8938657b03fbdba8","665792a3ff0ff4d2fa1486df","490","stimuli/01000010.jpg"," ","","feedback_trial","0","","","","","","","","","","","","","","","","","","","","",""
"","","","","","image-keyboard-response","156","289322","0.0-131.0","62865e3456c142785cfad2a7","665500ab8938657b03fbdba8","665792a3ff0ff4d2fa1486df","1003","stimuli/0010000.jpg","0","","prediction_trial","0","","true","","0","true","true","true","true","true","true","[0]","010","000","1","","","","","","",""
"","","","","","image-keyboard-response","157","289657","0.0-132.0","62865e3456c142785cfad2a7","665500ab8938657b03fbdba8","665792a3ff0ff4d2fa1486df","329","stimuli/00100000.jpg"," ","","feedback_trial","0","","","","","","","","","","","","","","","","","","","","",""
"","","","","","image-keyboard-response","158","291338","0.0-133.0","62865e3456c142785cfad2a7","665500ab8938657b03fbdba8","665792a3ff0ff4d2fa1486df","1675","stimuli/1101110.jpg","1","","prediction_trial","1","","true","","1","false","false","true","true","false","false","[1]","101","110","1","","","","","","",""
"","","","","","image-keyboard-response","159","291891","0.0-134.0","62865e3456c142785cfad2a7","665500ab8938657b03fbdba8","665792a3ff0ff4d2fa1486df","548","stimuli/11011101.jpg"," ","","feedback_trial","1","","","","","","","","","","","","","","","","","","","","",""
"","","","","","image-keyboard-response","160","292760","0.0-135.0","62865e3456c142785cfad2a7","665500ab8938657b03fbdba8","665792a3ff0ff4d2fa1486df","864","stimuli/0010001.jpg","0","","prediction_trial","0","","true","","0","true","true","true","true","true","true","[0]","010","001","1","","","","","","",""
"","","","","","image-keyboard-response","161","293178","0.0-136.0","62865e3456c142785cfad2a7","665500ab8938657b03fbdba8","665792a3ff0ff4d2fa1486df","412","stimuli/00100010.jpg"," ","","feedback_trial","0","","","","","","","","","","","","","","","","","","","","",""
"","","","","","image-keyboard-response","162","295162","0.0-137.0","62865e3456c142785cfad2a7","665500ab8938657b03fbdba8","665792a3ff0ff4d2fa1486df","1979","stimuli/2011110.jpg","2","","prediction_trial","2","","true","","2","true","true","false","false","false","false","[2,1]","011","110","1","","","","","","",""
"","","","","","image-keyboard-response","163","295585","0.0-138.0","62865e3456c142785cfad2a7","665500ab8938657b03fbdba8","665792a3ff0ff4d2fa1486df","418","stimuli/20111102.jpg"," ","","feedback_trial","2","","","","","","","","","","","","","","","","","","","","",""
"","","","","","image-keyboard-response","164","296578","0.0-139.0","62865e3456c142785cfad2a7","665500ab8938657b03fbdba8","665792a3ff0ff4d2fa1486df","990","stimuli/2010110.jpg","2","","prediction_trial","2","","true","","2","true","true","true","true","true","true","[2]","010","110","1","","","","","","",""
"","","","","","image-keyboard-response","165","296922","0.0-140.0","62865e3456c142785cfad2a7","665500ab8938657b03fbdba8","665792a3ff0ff4d2fa1486df","339","stimuli/20101102.jpg"," ","","feedback_trial","2","","","","","","","","","","","","","","","","","","","","",""
"","","","","","image-keyboard-response","166","298051","0.0-141.0","62865e3456c142785cfad2a7","665500ab8938657b03fbdba8","665792a3ff0ff4d2fa1486df","1117","stimuli/0100100.jpg","0","","prediction_trial","0","","true","","0","false","true","false","true","false","true","[0]","100","100","1","","","","","","",""
"","","","","","image-keyboard-response","167","298386","0.0-142.0","62865e3456c142785cfad2a7","665500ab8938657b03fbdba8","665792a3ff0ff4d2fa1486df","323","stimuli/01001000.jpg"," ","","feedback_trial","0","","","","","","","","","","","","","","","","","","","","",""
"","","","","","image-keyboard-response","168","299714","0.0-143.0","62865e3456c142785cfad2a7","665500ab8938657b03fbdba8","665792a3ff0ff4d2fa1486df","1323","stimuli/2001011.jpg","1","","prediction_trial","2","","false","","2","false","false","false","true","false","false","[2]","001","011","0","","","","","","",""
"","","","","","image-keyboard-response","169","300234","0.0-144.0","62865e3456c142785cfad2a7","665500ab8938657b03fbdba8","665792a3ff0ff4d2fa1486df","513","stimuli/20010112.jpg"," ","","feedback_trial","2","","","","","","","","","","","","","","","","","","","","",""
"","","","","","image-keyboard-response","170","301315","0.0-145.0","62865e3456c142785cfad2a7","665500ab8938657b03fbdba8","665792a3ff0ff4d2fa1486df","1075","stimuli/0101001.jpg","0","","prediction_trial","2","","false","","0","true","true","false","false","false","false","[2,0]","101","001","0","","","","","","",""
"","","","","","image-keyboard-response","171","302242","0.0-146.0","62865e3456c142785cfad2a7","665500ab8938657b03fbdba8","665792a3ff0ff4d2fa1486df","921","stimuli/01010012.jpg"," ","","feedback_trial","2","","","","","","","","","","","","","","","","","","","","",""
"","","","","","image-keyboard-response","172","303163","0.0-147.0","62865e3456c142785cfad2a7","665500ab8938657b03fbdba8","665792a3ff0ff4d2fa1486df","914","stimuli/2000001.jpg","2","","prediction_trial","2","","true","","2","false","true","true","true","false","true","[2]","000","001","1","","","","","","",""
"","","","","","image-keyboard-response","173","303626","0.0-148.0","62865e3456c142785cfad2a7","665500ab8938657b03fbdba8","665792a3ff0ff4d2fa1486df","453","stimuli/20000012.jpg"," ","","feedback_trial","2","","","","","","","","","","","","","","","","","","","","",""
"","","","","","image-keyboard-response","174","304514","0.0-149.0","62865e3456c142785cfad2a7","665500ab8938657b03fbdba8","665792a3ff0ff4d2fa1486df","883","stimuli/2110001.jpg","2","","prediction_trial","2","","true","","2","false","true","true","true","false","true","[2]","110","001","1","","","","","","",""
"","","","","","image-keyboard-response","175","304993","0.0-150.0","62865e3456c142785cfad2a7","665500ab8938657b03fbdba8","665792a3ff0ff4d2fa1486df","472","stimuli/21100012.jpg"," ","","feedback_trial","2","","","","","","","","","","","","","","","","","","","","",""
"","","","","","image-keyboard-response","176","306299","0.0-151.0","62865e3456c142785cfad2a7","665500ab8938657b03fbdba8","665792a3ff0ff4d2fa1486df","1296","stimuli/1010100.jpg","1","","prediction_trial","1","","true","","1","true","true","false","true","false","true","[1]","010","100","1","","","","","","",""
"","","","","","image-keyboard-response","177","306682","0.0-152.0","62865e3456c142785cfad2a7","665500ab8938657b03fbdba8","665792a3ff0ff4d2fa1486df","379","stimuli/10101001.jpg"," ","","feedback_trial","1","","","","","","","","","","","","","","","","","","","","",""
"","","","","","image-keyboard-response","178","307626","0.0-153.0","62865e3456c142785cfad2a7","665500ab8938657b03fbdba8","665792a3ff0ff4d2fa1486df","938","stimuli/1001001.jpg","1","","prediction_trial","1","","true","","1","true","true","true","true","true","true","[1]","001","001","1","","","","","","",""
"","","","","","image-keyboard-response","179","308009","0.0-154.0","62865e3456c142785cfad2a7","665500ab8938657b03fbdba8","665792a3ff0ff4d2fa1486df","378","stimuli/10010011.jpg"," ","","feedback_trial","1","","","","","","","","","","","","","","","","","","","","",""
"","","","","","image-keyboard-response","180","309612","0.0-155.0","62865e3456c142785cfad2a7","665500ab8938657b03fbdba8","665792a3ff0ff4d2fa1486df","1595","stimuli/0101110.jpg","1","","prediction_trial","0","","false","","0","false","false","false","false","false","false","[2,0]","101","110","0","","","","","","",""
"","","","","","image-keyboard-response","181","310227","0.0-156.0","62865e3456c142785cfad2a7","665500ab8938657b03fbdba8","665792a3ff0ff4d2fa1486df","609","stimuli/01011100.jpg"," ","","feedback_trial","2","","","","","","","","","","","","","","","","","","","","",""
"","","","","","image-keyboard-response","182","311418","0.0-157.0","62865e3456c142785cfad2a7","665500ab8938657b03fbdba8","665792a3ff0ff4d2fa1486df","1186","stimuli/2101001.jpg","2","","prediction_trial","0","","false","","2","false","true","false","false","false","false","[2,0]","101","001","0","","","","","","",""
"","","","","","image-keyboard-response","183","312107","0.0-158.0","62865e3456c142785cfad2a7","665500ab8938657b03fbdba8","665792a3ff0ff4d2fa1486df","677","stimuli/21010010.jpg"," ","","feedback_trial","2","","","","","","","","","","","","","","","","","","","","",""
"","","","","","image-keyboard-response","184","313417","0.0-159.0","62865e3456c142785cfad2a7","665500ab8938657b03fbdba8","665792a3ff0ff4d2fa1486df","1303","stimuli/1010010.jpg","1","","prediction_trial","1","","true","","1","false","true","false","true","false","true","[1]","010","010","1","","","","","","",""
"","","","","","image-keyboard-response","185","313843","0.0-160.0","62865e3456c142785cfad2a7","665500ab8938657b03fbdba8","665792a3ff0ff4d2fa1486df","422","stimuli/10100101.jpg"," ","","feedback_trial","1","","","","","","","","","","","","","","","","","","","","",""
"","","","","","image-keyboard-response","186","314890","0.0-161.0","62865e3456c142785cfad2a7","665500ab8938657b03fbdba8","665792a3ff0ff4d2fa1486df","1041","stimuli/2110011.jpg","2","","prediction_trial","2","","true","","2","false","false","true","true","false","false","[2]","110","011","1","","","","","","",""
"","","","","","image-keyboard-response","187","315282","0.0-162.0","62865e3456c142785cfad2a7","665500ab8938657b03fbdba8","665792a3ff0ff4d2fa1486df","385","stimuli/21100112.jpg"," ","","feedback_trial","2","","","","","","","","","","","","","","","","","","","","",""
"","","","","","image-keyboard-response","188","316578","0.0-163.0","62865e3456c142785cfad2a7","665500ab8938657b03fbdba8","665792a3ff0ff4d2fa1486df","1290","stimuli/0101100.jpg","0","","prediction_trial","0","","true","","0","false","true","false","false","false","false","[2,0]","101","100","1","","","","","","",""
"","","","","","image-keyboard-response","189","317009","0.0-164.0","62865e3456c142785cfad2a7","665500ab8938657b03fbdba8","665792a3ff0ff4d2fa1486df","425","stimuli/01011000.jpg"," ","","feedback_trial","2","","","","","","","","","","","","","","","","","","","","",""
"","","","","","image-keyboard-response","190","318570","0.0-165.0","62865e3456c142785cfad2a7","665500ab8938657b03fbdba8","665792a3ff0ff4d2fa1486df","1557","stimuli/1100011.jpg","1","","prediction_trial","1","","true","","1","false","false","true","true","false","false","[1]","100","011","1","","","","","","",""
"","","","","","image-keyboard-response","191","318994","0.0-166.0","62865e3456c142785cfad2a7","665500ab8938657b03fbdba8","665792a3ff0ff4d2fa1486df","413","stimuli/11000111.jpg"," ","","feedback_trial","1","","","","","","","","","","","","","","","","","","","","",""
"","","","","","image-keyboard-response","192","320178","0.0-167.0","62865e3456c142785cfad2a7","665500ab8938657b03fbdba8","665792a3ff0ff4d2fa1486df","1178","stimuli/2010111.jpg","2","","prediction_trial","2","","true","","2","false","false","true","true","false","false","[2]","010","111","1","","","","","","",""
"","","","","","image-keyboard-response","193","320674","0.0-168.0","62865e3456c142785cfad2a7","665500ab8938657b03fbdba8","665792a3ff0ff4d2fa1486df","493","stimuli/20101112.jpg"," ","","feedback_trial","2","","","","","","","","","","","","","","","","","","","","",""
"","","","","","image-keyboard-response","194","322803","0.0-169.0","62865e3456c142785cfad2a7","665500ab8938657b03fbdba8","665792a3ff0ff4d2fa1486df","2122","stimuli/0100101.jpg","2","","prediction_trial","0","","false","","0","false","false","false","true","false","false","[0]","100","101","0","","","","","","",""
"","","","","","image-keyboard-response","195","323435","0.0-170.0","62865e3456c142785cfad2a7","665500ab8938657b03fbdba8","665792a3ff0ff4d2fa1486df","625","stimuli/01001010.jpg"," ","","feedback_trial","0","","","","","","","","","","","","","","","","","","","","",""
"","","","","","image-keyboard-response","196","325697","0.0-171.0","62865e3456c142785cfad2a7","665500ab8938657b03fbdba8","665792a3ff0ff4d2fa1486df","2256","stimuli/2101101.jpg","2","","prediction_trial","2","","true","","2","false","false","false","false","false","false","[0,2]","101","101","1","","","","","","",""
"","","","","","image-keyboard-response","197","326362","0.0-172.0","62865e3456c142785cfad2a7","665500ab8938657b03fbdba8","665792a3ff0ff4d2fa1486df","659","stimuli/21011012.jpg"," ","","feedback_trial","0","","","","","","","","","","","","","","","","","","","","",""
"","","","","","image-keyboard-response","198","327370","0.0-173.0","62865e3456c142785cfad2a7","665500ab8938657b03fbdba8","665792a3ff0ff4d2fa1486df","1005","stimuli/0001001.jpg","0","","prediction_trial","0","","true","","0","true","true","true","true","true","true","[0]","001","001","1","","","","","","",""
"","","","","","image-keyboard-response","199","327779","0.0-174.0","62865e3456c142785cfad2a7","665500ab8938657b03fbdba8","665792a3ff0ff4d2fa1486df","401","stimuli/00010010.jpg"," ","","feedback_trial","0","","","","","","","","","","","","","","","","","","","","",""
"","","","","","image-keyboard-response","200","328986","0.0-175.0","62865e3456c142785cfad2a7","665500ab8938657b03fbdba8","665792a3ff0ff4d2fa1486df","1202","stimuli/0011010.jpg","0","","prediction_trial","0","","true","","0","true","true","true","true","true","true","[0]","011","010","1","","","","","","",""
"","","","","","image-keyboard-response","201","329345","0.0-176.0","62865e3456c142785cfad2a7","665500ab8938657b03fbdba8","665792a3ff0ff4d2fa1486df","352","stimuli/00110100.jpg"," ","","feedback_trial","0","","","","","","","","","","","","","","","","","","","","",""
"","","","","","image-keyboard-response","202","330219","0.0-177.0","62865e3456c142785cfad2a7","665500ab8938657b03fbdba8","665792a3ff0ff4d2fa1486df","869","stimuli/1101011.jpg","1","","prediction_trial","1","","true","","1","false","false","true","true","false","false","[1]","101","011","1","","","","","","",""
"","","","","","image-keyboard-response","203","330610","0.0-178.0","62865e3456c142785cfad2a7","665500ab8938657b03fbdba8","665792a3ff0ff4d2fa1486df","387","stimuli/11010111.jpg"," ","","feedback_trial","1","","","","","","","","","","","","","","","","","","","","",""
"","","","","","image-keyboard-response","204","331867","0.0-179.0","62865e3456c142785cfad2a7","665500ab8938657b03fbdba8","665792a3ff0ff4d2fa1486df","1250","stimuli/0111100.jpg","0","","prediction_trial","1","","false","","0","false","true","false","false","false","false","[2,1,0]","111","100","0","","","","","","",""
"","","","","","image-keyboard-response","205","332377","0.0-180.0","62865e3456c142785cfad2a7","665500ab8938657b03fbdba8","665792a3ff0ff4d2fa1486df","504","stimuli/01111001.jpg"," ","","feedback_trial","2","","","","","","","","","","","","","","","","","","","","",""
"","","","","","image-keyboard-response","206","333722","0.0-181.0","62865e3456c142785cfad2a7","665500ab8938657b03fbdba8","665792a3ff0ff4d2fa1486df","1341","stimuli/2111111.jpg","2","","prediction_trial","1","","false","","2","false","false","false","false","false","false","[1,0,2]","111","111","0","","","","","","",""
"","","","","","image-keyboard-response","207","334314","0.0-182.0","62865e3456c142785cfad2a7","665500ab8938657b03fbdba8","665792a3ff0ff4d2fa1486df","586","stimuli/21111111.jpg"," ","","feedback_trial","1","","","","","","","","","","","","","","","","","","","","",""
"","","","","","image-keyboard-response","208","335140","0.0-183.0","62865e3456c142785cfad2a7","665500ab8938657b03fbdba8","665792a3ff0ff4d2fa1486df","818","stimuli/2100110.jpg","2","","prediction_trial","2","","true","","2","true","true","true","true","true","true","[2]","100","110","1","","","","","","",""
"","","","","","image-keyboard-response","209","335506","0.0-184.0","62865e3456c142785cfad2a7","665500ab8938657b03fbdba8","665792a3ff0ff4d2fa1486df","361","stimuli/21001102.jpg"," ","","feedback_trial","2","","","","","","","","","","","","","","","","","","","","",""
"","","","","","image-keyboard-response","210","336441","0.0-185.0","62865e3456c142785cfad2a7","665500ab8938657b03fbdba8","665792a3ff0ff4d2fa1486df","930","stimuli/2010000.jpg","2","","prediction_trial","2","","true","","2","true","true","true","true","true","true","[2]","010","000","1","","","","","","",""
"","","","","","image-keyboard-response","211","336778","0.0-186.0","62865e3456c142785cfad2a7","665500ab8938657b03fbdba8","665792a3ff0ff4d2fa1486df","332","stimuli/20100002.jpg"," ","","feedback_trial","2","","","","","","","","","","","","","","","","","","","","",""
"","","","","","image-keyboard-response","212","337506","0.0-187.0","62865e3456c142785cfad2a7","665500ab8938657b03fbdba8","665792a3ff0ff4d2fa1486df","723","stimuli/1000000.jpg","1","","prediction_trial","1","","true","","1","true","true","true","true","true","true","[1]","000","000","1","","","","","","",""
"","","","","","image-keyboard-response","213","337946","0.0-188.0","62865e3456c142785cfad2a7","665500ab8938657b03fbdba8","665792a3ff0ff4d2fa1486df","433","stimuli/10000001.jpg"," ","","feedback_trial","1","","","","","","","","","","","","","","","","","","","","",""
"","","","","","image-keyboard-response","214","338796","0.0-189.0","62865e3456c142785cfad2a7","665500ab8938657b03fbdba8","665792a3ff0ff4d2fa1486df","844","stimuli/1100010.jpg","1","","prediction_trial","1","","true","","1","false","true","true","true","false","true","[1]","100","010","1","","","","","","",""
"","","","","","image-keyboard-response","215","339210","0.0-190.0","62865e3456c142785cfad2a7","665500ab8938657b03fbdba8","665792a3ff0ff4d2fa1486df","400","stimuli/11000101.jpg"," ","","feedback_trial","1","","","","","","","","","","","","","","","","","","","","",""
"","","","","","image-keyboard-response","216","340058","0.0-191.0","62865e3456c142785cfad2a7","665500ab8938657b03fbdba8","665792a3ff0ff4d2fa1486df","841","stimuli/1010101.jpg","1","","prediction_trial","1","","true","","1","true","true","false","true","false","true","[1]","010","101","1","","","","","","",""
"","","","","","image-keyboard-response","217","340474","0.0-192.0","62865e3456c142785cfad2a7","665500ab8938657b03fbdba8","665792a3ff0ff4d2fa1486df","412","stimuli/10101011.jpg"," ","","feedback_trial","1","","","","","","","","","","","","","","","","","","","","",""
"","","","","","image-keyboard-response","218","341699","0.0-193.0","62865e3456c142785cfad2a7","665500ab8938657b03fbdba8","665792a3ff0ff4d2fa1486df","1213","stimuli/1010110.jpg","0","","prediction_trial","1","","false","","1","false","false","false","true","false","false","[1]","010","110","0","","","","","","",""
"","","","","","image-keyboard-response","219","342330","0.0-194.0","62865e3456c142785cfad2a7","665500ab8938657b03fbdba8","665792a3ff0ff4d2fa1486df","620","stimuli/10101101.jpg"," ","","feedback_trial","1","","","","","","","","","","","","","","","","","","","","",""
"","","","","","image-keyboard-response","220","343610","0.0-195.0","62865e3456c142785cfad2a7","665500ab8938657b03fbdba8","665792a3ff0ff4d2fa1486df","1269","stimuli/1111111.jpg","2","","prediction_trial","0","","false","","1","false","false","false","false","false","false","[1,0,2]","111","111","0","","","","","","",""
"","","","","","image-keyboard-response","221","344163","0.0-196.0","62865e3456c142785cfad2a7","665500ab8938657b03fbdba8","665792a3ff0ff4d2fa1486df","545","stimuli/11111110.jpg"," ","","feedback_trial","1","","","","","","","","","","","","","","","","","","","","",""
"","","","","","image-keyboard-response","222","345252","0.0-197.0","62865e3456c142785cfad2a7","665500ab8938657b03fbdba8","665792a3ff0ff4d2fa1486df","1083","stimuli/2101000.jpg","2","","prediction_trial","2","","true","","2","true","true","false","false","false","false","[0,2]","101","000","1","","","","","","",""
"","","","","","image-keyboard-response","223","345691","0.0-198.0","62865e3456c142785cfad2a7","665500ab8938657b03fbdba8","665792a3ff0ff4d2fa1486df","431","stimuli/21010002.jpg"," ","","feedback_trial","0","","","","","","","","","","","","","","","","","","","","",""
"","","","","","image-keyboard-response","224","346802","0.0-199.0","62865e3456c142785cfad2a7","665500ab8938657b03fbdba8","665792a3ff0ff4d2fa1486df","1105","stimuli/0111011.jpg","0","","prediction_trial","1","","false","","0","true","true","false","false","false","false","[1,2,0]","111","011","0","","","","","","",""
"","","","","","image-keyboard-response","225","347299","0.0-200.0","62865e3456c142785cfad2a7","665500ab8938657b03fbdba8","665792a3ff0ff4d2fa1486df","489","stimuli/01110111.jpg"," ","","feedback_trial","1","","","","","","","","","","","","","","","","","","","","",""
"","","","","","image-keyboard-response","226","348266","0.0-201.0","62865e3456c142785cfad2a7","665500ab8938657b03fbdba8","665792a3ff0ff4d2fa1486df","961","stimuli/2000100.jpg","2","","prediction_trial","2","","true","","2","true","true","true","true","true","true","[2]","000","100","1","","","","","","",""
"","","","","","image-keyboard-response","227","348697","0.0-202.0","62865e3456c142785cfad2a7","665500ab8938657b03fbdba8","665792a3ff0ff4d2fa1486df","426","stimuli/20001002.jpg"," ","","feedback_trial","2","","","","","","","","","","","","","","","","","","","","",""
"","","","","","image-keyboard-response","228","349722","0.0-203.0","62865e3456c142785cfad2a7","665500ab8938657b03fbdba8","665792a3ff0ff4d2fa1486df","1021","stimuli/1110101.jpg","1","","prediction_trial","0","","false","","1","true","true","false","false","false","false","[1,0]","110","101","0","","","","","","",""
"","","","","","image-keyboard-response","229","350315","0.0-204.0","62865e3456c142785cfad2a7","665500ab8938657b03fbdba8","665792a3ff0ff4d2fa1486df","585","stimuli/11101010.jpg"," ","","feedback_trial","1","","","","","","","","","","","","","","","","","","","","",""
"","","","","","image-keyboard-response","230","352642","0.0-205.0","62865e3456c142785cfad2a7","665500ab8938657b03fbdba8","665792a3ff0ff4d2fa1486df","2320","stimuli/2110101.jpg","2","","prediction_trial","2","","true","","2","false","false","true","true","false","false","[2]","110","101","1","","","","","","",""
"","","","","","image-keyboard-response","231","353195","0.0-206.0","62865e3456c142785cfad2a7","665500ab8938657b03fbdba8","665792a3ff0ff4d2fa1486df","547","stimuli/21101012.jpg"," ","","feedback_trial","2","","","","","","","","","","","","","","","","","","","","",""
"","","","","","image-keyboard-response","232","355689","0.0-207.0","62865e3456c142785cfad2a7","665500ab8938657b03fbdba8","665792a3ff0ff4d2fa1486df","2488","stimuli/2100111.jpg","0","","prediction_trial","2","","false","","2","false","false","true","true","false","false","[2]","100","111","0","","","","","","",""
"","","","","","image-keyboard-response","233","356434","0.0-208.0","62865e3456c142785cfad2a7","665500ab8938657b03fbdba8","665792a3ff0ff4d2fa1486df","742","stimuli/21001112.jpg"," ","","feedback_trial","2","","","","","","","","","","","","","","","","","","","","",""
"","","","","","image-keyboard-response","234","358354","0.0-209.0","62865e3456c142785cfad2a7","665500ab8938657b03fbdba8","665792a3ff0ff4d2fa1486df","1913","stimuli/0101111.jpg","2","","prediction_trial","0","","false","","0","false","false","false","false","false","false","[0,2]","101","111","0","","","","","","",""
"","","","","","image-keyboard-response","235","358954","0.0-210.0","62865e3456c142785cfad2a7","665500ab8938657b03fbdba8","665792a3ff0ff4d2fa1486df","594","stimuli/01011110.jpg"," ","","feedback_trial","0","","","","","","","","","","","","","","","","","","","","",""
"","","","","","image-keyboard-response","236","359770","0.0-211.0","62865e3456c142785cfad2a7","665500ab8938657b03fbdba8","665792a3ff0ff4d2fa1486df","810","stimuli/2110100.jpg","2","","prediction_trial","2","","true","","2","true","true","true","true","true","true","[2]","110","100","1","","","","","","",""
"","","","","","image-keyboard-response","237","360187","0.0-212.0","62865e3456c142785cfad2a7","665500ab8938657b03fbdba8","665792a3ff0ff4d2fa1486df","411","stimuli/21101002.jpg"," ","","feedback_trial","2","","","","","","","","","","","","","","","","","","","","",""
"","","","","","image-keyboard-response","238","361146","0.0-213.0","62865e3456c142785cfad2a7","665500ab8938657b03fbdba8","665792a3ff0ff4d2fa1486df","954","stimuli/2000000.jpg","2","","prediction_trial","2","","true","","2","true","true","true","true","true","true","[2]","000","000","1","","","","","","",""
"","","","","","image-keyboard-response","239","361530","0.0-214.0","62865e3456c142785cfad2a7","665500ab8938657b03fbdba8","665792a3ff0ff4d2fa1486df","377","stimuli/20000002.jpg"," ","","feedback_trial","2","","","","","","","","","","","","","","","","","","","","",""
"","","","","","image-keyboard-response","240","362202","0.0-215.0","62865e3456c142785cfad2a7","665500ab8938657b03fbdba8","665792a3ff0ff4d2fa1486df","670","stimuli/1000101.jpg","1","","prediction_trial","1","","true","","1","true","true","true","true","true","true","[1]","000","101","1","","","","","","",""
"","","","","","image-keyboard-response","241","362603","0.0-216.0","62865e3456c142785cfad2a7","665500ab8938657b03fbdba8","665792a3ff0ff4d2fa1486df","393","stimuli/10001011.jpg"," ","","feedback_trial","1","","","","","","","","","","","","","","","","","","","","",""
"","","","","","image-keyboard-response","242","363410","0.0-217.0","62865e3456c142785cfad2a7","665500ab8938657b03fbdba8","665792a3ff0ff4d2fa1486df","798","stimuli/0100011.jpg","0","","prediction_trial","0","","true","","0","true","true","false","true","false","true","[0]","100","011","1","","","","","","",""
"","","","","","image-keyboard-response","243","363980","0.0-218.0","62865e3456c142785cfad2a7","665500ab8938657b03fbdba8","665792a3ff0ff4d2fa1486df","563","stimuli/01000110.jpg"," ","","feedback_trial","0","","","","","","","","","","","","","","","","","","","","",""
"","","","","","image-keyboard-response","244","365210","0.0-219.0","62865e3456c142785cfad2a7","665500ab8938657b03fbdba8","665792a3ff0ff4d2fa1486df","1216","stimuli/2101010.jpg","2","","prediction_trial","0","","false","","2","true","true","false","false","false","false","[0,2]","101","010","0","","","","","","",""
"","","","","","image-keyboard-response","245","365819","0.0-220.0","62865e3456c142785cfad2a7","665500ab8938657b03fbdba8","665792a3ff0ff4d2fa1486df","600","stimuli/21010100.jpg"," ","","feedback_trial","0","","","","","","","","","","","","","","","","","","","","",""
"","","","","","image-keyboard-response","246","366865","0.0-221.0","62865e3456c142785cfad2a7","665500ab8938657b03fbdba8","665792a3ff0ff4d2fa1486df","1040","stimuli/1010000.jpg","1","","prediction_trial","1","","true","","1","true","true","false","true","false","true","[1]","010","000","1","","","","","","",""
"","","","","","image-keyboard-response","247","367290","0.0-222.0","62865e3456c142785cfad2a7","665500ab8938657b03fbdba8","665792a3ff0ff4d2fa1486df","422","stimuli/10100001.jpg"," ","","feedback_trial","1","","","","","","","","","","","","","","","","","","","","",""
"","","","","","image-keyboard-response","248","370011","0.0-223.0","62865e3456c142785cfad2a7","665500ab8938657b03fbdba8","665792a3ff0ff4d2fa1486df","2716","stimuli/0011110.jpg","1","","prediction_trial","0","","false","","0","false","false","true","true","false","false","[0]","011","110","0","","","","","","",""
"","","","","","image-keyboard-response","249","370698","0.0-224.0","62865e3456c142785cfad2a7","665500ab8938657b03fbdba8","665792a3ff0ff4d2fa1486df","680","stimuli/00111100.jpg"," ","","feedback_trial","0","","","","","","","","","","","","","","","","","","","","",""
"","","","","","image-keyboard-response","250","372178","0.0-225.0","62865e3456c142785cfad2a7","665500ab8938657b03fbdba8","665792a3ff0ff4d2fa1486df","1475","stimuli/2011111.jpg","2","","prediction_trial","2","","true","","2","false","false","false","false","false","false","[1,2]","011","111","1","","","","","","",""
"","","","","","image-keyboard-response","251","372699","0.0-226.0","62865e3456c142785cfad2a7","665500ab8938657b03fbdba8","665792a3ff0ff4d2fa1486df","513","stimuli/20111112.jpg"," ","","feedback_trial","1","","","","","","","","","","","","","","","","","","","","",""
"","","","","","image-keyboard-response","252","374123","0.0-227.0","62865e3456c142785cfad2a7","665500ab8938657b03fbdba8","665792a3ff0ff4d2fa1486df","1412","stimuli/0110111.jpg","2","","prediction_trial","0","","false","","0","false","false","false","false","false","false","[0,1]","110","111","0","","","","","","",""
"","","","","","image-keyboard-response","253","374779","0.0-228.0","62865e3456c142785cfad2a7","665500ab8938657b03fbdba8","665792a3ff0ff4d2fa1486df","650","stimuli/01101110.jpg"," ","","feedback_trial","0","","","","","","","","","","","","","","","","","","","","",""
"","","","","","image-keyboard-response","254","375882","0.0-229.0","62865e3456c142785cfad2a7","665500ab8938657b03fbdba8","665792a3ff0ff4d2fa1486df","1092","stimuli/1011001.jpg","1","","prediction_trial","1","","true","","1","true","true","false","false","false","false","[2,1]","011","001","1","","","","","","",""
"","","","","","image-keyboard-response","255","376402","0.0-230.0","62865e3456c142785cfad2a7","665500ab8938657b03fbdba8","665792a3ff0ff4d2fa1486df","514","stimuli/10110011.jpg"," ","","feedback_trial","2","","","","","","","","","","","","","","","","","","","","",""
"","","","","","image-keyboard-response","256","378122","0.0-231.0","62865e3456c142785cfad2a7","665500ab8938657b03fbdba8","665792a3ff0ff4d2fa1486df","1714","stimuli/0001111.jpg","0","","prediction_trial","0","","true","","0","false","false","true","true","false","false","[0]","001","111","1","","","","","","",""
"","","","","","image-keyboard-response","257","378795","0.0-232.0","62865e3456c142785cfad2a7","665500ab8938657b03fbdba8","665792a3ff0ff4d2fa1486df","667","stimuli/00011110.jpg"," ","","feedback_trial","0","","","","","","","","","","","","","","","","","","","","",""
"","","","","","image-keyboard-response","258","379955","0.0-233.0","62865e3456c142785cfad2a7","665500ab8938657b03fbdba8","665792a3ff0ff4d2fa1486df","1145","stimuli/2001010.jpg","2","","prediction_trial","2","","true","","2","true","true","false","true","false","true","[2]","001","010","1","","","","","","",""
"","","","","","image-keyboard-response","259","380354","0.0-234.0","62865e3456c142785cfad2a7","665500ab8938657b03fbdba8","665792a3ff0ff4d2fa1486df","394","stimuli/20010102.jpg"," ","","feedback_trial","2","","","","","","","","","","","","","","","","","","","","",""
"","","","","","image-keyboard-response","260","381539","0.0-235.0","62865e3456c142785cfad2a7","665500ab8938657b03fbdba8","665792a3ff0ff4d2fa1486df","1178","stimuli/1111010.jpg","1","","prediction_trial","1","","true","","1","false","true","false","false","false","false","[1,2,0]","111","010","1","","","","","","",""
"","","","","","image-keyboard-response","261","382170","0.0-236.0","62865e3456c142785cfad2a7","665500ab8938657b03fbdba8","665792a3ff0ff4d2fa1486df","625","stimuli/11110101.jpg"," ","","feedback_trial","1","","","","","","","","","","","","","","","","","","","","",""
"","","","","","image-keyboard-response","262","384745","0.0-237.0","62865e3456c142785cfad2a7","665500ab8938657b03fbdba8","665792a3ff0ff4d2fa1486df","2573","stimuli/2100101.jpg","2","","prediction_trial","2","","true","","2","false","false","true","true","false","false","[2]","100","101","1","","","","","","",""
"","","","","","image-keyboard-response","263","385267","0.0-238.0","62865e3456c142785cfad2a7","665500ab8938657b03fbdba8","665792a3ff0ff4d2fa1486df","517","stimuli/21001012.jpg"," ","","feedback_trial","2","","","","","","","","","","","","","","","","","","","","",""
"","","","","","image-keyboard-response","264","386137","0.0-239.0","62865e3456c142785cfad2a7","665500ab8938657b03fbdba8","665792a3ff0ff4d2fa1486df","865","stimuli/0000001.jpg","0","","prediction_trial","0","","true","","0","true","true","true","true","true","true","[0]","000","001","1","","","","","","",""
"","","","","","image-keyboard-response","265","386499","0.0-240.0","62865e3456c142785cfad2a7","665500ab8938657b03fbdba8","665792a3ff0ff4d2fa1486df","358","stimuli/00000010.jpg"," ","","feedback_trial","0","","","","","","","","","","","","","","","","","","","","",""
"","","","","","image-keyboard-response","266","388508","0.0-241.0","62865e3456c142785cfad2a7","665500ab8938657b03fbdba8","665792a3ff0ff4d2fa1486df","2002","stimuli/2001101.jpg","0","","prediction_trial","2","","false","","2","false","false","false","true","false","false","[2]","001","101","0","","","","","","",""
"","","","","","image-keyboard-response","267","389250","0.0-242.0","62865e3456c142785cfad2a7","665500ab8938657b03fbdba8","665792a3ff0ff4d2fa1486df","737","stimuli/20011012.jpg"," ","","feedback_trial","2","","","","","","","","","","","","","","","","","","","","",""
"","","","","","image-keyboard-response","268","389922","0.0-243.0","62865e3456c142785cfad2a7","665500ab8938657b03fbdba8","665792a3ff0ff4d2fa1486df","664","stimuli/2010100.jpg","2","","prediction_trial","2","","true","","2","true","true","true","true","true","true","[2]","010","100","1","","","","","","",""
"","","","","","image-keyboard-response","269","390306","0.0-244.0","62865e3456c142785cfad2a7","665500ab8938657b03fbdba8","665792a3ff0ff4d2fa1486df","378","stimuli/20101002.jpg"," ","","feedback_trial","2","","","","","","","","","","","","","","","","","","","","",""
"","","","","","image-keyboard-response","270","391396","0.0-245.0","62865e3456c142785cfad2a7","665500ab8938657b03fbdba8","665792a3ff0ff4d2fa1486df","1076","stimuli/2101110.jpg","2","","prediction_trial","0","","false","","2","true","true","false","false","false","false","[2,0]","101","110","0","","","","","","",""
"","","","","","image-keyboard-response","271","392139","0.0-246.0","62865e3456c142785cfad2a7","665500ab8938657b03fbdba8","665792a3ff0ff4d2fa1486df","730","stimuli/21011100.jpg"," ","","feedback_trial","2","","","","","","","","","","","","","","","","","","","","",""
"","","","","","image-keyboard-response","272","393818","0.0-247.0","62865e3456c142785cfad2a7","665500ab8938657b03fbdba8","665792a3ff0ff4d2fa1486df","1674","stimuli/0010110.jpg","1","","prediction_trial","0","","false","","0","false","false","true","true","false","false","[0]","010","110","0","","","","","","",""
"","","","","","image-keyboard-response","273","394363","0.0-248.0","62865e3456c142785cfad2a7","665500ab8938657b03fbdba8","665792a3ff0ff4d2fa1486df","539","stimuli/00101100.jpg"," ","","feedback_trial","0","","","","","","","","","","","","","","","","","","","","",""
"","","","","","image-keyboard-response","274","395410","0.0-249.0","62865e3456c142785cfad2a7","665500ab8938657b03fbdba8","665792a3ff0ff4d2fa1486df","1042","stimuli/0111010.jpg","0","","prediction_trial","2","","false","","0","true","true","false","false","false","false","[1,2,0]","111","010","0","","","","","","",""
"","","","","","image-keyboard-response","275","395971","0.0-250.0","62865e3456c142785cfad2a7","665500ab8938657b03fbdba8","665792a3ff0ff4d2fa1486df","554","stimuli/01110102.jpg"," ","","feedback_trial","1","","","","","","","","","","","","","","","","","","","","",""
"","","","","","image-keyboard-response","276","396634","0.0-251.0","62865e3456c142785cfad2a7","665500ab8938657b03fbdba8","665792a3ff0ff4d2fa1486df","658","stimuli/0001010.jpg","0","","prediction_trial","0","","true","","0","true","true","true","true","true","true","[0]","001","010","1","","","","","","",""
"","","","","","image-keyboard-response","277","397017","0.0-252.0","62865e3456c142785cfad2a7","665500ab8938657b03fbdba8","665792a3ff0ff4d2fa1486df","377","stimuli/00010100.jpg"," ","","feedback_trial","0","","","","","","","","","","","","","","","","","","","","",""
"","","","","","image-keyboard-response","278","397666","0.0-253.0","62865e3456c142785cfad2a7","665500ab8938657b03fbdba8","665792a3ff0ff4d2fa1486df","646","stimuli/1111001.jpg","1","","prediction_trial","1","","true","","1","true","true","false","false","false","false","[2,1,0]","111","001","1","","","","","","",""
"","","","","","image-keyboard-response","279","398090","0.0-254.0","62865e3456c142785cfad2a7","665500ab8938657b03fbdba8","665792a3ff0ff4d2fa1486df","417","stimuli/11110011.jpg"," ","","feedback_trial","2","","","","","","","","","","","","","","","","","","","","",""
"","","","","","image-keyboard-response","280","399388","0.0-255.0","62865e3456c142785cfad2a7","665500ab8938657b03fbdba8","665792a3ff0ff4d2fa1486df","1285","stimuli/2111110.jpg","2","","prediction_trial","2","","true","","2","true","true","false","false","false","false","[2,1,0]","111","110","1","","","","","","",""
"","","","","","image-keyboard-response","281","399897","0.0-256.0","62865e3456c142785cfad2a7","665500ab8938657b03fbdba8","665792a3ff0ff4d2fa1486df","503","stimuli/21111102.jpg"," ","","feedback_trial","2","","","","","","","","","","","","","","","","","","","","",""
"","","","","","image-keyboard-response","282","400858","0.0-257.0","62865e3456c142785cfad2a7","665500ab8938657b03fbdba8","665792a3ff0ff4d2fa1486df","954","stimuli/2011100.jpg","2","","prediction_trial","1","","false","","2","true","true","false","false","false","false","[2,1]","011","100","0","","","","","","",""
"","","","","","image-keyboard-response","283","401331","0.0-258.0","62865e3456c142785cfad2a7","665500ab8938657b03fbdba8","665792a3ff0ff4d2fa1486df","467","stimuli/20111001.jpg"," ","","feedback_trial","2","","","","","","","","","","","","","","","","","","","","",""
"","","","","","image-keyboard-response","284","403892","0.0-259.0","62865e3456c142785cfad2a7","665500ab8938657b03fbdba8","665792a3ff0ff4d2fa1486df","2550","stimuli/2100001.jpg","2","","prediction_trial","2","","true","","2","false","true","true","true","false","true","[2]","100","001","1","","","","","","",""
"","","","","","image-keyboard-response","285","404331","0.0-260.0","62865e3456c142785cfad2a7","665500ab8938657b03fbdba8","665792a3ff0ff4d2fa1486df","432","stimuli/21000012.jpg"," ","","feedback_trial","2","","","","","","","","","","","","","","","","","","","","",""
"","","","","","image-keyboard-response","286","405458","0.0-261.0","62865e3456c142785cfad2a7","665500ab8938657b03fbdba8","665792a3ff0ff4d2fa1486df","1122","stimuli/0010100.jpg","0","","prediction_trial","0","","true","","0","false","true","true","true","false","true","[0]","010","100","1","","","","","","",""
"","","","","","image-keyboard-response","287","405842","0.0-262.0","62865e3456c142785cfad2a7","665500ab8938657b03fbdba8","665792a3ff0ff4d2fa1486df","379","stimuli/00101000.jpg"," ","","feedback_trial","0","","","","","","","","","","","","","","","","","","","","",""
"","","","","","image-keyboard-response","288","407242","0.0-263.0","62865e3456c142785cfad2a7","665500ab8938657b03fbdba8","665792a3ff0ff4d2fa1486df","1394","stimuli/0100110.jpg","1","","prediction_trial","0","","false","","0","false","false","false","true","false","false","[0]","100","110","0","","","","","","",""
"","","","","","image-keyboard-response","289","407962","0.0-264.0","62865e3456c142785cfad2a7","665500ab8938657b03fbdba8","665792a3ff0ff4d2fa1486df","714","stimuli/01001100.jpg"," ","","feedback_trial","0","","","","","","","","","","","","","","","","","","","","",""
"","","","","","image-keyboard-response","290","408747","0.0-265.0","62865e3456c142785cfad2a7","665500ab8938657b03fbdba8","665792a3ff0ff4d2fa1486df","778","stimuli/0000010.jpg","0","","prediction_trial","0","","true","","0","true","true","true","true","true","true","[0]","000","010","1","","","","","","",""
"","","","","","image-keyboard-response","291","409187","0.0-266.0","62865e3456c142785cfad2a7","665500ab8938657b03fbdba8","665792a3ff0ff4d2fa1486df","434","stimuli/00000100.jpg"," ","","feedback_trial","0","","","","","","","","","","","","","","","","","","","","",""
"","","","","","image-keyboard-response","292","410858","0.0-267.0","62865e3456c142785cfad2a7","665500ab8938657b03fbdba8","665792a3ff0ff4d2fa1486df","1661","stimuli/1111110.jpg","0","","prediction_trial","0","","true","","1","false","false","false","false","false","false","[2,0,1]","111","110","1","","","","","","",""
"","","","","","image-keyboard-response","293","411474","0.0-268.0","62865e3456c142785cfad2a7","665500ab8938657b03fbdba8","665792a3ff0ff4d2fa1486df","611","stimuli/11111100.jpg"," ","","feedback_trial","2","","","","","","","","","","","","","","","","","","","","",""
"","","","","","image-keyboard-response","294","412588","0.0-269.0","62865e3456c142785cfad2a7","665500ab8938657b03fbdba8","665792a3ff0ff4d2fa1486df","1107","stimuli/2110110.jpg","2","","prediction_trial","2","","true","","2","true","true","true","true","true","true","[2]","110","110","1","","","","","","",""
"","","","","","image-keyboard-response","295","412978","0.0-270.0","62865e3456c142785cfad2a7","665500ab8938657b03fbdba8","665792a3ff0ff4d2fa1486df","384","stimuli/21101102.jpg"," ","","feedback_trial","2","","","","","","","","","","","","","","","","","","","","",""
"","","","","","image-keyboard-response","296","414474","0.0-271.0","62865e3456c142785cfad2a7","665500ab8938657b03fbdba8","665792a3ff0ff4d2fa1486df","1488","stimuli/0101010.jpg","0","","prediction_trial","0","","true","","0","true","true","false","false","false","false","[2,0]","101","010","1","","","","","","",""
"","","","","","image-keyboard-response","297","414954","0.0-272.0","62865e3456c142785cfad2a7","665500ab8938657b03fbdba8","665792a3ff0ff4d2fa1486df","477","stimuli/01010100.jpg"," ","","feedback_trial","2","","","","","","","","","","","","","","","","","","","","",""
"","","","","","image-keyboard-response","298","416923","0.0-273.0","62865e3456c142785cfad2a7","665500ab8938657b03fbdba8","665792a3ff0ff4d2fa1486df","1966","stimuli/0000101.jpg","0","","prediction_trial","0","","true","","0","false","false","true","true","false","false","[0]","000","101","1","","","","","","",""
"","","","","","image-keyboard-response","299","417435","0.0-274.0","62865e3456c142785cfad2a7","665500ab8938657b03fbdba8","665792a3ff0ff4d2fa1486df","504","stimuli/00001010.jpg"," ","","feedback_trial","0","","","","","","","","","","","","","","","","","","","","",""
"","","","","","image-keyboard-response","300","418761","0.0-275.0","62865e3456c142785cfad2a7","665500ab8938657b03fbdba8","665792a3ff0ff4d2fa1486df","1320","stimuli/2000010.jpg","2","","prediction_trial","2","","true","","2","true","true","true","true","true","true","[2]","000","010","1","","","","","","",""
"","","","","","image-keyboard-response","301","419106","0.0-276.0","62865e3456c142785cfad2a7","665500ab8938657b03fbdba8","665792a3ff0ff4d2fa1486df","342","stimuli/20000102.jpg"," ","","feedback_trial","2","","","","","","","","","","","","","","","","","","","","",""
"","","","","","image-keyboard-response","302","420754","0.0-277.0","62865e3456c142785cfad2a7","665500ab8938657b03fbdba8","665792a3ff0ff4d2fa1486df","1643","stimuli/1011100.jpg","2","","prediction_trial","1","","false","","1","true","true","false","false","false","false","[1,2]","011","100","0","","","","","","",""
"","","","","","image-keyboard-response","303","421481","0.0-278.0","62865e3456c142785cfad2a7","665500ab8938657b03fbdba8","665792a3ff0ff4d2fa1486df","716","stimuli/10111001.jpg"," ","","feedback_trial","1","","","","","","","","","","","","","","","","","","","","",""
"","","","","","image-keyboard-response","304","422842","0.0-279.0","62865e3456c142785cfad2a7","665500ab8938657b03fbdba8","665792a3ff0ff4d2fa1486df","1356","stimuli/0111110.jpg","1","","prediction_trial","2","","false","","0","false","false","false","false","false","false","[1,0,2]","111","110","0","","","","","","",""
"","","","","","image-keyboard-response","305","423450","0.0-280.0","62865e3456c142785cfad2a7","665500ab8938657b03fbdba8","665792a3ff0ff4d2fa1486df","597","stimuli/01111102.jpg"," ","","feedback_trial","1","","","","","","","","","","","","","","","","","","","","",""
"","","","","","image-keyboard-response","306","424769","0.0-281.0","62865e3456c142785cfad2a7","665500ab8938657b03fbdba8","665792a3ff0ff4d2fa1486df","1314","stimuli/0011101.jpg","2","","prediction_trial","0","","false","","0","false","false","true","true","false","false","[0]","011","101","0","","","","","","",""
"","","","","","image-keyboard-response","307","425466","0.0-282.0","62865e3456c142785cfad2a7","665500ab8938657b03fbdba8","665792a3ff0ff4d2fa1486df","694","stimuli/00111010.jpg"," ","","feedback_trial","0","","","","","","","","","","","","","","","","","","","","",""
"","","","","","image-keyboard-response","308","426620","0.0-283.0","62865e3456c142785cfad2a7","665500ab8938657b03fbdba8","665792a3ff0ff4d2fa1486df","1146","stimuli/2111000.jpg","2","","prediction_trial","0","","false","","2","true","true","false","false","false","false","[0,1,2]","111","000","0","","","","","","",""
"","","","","","image-keyboard-response","309","427193","0.0-284.0","62865e3456c142785cfad2a7","665500ab8938657b03fbdba8","665792a3ff0ff4d2fa1486df","569","stimuli/21110000.jpg"," ","","feedback_trial","0","","","","","","","","","","","","","","","","","","","","",""
"","","","","","image-keyboard-response","310","428586","0.0-285.0","62865e3456c142785cfad2a7","665500ab8938657b03fbdba8","665792a3ff0ff4d2fa1486df","1389","stimuli/2111011.jpg","2","","prediction_trial","0","","false","","2","false","false","false","false","false","false","[2,0,1]","111","011","0","","","","","","",""
"","","","","","image-keyboard-response","311","429203","0.0-286.0","62865e3456c142785cfad2a7","665500ab8938657b03fbdba8","665792a3ff0ff4d2fa1486df","610","stimuli/21110110.jpg"," ","","feedback_trial","2","","","","","","","","","","","","","","","","","","","","",""
"","","","","","image-keyboard-response","312","429897","0.0-287.0","62865e3456c142785cfad2a7","665500ab8938657b03fbdba8","665792a3ff0ff4d2fa1486df","689","stimuli/0011011.jpg","0","","prediction_trial","0","","true","","0","true","true","true","true","true","true","[0]","011","011","1","","","","","","",""
"","","","","","image-keyboard-response","313","430546","0.0-288.0","62865e3456c142785cfad2a7","665500ab8938657b03fbdba8","665792a3ff0ff4d2fa1486df","643","stimuli/00110110.jpg"," ","","feedback_trial","0","","","","","","","","","","","","","","","","","","","","",""
"","","","","","image-keyboard-response","314","433043","0.0-289.0","62865e3456c142785cfad2a7","665500ab8938657b03fbdba8","665792a3ff0ff4d2fa1486df","2489","stimuli/2011101.jpg","1","","prediction_trial","2","","false","","2","false","false","false","false","false","false","[1,2]","011","101","0","","","","","","",""
"","","","","","image-keyboard-response","315","433730","0.0-290.0","62865e3456c142785cfad2a7","665500ab8938657b03fbdba8","665792a3ff0ff4d2fa1486df","681","stimuli/20111012.jpg"," ","","feedback_trial","1","","","","","","","","","","","","","","","","","","","","",""
"","","","","","image-keyboard-response","316","435722","0.0-291.0","62865e3456c142785cfad2a7","665500ab8938657b03fbdba8","665792a3ff0ff4d2fa1486df","1986","stimuli/1101111.jpg","1","","prediction_trial","1","","true","","1","false","false","true","true","false","false","[1]","101","111","1","","","","","","",""
"","","","","","image-keyboard-response","317","436242","0.0-292.0","62865e3456c142785cfad2a7","665500ab8938657b03fbdba8","665792a3ff0ff4d2fa1486df","514","stimuli/11011111.jpg"," ","","feedback_trial","1","","","","","","","","","","","","","","","","","","","","",""
"","","","","","survey-html-form","318","640627","0.0-293.0","62865e3456c142785cfad2a7","665500ab8938657b03fbdba8","665792a3ff0ff4d2fa1486df","204382","","{""feedback"":""Well, when it was obvious that Sam could see the ball or see if the ball is not there, I just pick that option to where Sam could obviously guess or see the ball. When it was not obvious, some were randoms/instinct when I nor Sam could not see the ball. If I could see the ball but Sam can't and also can't tell if the ball is there, I tried to pick the best estimated guess.   "",""age"":""31"",""gender"":""Male"",""other_gender"":"""",""race"":""other_race"",""other_race"":""Mexican/Honduran-American"",""ethnicity"":""Hispanic""}","","exit_survey","","","","","","","","","","","","","","","","Well, when it was obvious that Sam could see the ball or see if the ball is not there, I just pick that option to where Sam could obviously guess or see the ball. When it was not obvious, some were randoms/instinct when I nor Sam could not see the ball. If I could see the ball but Sam can't and also can't tell if the ball is there, I tried to pick the best estimated guess.   ","31","Hispanic","Male","Mexican/Honduran-American","0.625","0.625"
