"success","timeout","failed_images","failed_audio","failed_video","trial_type","trial_index","time_elapsed","internal_node_id","prolific_id","prolific_study_id","prolific_session_id","rt","stimulus","response","view_history","trial","character_choice","stimulus_dict","accuracy","correct_response","ball_pos","ego_ball_visible","ego_can_infer","alter_ball_visible","alter_can_infer","collective_ball_visible","collective_can_infer","search_locations","alter_occluders","ego_occluders","accuracy_bool","feedback","age","ethnicity","gender","race","overall_accuracy","bonus"
"true","false","[]","[]","[]","preload","0","4985","0.0-0.0","60bae671bf92bf34f7a774ce","665500ab8938657b03fbdba8","66577c39d450c094bccb1bc1","","","","","","","","","","","","","","","","","","","","","","","","","","",""
"true","","","","","fullscreen","1","9688","0.0-1.0","60bae671bf92bf34f7a774ce","665500ab8938657b03fbdba8","66577c39d450c094bccb1bc1","","","","","","","","","","","","","","","","","","","","","","","","","","",""
"","","","","","html-button-response","2","36482","0.0-2.0","60bae671bf92bf34f7a774ce","665500ab8938657b03fbdba8","66577c39d450c094bccb1bc1","26792","<p><b>Consent Form</b></p> <div style=""text-align:left;background-color:lightgrey; padding:20px; max-width:900px;""><p>Please consider this information carefully before deciding whether to participate in this research.</p> <p>The purpose of this research is to examine which factors influence social judgment and decision-making. You will be asked to make judgements about individuals and actions in social scenarios. We are simply interested in your judgement. The study will take less than 1 hour to complete, and you will receive less than $20 on Prolific. Your compensation and time commitment are specified in the study description. There are no anticipated risks associated with participating in this study. The effects of participating should be comparable to those you would ordinarily experience from viewing a computer monitor and using a mouse or keyboard for a similar amount of time. At the end of the study, we will provide an explanation of the questions that motivate this line of research and will describe the potential implications. </p><p> Your participation in this study is completely voluntary and you may refuse to participate or you may choose to withdraw at any time without penalty or loss of benefits to you which are otherwise entitled. Your participation in this study will remain confidential. No personally identifiable information will be associated with your data. Also, all analyses of the data will be averaged across all the participants, so your individual responses will never be specifically analyzed. </p><p> If you have questions or concerns about your participation or payment, or want to request a summary of research findings, please contact Dr. Jonathan Phillips at Jonathan.S.Phillips@dartmouth.edu. </p><p> Please save a copy of this form for your records. </p><p><b>Agreement: </b>The nature and purpose of this research have been sufficiently explained and I agree to participate in this study. I understand that I am free to withdraw at any time without incurring any penalty. Please consent by clicking the button below to continue. Otherwise, please exit the study at any time. </p>","0","","","","","","","","","","","","","","","","","","","","","","","",""
"","","","","","instructions","3","204185","0.0-3.0-0.0","60bae671bf92bf34f7a774ce","665500ab8938657b03fbdba8","66577c39d450c094bccb1bc1","167701","","","[{""page_index"":0,""viewing_time"":3319},{""page_index"":1,""viewing_time"":19491},{""page_index"":2,""viewing_time"":7924},{""page_index"":3,""viewing_time"":17211},{""page_index"":4,""viewing_time"":8396},{""page_index"":5,""viewing_time"":7605},{""page_index"":6,""viewing_time"":7178},{""page_index"":7,""viewing_time"":9671},{""page_index"":8,""viewing_time"":8168},{""page_index"":9,""viewing_time"":7749},{""page_index"":10,""viewing_time"":31234},{""page_index"":11,""viewing_time"":18995},{""page_index"":12,""viewing_time"":11153},{""page_index"":13,""viewing_time"":9607}]","intro","","","","","","","","","","","","","","","","","","","","","",""
"","","","","","image-keyboard-response","4","209349","0.0-3.0-1.0","60bae671bf92bf34f7a774ce","665500ab8938657b03fbdba8","66577c39d450c094bccb1bc1","5155","stimuli/2011100.jpg","2","","prediction_practice","1","{""filepath"":""stimuli/2011100.jpg"",""ball_pos"":2,""ego_ball_visible"":true,""ego_can_infer"":true,""alter_ball_visible"":false,""alter_can_infer"":false,""collective_ball_visible"":false,""collective_can_infer"":false,""search_locations"":[2,1],""alter_occluders"":""011"",""ego_occluders"":""100""}","false","","","","","","","","","","","","","","","","","","",""
"","","","","","image-keyboard-response","5","215649","0.0-3.0-2.0","60bae671bf92bf34f7a774ce","665500ab8938657b03fbdba8","66577c39d450c094bccb1bc1","6296","stimuli/20111001.jpg"," ","","practrice_feedback","2","","","","","","","","","","","","","","","","","","","","",""
"","","","","","image-keyboard-response","6","233318","0.0-3.0-3.0","60bae671bf92bf34f7a774ce","665500ab8938657b03fbdba8","66577c39d450c094bccb1bc1","17664","stimuli/0001101.jpg","2","","prediction_practice","0","{""filepath"":""stimuli/0001101.jpg"",""ball_pos"":0,""ego_ball_visible"":false,""ego_can_infer"":false,""alter_ball_visible"":true,""alter_can_infer"":true,""collective_ball_visible"":false,""collective_can_infer"":false,""search_locations"":[0],""alter_occluders"":""001"",""ego_occluders"":""101""}","false","","","","","","","","","","","","","","","","","","",""
"","","","","","image-keyboard-response","7","235784","0.0-3.0-4.0","60bae671bf92bf34f7a774ce","665500ab8938657b03fbdba8","66577c39d450c094bccb1bc1","2462","stimuli/00011010.jpg"," ","","practrice_feedback","0","","","","","","","","","","","","","","","","","","","","",""
"","","","","","image-keyboard-response","8","239013","0.0-3.0-5.0","60bae671bf92bf34f7a774ce","665500ab8938657b03fbdba8","66577c39d450c094bccb1bc1","3225","stimuli/2100101.jpg","1","","prediction_practice","2","{""filepath"":""stimuli/2100101.jpg"",""ball_pos"":2,""ego_ball_visible"":false,""ego_can_infer"":false,""alter_ball_visible"":true,""alter_can_infer"":true,""collective_ball_visible"":false,""collective_can_infer"":false,""search_locations"":[2],""alter_occluders"":""100"",""ego_occluders"":""101""}","false","","","","","","","","","","","","","","","","","","",""
"","","","","","image-keyboard-response","9","243724","0.0-3.0-6.0","60bae671bf92bf34f7a774ce","665500ab8938657b03fbdba8","66577c39d450c094bccb1bc1","4706","stimuli/21001012.jpg"," ","","practrice_feedback","2","","","","","","","","","","","","","","","","","","","","",""
"","","","","","image-keyboard-response","10","248687","0.0-3.0-7.0","60bae671bf92bf34f7a774ce","665500ab8938657b03fbdba8","66577c39d450c094bccb1bc1","4959","stimuli/0101100.jpg","1","","prediction_practice","0","{""filepath"":""stimuli/0101100.jpg"",""ball_pos"":0,""ego_ball_visible"":false,""ego_can_infer"":true,""alter_ball_visible"":false,""alter_can_infer"":false,""collective_ball_visible"":false,""collective_can_infer"":false,""search_locations"":[2,0],""alter_occluders"":""101"",""ego_occluders"":""100""}","false","","","","","","","","","","","","","","","","","","",""
"","","","","","image-keyboard-response","11","253784","0.0-3.0-8.0","60bae671bf92bf34f7a774ce","665500ab8938657b03fbdba8","66577c39d450c094bccb1bc1","5092","stimuli/01011000.jpg"," ","","practrice_feedback","2","","","","","","","","","","","","","","","","","","","","",""
"","","","","","image-keyboard-response","12","255748","0.0-3.0-9.0","60bae671bf92bf34f7a774ce","665500ab8938657b03fbdba8","66577c39d450c094bccb1bc1","1959","stimuli/0110011.jpg","0","","prediction_practice","1","{""filepath"":""stimuli/0110011.jpg"",""ball_pos"":0,""ego_ball_visible"":true,""ego_can_infer"":true,""alter_ball_visible"":false,""alter_can_infer"":false,""collective_ball_visible"":false,""collective_can_infer"":false,""search_locations"":[1,0],""alter_occluders"":""110"",""ego_occluders"":""011""}","false","","","","","","","","","","","","","","","","","","",""
"","","","","","image-keyboard-response","13","265803","0.0-3.0-10.0","60bae671bf92bf34f7a774ce","665500ab8938657b03fbdba8","66577c39d450c094bccb1bc1","10051","stimuli/01100111.jpg"," ","","practrice_feedback","1","","","","","","","","","","","","","","","","","","","","",""
"","","","","","image-keyboard-response","14","271300","0.0-3.0-11.0","60bae671bf92bf34f7a774ce","665500ab8938657b03fbdba8","66577c39d450c094bccb1bc1","5493","stimuli/1111001.jpg","1","","prediction_practice","0","{""filepath"":""stimuli/1111001.jpg"",""ball_pos"":1,""ego_ball_visible"":true,""ego_can_infer"":true,""alter_ball_visible"":false,""alter_can_infer"":false,""collective_ball_visible"":false,""collective_can_infer"":false,""search_locations"":[2,1,0],""alter_occluders"":""111"",""ego_occluders"":""001""}","false","","","","","","","","","","","","","","","","","","",""
"","","","","","image-keyboard-response","15","279217","0.0-3.0-12.0","60bae671bf92bf34f7a774ce","665500ab8938657b03fbdba8","66577c39d450c094bccb1bc1","7913","stimuli/11110010.jpg"," ","","practrice_feedback","2","","","","","","","","","","","","","","","","","","","","",""
"","","","","","image-keyboard-response","16","283091","0.0-3.0-13.0","60bae671bf92bf34f7a774ce","665500ab8938657b03fbdba8","66577c39d450c094bccb1bc1","3870","stimuli/0111001.jpg","1","","prediction_practice","2","{""filepath"":""stimuli/0111001.jpg"",""ball_pos"":0,""ego_ball_visible"":true,""ego_can_infer"":true,""alter_ball_visible"":false,""alter_can_infer"":false,""collective_ball_visible"":false,""collective_can_infer"":false,""search_locations"":[2,1,0],""alter_occluders"":""111"",""ego_occluders"":""001""}","false","","","","","","","","","","","","","","","","","","",""
"","","","","","image-keyboard-response","17","285073","0.0-3.0-14.0","60bae671bf92bf34f7a774ce","665500ab8938657b03fbdba8","66577c39d450c094bccb1bc1","1977","stimuli/01110012.jpg"," ","","practrice_feedback","2","","","","","","","","","","","","","","","","","","","","",""
"","","","","","image-keyboard-response","18","286470","0.0-3.0-15.0","60bae671bf92bf34f7a774ce","665500ab8938657b03fbdba8","66577c39d450c094bccb1bc1","1392","stimuli/2100111.jpg","2","","prediction_practice","2","{""filepath"":""stimuli/2100111.jpg"",""ball_pos"":2,""ego_ball_visible"":false,""ego_can_infer"":false,""alter_ball_visible"":true,""alter_can_infer"":true,""collective_ball_visible"":false,""collective_can_infer"":false,""search_locations"":[2],""alter_occluders"":""100"",""ego_occluders"":""111""}","true","","","","","","","","","","","","","","","","","","",""
"","","","","","image-keyboard-response","19","290519","0.0-3.0-16.0","60bae671bf92bf34f7a774ce","665500ab8938657b03fbdba8","66577c39d450c094bccb1bc1","4045","stimuli/21001112.jpg"," ","","practrice_feedback","2","","","","","","","","","","","","","","","","","","","","",""
"","","","","","image-keyboard-response","20","293770","0.0-3.0-17.0","60bae671bf92bf34f7a774ce","665500ab8938657b03fbdba8","66577c39d450c094bccb1bc1","3247","stimuli/2101000.jpg","2","","prediction_practice","0","{""filepath"":""stimuli/2101000.jpg"",""ball_pos"":2,""ego_ball_visible"":true,""ego_can_infer"":true,""alter_ball_visible"":false,""alter_can_infer"":false,""collective_ball_visible"":false,""collective_can_infer"":false,""search_locations"":[2,0],""alter_occluders"":""101"",""ego_occluders"":""000""}","false","","","","","","","","","","","","","","","","","","",""
"","","","","","image-keyboard-response","21","295484","0.0-3.0-18.0","60bae671bf92bf34f7a774ce","665500ab8938657b03fbdba8","66577c39d450c094bccb1bc1","1709","stimuli/21010000.jpg"," ","","practrice_feedback","2","","","","","","","","","","","","","","","","","","","","",""
"","","","","","image-keyboard-response","22","296810","0.0-3.0-19.0","60bae671bf92bf34f7a774ce","665500ab8938657b03fbdba8","66577c39d450c094bccb1bc1","1322","stimuli/0100011.jpg","2","","prediction_practice","0","{""filepath"":""stimuli/0100011.jpg"",""ball_pos"":0,""ego_ball_visible"":true,""ego_can_infer"":true,""alter_ball_visible"":false,""alter_can_infer"":true,""collective_ball_visible"":false,""collective_can_infer"":true,""search_locations"":[0],""alter_occluders"":""100"",""ego_occluders"":""011""}","false","","","","","","","","","","","","","","","","","","",""
"","","","","","image-keyboard-response","23","298303","0.0-3.0-20.0","60bae671bf92bf34f7a774ce","665500ab8938657b03fbdba8","66577c39d450c094bccb1bc1","1489","stimuli/01000110.jpg"," ","","practrice_feedback","0","","","","","","","","","","","","","","","","","","","","",""
"","","","","","html-button-response","24","306882","0.0-3.0-21.0","60bae671bf92bf34f7a774ce","665500ab8938657b03fbdba8","66577c39d450c094bccb1bc1","8579","Now that you've had some practice, you'll be tested with a couple of easy trials. If you correctly predict Sam's choice, you'll move on to complete the experiment!","0","","","","","","","","","","","","","","","","","","","","","","","",""
"","","","","","image-keyboard-response","25","308449","0.0-3.0-22.0-0.0","60bae671bf92bf34f7a774ce","665500ab8938657b03fbdba8","66577c39d450c094bccb1bc1","1561","stimuli/0000011.jpg","arrowleft","","comprehension_quiz","","","true","arrowleft","","","","","","","","","","","","","","","","","",""
"","","","","","image-keyboard-response","26","310807","0.0-3.0-22.0-1.0","60bae671bf92bf34f7a774ce","665500ab8938657b03fbdba8","66577c39d450c094bccb1bc1","2354","stimuli/00000110.jpg"," ","","comprehension_quiz","","","true"," ","","","","","","","","","","","","","","","","","",""
"","","","","","image-keyboard-response","27","313680","0.0-3.0-22.0-2.0","60bae671bf92bf34f7a774ce","665500ab8938657b03fbdba8","66577c39d450c094bccb1bc1","2869","stimuli/1010010.jpg","arrowdown","","comprehension_quiz","","","true","arrowdown","","","","","","","","","","","","","","","","","",""
"","","","","","image-keyboard-response","28","314913","0.0-3.0-22.0-3.0","60bae671bf92bf34f7a774ce","665500ab8938657b03fbdba8","66577c39d450c094bccb1bc1","1230","stimuli/10100101.jpg"," ","","comprehension_quiz","","","true"," ","","","","","","","","","","","","","","","","","",""
"","","","","","html-button-response","29","316798","0.0-4.0","60bae671bf92bf34f7a774ce","665500ab8938657b03fbdba8","66577c39d450c094bccb1bc1","1884","The experiment will now begin.","0","","","","","","","","","","","","","","","","","","","","","","","",""
"","","","","","image-keyboard-response","30","320531","0.0-5.0","60bae671bf92bf34f7a774ce","665500ab8938657b03fbdba8","66577c39d450c094bccb1bc1","3728","stimuli/0100111.jpg","0","","prediction_trial","0","","true","","0","false","false","false","true","false","false","[0]","100","111","1","","","","","","",""
"","","","","","image-keyboard-response","31","326147","0.0-6.0","60bae671bf92bf34f7a774ce","665500ab8938657b03fbdba8","66577c39d450c094bccb1bc1","5612","stimuli/01001110.jpg"," ","","feedback_trial","0","","","","","","","","","","","","","","","","","","","","",""
"","","","","","image-keyboard-response","32","329182","0.0-7.0","60bae671bf92bf34f7a774ce","665500ab8938657b03fbdba8","66577c39d450c094bccb1bc1","3032","stimuli/1000110.jpg","1","","prediction_trial","1","","true","","1","false","false","true","true","false","false","[1]","000","110","1","","","","","","",""
"","","","","","image-keyboard-response","33","331844","0.0-8.0","60bae671bf92bf34f7a774ce","665500ab8938657b03fbdba8","66577c39d450c094bccb1bc1","2658","stimuli/10001101.jpg"," ","","feedback_trial","1","","","","","","","","","","","","","","","","","","","","",""
"","","","","","image-keyboard-response","34","334221","0.0-9.0","60bae671bf92bf34f7a774ce","665500ab8938657b03fbdba8","66577c39d450c094bccb1bc1","2372","stimuli/0111110.jpg","0","","prediction_trial","0","","true","","0","false","false","false","false","false","false","[1,2,0]","111","110","1","","","","","","",""
"","","","","","image-keyboard-response","35","336276","0.0-10.0","60bae671bf92bf34f7a774ce","665500ab8938657b03fbdba8","66577c39d450c094bccb1bc1","2050","stimuli/01111100.jpg"," ","","feedback_trial","1","","","","","","","","","","","","","","","","","","","","",""
"","","","","","image-keyboard-response","36","338374","0.0-11.0","60bae671bf92bf34f7a774ce","665500ab8938657b03fbdba8","66577c39d450c094bccb1bc1","2093","stimuli/0100110.jpg","0","","prediction_trial","0","","true","","0","false","false","false","true","false","false","[0]","100","110","1","","","","","","",""
"","","","","","image-keyboard-response","37","340032","0.0-12.0","60bae671bf92bf34f7a774ce","665500ab8938657b03fbdba8","66577c39d450c094bccb1bc1","1651","stimuli/01001100.jpg"," ","","feedback_trial","0","","","","","","","","","","","","","","","","","","","","",""
"","","","","","image-keyboard-response","38","342734","0.0-13.0","60bae671bf92bf34f7a774ce","665500ab8938657b03fbdba8","66577c39d450c094bccb1bc1","2698","stimuli/0110000.jpg","0","","prediction_trial","1","","false","","0","true","true","false","false","false","false","[1,0]","110","000","0","","","","","","",""
"","","","","","image-keyboard-response","39","346840","0.0-14.0","60bae671bf92bf34f7a774ce","665500ab8938657b03fbdba8","66577c39d450c094bccb1bc1","4100","stimuli/01100001.jpg"," ","","feedback_trial","1","","","","","","","","","","","","","","","","","","","","",""
"","","","","","image-keyboard-response","40","351208","0.0-15.0","60bae671bf92bf34f7a774ce","665500ab8938657b03fbdba8","66577c39d450c094bccb1bc1","4364","stimuli/2000010.jpg","2","","prediction_trial","2","","true","","2","true","true","true","true","true","true","[2]","000","010","1","","","","","","",""
"","","","","","image-keyboard-response","41","352587","0.0-16.0","60bae671bf92bf34f7a774ce","665500ab8938657b03fbdba8","66577c39d450c094bccb1bc1","1375","stimuli/20000102.jpg"," ","","feedback_trial","2","","","","","","","","","","","","","","","","","","","","",""
"","","","","","image-keyboard-response","42","354695","0.0-17.0","60bae671bf92bf34f7a774ce","665500ab8938657b03fbdba8","66577c39d450c094bccb1bc1","2107","stimuli/2100111.jpg","0","","prediction_trial","2","","false","","2","false","false","true","true","false","false","[2]","100","111","0","","","","","","",""
"","","","","","image-keyboard-response","43","360453","0.0-18.0","60bae671bf92bf34f7a774ce","665500ab8938657b03fbdba8","66577c39d450c094bccb1bc1","5757","stimuli/21001112.jpg"," ","","feedback_trial","2","","","","","","","","","","","","","","","","","","","","",""
"","","","","","image-keyboard-response","44","363163","0.0-19.0","60bae671bf92bf34f7a774ce","665500ab8938657b03fbdba8","66577c39d450c094bccb1bc1","2706","stimuli/1101111.jpg","1","","prediction_trial","1","","true","","1","false","false","true","true","false","false","[1]","101","111","1","","","","","","",""
"","","","","","image-keyboard-response","45","365711","0.0-20.0","60bae671bf92bf34f7a774ce","665500ab8938657b03fbdba8","66577c39d450c094bccb1bc1","2544","stimuli/11011111.jpg"," ","","feedback_trial","1","","","","","","","","","","","","","","","","","","","","",""
"","","","","","image-keyboard-response","46","369915","0.0-21.0","60bae671bf92bf34f7a774ce","665500ab8938657b03fbdba8","66577c39d450c094bccb1bc1","4200","stimuli/1001110.jpg","1","","prediction_trial","1","","true","","1","false","false","true","true","false","false","[1]","001","110","1","","","","","","",""
"","","","","","image-keyboard-response","47","371296","0.0-22.0","60bae671bf92bf34f7a774ce","665500ab8938657b03fbdba8","66577c39d450c094bccb1bc1","1377","stimuli/10011101.jpg"," ","","feedback_trial","1","","","","","","","","","","","","","","","","","","","","",""
"","","","","","image-keyboard-response","48","374369","0.0-23.0","60bae671bf92bf34f7a774ce","665500ab8938657b03fbdba8","66577c39d450c094bccb1bc1","3068","stimuli/2110010.jpg","2","","prediction_trial","2","","true","","2","true","true","true","true","true","true","[2]","110","010","1","","","","","","",""
"","","","","","image-keyboard-response","49","375575","0.0-24.0","60bae671bf92bf34f7a774ce","665500ab8938657b03fbdba8","66577c39d450c094bccb1bc1","1201","stimuli/21100102.jpg"," ","","feedback_trial","2","","","","","","","","","","","","","","","","","","","","",""
"","","","","","image-keyboard-response","50","378179","0.0-25.0","60bae671bf92bf34f7a774ce","665500ab8938657b03fbdba8","66577c39d450c094bccb1bc1","2603","stimuli/0000011.jpg","0","","prediction_trial","0","","true","","0","true","true","true","true","true","true","[0]","000","011","1","","","","","","",""
"","","","","","image-keyboard-response","51","379321","0.0-26.0","60bae671bf92bf34f7a774ce","665500ab8938657b03fbdba8","66577c39d450c094bccb1bc1","1142","stimuli/00000110.jpg"," ","","feedback_trial","0","","","","","","","","","","","","","","","","","","","","",""
"","","","","","image-keyboard-response","52","382076","0.0-27.0","60bae671bf92bf34f7a774ce","665500ab8938657b03fbdba8","66577c39d450c094bccb1bc1","2750","stimuli/2001001.jpg","1","","prediction_trial","2","","false","","2","false","true","false","true","false","true","[2]","001","001","0","","","","","","",""
"","","","","","image-keyboard-response","53","390655","0.0-28.0","60bae671bf92bf34f7a774ce","665500ab8938657b03fbdba8","66577c39d450c094bccb1bc1","8575","stimuli/20010012.jpg"," ","","feedback_trial","2","","","","","","","","","","","","","","","","","","","","",""
"","","","","","image-keyboard-response","54","393504","0.0-29.0","60bae671bf92bf34f7a774ce","665500ab8938657b03fbdba8","66577c39d450c094bccb1bc1","2845","stimuli/1000010.jpg","1","","prediction_trial","1","","true","","1","false","true","true","true","false","true","[1]","000","010","1","","","","","","",""
"","","","","","image-keyboard-response","55","394568","0.0-30.0","60bae671bf92bf34f7a774ce","665500ab8938657b03fbdba8","66577c39d450c094bccb1bc1","1057","stimuli/10000101.jpg"," ","","feedback_trial","1","","","","","","","","","","","","","","","","","","","","",""
"","","","","","image-keyboard-response","56","396803","0.0-31.0","60bae671bf92bf34f7a774ce","665500ab8938657b03fbdba8","66577c39d450c094bccb1bc1","2228","stimuli/0000100.jpg","0","","prediction_trial","0","","true","","0","false","true","true","true","false","true","[0]","000","100","1","","","","","","",""
"","","","","","image-keyboard-response","57","397833","0.0-32.0","60bae671bf92bf34f7a774ce","665500ab8938657b03fbdba8","66577c39d450c094bccb1bc1","1026","stimuli/00001000.jpg"," ","","feedback_trial","0","","","","","","","","","","","","","","","","","","","","",""
"","","","","","image-keyboard-response","58","400679","0.0-33.0","60bae671bf92bf34f7a774ce","665500ab8938657b03fbdba8","66577c39d450c094bccb1bc1","2840","stimuli/2010001.jpg","2","","prediction_trial","2","","true","","2","false","true","true","true","false","true","[2]","010","001","1","","","","","","",""
"","","","","","image-keyboard-response","59","401805","0.0-34.0","60bae671bf92bf34f7a774ce","665500ab8938657b03fbdba8","66577c39d450c094bccb1bc1","1120","stimuli/20100012.jpg"," ","","feedback_trial","2","","","","","","","","","","","","","","","","","","","","",""
"","","","","","image-keyboard-response","60","404011","0.0-35.0","60bae671bf92bf34f7a774ce","665500ab8938657b03fbdba8","66577c39d450c094bccb1bc1","2202","stimuli/2110110.jpg","2","","prediction_trial","2","","true","","2","true","true","true","true","true","true","[2]","110","110","1","","","","","","",""
"","","","","","image-keyboard-response","61","405074","0.0-36.0","60bae671bf92bf34f7a774ce","665500ab8938657b03fbdba8","66577c39d450c094bccb1bc1","1058","stimuli/21101102.jpg"," ","","feedback_trial","2","","","","","","","","","","","","","","","","","","","","",""
"","","","","","image-keyboard-response","62","406524","0.0-37.0","60bae671bf92bf34f7a774ce","665500ab8938657b03fbdba8","66577c39d450c094bccb1bc1","1445","stimuli/1100101.jpg","1","","prediction_trial","1","","true","","1","true","true","true","true","true","true","[1]","100","101","1","","","","","","",""
"","","","","","image-keyboard-response","63","407459","0.0-38.0","60bae671bf92bf34f7a774ce","665500ab8938657b03fbdba8","66577c39d450c094bccb1bc1","931","stimuli/11001011.jpg"," ","","feedback_trial","1","","","","","","","","","","","","","","","","","","","","",""
"","","","","","image-keyboard-response","64","410892","0.0-39.0","60bae671bf92bf34f7a774ce","665500ab8938657b03fbdba8","66577c39d450c094bccb1bc1","3429","stimuli/0000101.jpg","0","","prediction_trial","0","","true","","0","false","false","true","true","false","false","[0]","000","101","1","","","","","","",""
"","","","","","image-keyboard-response","65","411984","0.0-40.0","60bae671bf92bf34f7a774ce","665500ab8938657b03fbdba8","66577c39d450c094bccb1bc1","1087","stimuli/00001010.jpg"," ","","feedback_trial","0","","","","","","","","","","","","","","","","","","","","",""
"","","","","","image-keyboard-response","66","415132","0.0-41.0","60bae671bf92bf34f7a774ce","665500ab8938657b03fbdba8","66577c39d450c094bccb1bc1","3143","stimuli/1001000.jpg","1","","prediction_trial","1","","true","","1","true","true","true","true","true","true","[1]","001","000","1","","","","","","",""
"","","","","","image-keyboard-response","67","416381","0.0-42.0","60bae671bf92bf34f7a774ce","665500ab8938657b03fbdba8","66577c39d450c094bccb1bc1","1246","stimuli/10010001.jpg"," ","","feedback_trial","1","","","","","","","","","","","","","","","","","","","","",""
"","","","","","image-keyboard-response","68","423094","0.0-43.0","60bae671bf92bf34f7a774ce","665500ab8938657b03fbdba8","66577c39d450c094bccb1bc1","6709","stimuli/2111100.jpg","2","","prediction_trial","1","","false","","2","true","true","false","false","false","false","[0,1,2]","111","100","0","","","","","","",""
"","","","","","image-keyboard-response","69","424835","0.0-44.0","60bae671bf92bf34f7a774ce","665500ab8938657b03fbdba8","66577c39d450c094bccb1bc1","1736","stimuli/21111001.jpg"," ","","feedback_trial","0","","","","","","","","","","","","","","","","","","","","",""
"","","","","","image-keyboard-response","70","432046","0.0-45.0","60bae671bf92bf34f7a774ce","665500ab8938657b03fbdba8","66577c39d450c094bccb1bc1","7206","stimuli/2001100.jpg","0","","prediction_trial","2","","false","","2","true","true","false","true","false","true","[2]","001","100","0","","","","","","",""
"","","","","","image-keyboard-response","71","433183","0.0-46.0","60bae671bf92bf34f7a774ce","665500ab8938657b03fbdba8","66577c39d450c094bccb1bc1","1132","stimuli/20011002.jpg"," ","","feedback_trial","2","","","","","","","","","","","","","","","","","","","","",""
"","","","","","image-keyboard-response","72","435939","0.0-47.0","60bae671bf92bf34f7a774ce","665500ab8938657b03fbdba8","66577c39d450c094bccb1bc1","2751","stimuli/1100010.jpg","1","","prediction_trial","1","","true","","1","false","true","true","true","false","true","[1]","100","010","1","","","","","","",""
"","","","","","image-keyboard-response","73","436961","0.0-48.0","60bae671bf92bf34f7a774ce","665500ab8938657b03fbdba8","66577c39d450c094bccb1bc1","1018","stimuli/11000101.jpg"," ","","feedback_trial","1","","","","","","","","","","","","","","","","","","","","",""
"","","","","","image-keyboard-response","74","438631","0.0-49.0","60bae671bf92bf34f7a774ce","665500ab8938657b03fbdba8","66577c39d450c094bccb1bc1","1666","stimuli/1100001.jpg","1","","prediction_trial","1","","true","","1","true","true","true","true","true","true","[1]","100","001","1","","","","","","",""
"","","","","","image-keyboard-response","75","439591","0.0-50.0","60bae671bf92bf34f7a774ce","665500ab8938657b03fbdba8","66577c39d450c094bccb1bc1","957","stimuli/11000011.jpg"," ","","feedback_trial","1","","","","","","","","","","","","","","","","","","","","",""
"","","","","","image-keyboard-response","76","445451","0.0-51.0","60bae671bf92bf34f7a774ce","665500ab8938657b03fbdba8","66577c39d450c094bccb1bc1","5856","stimuli/1001111.jpg","2","","prediction_trial","1","","false","","1","false","false","true","true","false","false","[1]","001","111","0","","","","","","",""
"","","","","","image-keyboard-response","77","446618","0.0-52.0","60bae671bf92bf34f7a774ce","665500ab8938657b03fbdba8","66577c39d450c094bccb1bc1","1162","stimuli/10011111.jpg"," ","","feedback_trial","1","","","","","","","","","","","","","","","","","","","","",""
"","","","","","image-keyboard-response","78","452137","0.0-53.0","60bae671bf92bf34f7a774ce","665500ab8938657b03fbdba8","66577c39d450c094bccb1bc1","5515","stimuli/0101001.jpg","0","","prediction_trial","0","","true","","0","true","true","false","false","false","false","[2,0]","101","001","1","","","","","","",""
"","","","","","image-keyboard-response","79","453385","0.0-54.0","60bae671bf92bf34f7a774ce","665500ab8938657b03fbdba8","66577c39d450c094bccb1bc1","1243","stimuli/01010010.jpg"," ","","feedback_trial","2","","","","","","","","","","","","","","","","","","","","",""
"","","","","","image-keyboard-response","80","456574","0.0-55.0","60bae671bf92bf34f7a774ce","665500ab8938657b03fbdba8","66577c39d450c094bccb1bc1","3186","stimuli/1100110.jpg","0","","prediction_trial","1","","false","","1","false","false","true","true","false","false","[1]","100","110","0","","","","","","",""
"","","","","","image-keyboard-response","81","457745","0.0-56.0","60bae671bf92bf34f7a774ce","665500ab8938657b03fbdba8","66577c39d450c094bccb1bc1","1165","stimuli/11001101.jpg"," ","","feedback_trial","1","","","","","","","","","","","","","","","","","","","","",""
"","","","","","image-keyboard-response","82","459725","0.0-57.0","60bae671bf92bf34f7a774ce","665500ab8938657b03fbdba8","66577c39d450c094bccb1bc1","1974","stimuli/2011000.jpg","2","","prediction_trial","1","","false","","2","true","true","false","false","false","false","[1,2]","011","000","0","","","","","","",""
"","","","","","image-keyboard-response","83","460929","0.0-58.0","60bae671bf92bf34f7a774ce","665500ab8938657b03fbdba8","66577c39d450c094bccb1bc1","1201","stimuli/20110001.jpg"," ","","feedback_trial","1","","","","","","","","","","","","","","","","","","","","",""
"","","","","","image-keyboard-response","84","463231","0.0-59.0","60bae671bf92bf34f7a774ce","665500ab8938657b03fbdba8","66577c39d450c094bccb1bc1","2296","stimuli/2111010.jpg","2","","prediction_trial","1","","false","","2","true","true","false","false","false","false","[2,1,0]","111","010","0","","","","","","",""
"","","","","","image-keyboard-response","85","464220","0.0-60.0","60bae671bf92bf34f7a774ce","665500ab8938657b03fbdba8","66577c39d450c094bccb1bc1","983","stimuli/21110101.jpg"," ","","feedback_trial","2","","","","","","","","","","","","","","","","","","","","",""
"","","","","","image-keyboard-response","86","467620","0.0-61.0","60bae671bf92bf34f7a774ce","665500ab8938657b03fbdba8","66577c39d450c094bccb1bc1","3394","stimuli/2101101.jpg","0","","prediction_trial","0","","true","","2","false","false","false","false","false","false","[0,2]","101","101","1","","","","","","",""
"","","","","","image-keyboard-response","87","468705","0.0-62.0","60bae671bf92bf34f7a774ce","665500ab8938657b03fbdba8","66577c39d450c094bccb1bc1","1081","stimuli/21011010.jpg"," ","","feedback_trial","0","","","","","","","","","","","","","","","","","","","","",""
"","","","","","image-keyboard-response","88","473997","0.0-63.0","60bae671bf92bf34f7a774ce","665500ab8938657b03fbdba8","66577c39d450c094bccb1bc1","5286","stimuli/0111100.jpg","0","","prediction_trial","1","","false","","0","false","true","false","false","false","false","[0,2,1]","111","100","0","","","","","","",""
"","","","","","image-keyboard-response","89","474975","0.0-64.0","60bae671bf92bf34f7a774ce","665500ab8938657b03fbdba8","66577c39d450c094bccb1bc1","974","stimuli/01111001.jpg"," ","","feedback_trial","0","","","","","","","","","","","","","","","","","","","","",""
"","","","","","image-keyboard-response","90","476884","0.0-65.0","60bae671bf92bf34f7a774ce","665500ab8938657b03fbdba8","66577c39d450c094bccb1bc1","1905","stimuli/2110000.jpg","2","","prediction_trial","2","","true","","2","true","true","true","true","true","true","[2]","110","000","1","","","","","","",""
"","","","","","image-keyboard-response","91","477784","0.0-66.0","60bae671bf92bf34f7a774ce","665500ab8938657b03fbdba8","66577c39d450c094bccb1bc1","898","stimuli/21100002.jpg"," ","","feedback_trial","2","","","","","","","","","","","","","","","","","","","","",""
"","","","","","image-keyboard-response","92","482869","0.0-67.0","60bae671bf92bf34f7a774ce","665500ab8938657b03fbdba8","66577c39d450c094bccb1bc1","5081","stimuli/1010001.jpg","1","","prediction_trial","1","","true","","1","true","true","false","true","false","true","[1]","010","001","1","","","","","","",""
"","","","","","image-keyboard-response","93","483935","0.0-68.0","60bae671bf92bf34f7a774ce","665500ab8938657b03fbdba8","66577c39d450c094bccb1bc1","1061","stimuli/10100011.jpg"," ","","feedback_trial","1","","","","","","","","","","","","","","","","","","","","",""
"","","","","","image-keyboard-response","94","488792","0.0-69.0","60bae671bf92bf34f7a774ce","665500ab8938657b03fbdba8","66577c39d450c094bccb1bc1","4854","stimuli/0011101.jpg","0","","prediction_trial","0","","true","","0","false","false","true","true","false","false","[0]","011","101","1","","","","","","",""
"","","","","","image-keyboard-response","95","489865","0.0-70.0","60bae671bf92bf34f7a774ce","665500ab8938657b03fbdba8","66577c39d450c094bccb1bc1","1069","stimuli/00111010.jpg"," ","","feedback_trial","0","","","","","","","","","","","","","","","","","","","","",""
"","","","","","image-keyboard-response","96","492935","0.0-71.0","60bae671bf92bf34f7a774ce","665500ab8938657b03fbdba8","66577c39d450c094bccb1bc1","3066","stimuli/0101100.jpg","0","","prediction_trial","0","","true","","0","false","true","false","false","false","false","[2,0]","101","100","1","","","","","","",""
"","","","","","image-keyboard-response","97","493858","0.0-72.0","60bae671bf92bf34f7a774ce","665500ab8938657b03fbdba8","66577c39d450c094bccb1bc1","919","stimuli/01011000.jpg"," ","","feedback_trial","2","","","","","","","","","","","","","","","","","","","","",""
"","","","","","image-keyboard-response","98","497991","0.0-73.0","60bae671bf92bf34f7a774ce","665500ab8938657b03fbdba8","66577c39d450c094bccb1bc1","4128","stimuli/0110110.jpg","1","","prediction_trial","1","","true","","0","false","false","false","false","false","false","[1,0]","110","110","1","","","","","","",""
"","","","","","image-keyboard-response","99","499005","0.0-74.0","60bae671bf92bf34f7a774ce","665500ab8938657b03fbdba8","66577c39d450c094bccb1bc1","1010","stimuli/01101101.jpg"," ","","feedback_trial","1","","","","","","","","","","","","","","","","","","","","",""
"","","","","","image-keyboard-response","100","501580","0.0-75.0","60bae671bf92bf34f7a774ce","665500ab8938657b03fbdba8","66577c39d450c094bccb1bc1","2570","stimuli/1011101.jpg","1","","prediction_trial","2","","false","","1","true","true","false","false","false","false","[1,2]","011","101","0","","","","","","",""
"","","","","","image-keyboard-response","101","502676","0.0-76.0","60bae671bf92bf34f7a774ce","665500ab8938657b03fbdba8","66577c39d450c094bccb1bc1","1092","stimuli/10111012.jpg"," ","","feedback_trial","1","","","","","","","","","","","","","","","","","","","","",""
"","","","","","image-keyboard-response","102","507750","0.0-77.0","60bae671bf92bf34f7a774ce","665500ab8938657b03fbdba8","66577c39d450c094bccb1bc1","5069","stimuli/0001100.jpg","0","","prediction_trial","0","","true","","0","false","true","true","true","false","true","[0]","001","100","1","","","","","","",""
"","","","","","image-keyboard-response","103","508706","0.0-78.0","60bae671bf92bf34f7a774ce","665500ab8938657b03fbdba8","66577c39d450c094bccb1bc1","951","stimuli/00011000.jpg"," ","","feedback_trial","0","","","","","","","","","","","","","","","","","","","","",""
"","","","","","image-keyboard-response","104","510484","0.0-79.0","60bae671bf92bf34f7a774ce","665500ab8938657b03fbdba8","66577c39d450c094bccb1bc1","1773","stimuli/2001010.jpg","2","","prediction_trial","2","","true","","2","true","true","false","true","false","true","[2]","001","010","1","","","","","","",""
"","","","","","image-keyboard-response","105","511618","0.0-80.0","60bae671bf92bf34f7a774ce","665500ab8938657b03fbdba8","66577c39d450c094bccb1bc1","1130","stimuli/20010102.jpg"," ","","feedback_trial","2","","","","","","","","","","","","","","","","","","","","",""
"","","","","","image-keyboard-response","106","514825","0.0-81.0","60bae671bf92bf34f7a774ce","665500ab8938657b03fbdba8","66577c39d450c094bccb1bc1","3204","stimuli/0101000.jpg","0","","prediction_trial","0","","true","","0","true","true","false","false","false","false","[2,0]","101","000","1","","","","","","",""
"","","","","","image-keyboard-response","107","515756","0.0-82.0","60bae671bf92bf34f7a774ce","665500ab8938657b03fbdba8","66577c39d450c094bccb1bc1","927","stimuli/01010000.jpg"," ","","feedback_trial","2","","","","","","","","","","","","","","","","","","","","",""
"","","","","","image-keyboard-response","108","520560","0.0-83.0","60bae671bf92bf34f7a774ce","665500ab8938657b03fbdba8","66577c39d450c094bccb1bc1","4799","stimuli/0001101.jpg","2","","prediction_trial","0","","false","","0","false","false","true","true","false","false","[0]","001","101","0","","","","","","",""
"","","","","","image-keyboard-response","109","521531","0.0-84.0","60bae671bf92bf34f7a774ce","665500ab8938657b03fbdba8","66577c39d450c094bccb1bc1","966","stimuli/00011010.jpg"," ","","feedback_trial","0","","","","","","","","","","","","","","","","","","","","",""
"","","","","","image-keyboard-response","110","524241","0.0-85.0","60bae671bf92bf34f7a774ce","665500ab8938657b03fbdba8","66577c39d450c094bccb1bc1","2704","stimuli/0001010.jpg","0","","prediction_trial","0","","true","","0","true","true","true","true","true","true","[0]","001","010","1","","","","","","",""
"","","","","","image-keyboard-response","111","525277","0.0-86.0","60bae671bf92bf34f7a774ce","665500ab8938657b03fbdba8","66577c39d450c094bccb1bc1","1031","stimuli/00010100.jpg"," ","","feedback_trial","0","","","","","","","","","","","","","","","","","","","","",""
"","","","","","image-keyboard-response","112","528336","0.0-87.0","60bae671bf92bf34f7a774ce","665500ab8938657b03fbdba8","66577c39d450c094bccb1bc1","3054","stimuli/2100101.jpg","2","","prediction_trial","2","","true","","2","false","false","true","true","false","false","[2]","100","101","1","","","","","","",""
"","","","","","image-keyboard-response","113","529302","0.0-88.0","60bae671bf92bf34f7a774ce","665500ab8938657b03fbdba8","66577c39d450c094bccb1bc1","961","stimuli/21001012.jpg"," ","","feedback_trial","2","","","","","","","","","","","","","","","","","","","","",""
"","","","","","image-keyboard-response","114","535350","0.0-89.0","60bae671bf92bf34f7a774ce","665500ab8938657b03fbdba8","66577c39d450c094bccb1bc1","6043","stimuli/0110010.jpg","0","","prediction_trial","1","","false","","0","true","true","false","false","false","false","[0,1]","110","010","0","","","","","","",""
"","","","","","image-keyboard-response","115","537059","0.0-90.0","60bae671bf92bf34f7a774ce","665500ab8938657b03fbdba8","66577c39d450c094bccb1bc1","1704","stimuli/01100101.jpg"," ","","feedback_trial","0","","","","","","","","","","","","","","","","","","","","",""
"","","","","","image-keyboard-response","116","539933","0.0-91.0","60bae671bf92bf34f7a774ce","665500ab8938657b03fbdba8","66577c39d450c094bccb1bc1","2870","stimuli/2000110.jpg","2","","prediction_trial","2","","true","","2","true","true","true","true","true","true","[2]","000","110","1","","","","","","",""
"","","","","","image-keyboard-response","117","541075","0.0-92.0","60bae671bf92bf34f7a774ce","665500ab8938657b03fbdba8","66577c39d450c094bccb1bc1","1137","stimuli/20001102.jpg"," ","","feedback_trial","2","","","","","","","","","","","","","","","","","","","","",""
"","","","","","image-keyboard-response","118","546981","0.0-93.0","60bae671bf92bf34f7a774ce","665500ab8938657b03fbdba8","66577c39d450c094bccb1bc1","5903","stimuli/2011101.jpg","0","","prediction_trial","1","","false","","2","false","false","false","false","false","false","[1,2]","011","101","0","","","","","","",""
"","","","","","image-keyboard-response","119","548177","0.0-94.0","60bae671bf92bf34f7a774ce","665500ab8938657b03fbdba8","66577c39d450c094bccb1bc1","1190","stimuli/20111011.jpg"," ","","feedback_trial","1","","","","","","","","","","","","","","","","","","","","",""
"","","","","","image-keyboard-response","120","549899","0.0-95.0","60bae671bf92bf34f7a774ce","665500ab8938657b03fbdba8","66577c39d450c094bccb1bc1","1717","stimuli/1001100.jpg","1","","prediction_trial","1","","true","","1","true","true","true","true","true","true","[1]","001","100","1","","","","","","",""
"","","","","","image-keyboard-response","121","550938","0.0-96.0","60bae671bf92bf34f7a774ce","665500ab8938657b03fbdba8","66577c39d450c094bccb1bc1","1035","stimuli/10011001.jpg"," ","","feedback_trial","1","","","","","","","","","","","","","","","","","","","","",""
"","","","","","image-keyboard-response","122","553050","0.0-97.0","60bae671bf92bf34f7a774ce","665500ab8938657b03fbdba8","66577c39d450c094bccb1bc1","2108","stimuli/2011110.jpg","2","","prediction_trial","1","","false","","2","true","true","false","false","false","false","[1,2]","011","110","0","","","","","","",""
"","","","","","image-keyboard-response","123","554293","0.0-98.0","60bae671bf92bf34f7a774ce","665500ab8938657b03fbdba8","66577c39d450c094bccb1bc1","1238","stimuli/20111101.jpg"," ","","feedback_trial","1","","","","","","","","","","","","","","","","","","","","",""
"","","","","","image-keyboard-response","124","557399","0.0-99.0","60bae671bf92bf34f7a774ce","665500ab8938657b03fbdba8","66577c39d450c094bccb1bc1","3101","stimuli/1110101.jpg","1","","prediction_trial","0","","false","","1","true","true","false","false","false","false","[1,0]","110","101","0","","","","","","",""
"","","","","","image-keyboard-response","125","558446","0.0-100.0","60bae671bf92bf34f7a774ce","665500ab8938657b03fbdba8","66577c39d450c094bccb1bc1","1043","stimuli/11101010.jpg"," ","","feedback_trial","1","","","","","","","","","","","","","","","","","","","","",""
"","","","","","image-keyboard-response","126","562485","0.0-101.0","60bae671bf92bf34f7a774ce","665500ab8938657b03fbdba8","66577c39d450c094bccb1bc1","4034","stimuli/1000011.jpg","1","","prediction_trial","1","","true","","1","false","false","true","true","false","false","[1]","000","011","1","","","","","","",""
"","","","","","image-keyboard-response","127","563671","0.0-102.0","60bae671bf92bf34f7a774ce","665500ab8938657b03fbdba8","66577c39d450c094bccb1bc1","1182","stimuli/10000111.jpg"," ","","feedback_trial","1","","","","","","","","","","","","","","","","","","","","",""
"","","","","","image-keyboard-response","128","565778","0.0-103.0","60bae671bf92bf34f7a774ce","665500ab8938657b03fbdba8","66577c39d450c094bccb1bc1","2104","stimuli/2011010.jpg","2","","prediction_trial","1","","false","","2","true","true","false","false","false","false","[1,2]","011","010","0","","","","","","",""
"","","","","","image-keyboard-response","129","566826","0.0-104.0","60bae671bf92bf34f7a774ce","665500ab8938657b03fbdba8","66577c39d450c094bccb1bc1","1044","stimuli/20110101.jpg"," ","","feedback_trial","1","","","","","","","","","","","","","","","","","","","","",""
"","","","","","image-keyboard-response","130","568870","0.0-105.0","60bae671bf92bf34f7a774ce","665500ab8938657b03fbdba8","66577c39d450c094bccb1bc1","2037","stimuli/0101010.jpg","0","","prediction_trial","2","","false","","0","true","true","false","false","false","false","[2,0]","101","010","0","","","","","","",""
"","","","","","image-keyboard-response","131","570056","0.0-106.0","60bae671bf92bf34f7a774ce","665500ab8938657b03fbdba8","66577c39d450c094bccb1bc1","1180","stimuli/01010102.jpg"," ","","feedback_trial","2","","","","","","","","","","","","","","","","","","","","",""
"","","","","","image-keyboard-response","132","575522","0.0-107.0","60bae671bf92bf34f7a774ce","665500ab8938657b03fbdba8","66577c39d450c094bccb1bc1","5461","stimuli/0010100.jpg","0","","prediction_trial","0","","true","","0","false","true","true","true","false","true","[0]","010","100","1","","","","","","",""
"","","","","","image-keyboard-response","133","576642","0.0-108.0","60bae671bf92bf34f7a774ce","665500ab8938657b03fbdba8","66577c39d450c094bccb1bc1","1117","stimuli/00101000.jpg"," ","","feedback_trial","0","","","","","","","","","","","","","","","","","","","","",""
"","","","","","image-keyboard-response","134","578731","0.0-109.0","60bae671bf92bf34f7a774ce","665500ab8938657b03fbdba8","66577c39d450c094bccb1bc1","2083","stimuli/1001001.jpg","1","","prediction_trial","1","","true","","1","true","true","true","true","true","true","[1]","001","001","1","","","","","","",""
"","","","","","image-keyboard-response","135","579936","0.0-110.0","60bae671bf92bf34f7a774ce","665500ab8938657b03fbdba8","66577c39d450c094bccb1bc1","1202","stimuli/10010011.jpg"," ","","feedback_trial","1","","","","","","","","","","","","","","","","","","","","",""
"","","","","","image-keyboard-response","136","583838","0.0-111.0","60bae671bf92bf34f7a774ce","665500ab8938657b03fbdba8","66577c39d450c094bccb1bc1","3898","stimuli/0010111.jpg","0","","prediction_trial","0","","true","","0","false","false","true","true","false","false","[0]","010","111","1","","","","","","",""
"","","","","","image-keyboard-response","137","584934","0.0-112.0","60bae671bf92bf34f7a774ce","665500ab8938657b03fbdba8","66577c39d450c094bccb1bc1","1093","stimuli/00101110.jpg"," ","","feedback_trial","0","","","","","","","","","","","","","","","","","","","","",""
"","","","","","image-keyboard-response","138","587506","0.0-113.0","60bae671bf92bf34f7a774ce","665500ab8938657b03fbdba8","66577c39d450c094bccb1bc1","2565","stimuli/2111111.jpg","1","","prediction_trial","2","","false","","2","false","false","false","false","false","false","[0,2,1]","111","111","0","","","","","","",""
"","","","","","image-keyboard-response","139","588831","0.0-114.0","60bae671bf92bf34f7a774ce","665500ab8938657b03fbdba8","66577c39d450c094bccb1bc1","1319","stimuli/21111112.jpg"," ","","feedback_trial","0","","","","","","","","","","","","","","","","","","","","",""
"","","","","","image-keyboard-response","140","593636","0.0-115.0","60bae671bf92bf34f7a774ce","665500ab8938657b03fbdba8","66577c39d450c094bccb1bc1","4800","stimuli/0001110.jpg","1","","prediction_trial","0","","false","","0","false","false","true","true","false","false","[0]","001","110","0","","","","","","",""
"","","","","","image-keyboard-response","141","594744","0.0-116.0","60bae671bf92bf34f7a774ce","665500ab8938657b03fbdba8","66577c39d450c094bccb1bc1","1103","stimuli/00011100.jpg"," ","","feedback_trial","0","","","","","","","","","","","","","","","","","","","","",""
"","","","","","image-keyboard-response","142","596075","0.0-117.0","60bae671bf92bf34f7a774ce","665500ab8938657b03fbdba8","66577c39d450c094bccb1bc1","1327","stimuli/1101101.jpg","1","","prediction_trial","1","","true","","1","true","true","true","true","true","true","[1]","101","101","1","","","","","","",""
"","","","","","image-keyboard-response","143","597037","0.0-118.0","60bae671bf92bf34f7a774ce","665500ab8938657b03fbdba8","66577c39d450c094bccb1bc1","958","stimuli/11011011.jpg"," ","","feedback_trial","1","","","","","","","","","","","","","","","","","","","","",""
"","","","","","image-keyboard-response","144","598562","0.0-119.0","60bae671bf92bf34f7a774ce","665500ab8938657b03fbdba8","66577c39d450c094bccb1bc1","1520","stimuli/1000001.jpg","1","","prediction_trial","1","","true","","1","true","true","true","true","true","true","[1]","000","001","1","","","","","","",""
"","","","","","image-keyboard-response","145","599437","0.0-120.0","60bae671bf92bf34f7a774ce","665500ab8938657b03fbdba8","66577c39d450c094bccb1bc1","872","stimuli/10000011.jpg"," ","","feedback_trial","1","","","","","","","","","","","","","","","","","","","","",""
"","","","","","image-keyboard-response","146","602304","0.0-121.0","60bae671bf92bf34f7a774ce","665500ab8938657b03fbdba8","66577c39d450c094bccb1bc1","2865","stimuli/0100101.jpg","2","","prediction_trial","0","","false","","0","false","false","false","true","false","false","[0]","100","101","0","","","","","","",""
"","","","","","image-keyboard-response","147","604529","0.0-122.0","60bae671bf92bf34f7a774ce","665500ab8938657b03fbdba8","66577c39d450c094bccb1bc1","2219","stimuli/01001010.jpg"," ","","feedback_trial","0","","","","","","","","","","","","","","","","","","","","",""
"","","","","","image-keyboard-response","148","606181","0.0-123.0","60bae671bf92bf34f7a774ce","665500ab8938657b03fbdba8","66577c39d450c094bccb1bc1","1647","stimuli/1101100.jpg","1","","prediction_trial","1","","true","","1","true","true","true","true","true","true","[1]","101","100","1","","","","","","",""
"","","","","","image-keyboard-response","149","607309","0.0-124.0","60bae671bf92bf34f7a774ce","665500ab8938657b03fbdba8","66577c39d450c094bccb1bc1","1124","stimuli/11011001.jpg"," ","","feedback_trial","1","","","","","","","","","","","","","","","","","","","","",""
"","","","","","image-keyboard-response","150","614432","0.0-125.0","60bae671bf92bf34f7a774ce","665500ab8938657b03fbdba8","66577c39d450c094bccb1bc1","7119","stimuli/2010111.jpg","0","","prediction_trial","2","","false","","2","false","false","true","true","false","false","[2]","010","111","0","","","","","","",""
"","","","","","image-keyboard-response","151","615680","0.0-126.0","60bae671bf92bf34f7a774ce","665500ab8938657b03fbdba8","66577c39d450c094bccb1bc1","1244","stimuli/20101112.jpg"," ","","feedback_trial","2","","","","","","","","","","","","","","","","","","","","",""
"","","","","","image-keyboard-response","152","617237","0.0-127.0","60bae671bf92bf34f7a774ce","665500ab8938657b03fbdba8","66577c39d450c094bccb1bc1","1553","stimuli/1010100.jpg","1","","prediction_trial","1","","true","","1","true","true","false","true","false","true","[1]","010","100","1","","","","","","",""
"","","","","","image-keyboard-response","153","618246","0.0-128.0","60bae671bf92bf34f7a774ce","665500ab8938657b03fbdba8","66577c39d450c094bccb1bc1","1005","stimuli/10101001.jpg"," ","","feedback_trial","1","","","","","","","","","","","","","","","","","","","","",""
"","","","","","image-keyboard-response","154","619553","0.0-129.0","60bae671bf92bf34f7a774ce","665500ab8938657b03fbdba8","66577c39d450c094bccb1bc1","1302","stimuli/0011000.jpg","0","","prediction_trial","0","","true","","0","true","true","true","true","true","true","[0]","011","000","1","","","","","","",""
"","","","","","image-keyboard-response","155","620708","0.0-130.0","60bae671bf92bf34f7a774ce","665500ab8938657b03fbdba8","66577c39d450c094bccb1bc1","1151","stimuli/00110000.jpg"," ","","feedback_trial","0","","","","","","","","","","","","","","","","","","","","",""
"","","","","","image-keyboard-response","156","622184","0.0-131.0","60bae671bf92bf34f7a774ce","665500ab8938657b03fbdba8","66577c39d450c094bccb1bc1","1471","stimuli/0010010.jpg","0","","prediction_trial","0","","true","","0","true","true","true","true","true","true","[0]","010","010","1","","","","","","",""
"","","","","","image-keyboard-response","157","623168","0.0-132.0","60bae671bf92bf34f7a774ce","665500ab8938657b03fbdba8","66577c39d450c094bccb1bc1","981","stimuli/00100100.jpg"," ","","feedback_trial","0","","","","","","","","","","","","","","","","","","","","",""
"","","","","","image-keyboard-response","158","627016","0.0-133.0","60bae671bf92bf34f7a774ce","665500ab8938657b03fbdba8","66577c39d450c094bccb1bc1","3844","stimuli/0011111.jpg","0","","prediction_trial","0","","true","","0","false","false","true","true","false","false","[0]","011","111","1","","","","","","",""
"","","","","","image-keyboard-response","159","628024","0.0-134.0","60bae671bf92bf34f7a774ce","665500ab8938657b03fbdba8","66577c39d450c094bccb1bc1","1004","stimuli/00111110.jpg"," ","","feedback_trial","0","","","","","","","","","","","","","","","","","","","","",""
"","","","","","image-keyboard-response","160","630831","0.0-135.0","60bae671bf92bf34f7a774ce","665500ab8938657b03fbdba8","66577c39d450c094bccb1bc1","2802","stimuli/2111011.jpg","1","","prediction_trial","1","","true","","2","false","false","false","false","false","false","[1,0,2]","111","011","1","","","","","","",""
"","","","","","image-keyboard-response","161","631870","0.0-136.0","60bae671bf92bf34f7a774ce","665500ab8938657b03fbdba8","66577c39d450c094bccb1bc1","1035","stimuli/21110111.jpg"," ","","feedback_trial","1","","","","","","","","","","","","","","","","","","","","",""
"","","","","","image-keyboard-response","162","635193","0.0-137.0","60bae671bf92bf34f7a774ce","665500ab8938657b03fbdba8","66577c39d450c094bccb1bc1","3319","stimuli/0000110.jpg","1","","prediction_trial","0","","false","","0","false","false","true","true","false","false","[0]","000","110","0","","","","","","",""
"","","","","","image-keyboard-response","163","636203","0.0-138.0","60bae671bf92bf34f7a774ce","665500ab8938657b03fbdba8","66577c39d450c094bccb1bc1","1007","stimuli/00001100.jpg"," ","","feedback_trial","0","","","","","","","","","","","","","","","","","","","","",""
"","","","","","image-keyboard-response","164","638073","0.0-139.0","60bae671bf92bf34f7a774ce","665500ab8938657b03fbdba8","66577c39d450c094bccb1bc1","1866","stimuli/1011000.jpg","1","","prediction_trial","2","","false","","1","true","true","false","false","false","false","[1,2]","011","000","0","","","","","","",""
"","","","","","image-keyboard-response","165","639009","0.0-140.0","60bae671bf92bf34f7a774ce","665500ab8938657b03fbdba8","66577c39d450c094bccb1bc1","932","stimuli/10110002.jpg"," ","","feedback_trial","1","","","","","","","","","","","","","","","","","","","","",""
"","","","","","image-keyboard-response","166","644120","0.0-141.0","60bae671bf92bf34f7a774ce","665500ab8938657b03fbdba8","66577c39d450c094bccb1bc1","5104","stimuli/1011010.jpg","1","","prediction_trial","2","","false","","1","false","true","false","false","false","false","[1,2]","011","010","0","","","","","","",""
"","","","","","image-keyboard-response","167","645190","0.0-142.0","60bae671bf92bf34f7a774ce","665500ab8938657b03fbdba8","66577c39d450c094bccb1bc1","1066","stimuli/10110102.jpg"," ","","feedback_trial","1","","","","","","","","","","","","","","","","","","","","",""
"","","","","","image-keyboard-response","168","646454","0.0-143.0","60bae671bf92bf34f7a774ce","665500ab8938657b03fbdba8","66577c39d450c094bccb1bc1","1258","stimuli/1010101.jpg","1","","prediction_trial","1","","true","","1","true","true","false","true","false","true","[1]","010","101","1","","","","","","",""
"","","","","","image-keyboard-response","169","647497","0.0-144.0","60bae671bf92bf34f7a774ce","665500ab8938657b03fbdba8","66577c39d450c094bccb1bc1","1038","stimuli/10101011.jpg"," ","","feedback_trial","1","","","","","","","","","","","","","","","","","","","","",""
"","","","","","image-keyboard-response","170","649452","0.0-145.0","60bae671bf92bf34f7a774ce","665500ab8938657b03fbdba8","66577c39d450c094bccb1bc1","1951","stimuli/1011100.jpg","1","","prediction_trial","1","","true","","1","true","true","false","false","false","false","[1,2]","011","100","1","","","","","","",""
"","","","","","image-keyboard-response","171","650304","0.0-146.0","60bae671bf92bf34f7a774ce","665500ab8938657b03fbdba8","66577c39d450c094bccb1bc1","846","stimuli/10111001.jpg"," ","","feedback_trial","1","","","","","","","","","","","","","","","","","","","","",""
"","","","","","image-keyboard-response","172","652104","0.0-147.0","60bae671bf92bf34f7a774ce","665500ab8938657b03fbdba8","66577c39d450c094bccb1bc1","1794","stimuli/2011100.jpg","2","","prediction_trial","2","","true","","2","true","true","false","false","false","false","[2,1]","011","100","1","","","","","","",""
"","","","","","image-keyboard-response","173","653364","0.0-148.0","60bae671bf92bf34f7a774ce","665500ab8938657b03fbdba8","66577c39d450c094bccb1bc1","1255","stimuli/20111002.jpg"," ","","feedback_trial","2","","","","","","","","","","","","","","","","","","","","",""
"","","","","","image-keyboard-response","174","656805","0.0-149.0","60bae671bf92bf34f7a774ce","665500ab8938657b03fbdba8","66577c39d450c094bccb1bc1","3437","stimuli/2000111.jpg","0","","prediction_trial","2","","false","","2","false","false","true","true","false","false","[2]","000","111","0","","","","","","",""
"","","","","","image-keyboard-response","175","657878","0.0-150.0","60bae671bf92bf34f7a774ce","665500ab8938657b03fbdba8","66577c39d450c094bccb1bc1","1069","stimuli/20001112.jpg"," ","","feedback_trial","2","","","","","","","","","","","","","","","","","","","","",""
"","","","","","image-keyboard-response","176","661218","0.0-151.0","60bae671bf92bf34f7a774ce","665500ab8938657b03fbdba8","66577c39d450c094bccb1bc1","3335","stimuli/1101010.jpg","1","","prediction_trial","1","","true","","1","false","true","true","true","false","true","[1]","101","010","1","","","","","","",""
"","","","","","image-keyboard-response","177","662871","0.0-152.0","60bae671bf92bf34f7a774ce","665500ab8938657b03fbdba8","66577c39d450c094bccb1bc1","1650","stimuli/11010101.jpg"," ","","feedback_trial","1","","","","","","","","","","","","","","","","","","","","",""
"","","","","","image-keyboard-response","178","664210","0.0-153.0","60bae671bf92bf34f7a774ce","665500ab8938657b03fbdba8","66577c39d450c094bccb1bc1","1335","stimuli/2100010.jpg","2","","prediction_trial","2","","true","","2","true","true","true","true","true","true","[2]","100","010","1","","","","","","",""
"","","","","","image-keyboard-response","179","665348","0.0-154.0","60bae671bf92bf34f7a774ce","665500ab8938657b03fbdba8","66577c39d450c094bccb1bc1","1133","stimuli/21000102.jpg"," ","","feedback_trial","2","","","","","","","","","","","","","","","","","","","","",""
"","","","","","image-keyboard-response","180","669205","0.0-155.0","60bae671bf92bf34f7a774ce","665500ab8938657b03fbdba8","66577c39d450c094bccb1bc1","3854","stimuli/1011110.jpg","1","","prediction_trial","2","","false","","1","false","false","false","false","false","false","[2,1]","011","110","0","","","","","","",""
"","","","","","image-keyboard-response","181","670205","0.0-156.0","60bae671bf92bf34f7a774ce","665500ab8938657b03fbdba8","66577c39d450c094bccb1bc1","995","stimuli/10111102.jpg"," ","","feedback_trial","2","","","","","","","","","","","","","","","","","","","","",""
"","","","","","image-keyboard-response","182","671632","0.0-157.0","60bae671bf92bf34f7a774ce","665500ab8938657b03fbdba8","66577c39d450c094bccb1bc1","1422","stimuli/0010000.jpg","0","","prediction_trial","0","","true","","0","true","true","true","true","true","true","[0]","010","000","1","","","","","","",""
"","","","","","image-keyboard-response","183","672526","0.0-158.0","60bae671bf92bf34f7a774ce","665500ab8938657b03fbdba8","66577c39d450c094bccb1bc1","889","stimuli/00100000.jpg"," ","","feedback_trial","0","","","","","","","","","","","","","","","","","","","","",""
"","","","","","image-keyboard-response","184","675727","0.0-159.0","60bae671bf92bf34f7a774ce","665500ab8938657b03fbdba8","66577c39d450c094bccb1bc1","3196","stimuli/2010101.jpg","2","","prediction_trial","2","","true","","2","false","false","true","true","false","false","[2]","010","101","1","","","","","","",""
"","","","","","image-keyboard-response","185","676793","0.0-160.0","60bae671bf92bf34f7a774ce","665500ab8938657b03fbdba8","66577c39d450c094bccb1bc1","1062","stimuli/20101012.jpg"," ","","feedback_trial","2","","","","","","","","","","","","","","","","","","","","",""
"","","","","","image-keyboard-response","186","678350","0.0-161.0","60bae671bf92bf34f7a774ce","665500ab8938657b03fbdba8","66577c39d450c094bccb1bc1","1554","stimuli/0100010.jpg","0","","prediction_trial","0","","true","","0","true","true","false","true","false","true","[0]","100","010","1","","","","","","",""
"","","","","","image-keyboard-response","187","679231","0.0-162.0","60bae671bf92bf34f7a774ce","665500ab8938657b03fbdba8","66577c39d450c094bccb1bc1","876","stimuli/01000100.jpg"," ","","feedback_trial","0","","","","","","","","","","","","","","","","","","","","",""
"","","","","","image-keyboard-response","188","681090","0.0-163.0","60bae671bf92bf34f7a774ce","665500ab8938657b03fbdba8","66577c39d450c094bccb1bc1","1856","stimuli/2000000.jpg","2","","prediction_trial","2","","true","","2","true","true","true","true","true","true","[2]","000","000","1","","","","","","",""
"","","","","","image-keyboard-response","189","682168","0.0-164.0","60bae671bf92bf34f7a774ce","665500ab8938657b03fbdba8","66577c39d450c094bccb1bc1","1073","stimuli/20000002.jpg"," ","","feedback_trial","2","","","","","","","","","","","","","","","","","","","","",""
"","","","","","image-keyboard-response","190","685177","0.0-165.0","60bae671bf92bf34f7a774ce","665500ab8938657b03fbdba8","66577c39d450c094bccb1bc1","3004","stimuli/1010010.jpg","1","","prediction_trial","1","","true","","1","false","true","false","true","false","true","[1]","010","010","1","","","","","","",""
"","","","","","image-keyboard-response","191","686315","0.0-166.0","60bae671bf92bf34f7a774ce","665500ab8938657b03fbdba8","66577c39d450c094bccb1bc1","1135","stimuli/10100101.jpg"," ","","feedback_trial","1","","","","","","","","","","","","","","","","","","","","",""
"","","","","","image-keyboard-response","192","688399","0.0-167.0","60bae671bf92bf34f7a774ce","665500ab8938657b03fbdba8","66577c39d450c094bccb1bc1","2079","stimuli/0010001.jpg","0","","prediction_trial","0","","true","","0","true","true","true","true","true","true","[0]","010","001","1","","","","","","",""
"","","","","","image-keyboard-response","193","689363","0.0-168.0","60bae671bf92bf34f7a774ce","665500ab8938657b03fbdba8","66577c39d450c094bccb1bc1","960","stimuli/00100010.jpg"," ","","feedback_trial","0","","","","","","","","","","","","","","","","","","","","",""
"","","","","","image-keyboard-response","194","690808","0.0-169.0","60bae671bf92bf34f7a774ce","665500ab8938657b03fbdba8","66577c39d450c094bccb1bc1","1440","stimuli/2000100.jpg","2","","prediction_trial","2","","true","","2","true","true","true","true","true","true","[2]","000","100","1","","","","","","",""
"","","","","","image-keyboard-response","195","691758","0.0-170.0","60bae671bf92bf34f7a774ce","665500ab8938657b03fbdba8","66577c39d450c094bccb1bc1","946","stimuli/20001002.jpg"," ","","feedback_trial","2","","","","","","","","","","","","","","","","","","","","",""
"","","","","","image-keyboard-response","196","696458","0.0-171.0","60bae671bf92bf34f7a774ce","665500ab8938657b03fbdba8","66577c39d450c094bccb1bc1","4695","stimuli/1110011.jpg","1","","prediction_trial","1","","true","","1","false","false","false","false","false","false","[1,0]","110","011","1","","","","","","",""
"","","","","","image-keyboard-response","197","697519","0.0-172.0","60bae671bf92bf34f7a774ce","665500ab8938657b03fbdba8","66577c39d450c094bccb1bc1","1055","stimuli/11100111.jpg"," ","","feedback_trial","1","","","","","","","","","","","","","","","","","","","","",""
"","","","","","image-keyboard-response","198","701130","0.0-173.0","60bae671bf92bf34f7a774ce","665500ab8938657b03fbdba8","66577c39d450c094bccb1bc1","3607","stimuli/0101111.jpg","1","","prediction_trial","0","","false","","0","false","false","false","false","false","false","[2,0]","101","111","0","","","","","","",""
"","","","","","image-keyboard-response","199","702170","0.0-174.0","60bae671bf92bf34f7a774ce","665500ab8938657b03fbdba8","66577c39d450c094bccb1bc1","1036","stimuli/01011110.jpg"," ","","feedback_trial","2","","","","","","","","","","","","","","","","","","","","",""
"","","","","","image-keyboard-response","200","703572","0.0-175.0","60bae671bf92bf34f7a774ce","665500ab8938657b03fbdba8","66577c39d450c094bccb1bc1","1396","stimuli/1011001.jpg","1","","prediction_trial","1","","true","","1","true","true","false","false","false","false","[2,1]","011","001","1","","","","","","",""
"","","","","","image-keyboard-response","201","704637","0.0-176.0","60bae671bf92bf34f7a774ce","665500ab8938657b03fbdba8","66577c39d450c094bccb1bc1","1062","stimuli/10110011.jpg"," ","","feedback_trial","2","","","","","","","","","","","","","","","","","","","","",""
"","","","","","image-keyboard-response","202","707101","0.0-177.0","60bae671bf92bf34f7a774ce","665500ab8938657b03fbdba8","66577c39d450c094bccb1bc1","2459","stimuli/1111001.jpg","1","","prediction_trial","2","","false","","1","true","true","false","false","false","false","[2,1,0]","111","001","0","","","","","","",""
"","","","","","image-keyboard-response","203","708010","0.0-178.0","60bae671bf92bf34f7a774ce","665500ab8938657b03fbdba8","66577c39d450c094bccb1bc1","904","stimuli/11110012.jpg"," ","","feedback_trial","2","","","","","","","","","","","","","","","","","","","","",""
"","","","","","image-keyboard-response","204","713772","0.0-179.0","60bae671bf92bf34f7a774ce","665500ab8938657b03fbdba8","66577c39d450c094bccb1bc1","5757","stimuli/2100011.jpg","1","","prediction_trial","2","","false","","2","false","false","true","true","false","false","[2]","100","011","0","","","","","","",""
"","","","","","image-keyboard-response","205","714741","0.0-180.0","60bae671bf92bf34f7a774ce","665500ab8938657b03fbdba8","66577c39d450c094bccb1bc1","966","stimuli/21000112.jpg"," ","","feedback_trial","2","","","","","","","","","","","","","","","","","","","","",""
"","","","","","image-keyboard-response","206","715958","0.0-181.0","60bae671bf92bf34f7a774ce","665500ab8938657b03fbdba8","66577c39d450c094bccb1bc1","1214","stimuli/2010000.jpg","2","","prediction_trial","2","","true","","2","true","true","true","true","true","true","[2]","010","000","1","","","","","","",""
"","","","","","image-keyboard-response","207","716859","0.0-182.0","60bae671bf92bf34f7a774ce","665500ab8938657b03fbdba8","66577c39d450c094bccb1bc1","896","stimuli/20100002.jpg"," ","","feedback_trial","2","","","","","","","","","","","","","","","","","","","","",""
"","","","","","image-keyboard-response","208","720013","0.0-183.0","60bae671bf92bf34f7a774ce","665500ab8938657b03fbdba8","66577c39d450c094bccb1bc1","3149","stimuli/2111101.jpg","2","","prediction_trial","0","","false","","2","false","false","false","false","false","false","[1,2,0]","111","101","0","","","","","","",""
"","","","","","image-keyboard-response","209","721114","0.0-184.0","60bae671bf92bf34f7a774ce","665500ab8938657b03fbdba8","66577c39d450c094bccb1bc1","1097","stimuli/21111010.jpg"," ","","feedback_trial","1","","","","","","","","","","","","","","","","","","","","",""
"","","","","","image-keyboard-response","210","722469","0.0-185.0","60bae671bf92bf34f7a774ce","665500ab8938657b03fbdba8","66577c39d450c094bccb1bc1","1351","stimuli/1001011.jpg","1","","prediction_trial","1","","true","","1","false","false","true","true","false","false","[1]","001","011","1","","","","","","",""
"","","","","","image-keyboard-response","211","723559","0.0-186.0","60bae671bf92bf34f7a774ce","665500ab8938657b03fbdba8","66577c39d450c094bccb1bc1","1085","stimuli/10010111.jpg"," ","","feedback_trial","1","","","","","","","","","","","","","","","","","","","","",""
"","","","","","image-keyboard-response","212","728893","0.0-187.0","60bae671bf92bf34f7a774ce","665500ab8938657b03fbdba8","66577c39d450c094bccb1bc1","5330","stimuli/1010111.jpg","1","","prediction_trial","1","","true","","1","false","false","false","true","false","false","[1]","010","111","1","","","","","","",""
"","","","","","image-keyboard-response","213","730611","0.0-188.0","60bae671bf92bf34f7a774ce","665500ab8938657b03fbdba8","66577c39d450c094bccb1bc1","1715","stimuli/10101111.jpg"," ","","feedback_trial","1","","","","","","","","","","","","","","","","","","","","",""
"","","","","","image-keyboard-response","214","732587","0.0-189.0","60bae671bf92bf34f7a774ce","665500ab8938657b03fbdba8","66577c39d450c094bccb1bc1","1972","stimuli/0011011.jpg","0","","prediction_trial","0","","true","","0","true","true","true","true","true","true","[0]","011","011","1","","","","","","",""
"","","","","","image-keyboard-response","215","733546","0.0-190.0","60bae671bf92bf34f7a774ce","665500ab8938657b03fbdba8","66577c39d450c094bccb1bc1","954","stimuli/00110110.jpg"," ","","feedback_trial","0","","","","","","","","","","","","","","","","","","","","",""
"","","","","","image-keyboard-response","216","735783","0.0-191.0","60bae671bf92bf34f7a774ce","665500ab8938657b03fbdba8","66577c39d450c094bccb1bc1","2233","stimuli/2100001.jpg","2","","prediction_trial","2","","true","","2","false","true","true","true","false","true","[2]","100","001","1","","","","","","",""
"","","","","","image-keyboard-response","217","736816","0.0-192.0","60bae671bf92bf34f7a774ce","665500ab8938657b03fbdba8","66577c39d450c094bccb1bc1","1028","stimuli/21000012.jpg"," ","","feedback_trial","2","","","","","","","","","","","","","","","","","","","","",""
"","","","","","image-keyboard-response","218","738502","0.0-193.0","60bae671bf92bf34f7a774ce","665500ab8938657b03fbdba8","66577c39d450c094bccb1bc1","1682","stimuli/1000000.jpg","1","","prediction_trial","1","","true","","1","true","true","true","true","true","true","[1]","000","000","1","","","","","","",""
"","","","","","image-keyboard-response","219","739074","0.0-194.0","60bae671bf92bf34f7a774ce","665500ab8938657b03fbdba8","66577c39d450c094bccb1bc1","568","stimuli/10000001.jpg"," ","","feedback_trial","1","","","","","","","","","","","","","","","","","","","","",""
"","","","","","image-keyboard-response","220","740425","0.0-195.0","60bae671bf92bf34f7a774ce","665500ab8938657b03fbdba8","66577c39d450c094bccb1bc1","1346","stimuli/2101010.jpg","2","","prediction_trial","2","","true","","2","true","true","false","false","false","false","[0,2]","101","010","1","","","","","","",""
"","","","","","image-keyboard-response","221","741415","0.0-196.0","60bae671bf92bf34f7a774ce","665500ab8938657b03fbdba8","66577c39d450c094bccb1bc1","986","stimuli/21010102.jpg"," ","","feedback_trial","0","","","","","","","","","","","","","","","","","","","","",""
"","","","","","image-keyboard-response","222","743652","0.0-197.0","60bae671bf92bf34f7a774ce","665500ab8938657b03fbdba8","66577c39d450c094bccb1bc1","2230","stimuli/0000001.jpg","0","","prediction_trial","0","","true","","0","true","true","true","true","true","true","[0]","000","001","1","","","","","","",""
"","","","","","image-keyboard-response","223","744381","0.0-198.0","60bae671bf92bf34f7a774ce","665500ab8938657b03fbdba8","66577c39d450c094bccb1bc1","720","stimuli/00000010.jpg"," ","","feedback_trial","0","","","","","","","","","","","","","","","","","","","","",""
"","","","","","image-keyboard-response","224","746760","0.0-199.0","60bae671bf92bf34f7a774ce","665500ab8938657b03fbdba8","66577c39d450c094bccb1bc1","2373","stimuli/2101000.jpg","2","","prediction_trial","0","","false","","2","true","true","false","false","false","false","[2,0]","101","000","0","","","","","","",""
"","","","","","image-keyboard-response","225","748485","0.0-200.0","60bae671bf92bf34f7a774ce","665500ab8938657b03fbdba8","66577c39d450c094bccb1bc1","1717","stimuli/21010000.jpg"," ","","feedback_trial","2","","","","","","","","","","","","","","","","","","","","",""
"","","","","","image-keyboard-response","226","750421","0.0-201.0","60bae671bf92bf34f7a774ce","665500ab8938657b03fbdba8","66577c39d450c094bccb1bc1","1931","stimuli/1101000.jpg","1","","prediction_trial","1","","true","","1","true","true","true","true","true","true","[1]","101","000","1","","","","","","",""
"","","","","","image-keyboard-response","227","751072","0.0-202.0","60bae671bf92bf34f7a774ce","665500ab8938657b03fbdba8","66577c39d450c094bccb1bc1","645","stimuli/11010001.jpg"," ","","feedback_trial","1","","","","","","","","","","","","","","","","","","","","",""
"","","","","","image-keyboard-response","228","755440","0.0-203.0","60bae671bf92bf34f7a774ce","665500ab8938657b03fbdba8","66577c39d450c094bccb1bc1","4362","stimuli/0101110.jpg","1","","prediction_trial","2","","false","","0","false","false","false","false","false","false","[2,0]","101","110","0","","","","","","",""
"","","","","","image-keyboard-response","229","756810","0.0-204.0","60bae671bf92bf34f7a774ce","665500ab8938657b03fbdba8","66577c39d450c094bccb1bc1","1365","stimuli/01011102.jpg"," ","","feedback_trial","2","","","","","","","","","","","","","","","","","","","","",""
"","","","","","image-keyboard-response","230","758027","0.0-205.0","60bae671bf92bf34f7a774ce","665500ab8938657b03fbdba8","66577c39d450c094bccb1bc1","1214","stimuli/1111100.jpg","1","","prediction_trial","1","","true","","1","true","true","false","false","false","false","[1,2,0]","111","100","1","","","","","","",""
"","","","","","image-keyboard-response","231","759001","0.0-206.0","60bae671bf92bf34f7a774ce","665500ab8938657b03fbdba8","66577c39d450c094bccb1bc1","969","stimuli/11111001.jpg"," ","","feedback_trial","1","","","","","","","","","","","","","","","","","","","","",""
"","","","","","image-keyboard-response","232","762080","0.0-207.0","60bae671bf92bf34f7a774ce","665500ab8938657b03fbdba8","66577c39d450c094bccb1bc1","3075","stimuli/0011100.jpg","0","","prediction_trial","0","","true","","0","false","true","true","true","false","true","[0]","011","100","1","","","","","","",""
"","","","","","image-keyboard-response","233","763239","0.0-208.0","60bae671bf92bf34f7a774ce","665500ab8938657b03fbdba8","66577c39d450c094bccb1bc1","1154","stimuli/00111000.jpg"," ","","feedback_trial","0","","","","","","","","","","","","","","","","","","","","",""
"","","","","","image-keyboard-response","234","765595","0.0-209.0","60bae671bf92bf34f7a774ce","665500ab8938657b03fbdba8","66577c39d450c094bccb1bc1","2352","stimuli/0111000.jpg","1","","prediction_trial","1","","true","","0","true","true","false","false","false","false","[2,1,0]","111","000","1","","","","","","",""
"","","","","","image-keyboard-response","235","767575","0.0-210.0","60bae671bf92bf34f7a774ce","665500ab8938657b03fbdba8","66577c39d450c094bccb1bc1","1977","stimuli/01110001.jpg"," ","","feedback_trial","2","","","","","","","","","","","","","","","","","","","","",""
"","","","","","image-keyboard-response","236","771040","0.0-211.0","60bae671bf92bf34f7a774ce","665500ab8938657b03fbdba8","66577c39d450c094bccb1bc1","3460","stimuli/0101101.jpg","2","","prediction_trial","2","","true","","0","false","false","false","false","false","false","[2,0]","101","101","1","","","","","","",""
"","","","","","image-keyboard-response","237","772146","0.0-212.0","60bae671bf92bf34f7a774ce","665500ab8938657b03fbdba8","66577c39d450c094bccb1bc1","1101","stimuli/01011012.jpg"," ","","feedback_trial","2","","","","","","","","","","","","","","","","","","","","",""
"","","","","","image-keyboard-response","238","774532","0.0-213.0","60bae671bf92bf34f7a774ce","665500ab8938657b03fbdba8","66577c39d450c094bccb1bc1","2381","stimuli/1011011.jpg","1","","prediction_trial","1","","true","","1","false","false","false","false","false","false","[2,1]","011","011","1","","","","","","",""
"","","","","","image-keyboard-response","239","775766","0.0-214.0","60bae671bf92bf34f7a774ce","665500ab8938657b03fbdba8","66577c39d450c094bccb1bc1","1229","stimuli/10110111.jpg"," ","","feedback_trial","2","","","","","","","","","","","","","","","","","","","","",""
"","","","","","image-keyboard-response","240","780676","0.0-215.0","60bae671bf92bf34f7a774ce","665500ab8938657b03fbdba8","66577c39d450c094bccb1bc1","4906","stimuli/2110101.jpg","2","","prediction_trial","2","","true","","2","false","false","true","true","false","false","[2]","110","101","1","","","","","","",""
"","","","","","image-keyboard-response","241","781838","0.0-216.0","60bae671bf92bf34f7a774ce","665500ab8938657b03fbdba8","66577c39d450c094bccb1bc1","1159","stimuli/21101012.jpg"," ","","feedback_trial","2","","","","","","","","","","","","","","","","","","","","",""
"","","","","","image-keyboard-response","242","785536","0.0-217.0","60bae671bf92bf34f7a774ce","665500ab8938657b03fbdba8","66577c39d450c094bccb1bc1","3692","stimuli/2110111.jpg","0","","prediction_trial","2","","false","","2","false","false","true","true","false","false","[2]","110","111","0","","","","","","",""
"","","","","","image-keyboard-response","243","787181","0.0-218.0","60bae671bf92bf34f7a774ce","665500ab8938657b03fbdba8","66577c39d450c094bccb1bc1","1640","stimuli/21101112.jpg"," ","","feedback_trial","2","","","","","","","","","","","","","","","","","","","","",""
"","","","","","image-keyboard-response","244","792048","0.0-219.0","60bae671bf92bf34f7a774ce","665500ab8938657b03fbdba8","66577c39d450c094bccb1bc1","4863","stimuli/2101100.jpg","2","","prediction_trial","2","","true","","2","true","true","false","false","false","false","[0,2]","101","100","1","","","","","","",""
"","","","","","image-keyboard-response","245","792748","0.0-220.0","60bae671bf92bf34f7a774ce","665500ab8938657b03fbdba8","66577c39d450c094bccb1bc1","695","stimuli/21011002.jpg"," ","","feedback_trial","0","","","","","","","","","","","","","","","","","","","","",""
"","","","","","image-keyboard-response","246","796212","0.0-221.0","60bae671bf92bf34f7a774ce","665500ab8938657b03fbdba8","66577c39d450c094bccb1bc1","3459","stimuli/1111010.jpg","1","","prediction_trial","1","","true","","1","false","true","false","false","false","false","[0,1,2]","111","010","1","","","","","","",""
"","","","","","image-keyboard-response","247","796727","0.0-222.0","60bae671bf92bf34f7a774ce","665500ab8938657b03fbdba8","66577c39d450c094bccb1bc1","511","stimuli/11110101.jpg"," ","","feedback_trial","0","","","","","","","","","","","","","","","","","","","","",""
"","","","","","image-keyboard-response","248","803045","0.0-223.0","60bae671bf92bf34f7a774ce","665500ab8938657b03fbdba8","66577c39d450c094bccb1bc1","6314","stimuli/1000111.jpg","1","","prediction_trial","1","","true","","1","false","false","true","true","false","false","[1]","000","111","1","","","","","","",""
"","","","","","image-keyboard-response","249","809430","0.0-224.0","60bae671bf92bf34f7a774ce","665500ab8938657b03fbdba8","66577c39d450c094bccb1bc1","6380","stimuli/10001111.jpg"," ","","feedback_trial","1","","","","","","","","","","","","","","","","","","","","",""
"","","","","","image-keyboard-response","250","812099","0.0-225.0","60bae671bf92bf34f7a774ce","665500ab8938657b03fbdba8","66577c39d450c094bccb1bc1","2662","stimuli/1110010.jpg","1","","prediction_trial","0","","false","","1","false","true","false","false","false","false","[1,0]","110","010","0","","","","","","",""
"","","","","","image-keyboard-response","251","813352","0.0-226.0","60bae671bf92bf34f7a774ce","665500ab8938657b03fbdba8","66577c39d450c094bccb1bc1","1249","stimuli/11100100.jpg"," ","","feedback_trial","1","","","","","","","","","","","","","","","","","","","","",""
"","","","","","image-keyboard-response","252","815494","0.0-227.0","60bae671bf92bf34f7a774ce","665500ab8938657b03fbdba8","66577c39d450c094bccb1bc1","2137","stimuli/0011010.jpg","0","","prediction_trial","0","","true","","0","true","true","true","true","true","true","[0]","011","010","1","","","","","","",""
"","","","","","image-keyboard-response","253","816500","0.0-228.0","60bae671bf92bf34f7a774ce","665500ab8938657b03fbdba8","66577c39d450c094bccb1bc1","1001","stimuli/00110100.jpg"," ","","feedback_trial","0","","","","","","","","","","","","","","","","","","","","",""
"","","","","","image-keyboard-response","254","818288","0.0-229.0","60bae671bf92bf34f7a774ce","665500ab8938657b03fbdba8","66577c39d450c094bccb1bc1","1783","stimuli/0111010.jpg","0","","prediction_trial","1","","false","","0","true","true","false","false","false","false","[0,1,2]","111","010","0","","","","","","",""
"","","","","","image-keyboard-response","255","819131","0.0-230.0","60bae671bf92bf34f7a774ce","665500ab8938657b03fbdba8","66577c39d450c094bccb1bc1","835","stimuli/01110101.jpg"," ","","feedback_trial","0","","","","","","","","","","","","","","","","","","","","",""
"","","","","","image-keyboard-response","256","821024","0.0-231.0","60bae671bf92bf34f7a774ce","665500ab8938657b03fbdba8","66577c39d450c094bccb1bc1","1889","stimuli/0010011.jpg","0","","prediction_trial","0","","true","","0","true","true","true","true","true","true","[0]","010","011","1","","","","","","",""
"","","","","","image-keyboard-response","257","821556","0.0-232.0","60bae671bf92bf34f7a774ce","665500ab8938657b03fbdba8","66577c39d450c094bccb1bc1","527","stimuli/00100110.jpg"," ","","feedback_trial","0","","","","","","","","","","","","","","","","","","","","",""
"","","","","","image-keyboard-response","258","824690","0.0-233.0","60bae671bf92bf34f7a774ce","665500ab8938657b03fbdba8","66577c39d450c094bccb1bc1","3113","stimuli/1111110.jpg","1","","prediction_trial","2","","false","","1","false","false","false","false","false","false","[2,1,0]","111","110","0","","","","","","",""
"","","","","","image-keyboard-response","259","826000","0.0-234.0","60bae671bf92bf34f7a774ce","665500ab8938657b03fbdba8","66577c39d450c094bccb1bc1","1292","stimuli/11111102.jpg"," ","","feedback_trial","2","","","","","","","","","","","","","","","","","","","","",""
"","","","","","image-keyboard-response","260","828308","0.0-235.0","60bae671bf92bf34f7a774ce","665500ab8938657b03fbdba8","66577c39d450c094bccb1bc1","2273","stimuli/1111000.jpg","1","","prediction_trial","0","","false","","1","true","true","false","false","false","false","[1,2,0]","111","000","0","","","","","","",""
"","","","","","image-keyboard-response","261","834078","0.0-236.0","60bae671bf92bf34f7a774ce","665500ab8938657b03fbdba8","66577c39d450c094bccb1bc1","5764","stimuli/11110000.jpg"," ","","feedback_trial","1","","","","","","","","","","","","","","","","","","","","",""
"","","","","","image-keyboard-response","262","835913","0.0-237.0","60bae671bf92bf34f7a774ce","665500ab8938657b03fbdba8","66577c39d450c094bccb1bc1","1830","stimuli/0111001.jpg","0","","prediction_trial","0","","true","","0","true","true","false","false","false","false","[2,1,0]","111","001","1","","","","","","",""
"","","","","","image-keyboard-response","263","836905","0.0-238.0","60bae671bf92bf34f7a774ce","665500ab8938657b03fbdba8","66577c39d450c094bccb1bc1","986","stimuli/01110010.jpg"," ","","feedback_trial","2","","","","","","","","","","","","","","","","","","","","",""
"","","","","","image-keyboard-response","264","842862","0.0-239.0","60bae671bf92bf34f7a774ce","665500ab8938657b03fbdba8","66577c39d450c094bccb1bc1","5953","stimuli/0110111.jpg","2","","prediction_trial","0","","false","","0","false","false","false","false","false","false","[0,1]","110","111","0","","","","","","",""
"","","","","","image-keyboard-response","265","846016","0.0-240.0","60bae671bf92bf34f7a774ce","665500ab8938657b03fbdba8","66577c39d450c094bccb1bc1","3150","stimuli/01101110.jpg"," ","","feedback_trial","0","","","","","","","","","","","","","","","","","","","","",""
"","","","","","image-keyboard-response","266","847767","0.0-241.0","60bae671bf92bf34f7a774ce","665500ab8938657b03fbdba8","66577c39d450c094bccb1bc1","1748","stimuli/1101011.jpg","1","","prediction_trial","1","","true","","1","false","false","true","true","false","false","[1]","101","011","1","","","","","","",""
"","","","","","image-keyboard-response","267","848989","0.0-242.0","60bae671bf92bf34f7a774ce","665500ab8938657b03fbdba8","66577c39d450c094bccb1bc1","1218","stimuli/11010111.jpg"," ","","feedback_trial","1","","","","","","","","","","","","","","","","","","","","",""
"","","","","","image-keyboard-response","268","850857","0.0-243.0","60bae671bf92bf34f7a774ce","665500ab8938657b03fbdba8","66577c39d450c094bccb1bc1","1863","stimuli/0000010.jpg","0","","prediction_trial","0","","true","","0","true","true","true","true","true","true","[0]","000","010","1","","","","","","",""
"","","","","","image-keyboard-response","269","851471","0.0-244.0","60bae671bf92bf34f7a774ce","665500ab8938657b03fbdba8","66577c39d450c094bccb1bc1","609","stimuli/00000100.jpg"," ","","feedback_trial","0","","","","","","","","","","","","","","","","","","","","",""
"","","","","","image-keyboard-response","270","857669","0.0-245.0","60bae671bf92bf34f7a774ce","665500ab8938657b03fbdba8","66577c39d450c094bccb1bc1","6195","stimuli/2001101.jpg","0","","prediction_trial","2","","false","","2","false","false","false","true","false","false","[2]","001","101","0","","","","","","",""
"","","","","","image-keyboard-response","271","859787","0.0-246.0","60bae671bf92bf34f7a774ce","665500ab8938657b03fbdba8","66577c39d450c094bccb1bc1","2114","stimuli/20011012.jpg"," ","","feedback_trial","2","","","","","","","","","","","","","","","","","","","","",""
"","","","","","image-keyboard-response","272","862583","0.0-247.0","60bae671bf92bf34f7a774ce","665500ab8938657b03fbdba8","66577c39d450c094bccb1bc1","2791","stimuli/2011011.jpg","1","","prediction_trial","1","","true","","2","false","false","false","false","false","false","[2,1]","011","011","1","","","","","","",""
"","","","","","image-keyboard-response","273","863818","0.0-248.0","60bae671bf92bf34f7a774ce","665500ab8938657b03fbdba8","66577c39d450c094bccb1bc1","1231","stimuli/20110111.jpg"," ","","feedback_trial","2","","","","","","","","","","","","","","","","","","","","",""
"","","","","","image-keyboard-response","274","866604","0.0-249.0","60bae671bf92bf34f7a774ce","665500ab8938657b03fbdba8","66577c39d450c094bccb1bc1","2782","stimuli/2000101.jpg","0","","prediction_trial","2","","false","","2","false","false","true","true","false","false","[2]","000","101","0","","","","","","",""
"","","","","","image-keyboard-response","275","868192","0.0-250.0","60bae671bf92bf34f7a774ce","665500ab8938657b03fbdba8","66577c39d450c094bccb1bc1","1583","stimuli/20001012.jpg"," ","","feedback_trial","2","","","","","","","","","","","","","","","","","","","","",""
"","","","","","image-keyboard-response","276","870475","0.0-251.0","60bae671bf92bf34f7a774ce","665500ab8938657b03fbdba8","66577c39d450c094bccb1bc1","2278","stimuli/0100000.jpg","0","","prediction_trial","0","","true","","0","true","true","false","true","false","true","[0]","100","000","1","","","","","","",""
"","","","","","image-keyboard-response","277","871488","0.0-252.0","60bae671bf92bf34f7a774ce","665500ab8938657b03fbdba8","66577c39d450c094bccb1bc1","1009","stimuli/01000000.jpg"," ","","feedback_trial","0","","","","","","","","","","","","","","","","","","","","",""
"","","","","","image-keyboard-response","278","873083","0.0-253.0","60bae671bf92bf34f7a774ce","665500ab8938657b03fbdba8","66577c39d450c094bccb1bc1","1591","stimuli/0000000.jpg","0","","prediction_trial","0","","true","","0","true","true","true","true","true","true","[0]","000","000","1","","","","","","",""
"","","","","","image-keyboard-response","279","874020","0.0-254.0","60bae671bf92bf34f7a774ce","665500ab8938657b03fbdba8","66577c39d450c094bccb1bc1","931","stimuli/00000000.jpg"," ","","feedback_trial","0","","","","","","","","","","","","","","","","","","","","",""
"","","","","","image-keyboard-response","280","877264","0.0-255.0","60bae671bf92bf34f7a774ce","665500ab8938657b03fbdba8","66577c39d450c094bccb1bc1","3237","stimuli/1001101.jpg","2","","prediction_trial","1","","false","","1","true","true","true","true","true","true","[1]","001","101","0","","","","","","",""
"","","","","","image-keyboard-response","281","878806","0.0-256.0","60bae671bf92bf34f7a774ce","665500ab8938657b03fbdba8","66577c39d450c094bccb1bc1","1536","stimuli/10011011.jpg"," ","","feedback_trial","1","","","","","","","","","","","","","","","","","","","","",""
"","","","","","image-keyboard-response","282","882047","0.0-257.0","60bae671bf92bf34f7a774ce","665500ab8938657b03fbdba8","66577c39d450c094bccb1bc1","3234","stimuli/0111101.jpg","1","","prediction_trial","2","","false","","0","false","false","false","false","false","false","[2,0,1]","111","101","0","","","","","","",""
"","","","","","image-keyboard-response","283","883227","0.0-258.0","60bae671bf92bf34f7a774ce","665500ab8938657b03fbdba8","66577c39d450c094bccb1bc1","1174","stimuli/01111012.jpg"," ","","feedback_trial","2","","","","","","","","","","","","","","","","","","","","",""
"","","","","","image-keyboard-response","284","885117","0.0-259.0","60bae671bf92bf34f7a774ce","665500ab8938657b03fbdba8","66577c39d450c094bccb1bc1","1886","stimuli/2111110.jpg","2","","prediction_trial","0","","false","","2","true","true","false","false","false","false","[0,1,2]","111","110","0","","","","","","",""
"","","","","","image-keyboard-response","285","886314","0.0-260.0","60bae671bf92bf34f7a774ce","665500ab8938657b03fbdba8","66577c39d450c094bccb1bc1","1192","stimuli/21111100.jpg"," ","","feedback_trial","0","","","","","","","","","","","","","","","","","","","","",""
"","","","","","image-keyboard-response","286","889299","0.0-261.0","60bae671bf92bf34f7a774ce","665500ab8938657b03fbdba8","66577c39d450c094bccb1bc1","2980","stimuli/2001011.jpg","1","","prediction_trial","2","","false","","2","false","false","false","true","false","false","[2]","001","011","0","","","","","","",""
"","","","","","image-keyboard-response","287","890392","0.0-262.0","60bae671bf92bf34f7a774ce","665500ab8938657b03fbdba8","66577c39d450c094bccb1bc1","1088","stimuli/20010112.jpg"," ","","feedback_trial","2","","","","","","","","","","","","","","","","","","","","",""
"","","","","","image-keyboard-response","288","892424","0.0-263.0","60bae671bf92bf34f7a774ce","665500ab8938657b03fbdba8","66577c39d450c094bccb1bc1","2028","stimuli/1111011.jpg","1","","prediction_trial","1","","true","","1","false","false","false","false","false","false","[1,0,2]","111","011","1","","","","","","",""
"","","","","","image-keyboard-response","289","893533","0.0-264.0","60bae671bf92bf34f7a774ce","665500ab8938657b03fbdba8","66577c39d450c094bccb1bc1","1105","stimuli/11110111.jpg"," ","","feedback_trial","1","","","","","","","","","","","","","","","","","","","","",""
"","","","","","image-keyboard-response","290","895218","0.0-265.0","60bae671bf92bf34f7a774ce","665500ab8938657b03fbdba8","66577c39d450c094bccb1bc1","1680","stimuli/0111111.jpg","1","","prediction_trial","0","","false","","0","false","false","false","false","false","false","[0,1,2]","111","111","0","","","","","","",""
"","","","","","image-keyboard-response","291","896332","0.0-266.0","60bae671bf92bf34f7a774ce","665500ab8938657b03fbdba8","66577c39d450c094bccb1bc1","1110","stimuli/01111110.jpg"," ","","feedback_trial","0","","","","","","","","","","","","","","","","","","","","",""
"","","","","","image-keyboard-response","292","897959","0.0-267.0","60bae671bf92bf34f7a774ce","665500ab8938657b03fbdba8","66577c39d450c094bccb1bc1","1623","stimuli/1110000.jpg","1","","prediction_trial","1","","true","","1","true","true","false","false","false","false","[0,1]","110","000","1","","","","","","",""
"","","","","","image-keyboard-response","293","899051","0.0-268.0","60bae671bf92bf34f7a774ce","665500ab8938657b03fbdba8","66577c39d450c094bccb1bc1","1088","stimuli/11100001.jpg"," ","","feedback_trial","0","","","","","","","","","","","","","","","","","","","","",""
"","","","","","image-keyboard-response","294","901074","0.0-269.0","60bae671bf92bf34f7a774ce","665500ab8938657b03fbdba8","66577c39d450c094bccb1bc1","2017","stimuli/2001110.jpg","2","","prediction_trial","2","","true","","2","true","true","false","true","false","true","[2]","001","110","1","","","","","","",""
"","","","","","image-keyboard-response","295","902090","0.0-270.0","60bae671bf92bf34f7a774ce","665500ab8938657b03fbdba8","66577c39d450c094bccb1bc1","1012","stimuli/20011102.jpg"," ","","feedback_trial","2","","","","","","","","","","","","","","","","","","","","",""
"","","","","","image-keyboard-response","296","904853","0.0-271.0","60bae671bf92bf34f7a774ce","665500ab8938657b03fbdba8","66577c39d450c094bccb1bc1","2759","stimuli/1100011.jpg","1","","prediction_trial","1","","true","","1","false","false","true","true","false","false","[1]","100","011","1","","","","","","",""
"","","","","","image-keyboard-response","297","905926","0.0-272.0","60bae671bf92bf34f7a774ce","665500ab8938657b03fbdba8","66577c39d450c094bccb1bc1","1068","stimuli/11000111.jpg"," ","","feedback_trial","1","","","","","","","","","","","","","","","","","","","","",""
"","","","","","image-keyboard-response","298","908715","0.0-273.0","60bae671bf92bf34f7a774ce","665500ab8938657b03fbdba8","66577c39d450c094bccb1bc1","2785","stimuli/0000111.jpg","1","","prediction_trial","0","","false","","0","false","false","true","true","false","false","[0]","000","111","0","","","","","","",""
"","","","","","image-keyboard-response","299","909881","0.0-274.0","60bae671bf92bf34f7a774ce","665500ab8938657b03fbdba8","66577c39d450c094bccb1bc1","1161","stimuli/00001110.jpg"," ","","feedback_trial","0","","","","","","","","","","","","","","","","","","","","",""
"","","","","","image-keyboard-response","300","911286","0.0-275.0","60bae671bf92bf34f7a774ce","665500ab8938657b03fbdba8","66577c39d450c094bccb1bc1","1402","stimuli/1000100.jpg","1","","prediction_trial","1","","true","","1","true","true","true","true","true","true","[1]","000","100","1","","","","","","",""
"","","","","","image-keyboard-response","301","912072","0.0-276.0","60bae671bf92bf34f7a774ce","665500ab8938657b03fbdba8","66577c39d450c094bccb1bc1","781","stimuli/10001001.jpg"," ","","feedback_trial","1","","","","","","","","","","","","","","","","","","","","",""
"","","","","","image-keyboard-response","302","913592","0.0-277.0","60bae671bf92bf34f7a774ce","665500ab8938657b03fbdba8","66577c39d450c094bccb1bc1","1516","stimuli/0100011.jpg","0","","prediction_trial","0","","true","","0","true","true","false","true","false","true","[0]","100","011","1","","","","","","",""
"","","","","","image-keyboard-response","303","914339","0.0-278.0","60bae671bf92bf34f7a774ce","665500ab8938657b03fbdba8","66577c39d450c094bccb1bc1","744","stimuli/01000110.jpg"," ","","feedback_trial","0","","","","","","","","","","","","","","","","","","","","",""
"","","","","","image-keyboard-response","304","916374","0.0-279.0","60bae671bf92bf34f7a774ce","665500ab8938657b03fbdba8","66577c39d450c094bccb1bc1","2030","stimuli/0111011.jpg","0","","prediction_trial","1","","false","","0","true","true","false","false","false","false","[1,0,2]","111","011","0","","","","","","",""
"","","","","","image-keyboard-response","305","916871","0.0-280.0","60bae671bf92bf34f7a774ce","665500ab8938657b03fbdba8","66577c39d450c094bccb1bc1","493","stimuli/01110111.jpg"," ","","feedback_trial","1","","","","","","","","","","","","","","","","","","","","",""
"","","","","","image-keyboard-response","306","918647","0.0-281.0","60bae671bf92bf34f7a774ce","665500ab8938657b03fbdba8","66577c39d450c094bccb1bc1","1773","stimuli/0001011.jpg","0","","prediction_trial","0","","true","","0","true","true","true","true","true","true","[0]","001","011","1","","","","","","",""
"","","","","","image-keyboard-response","307","919596","0.0-282.0","60bae671bf92bf34f7a774ce","665500ab8938657b03fbdba8","66577c39d450c094bccb1bc1","944","stimuli/00010110.jpg"," ","","feedback_trial","0","","","","","","","","","","","","","","","","","","","","",""
"","","","","","image-keyboard-response","308","921567","0.0-283.0","60bae671bf92bf34f7a774ce","665500ab8938657b03fbdba8","66577c39d450c094bccb1bc1","1965","stimuli/2111000.jpg","2","","prediction_trial","2","","true","","2","true","true","false","false","false","false","[0,1,2]","111","000","1","","","","","","",""
"","","","","","image-keyboard-response","309","922732","0.0-284.0","60bae671bf92bf34f7a774ce","665500ab8938657b03fbdba8","66577c39d450c094bccb1bc1","1159","stimuli/21110002.jpg"," ","","feedback_trial","0","","","","","","","","","","","","","","","","","","","","",""
"","","","","","image-keyboard-response","310","924585","0.0-285.0","60bae671bf92bf34f7a774ce","665500ab8938657b03fbdba8","66577c39d450c094bccb1bc1","1847","stimuli/1111101.jpg","1","","prediction_trial","2","","false","","1","true","true","false","false","false","false","[2,0,1]","111","101","0","","","","","","",""
"","","","","","image-keyboard-response","311","925698","0.0-286.0","60bae671bf92bf34f7a774ce","665500ab8938657b03fbdba8","66577c39d450c094bccb1bc1","1106","stimuli/11111012.jpg"," ","","feedback_trial","2","","","","","","","","","","","","","","","","","","","","",""
"","","","","","image-keyboard-response","312","927284","0.0-287.0","60bae671bf92bf34f7a774ce","665500ab8938657b03fbdba8","66577c39d450c094bccb1bc1","1557","stimuli/0001000.jpg","0","","prediction_trial","0","","true","","0","true","true","true","true","true","true","[0]","001","000","1","","","","","","",""
"","","","","","image-keyboard-response","313","928671","0.0-288.0","60bae671bf92bf34f7a774ce","665500ab8938657b03fbdba8","66577c39d450c094bccb1bc1","1382","stimuli/00010000.jpg"," ","","feedback_trial","0","","","","","","","","","","","","","","","","","","","","",""
"","","","","","image-keyboard-response","314","930500","0.0-289.0","60bae671bf92bf34f7a774ce","665500ab8938657b03fbdba8","66577c39d450c094bccb1bc1","1825","stimuli/0101011.jpg","0","","prediction_trial","0","","true","","0","true","true","false","false","false","false","[2,0]","101","011","1","","","","","","",""
"","","","","","image-keyboard-response","315","931576","0.0-290.0","60bae671bf92bf34f7a774ce","665500ab8938657b03fbdba8","66577c39d450c094bccb1bc1","1072","stimuli/01010110.jpg"," ","","feedback_trial","2","","","","","","","","","","","","","","","","","","","","",""
"","","","","","image-keyboard-response","316","933980","0.0-291.0","60bae671bf92bf34f7a774ce","665500ab8938657b03fbdba8","66577c39d450c094bccb1bc1","2399","stimuli/2000011.jpg","1","","prediction_trial","2","","false","","2","false","false","true","true","false","false","[2]","000","011","0","","","","","","",""
"","","","","","image-keyboard-response","317","935091","0.0-292.0","60bae671bf92bf34f7a774ce","665500ab8938657b03fbdba8","66577c39d450c094bccb1bc1","1107","stimuli/20000112.jpg"," ","","feedback_trial","2","","","","","","","","","","","","","","","","","","","","",""
"","","","","","survey-html-form","318","1046848","0.0-293.0","60bae671bf92bf34f7a774ce","665500ab8938657b03fbdba8","66577c39d450c094bccb1bc1","111714","","{""feedback"":""If Sam could see the ball then I definitely selected that option. Or if I could see that two of the baskets were empty I chose the third basket. "",""age"":""70"",""gender"":""Female"",""other_gender"":"""",""race"":""White"",""other_race"":"""",""ethnicity"":""Non-Hispanic""}","","exit_survey","","","","","","","","","","","","","","","","If Sam could see the ball then I definitely selected that option. Or if I could see that two of the baskets were empty I chose the third basket. ","70","Non-Hispanic","Female","White","0.6527777777777778","0.6527777777777778"
