"success","timeout","failed_images","failed_audio","failed_video","trial_type","trial_index","time_elapsed","internal_node_id","prolific_id","prolific_study_id","prolific_session_id","rt","stimulus","response","view_history","trial","character_choice","stimulus_dict","accuracy","correct_response","ball_pos","ego_ball_visible","ego_can_infer","alter_ball_visible","alter_can_infer","collective_ball_visible","collective_can_infer","search_locations","alter_occluders","ego_occluders","accuracy_bool","feedback","age","ethnicity","gender","race","overall_accuracy","bonus"
"true","false","[]","[]","[]","preload","0","5592","0.0-0.0","637b04a69794763b20491590","665500ab8938657b03fbdba8","665792636003e3601401a5ff","","","","","","","","","","","","","","","","","","","","","","","","","","",""
"true","","","","","fullscreen","1","12204","0.0-1.0","637b04a69794763b20491590","665500ab8938657b03fbdba8","665792636003e3601401a5ff","","","","","","","","","","","","","","","","","","","","","","","","","","",""
"","","","","","html-button-response","2","42473","0.0-2.0","637b04a69794763b20491590","665500ab8938657b03fbdba8","665792636003e3601401a5ff","30266","<p><b>Consent Form</b></p> <div style=""text-align:left;background-color:lightgrey; padding:20px; max-width:900px;""><p>Please consider this information carefully before deciding whether to participate in this research.</p> <p>The purpose of this research is to examine which factors influence social judgment and decision-making. You will be asked to make judgements about individuals and actions in social scenarios. We are simply interested in your judgement. The study will take less than 1 hour to complete, and you will receive less than $20 on Prolific. Your compensation and time commitment are specified in the study description. There are no anticipated risks associated with participating in this study. The effects of participating should be comparable to those you would ordinarily experience from viewing a computer monitor and using a mouse or keyboard for a similar amount of time. At the end of the study, we will provide an explanation of the questions that motivate this line of research and will describe the potential implications. </p><p> Your participation in this study is completely voluntary and you may refuse to participate or you may choose to withdraw at any time without penalty or loss of benefits to you which are otherwise entitled. Your participation in this study will remain confidential. No personally identifiable information will be associated with your data. Also, all analyses of the data will be averaged across all the participants, so your individual responses will never be specifically analyzed. </p><p> If you have questions or concerns about your participation or payment, or want to request a summary of research findings, please contact Dr. Jonathan Phillips at Jonathan.S.Phillips@dartmouth.edu. </p><p> Please save a copy of this form for your records. </p><p><b>Agreement: </b>The nature and purpose of this research have been sufficiently explained and I agree to participate in this study. I understand that I am free to withdraw at any time without incurring any penalty. Please consent by clicking the button below to continue. Otherwise, please exit the study at any time. </p>","0","","","","","","","","","","","","","","","","","","","","","","","",""
"","","","","","instructions","3","227205","0.0-3.0-0.0","637b04a69794763b20491590","665500ab8938657b03fbdba8","665792636003e3601401a5ff","184731","","","[{""page_index"":0,""viewing_time"":1889},{""page_index"":1,""viewing_time"":12388},{""page_index"":2,""viewing_time"":7164},{""page_index"":3,""viewing_time"":13501},{""page_index"":4,""viewing_time"":7082},{""page_index"":5,""viewing_time"":8124},{""page_index"":6,""viewing_time"":9291},{""page_index"":7,""viewing_time"":8592},{""page_index"":8,""viewing_time"":9935},{""page_index"":9,""viewing_time"":7630},{""page_index"":10,""viewing_time"":29268},{""page_index"":9,""viewing_time"":3794},{""page_index"":10,""viewing_time"":5980},{""page_index"":11,""viewing_time"":20376},{""page_index"":12,""viewing_time"":37560},{""page_index"":13,""viewing_time"":2157}]","intro","","","","","","","","","","","","","","","","","","","","","",""
"","","","","","image-keyboard-response","4","233772","0.0-3.0-1.0","637b04a69794763b20491590","665500ab8938657b03fbdba8","665792636003e3601401a5ff","6562","stimuli/2010110.jpg","2","","prediction_practice","2","{""filepath"":""stimuli/2010110.jpg"",""ball_pos"":2,""ego_ball_visible"":true,""ego_can_infer"":true,""alter_ball_visible"":true,""alter_can_infer"":true,""collective_ball_visible"":true,""collective_can_infer"":true,""search_locations"":[2],""alter_occluders"":""010"",""ego_occluders"":""110""}","true","","","","","","","","","","","","","","","","","","",""
"","","","","","image-keyboard-response","5","235711","0.0-3.0-2.0","637b04a69794763b20491590","665500ab8938657b03fbdba8","665792636003e3601401a5ff","1937","stimuli/20101102.jpg"," ","","practrice_feedback","2","","","","","","","","","","","","","","","","","","","","",""
"","","","","","image-keyboard-response","6","240908","0.0-3.0-3.0","637b04a69794763b20491590","665500ab8938657b03fbdba8","665792636003e3601401a5ff","5194","stimuli/2110001.jpg","2","","prediction_practice","2","{""filepath"":""stimuli/2110001.jpg"",""ball_pos"":2,""ego_ball_visible"":false,""ego_can_infer"":true,""alter_ball_visible"":true,""alter_can_infer"":true,""collective_ball_visible"":false,""collective_can_infer"":true,""search_locations"":[2],""alter_occluders"":""110"",""ego_occluders"":""001""}","true","","","","","","","","","","","","","","","","","","",""
"","","","","","image-keyboard-response","7","242312","0.0-3.0-4.0","637b04a69794763b20491590","665500ab8938657b03fbdba8","665792636003e3601401a5ff","1401","stimuli/21100012.jpg"," ","","practrice_feedback","2","","","","","","","","","","","","","","","","","","","","",""
"","","","","","image-keyboard-response","8","252493","0.0-3.0-5.0","637b04a69794763b20491590","665500ab8938657b03fbdba8","665792636003e3601401a5ff","10179","stimuli/0100111.jpg","0","","prediction_practice","0","{""filepath"":""stimuli/0100111.jpg"",""ball_pos"":0,""ego_ball_visible"":false,""ego_can_infer"":false,""alter_ball_visible"":false,""alter_can_infer"":true,""collective_ball_visible"":false,""collective_can_infer"":false,""search_locations"":[0],""alter_occluders"":""100"",""ego_occluders"":""111""}","true","","","","","","","","","","","","","","","","","","",""
"","","","","","image-keyboard-response","9","253792","0.0-3.0-6.0","637b04a69794763b20491590","665500ab8938657b03fbdba8","665792636003e3601401a5ff","1295","stimuli/01001110.jpg"," ","","practrice_feedback","0","","","","","","","","","","","","","","","","","","","","",""
"","","","","","image-keyboard-response","10","257544","0.0-3.0-7.0","637b04a69794763b20491590","665500ab8938657b03fbdba8","665792636003e3601401a5ff","3749","stimuli/2001110.jpg","2","","prediction_practice","2","{""filepath"":""stimuli/2001110.jpg"",""ball_pos"":2,""ego_ball_visible"":true,""ego_can_infer"":true,""alter_ball_visible"":false,""alter_can_infer"":true,""collective_ball_visible"":false,""collective_can_infer"":true,""search_locations"":[2],""alter_occluders"":""001"",""ego_occluders"":""110""}","true","","","","","","","","","","","","","","","","","","",""
"","","","","","image-keyboard-response","11","258289","0.0-3.0-8.0","637b04a69794763b20491590","665500ab8938657b03fbdba8","665792636003e3601401a5ff","743","stimuli/20011102.jpg"," ","","practrice_feedback","2","","","","","","","","","","","","","","","","","","","","",""
"","","","","","image-keyboard-response","12","260945","0.0-3.0-9.0","637b04a69794763b20491590","665500ab8938657b03fbdba8","665792636003e3601401a5ff","2652","stimuli/0001001.jpg","0","","prediction_practice","0","{""filepath"":""stimuli/0001001.jpg"",""ball_pos"":0,""ego_ball_visible"":true,""ego_can_infer"":true,""alter_ball_visible"":true,""alter_can_infer"":true,""collective_ball_visible"":true,""collective_can_infer"":true,""search_locations"":[0],""alter_occluders"":""001"",""ego_occluders"":""001""}","true","","","","","","","","","","","","","","","","","","",""
"","","","","","image-keyboard-response","13","261465","0.0-3.0-10.0","637b04a69794763b20491590","665500ab8938657b03fbdba8","665792636003e3601401a5ff","518","stimuli/00010010.jpg"," ","","practrice_feedback","0","","","","","","","","","","","","","","","","","","","","",""
"","","","","","image-keyboard-response","14","267073","0.0-3.0-11.0","637b04a69794763b20491590","665500ab8938657b03fbdba8","665792636003e3601401a5ff","5604","stimuli/2101111.jpg","1","","prediction_practice","0","{""filepath"":""stimuli/2101111.jpg"",""ball_pos"":2,""ego_ball_visible"":false,""ego_can_infer"":false,""alter_ball_visible"":false,""alter_can_infer"":false,""collective_ball_visible"":false,""collective_can_infer"":false,""search_locations"":[0,2],""alter_occluders"":""101"",""ego_occluders"":""111""}","false","","","","","","","","","","","","","","","","","","",""
"","","","","","image-keyboard-response","15","269404","0.0-3.0-12.0","637b04a69794763b20491590","665500ab8938657b03fbdba8","665792636003e3601401a5ff","2328","stimuli/21011110.jpg"," ","","practrice_feedback","0","","","","","","","","","","","","","","","","","","","","",""
"","","","","","image-keyboard-response","16","274055","0.0-3.0-13.0","637b04a69794763b20491590","665500ab8938657b03fbdba8","665792636003e3601401a5ff","4648","stimuli/0111011.jpg","2","","prediction_practice","2","{""filepath"":""stimuli/0111011.jpg"",""ball_pos"":0,""ego_ball_visible"":true,""ego_can_infer"":true,""alter_ball_visible"":false,""alter_can_infer"":false,""collective_ball_visible"":false,""collective_can_infer"":false,""search_locations"":[2,1,0],""alter_occluders"":""111"",""ego_occluders"":""011""}","true","","","","","","","","","","","","","","","","","","",""
"","","","","","image-keyboard-response","17","274898","0.0-3.0-14.0","637b04a69794763b20491590","665500ab8938657b03fbdba8","665792636003e3601401a5ff","841","stimuli/01110112.jpg"," ","","practrice_feedback","2","","","","","","","","","","","","","","","","","","","","",""
"","","","","","image-keyboard-response","18","276063","0.0-3.0-15.0","637b04a69794763b20491590","665500ab8938657b03fbdba8","665792636003e3601401a5ff","1161","stimuli/1001100.jpg","1","","prediction_practice","1","{""filepath"":""stimuli/1001100.jpg"",""ball_pos"":1,""ego_ball_visible"":true,""ego_can_infer"":true,""alter_ball_visible"":true,""alter_can_infer"":true,""collective_ball_visible"":true,""collective_can_infer"":true,""search_locations"":[1],""alter_occluders"":""001"",""ego_occluders"":""100""}","true","","","","","","","","","","","","","","","","","","",""
"","","","","","image-keyboard-response","19","276637","0.0-3.0-16.0","637b04a69794763b20491590","665500ab8938657b03fbdba8","665792636003e3601401a5ff","572","stimuli/10011001.jpg"," ","","practrice_feedback","1","","","","","","","","","","","","","","","","","","","","",""
"","","","","","image-keyboard-response","20","278426","0.0-3.0-17.0","637b04a69794763b20491590","665500ab8938657b03fbdba8","665792636003e3601401a5ff","1786","stimuli/2101001.jpg","2","","prediction_practice","2","{""filepath"":""stimuli/2101001.jpg"",""ball_pos"":2,""ego_ball_visible"":false,""ego_can_infer"":true,""alter_ball_visible"":false,""alter_can_infer"":false,""collective_ball_visible"":false,""collective_can_infer"":false,""search_locations"":[2,0],""alter_occluders"":""101"",""ego_occluders"":""001""}","true","","","","","","","","","","","","","","","","","","",""
"","","","","","image-keyboard-response","21","279121","0.0-3.0-18.0","637b04a69794763b20491590","665500ab8938657b03fbdba8","665792636003e3601401a5ff","693","stimuli/21010012.jpg"," ","","practrice_feedback","2","","","","","","","","","","","","","","","","","","","","",""
"","","","","","image-keyboard-response","22","280948","0.0-3.0-19.0","637b04a69794763b20491590","665500ab8938657b03fbdba8","665792636003e3601401a5ff","1824","stimuli/0101010.jpg","0","","prediction_practice","0","{""filepath"":""stimuli/0101010.jpg"",""ball_pos"":0,""ego_ball_visible"":true,""ego_can_infer"":true,""alter_ball_visible"":false,""alter_can_infer"":false,""collective_ball_visible"":false,""collective_can_infer"":false,""search_locations"":[2,0],""alter_occluders"":""101"",""ego_occluders"":""010""}","true","","","","","","","","","","","","","","","","","","",""
"","","","","","image-keyboard-response","23","281448","0.0-3.0-20.0","637b04a69794763b20491590","665500ab8938657b03fbdba8","665792636003e3601401a5ff","498","stimuli/01010100.jpg"," ","","practrice_feedback","2","","","","","","","","","","","","","","","","","","","","",""
"","","","","","html-button-response","24","286856","0.0-3.0-21.0","637b04a69794763b20491590","665500ab8938657b03fbdba8","665792636003e3601401a5ff","5408","Now that you've had some practice, you'll be tested with a couple of easy trials. If you correctly predict Sam's choice, you'll move on to complete the experiment!","0","","","","","","","","","","","","","","","","","","","","","","","",""
"","","","","","image-keyboard-response","25","289329","0.0-3.0-22.0-0.0","637b04a69794763b20491590","665500ab8938657b03fbdba8","665792636003e3601401a5ff","2470","stimuli/0000011.jpg","arrowleft","","comprehension_quiz","","","true","arrowleft","","","","","","","","","","","","","","","","","",""
"","","","","","image-keyboard-response","26","290489","0.0-3.0-22.0-1.0","637b04a69794763b20491590","665500ab8938657b03fbdba8","665792636003e3601401a5ff","1157","stimuli/00000110.jpg"," ","","comprehension_quiz","","","true"," ","","","","","","","","","","","","","","","","","",""
"","","","","","image-keyboard-response","27","292082","0.0-3.0-22.0-2.0","637b04a69794763b20491590","665500ab8938657b03fbdba8","665792636003e3601401a5ff","1590","stimuli/1010010.jpg","arrowdown","","comprehension_quiz","","","true","arrowdown","","","","","","","","","","","","","","","","","",""
"","","","","","image-keyboard-response","28","292485","0.0-3.0-22.0-3.0","637b04a69794763b20491590","665500ab8938657b03fbdba8","665792636003e3601401a5ff","400","stimuli/10100101.jpg"," ","","comprehension_quiz","","","true"," ","","","","","","","","","","","","","","","","","",""
"","","","","","html-button-response","29","296378","0.0-4.0","637b04a69794763b20491590","665500ab8938657b03fbdba8","665792636003e3601401a5ff","3893","The experiment will now begin.","0","","","","","","","","","","","","","","","","","","","","","","","",""
"","","","","","image-keyboard-response","30","297751","0.0-5.0","637b04a69794763b20491590","665500ab8938657b03fbdba8","665792636003e3601401a5ff","1370","stimuli/2111010.jpg","2","","prediction_trial","1","","false","","2","true","true","false","false","false","false","[0,1,2]","111","010","0","","","","","","",""
"","","","","","image-keyboard-response","31","303748","0.0-6.0","637b04a69794763b20491590","665500ab8938657b03fbdba8","665792636003e3601401a5ff","5993","stimuli/21110101.jpg"," ","","feedback_trial","0","","","","","","","","","","","","","","","","","","","","",""
"","","","","","image-keyboard-response","32","306790","0.0-7.0","637b04a69794763b20491590","665500ab8938657b03fbdba8","665792636003e3601401a5ff","3039","stimuli/0110101.jpg","2","","prediction_trial","1","","false","","0","false","false","false","false","false","false","[1,0]","110","101","0","","","","","","",""
"","","","","","image-keyboard-response","33","307534","0.0-8.0","637b04a69794763b20491590","665500ab8938657b03fbdba8","665792636003e3601401a5ff","741","stimuli/01101011.jpg"," ","","feedback_trial","1","","","","","","","","","","","","","","","","","","","","",""
"","","","","","image-keyboard-response","34","311885","0.0-9.0","637b04a69794763b20491590","665500ab8938657b03fbdba8","665792636003e3601401a5ff","4348","stimuli/0010001.jpg","0","","prediction_trial","0","","true","","0","true","true","true","true","true","true","[0]","010","001","1","","","","","","",""
"","","","","","image-keyboard-response","35","312975","0.0-10.0","637b04a69794763b20491590","665500ab8938657b03fbdba8","665792636003e3601401a5ff","1087","stimuli/00100010.jpg"," ","","feedback_trial","0","","","","","","","","","","","","","","","","","","","","",""
"","","","","","image-keyboard-response","36","313960","0.0-11.0","637b04a69794763b20491590","665500ab8938657b03fbdba8","665792636003e3601401a5ff","983","stimuli/2110100.jpg","2","","prediction_trial","2","","true","","2","true","true","true","true","true","true","[2]","110","100","1","","","","","","",""
"","","","","","image-keyboard-response","37","314479","0.0-12.0","637b04a69794763b20491590","665500ab8938657b03fbdba8","665792636003e3601401a5ff","515","stimuli/21101002.jpg"," ","","feedback_trial","2","","","","","","","","","","","","","","","","","","","","",""
"","","","","","image-keyboard-response","38","316498","0.0-13.0","637b04a69794763b20491590","665500ab8938657b03fbdba8","665792636003e3601401a5ff","2016","stimuli/0000111.jpg","1","","prediction_trial","0","","false","","0","false","false","true","true","false","false","[0]","000","111","0","","","","","","",""
"","","","","","image-keyboard-response","39","318883","0.0-14.0","637b04a69794763b20491590","665500ab8938657b03fbdba8","665792636003e3601401a5ff","2382","stimuli/00001110.jpg"," ","","feedback_trial","0","","","","","","","","","","","","","","","","","","","","",""
"","","","","","image-keyboard-response","40","320914","0.0-15.0","637b04a69794763b20491590","665500ab8938657b03fbdba8","665792636003e3601401a5ff","2027","stimuli/2000001.jpg","2","","prediction_trial","2","","true","","2","false","true","true","true","false","true","[2]","000","001","1","","","","","","",""
"","","","","","image-keyboard-response","41","321617","0.0-16.0","637b04a69794763b20491590","665500ab8938657b03fbdba8","665792636003e3601401a5ff","701","stimuli/20000012.jpg"," ","","feedback_trial","2","","","","","","","","","","","","","","","","","","","","",""
"","","","","","image-keyboard-response","42","326441","0.0-17.0","637b04a69794763b20491590","665500ab8938657b03fbdba8","665792636003e3601401a5ff","4821","stimuli/0010111.jpg","1","","prediction_trial","0","","false","","0","false","false","true","true","false","false","[0]","010","111","0","","","","","","",""
"","","","","","image-keyboard-response","43","327018","0.0-18.0","637b04a69794763b20491590","665500ab8938657b03fbdba8","665792636003e3601401a5ff","574","stimuli/00101110.jpg"," ","","feedback_trial","0","","","","","","","","","","","","","","","","","","","","",""
"","","","","","image-keyboard-response","44","330257","0.0-19.0","637b04a69794763b20491590","665500ab8938657b03fbdba8","665792636003e3601401a5ff","3237","stimuli/0001000.jpg","0","","prediction_trial","0","","true","","0","true","true","true","true","true","true","[0]","001","000","1","","","","","","",""
"","","","","","image-keyboard-response","45","330924","0.0-20.0","637b04a69794763b20491590","665500ab8938657b03fbdba8","665792636003e3601401a5ff","665","stimuli/00010000.jpg"," ","","feedback_trial","0","","","","","","","","","","","","","","","","","","","","",""
"","","","","","image-keyboard-response","46","335315","0.0-21.0","637b04a69794763b20491590","665500ab8938657b03fbdba8","665792636003e3601401a5ff","4387","stimuli/1100111.jpg","2","","prediction_trial","1","","false","","1","false","false","true","true","false","false","[1]","100","111","0","","","","","","",""
"","","","","","image-keyboard-response","47","335786","0.0-22.0","637b04a69794763b20491590","665500ab8938657b03fbdba8","665792636003e3601401a5ff","470","stimuli/11001111.jpg"," ","","feedback_trial","1","","","","","","","","","","","","","","","","","","","","",""
"","","","","","image-keyboard-response","48","338893","0.0-23.0","637b04a69794763b20491590","665500ab8938657b03fbdba8","665792636003e3601401a5ff","3103","stimuli/0010010.jpg","0","","prediction_trial","0","","true","","0","true","true","true","true","true","true","[0]","010","010","1","","","","","","",""
"","","","","","image-keyboard-response","49","339419","0.0-24.0","637b04a69794763b20491590","665500ab8938657b03fbdba8","665792636003e3601401a5ff","524","stimuli/00100100.jpg"," ","","feedback_trial","0","","","","","","","","","","","","","","","","","","","","",""
"","","","","","image-keyboard-response","50","341418","0.0-25.0","637b04a69794763b20491590","665500ab8938657b03fbdba8","665792636003e3601401a5ff","1996","stimuli/0110100.jpg","0","","prediction_trial","0","","true","","0","false","true","false","false","false","false","[1,0]","110","100","1","","","","","","",""
"","","","","","image-keyboard-response","51","342035","0.0-26.0","637b04a69794763b20491590","665500ab8938657b03fbdba8","665792636003e3601401a5ff","613","stimuli/01101000.jpg"," ","","feedback_trial","1","","","","","","","","","","","","","","","","","","","","",""
"","","","","","image-keyboard-response","52","343079","0.0-27.0","637b04a69794763b20491590","665500ab8938657b03fbdba8","665792636003e3601401a5ff","1042","stimuli/1000001.jpg","1","","prediction_trial","1","","true","","1","true","true","true","true","true","true","[1]","000","001","1","","","","","","",""
"","","","","","image-keyboard-response","53","343574","0.0-28.0","637b04a69794763b20491590","665500ab8938657b03fbdba8","665792636003e3601401a5ff","492","stimuli/10000011.jpg"," ","","feedback_trial","1","","","","","","","","","","","","","","","","","","","","",""
"","","","","","image-keyboard-response","54","344446","0.0-29.0","637b04a69794763b20491590","665500ab8938657b03fbdba8","665792636003e3601401a5ff","871","stimuli/2000100.jpg","2","","prediction_trial","2","","true","","2","true","true","true","true","true","true","[2]","000","100","1","","","","","","",""
"","","","","","image-keyboard-response","55","344930","0.0-30.0","637b04a69794763b20491590","665500ab8938657b03fbdba8","665792636003e3601401a5ff","481","stimuli/20001002.jpg"," ","","feedback_trial","2","","","","","","","","","","","","","","","","","","","","",""
"","","","","","image-keyboard-response","56","346263","0.0-31.0","637b04a69794763b20491590","665500ab8938657b03fbdba8","665792636003e3601401a5ff","1331","stimuli/1101101.jpg","1","","prediction_trial","1","","true","","1","true","true","true","true","true","true","[1]","101","101","1","","","","","","",""
"","","","","","image-keyboard-response","57","346646","0.0-32.0","637b04a69794763b20491590","665500ab8938657b03fbdba8","665792636003e3601401a5ff","381","stimuli/11011011.jpg"," ","","feedback_trial","1","","","","","","","","","","","","","","","","","","","","",""
"","","","","","image-keyboard-response","58","349041","0.0-33.0","637b04a69794763b20491590","665500ab8938657b03fbdba8","665792636003e3601401a5ff","2392","stimuli/1110111.jpg","2","","prediction_trial","0","","false","","1","false","false","false","false","false","false","[1,0]","110","111","0","","","","","","",""
"","","","","","image-keyboard-response","59","349601","0.0-34.0","637b04a69794763b20491590","665500ab8938657b03fbdba8","665792636003e3601401a5ff","559","stimuli/11101110.jpg"," ","","feedback_trial","1","","","","","","","","","","","","","","","","","","","","",""
"","","","","","image-keyboard-response","60","351655","0.0-35.0","637b04a69794763b20491590","665500ab8938657b03fbdba8","665792636003e3601401a5ff","2050","stimuli/0000011.jpg","0","","prediction_trial","0","","true","","0","true","true","true","true","true","true","[0]","000","011","1","","","","","","",""
"","","","","","image-keyboard-response","61","352186","0.0-36.0","637b04a69794763b20491590","665500ab8938657b03fbdba8","665792636003e3601401a5ff","531","stimuli/00000110.jpg"," ","","feedback_trial","0","","","","","","","","","","","","","","","","","","","","",""
"","","","","","image-keyboard-response","62","353738","0.0-37.0","637b04a69794763b20491590","665500ab8938657b03fbdba8","665792636003e3601401a5ff","1549","stimuli/1000010.jpg","1","","prediction_trial","1","","true","","1","false","true","true","true","false","true","[1]","000","010","1","","","","","","",""
"","","","","","image-keyboard-response","63","354149","0.0-38.0","637b04a69794763b20491590","665500ab8938657b03fbdba8","665792636003e3601401a5ff","410","stimuli/10000101.jpg"," ","","feedback_trial","1","","","","","","","","","","","","","","","","","","","","",""
"","","","","","image-keyboard-response","64","355225","0.0-39.0","637b04a69794763b20491590","665500ab8938657b03fbdba8","665792636003e3601401a5ff","1074","stimuli/2100000.jpg","2","","prediction_trial","2","","true","","2","true","true","true","true","true","true","[2]","100","000","1","","","","","","",""
"","","","","","image-keyboard-response","65","355662","0.0-40.0","637b04a69794763b20491590","665500ab8938657b03fbdba8","665792636003e3601401a5ff","433","stimuli/21000002.jpg"," ","","feedback_trial","2","","","","","","","","","","","","","","","","","","","","",""
"","","","","","image-keyboard-response","66","357698","0.0-41.0","637b04a69794763b20491590","665500ab8938657b03fbdba8","665792636003e3601401a5ff","2034","stimuli/1111000.jpg","1","","prediction_trial","0","","false","","1","true","true","false","false","false","false","[0,1,2]","111","000","0","","","","","","",""
"","","","","","image-keyboard-response","67","358137","0.0-42.0","637b04a69794763b20491590","665500ab8938657b03fbdba8","665792636003e3601401a5ff","436","stimuli/11110000.jpg"," ","","feedback_trial","0","","","","","","","","","","","","","","","","","","","","",""
"","","","","","image-keyboard-response","68","361803","0.0-43.0","637b04a69794763b20491590","665500ab8938657b03fbdba8","665792636003e3601401a5ff","3663","stimuli/2101110.jpg","0","","prediction_trial","2","","false","","2","true","true","false","false","false","false","[0,2]","101","110","0","","","","","","",""
"","","","","","image-keyboard-response","69","362372","0.0-44.0","637b04a69794763b20491590","665500ab8938657b03fbdba8","665792636003e3601401a5ff","567","stimuli/21011102.jpg"," ","","feedback_trial","0","","","","","","","","","","","","","","","","","","","","",""
"","","","","","image-keyboard-response","70","364803","0.0-45.0","637b04a69794763b20491590","665500ab8938657b03fbdba8","665792636003e3601401a5ff","2427","stimuli/0100101.jpg","2","","prediction_trial","0","","false","","0","false","false","false","true","false","false","[0]","100","101","0","","","","","","",""
"","","","","","image-keyboard-response","71","365243","0.0-46.0","637b04a69794763b20491590","665500ab8938657b03fbdba8","665792636003e3601401a5ff","436","stimuli/01001010.jpg"," ","","feedback_trial","0","","","","","","","","","","","","","","","","","","","","",""
"","","","","","image-keyboard-response","72","366208","0.0-47.0","637b04a69794763b20491590","665500ab8938657b03fbdba8","665792636003e3601401a5ff","962","stimuli/0110010.jpg","0","","prediction_trial","0","","true","","0","true","true","false","false","false","false","[1,0]","110","010","1","","","","","","",""
"","","","","","image-keyboard-response","73","366819","0.0-48.0","637b04a69794763b20491590","665500ab8938657b03fbdba8","665792636003e3601401a5ff","609","stimuli/01100100.jpg"," ","","feedback_trial","1","","","","","","","","","","","","","","","","","","","","",""
"","","","","","image-keyboard-response","74","367765","0.0-49.0","637b04a69794763b20491590","665500ab8938657b03fbdba8","665792636003e3601401a5ff","943","stimuli/1110110.jpg","0","","prediction_trial","1","","false","","1","false","false","false","false","false","false","[0,1]","110","110","0","","","","","","",""
"","","","","","image-keyboard-response","75","368113","0.0-50.0","637b04a69794763b20491590","665500ab8938657b03fbdba8","665792636003e3601401a5ff","344","stimuli/11101101.jpg"," ","","feedback_trial","0","","","","","","","","","","","","","","","","","","","","",""
"","","","","","image-keyboard-response","76","369121","0.0-51.0","637b04a69794763b20491590","665500ab8938657b03fbdba8","665792636003e3601401a5ff","1005","stimuli/2111110.jpg","2","","prediction_trial","1","","false","","2","true","true","false","false","false","false","[2,0,1]","111","110","0","","","","","","",""
"","","","","","image-keyboard-response","77","369675","0.0-52.0","637b04a69794763b20491590","665500ab8938657b03fbdba8","665792636003e3601401a5ff","553","stimuli/21111101.jpg"," ","","feedback_trial","2","","","","","","","","","","","","","","","","","","","","",""
"","","","","","image-keyboard-response","78","370792","0.0-53.0","637b04a69794763b20491590","665500ab8938657b03fbdba8","665792636003e3601401a5ff","1114","stimuli/0101001.jpg","0","","prediction_trial","0","","true","","0","true","true","false","false","false","false","[0,2]","101","001","1","","","","","","",""
"","","","","","image-keyboard-response","79","371338","0.0-54.0","637b04a69794763b20491590","665500ab8938657b03fbdba8","665792636003e3601401a5ff","543","stimuli/01010010.jpg"," ","","feedback_trial","0","","","","","","","","","","","","","","","","","","","","",""
"","","","","","image-keyboard-response","80","373550","0.0-55.0","637b04a69794763b20491590","665500ab8938657b03fbdba8","665792636003e3601401a5ff","2209","stimuli/2110111.jpg","2","","prediction_trial","2","","true","","2","false","false","true","true","false","false","[2]","110","111","1","","","","","","",""
"","","","","","image-keyboard-response","81","374004","0.0-56.0","637b04a69794763b20491590","665500ab8938657b03fbdba8","665792636003e3601401a5ff","452","stimuli/21101112.jpg"," ","","feedback_trial","2","","","","","","","","","","","","","","","","","","","","",""
"","","","","","image-keyboard-response","82","375454","0.0-57.0","637b04a69794763b20491590","665500ab8938657b03fbdba8","665792636003e3601401a5ff","1448","stimuli/2001100.jpg","2","","prediction_trial","2","","true","","2","true","true","false","true","false","true","[2]","001","100","1","","","","","","",""
"","","","","","image-keyboard-response","83","375815","0.0-58.0","637b04a69794763b20491590","665500ab8938657b03fbdba8","665792636003e3601401a5ff","358","stimuli/20011002.jpg"," ","","feedback_trial","2","","","","","","","","","","","","","","","","","","","","",""
"","","","","","image-keyboard-response","84","376720","0.0-59.0","637b04a69794763b20491590","665500ab8938657b03fbdba8","665792636003e3601401a5ff","902","stimuli/2111100.jpg","2","","prediction_trial","2","","true","","2","true","true","false","false","false","false","[2,1,0]","111","100","1","","","","","","",""
"","","","","","image-keyboard-response","85","377057","0.0-60.0","637b04a69794763b20491590","665500ab8938657b03fbdba8","665792636003e3601401a5ff","334","stimuli/21111002.jpg"," ","","feedback_trial","2","","","","","","","","","","","","","","","","","","","","",""
"","","","","","image-keyboard-response","86","379135","0.0-61.0","637b04a69794763b20491590","665500ab8938657b03fbdba8","665792636003e3601401a5ff","2076","stimuli/0001100.jpg","0","","prediction_trial","0","","true","","0","false","true","true","true","false","true","[0]","001","100","1","","","","","","",""
"","","","","","image-keyboard-response","87","379454","0.0-62.0","637b04a69794763b20491590","665500ab8938657b03fbdba8","665792636003e3601401a5ff","316","stimuli/00011000.jpg"," ","","feedback_trial","0","","","","","","","","","","","","","","","","","","","","",""
"","","","","","image-keyboard-response","88","382649","0.0-63.0","637b04a69794763b20491590","665500ab8938657b03fbdba8","665792636003e3601401a5ff","3192","stimuli/0001101.jpg","0","","prediction_trial","0","","true","","0","false","false","true","true","false","false","[0]","001","101","1","","","","","","",""
"","","","","","image-keyboard-response","89","383233","0.0-64.0","637b04a69794763b20491590","665500ab8938657b03fbdba8","665792636003e3601401a5ff","582","stimuli/00011010.jpg"," ","","feedback_trial","0","","","","","","","","","","","","","","","","","","","","",""
"","","","","","image-keyboard-response","90","384622","0.0-65.0","637b04a69794763b20491590","665500ab8938657b03fbdba8","665792636003e3601401a5ff","1386","stimuli/1011100.jpg","1","","prediction_trial","1","","true","","1","true","true","false","false","false","false","[2,1]","011","100","1","","","","","","",""
"","","","","","image-keyboard-response","91","385059","0.0-66.0","637b04a69794763b20491590","665500ab8938657b03fbdba8","665792636003e3601401a5ff","435","stimuli/10111001.jpg"," ","","feedback_trial","2","","","","","","","","","","","","","","","","","","","","",""
"","","","","","image-keyboard-response","92","386685","0.0-67.0","637b04a69794763b20491590","665500ab8938657b03fbdba8","665792636003e3601401a5ff","1624","stimuli/2001101.jpg","0","","prediction_trial","2","","false","","2","false","false","false","true","false","false","[2]","001","101","0","","","","","","",""
"","","","","","image-keyboard-response","93","387254","0.0-68.0","637b04a69794763b20491590","665500ab8938657b03fbdba8","665792636003e3601401a5ff","565","stimuli/20011012.jpg"," ","","feedback_trial","2","","","","","","","","","","","","","","","","","","","","",""
"","","","","","image-keyboard-response","94","389891","0.0-69.0","637b04a69794763b20491590","665500ab8938657b03fbdba8","665792636003e3601401a5ff","2635","stimuli/1101110.jpg","1","","prediction_trial","1","","true","","1","false","false","true","true","false","false","[1]","101","110","1","","","","","","",""
"","","","","","image-keyboard-response","95","390364","0.0-70.0","637b04a69794763b20491590","665500ab8938657b03fbdba8","665792636003e3601401a5ff","471","stimuli/11011101.jpg"," ","","feedback_trial","1","","","","","","","","","","","","","","","","","","","","",""
"","","","","","image-keyboard-response","96","391462","0.0-71.0","637b04a69794763b20491590","665500ab8938657b03fbdba8","665792636003e3601401a5ff","1097","stimuli/2001010.jpg","2","","prediction_trial","2","","true","","2","true","true","false","true","false","true","[2]","001","010","1","","","","","","",""
"","","","","","image-keyboard-response","97","391824","0.0-72.0","637b04a69794763b20491590","665500ab8938657b03fbdba8","665792636003e3601401a5ff","359","stimuli/20010102.jpg"," ","","feedback_trial","2","","","","","","","","","","","","","","","","","","","","",""
"","","","","","image-keyboard-response","98","392753","0.0-73.0","637b04a69794763b20491590","665500ab8938657b03fbdba8","665792636003e3601401a5ff","926","stimuli/1010100.jpg","1","","prediction_trial","1","","true","","1","true","true","false","true","false","true","[1]","010","100","1","","","","","","",""
"","","","","","image-keyboard-response","99","393150","0.0-74.0","637b04a69794763b20491590","665500ab8938657b03fbdba8","665792636003e3601401a5ff","395","stimuli/10101001.jpg"," ","","feedback_trial","1","","","","","","","","","","","","","","","","","","","","",""
"","","","","","image-keyboard-response","100","394144","0.0-75.0","637b04a69794763b20491590","665500ab8938657b03fbdba8","665792636003e3601401a5ff","990","stimuli/1000101.jpg","1","","prediction_trial","1","","true","","1","true","true","true","true","true","true","[1]","000","101","1","","","","","","",""
"","","","","","image-keyboard-response","101","394472","0.0-76.0","637b04a69794763b20491590","665500ab8938657b03fbdba8","665792636003e3601401a5ff","326","stimuli/10001011.jpg"," ","","feedback_trial","1","","","","","","","","","","","","","","","","","","","","",""
"","","","","","image-keyboard-response","102","396588","0.0-77.0","637b04a69794763b20491590","665500ab8938657b03fbdba8","665792636003e3601401a5ff","2114","stimuli/1010011.jpg","2","","prediction_trial","1","","false","","1","false","false","false","true","false","false","[1]","010","011","0","","","","","","",""
"","","","","","image-keyboard-response","103","396964","0.0-78.0","637b04a69794763b20491590","665500ab8938657b03fbdba8","665792636003e3601401a5ff","373","stimuli/10100111.jpg"," ","","feedback_trial","1","","","","","","","","","","","","","","","","","","","","",""
"","","","","","image-keyboard-response","104","398071","0.0-79.0","637b04a69794763b20491590","665500ab8938657b03fbdba8","665792636003e3601401a5ff","1104","stimuli/0101010.jpg","0","","prediction_trial","2","","false","","0","true","true","false","false","false","false","[2,0]","101","010","0","","","","","","",""
"","","","","","image-keyboard-response","105","398519","0.0-80.0","637b04a69794763b20491590","665500ab8938657b03fbdba8","665792636003e3601401a5ff","445","stimuli/01010102.jpg"," ","","feedback_trial","2","","","","","","","","","","","","","","","","","","","","",""
"","","","","","image-keyboard-response","106","401192","0.0-81.0","637b04a69794763b20491590","665500ab8938657b03fbdba8","665792636003e3601401a5ff","2670","stimuli/2010101.jpg","2","","prediction_trial","2","","true","","2","false","false","true","true","false","false","[2]","010","101","1","","","","","","",""
"","","","","","image-keyboard-response","107","401557","0.0-82.0","637b04a69794763b20491590","665500ab8938657b03fbdba8","665792636003e3601401a5ff","363","stimuli/20101012.jpg"," ","","feedback_trial","2","","","","","","","","","","","","","","","","","","","","",""
"","","","","","image-keyboard-response","108","402510","0.0-83.0","637b04a69794763b20491590","665500ab8938657b03fbdba8","665792636003e3601401a5ff","951","stimuli/0000001.jpg","0","","prediction_trial","0","","true","","0","true","true","true","true","true","true","[0]","000","001","1","","","","","","",""
"","","","","","image-keyboard-response","109","402833","0.0-84.0","637b04a69794763b20491590","665500ab8938657b03fbdba8","665792636003e3601401a5ff","319","stimuli/00000010.jpg"," ","","feedback_trial","0","","","","","","","","","","","","","","","","","","","","",""
"","","","","","image-keyboard-response","110","403625","0.0-85.0","637b04a69794763b20491590","665500ab8938657b03fbdba8","665792636003e3601401a5ff","790","stimuli/2001000.jpg","2","","prediction_trial","2","","true","","2","true","true","false","true","false","true","[2]","001","000","1","","","","","","",""
"","","","","","image-keyboard-response","111","403964","0.0-86.0","637b04a69794763b20491590","665500ab8938657b03fbdba8","665792636003e3601401a5ff","336","stimuli/20010002.jpg"," ","","feedback_trial","2","","","","","","","","","","","","","","","","","","","","",""
"","","","","","image-keyboard-response","112","405120","0.0-87.0","637b04a69794763b20491590","665500ab8938657b03fbdba8","665792636003e3601401a5ff","1152","stimuli/2000010.jpg","2","","prediction_trial","2","","true","","2","true","true","true","true","true","true","[2]","000","010","1","","","","","","",""
"","","","","","image-keyboard-response","113","405356","0.0-88.0","637b04a69794763b20491590","665500ab8938657b03fbdba8","665792636003e3601401a5ff","234","stimuli/20000102.jpg"," ","","feedback_trial","2","","","","","","","","","","","","","","","","","","","","",""
"","","","","","image-keyboard-response","114","406917","0.0-89.0","637b04a69794763b20491590","665500ab8938657b03fbdba8","665792636003e3601401a5ff","1559","stimuli/0101110.jpg","1","","prediction_trial","2","","false","","0","false","false","false","false","false","false","[2,0]","101","110","0","","","","","","",""
"","","","","","image-keyboard-response","115","407261","0.0-90.0","637b04a69794763b20491590","665500ab8938657b03fbdba8","665792636003e3601401a5ff","342","stimuli/01011102.jpg"," ","","feedback_trial","2","","","","","","","","","","","","","","","","","","","","",""
"","","","","","image-keyboard-response","116","408581","0.0-91.0","637b04a69794763b20491590","665500ab8938657b03fbdba8","665792636003e3601401a5ff","1316","stimuli/2011001.jpg","2","","prediction_trial","2","","true","","2","false","true","false","false","false","false","[1,2]","011","001","1","","","","","","",""
"","","","","","image-keyboard-response","117","408940","0.0-92.0","637b04a69794763b20491590","665500ab8938657b03fbdba8","665792636003e3601401a5ff","359","stimuli/20110012.jpg"," ","","feedback_trial","1","","","","","","","","","","","","","","","","","","","","",""
"","","","","","image-keyboard-response","118","409804","0.0-93.0","637b04a69794763b20491590","665500ab8938657b03fbdba8","665792636003e3601401a5ff","860","stimuli/1001000.jpg","1","","prediction_trial","1","","true","","1","true","true","true","true","true","true","[1]","001","000","1","","","","","","",""
"","","","","","image-keyboard-response","119","410138","0.0-94.0","637b04a69794763b20491590","665500ab8938657b03fbdba8","665792636003e3601401a5ff","330","stimuli/10010001.jpg"," ","","feedback_trial","1","","","","","","","","","","","","","","","","","","","","",""
"","","","","","image-keyboard-response","120","414568","0.0-95.0","637b04a69794763b20491590","665500ab8938657b03fbdba8","665792636003e3601401a5ff","4427","stimuli/0111111.jpg","1","","prediction_trial","2","","false","","0","false","false","false","false","false","false","[2,1,0]","111","111","0","","","","","","",""
"","","","","","image-keyboard-response","121","414979","0.0-96.0","637b04a69794763b20491590","665500ab8938657b03fbdba8","665792636003e3601401a5ff","409","stimuli/01111112.jpg"," ","","feedback_trial","2","","","","","","","","","","","","","","","","","","","","",""
"","","","","","image-keyboard-response","122","415995","0.0-97.0","637b04a69794763b20491590","665500ab8938657b03fbdba8","665792636003e3601401a5ff","1013","stimuli/1110100.jpg","1","","prediction_trial","0","","false","","1","true","true","false","false","false","false","[0,1]","110","100","0","","","","","","",""
"","","","","","image-keyboard-response","123","416489","0.0-98.0","637b04a69794763b20491590","665500ab8938657b03fbdba8","665792636003e3601401a5ff","490","stimuli/11101000.jpg"," ","","feedback_trial","0","","","","","","","","","","","","","","","","","","","","",""
"","","","","","image-keyboard-response","124","418463","0.0-99.0","637b04a69794763b20491590","665500ab8938657b03fbdba8","665792636003e3601401a5ff","1972","stimuli/1100010.jpg","1","","prediction_trial","1","","true","","1","false","true","true","true","false","true","[1]","100","010","1","","","","","","",""
"","","","","","image-keyboard-response","125","418884","0.0-100.0","637b04a69794763b20491590","665500ab8938657b03fbdba8","665792636003e3601401a5ff","418","stimuli/11000101.jpg"," ","","feedback_trial","1","","","","","","","","","","","","","","","","","","","","",""
"","","","","","image-keyboard-response","126","419921","0.0-101.0","637b04a69794763b20491590","665500ab8938657b03fbdba8","665792636003e3601401a5ff","1035","stimuli/0111000.jpg","0","","prediction_trial","2","","false","","0","true","true","false","false","false","false","[2,0,1]","111","000","0","","","","","","",""
"","","","","","image-keyboard-response","127","420591","0.0-102.0","637b04a69794763b20491590","665500ab8938657b03fbdba8","665792636003e3601401a5ff","667","stimuli/01110002.jpg"," ","","feedback_trial","2","","","","","","","","","","","","","","","","","","","","",""
"","","","","","image-keyboard-response","128","424284","0.0-103.0","637b04a69794763b20491590","665500ab8938657b03fbdba8","665792636003e3601401a5ff","3690","stimuli/1010110.jpg","0","","prediction_trial","1","","false","","1","false","false","false","true","false","false","[1]","010","110","0","","","","","","",""
"","","","","","image-keyboard-response","129","424766","0.0-104.0","637b04a69794763b20491590","665500ab8938657b03fbdba8","665792636003e3601401a5ff","481","stimuli/10101101.jpg"," ","","feedback_trial","1","","","","","","","","","","","","","","","","","","","","",""
"","","","","","image-keyboard-response","130","425882","0.0-105.0","637b04a69794763b20491590","665500ab8938657b03fbdba8","665792636003e3601401a5ff","1111","stimuli/1101000.jpg","1","","prediction_trial","1","","true","","1","true","true","true","true","true","true","[1]","101","000","1","","","","","","",""
"","","","","","image-keyboard-response","131","426338","0.0-106.0","637b04a69794763b20491590","665500ab8938657b03fbdba8","665792636003e3601401a5ff","455","stimuli/11010001.jpg"," ","","feedback_trial","1","","","","","","","","","","","","","","","","","","","","",""
"","","","","","image-keyboard-response","132","427163","0.0-107.0","637b04a69794763b20491590","665500ab8938657b03fbdba8","665792636003e3601401a5ff","821","stimuli/0000010.jpg","0","","prediction_trial","0","","true","","0","true","true","true","true","true","true","[0]","000","010","1","","","","","","",""
"","","","","","image-keyboard-response","133","427537","0.0-108.0","637b04a69794763b20491590","665500ab8938657b03fbdba8","665792636003e3601401a5ff","372","stimuli/00000100.jpg"," ","","feedback_trial","0","","","","","","","","","","","","","","","","","","","","",""
"","","","","","image-keyboard-response","134","430036","0.0-109.0","637b04a69794763b20491590","665500ab8938657b03fbdba8","665792636003e3601401a5ff","2497","stimuli/1000111.jpg","0","","prediction_trial","1","","false","","1","false","false","true","true","false","false","[1]","000","111","0","","","","","","",""
"","","","","","image-keyboard-response","135","430476","0.0-110.0","637b04a69794763b20491590","665500ab8938657b03fbdba8","665792636003e3601401a5ff","437","stimuli/10001111.jpg"," ","","feedback_trial","1","","","","","","","","","","","","","","","","","","","","",""
"","","","","","image-keyboard-response","136","431436","0.0-111.0","637b04a69794763b20491590","665500ab8938657b03fbdba8","665792636003e3601401a5ff","956","stimuli/2010110.jpg","2","","prediction_trial","2","","true","","2","true","true","true","true","true","true","[2]","010","110","1","","","","","","",""
"","","","","","image-keyboard-response","137","431835","0.0-112.0","637b04a69794763b20491590","665500ab8938657b03fbdba8","665792636003e3601401a5ff","395","stimuli/20101102.jpg"," ","","feedback_trial","2","","","","","","","","","","","","","","","","","","","","",""
"","","","","","image-keyboard-response","138","432557","0.0-113.0","637b04a69794763b20491590","665500ab8938657b03fbdba8","665792636003e3601401a5ff","720","stimuli/0100010.jpg","0","","prediction_trial","0","","true","","0","true","true","false","true","false","true","[0]","100","010","1","","","","","","",""
"","","","","","image-keyboard-response","139","432885","0.0-114.0","637b04a69794763b20491590","665500ab8938657b03fbdba8","665792636003e3601401a5ff","326","stimuli/01000100.jpg"," ","","feedback_trial","0","","","","","","","","","","","","","","","","","","","","",""
"","","","","","image-keyboard-response","140","434742","0.0-115.0","637b04a69794763b20491590","665500ab8938657b03fbdba8","665792636003e3601401a5ff","1855","stimuli/2010111.jpg","0","","prediction_trial","2","","false","","2","false","false","true","true","false","false","[2]","010","111","0","","","","","","",""
"","","","","","image-keyboard-response","141","435258","0.0-116.0","637b04a69794763b20491590","665500ab8938657b03fbdba8","665792636003e3601401a5ff","513","stimuli/20101112.jpg"," ","","feedback_trial","2","","","","","","","","","","","","","","","","","","","","",""
"","","","","","image-keyboard-response","142","435868","0.0-117.0","637b04a69794763b20491590","665500ab8938657b03fbdba8","665792636003e3601401a5ff","609","stimuli/2011110.jpg","2","","prediction_trial","1","","false","","2","true","true","false","false","false","false","[2,1]","011","110","0","","","","","","",""
"","","","","","image-keyboard-response","143","436290","0.0-118.0","637b04a69794763b20491590","665500ab8938657b03fbdba8","665792636003e3601401a5ff","420","stimuli/20111101.jpg"," ","","feedback_trial","2","","","","","","","","","","","","","","","","","","","","",""
"","","","","","image-keyboard-response","144","439077","0.0-119.0","637b04a69794763b20491590","665500ab8938657b03fbdba8","665792636003e3601401a5ff","2784","stimuli/0011101.jpg","0","","prediction_trial","0","","true","","0","false","false","true","true","false","false","[0]","011","101","1","","","","","","",""
"","","","","","image-keyboard-response","145","439581","0.0-120.0","637b04a69794763b20491590","665500ab8938657b03fbdba8","665792636003e3601401a5ff","501","stimuli/00111010.jpg"," ","","feedback_trial","0","","","","","","","","","","","","","","","","","","","","",""
"","","","","","image-keyboard-response","146","441730","0.0-121.0","637b04a69794763b20491590","665500ab8938657b03fbdba8","665792636003e3601401a5ff","2147","stimuli/2101000.jpg","2","","prediction_trial","2","","true","","2","true","true","false","false","false","false","[2,0]","101","000","1","","","","","","",""
"","","","","","image-keyboard-response","147","442482","0.0-122.0","637b04a69794763b20491590","665500ab8938657b03fbdba8","665792636003e3601401a5ff","749","stimuli/21010002.jpg"," ","","feedback_trial","2","","","","","","","","","","","","","","","","","","","","",""
"","","","","","image-keyboard-response","148","444948","0.0-123.0","637b04a69794763b20491590","665500ab8938657b03fbdba8","665792636003e3601401a5ff","2463","stimuli/0111110.jpg","0","","prediction_trial","0","","true","","0","false","false","false","false","false","false","[0,1,2]","111","110","1","","","","","","",""
"","","","","","image-keyboard-response","149","445389","0.0-124.0","637b04a69794763b20491590","665500ab8938657b03fbdba8","665792636003e3601401a5ff","437","stimuli/01111100.jpg"," ","","feedback_trial","0","","","","","","","","","","","","","","","","","","","","",""
"","","","","","image-keyboard-response","150","446462","0.0-125.0","637b04a69794763b20491590","665500ab8938657b03fbdba8","665792636003e3601401a5ff","1070","stimuli/1100000.jpg","1","","prediction_trial","1","","true","","1","true","true","true","true","true","true","[1]","100","000","1","","","","","","",""
"","","","","","image-keyboard-response","151","446868","0.0-126.0","637b04a69794763b20491590","665500ab8938657b03fbdba8","665792636003e3601401a5ff","403","stimuli/11000001.jpg"," ","","feedback_trial","1","","","","","","","","","","","","","","","","","","","","",""
"","","","","","image-keyboard-response","152","447970","0.0-127.0","637b04a69794763b20491590","665500ab8938657b03fbdba8","665792636003e3601401a5ff","1100","stimuli/0011111.jpg","0","","prediction_trial","0","","true","","0","false","false","true","true","false","false","[0]","011","111","1","","","","","","",""
"","","","","","image-keyboard-response","153","448367","0.0-128.0","637b04a69794763b20491590","665500ab8938657b03fbdba8","665792636003e3601401a5ff","395","stimuli/00111110.jpg"," ","","feedback_trial","0","","","","","","","","","","","","","","","","","","","","",""
"","","","","","image-keyboard-response","154","449380","0.0-129.0","637b04a69794763b20491590","665500ab8938657b03fbdba8","665792636003e3601401a5ff","1010","stimuli/1010001.jpg","1","","prediction_trial","1","","true","","1","true","true","false","true","false","true","[1]","010","001","1","","","","","","",""
"","","","","","image-keyboard-response","155","449856","0.0-130.0","637b04a69794763b20491590","665500ab8938657b03fbdba8","665792636003e3601401a5ff","475","stimuli/10100011.jpg"," ","","feedback_trial","1","","","","","","","","","","","","","","","","","","","","",""
"","","","","","image-keyboard-response","156","450684","0.0-131.0","637b04a69794763b20491590","665500ab8938657b03fbdba8","665792636003e3601401a5ff","825","stimuli/1100101.jpg","1","","prediction_trial","1","","true","","1","true","true","true","true","true","true","[1]","100","101","1","","","","","","",""
"","","","","","image-keyboard-response","157","451110","0.0-132.0","637b04a69794763b20491590","665500ab8938657b03fbdba8","665792636003e3601401a5ff","422","stimuli/11001011.jpg"," ","","feedback_trial","1","","","","","","","","","","","","","","","","","","","","",""
"","","","","","image-keyboard-response","158","451968","0.0-133.0","637b04a69794763b20491590","665500ab8938657b03fbdba8","665792636003e3601401a5ff","855","stimuli/1111001.jpg","1","","prediction_trial","2","","false","","1","true","true","false","false","false","false","[0,1,2]","111","001","0","","","","","","",""
"","","","","","image-keyboard-response","159","452353","0.0-134.0","637b04a69794763b20491590","665500ab8938657b03fbdba8","665792636003e3601401a5ff","384","stimuli/11110012.jpg"," ","","feedback_trial","0","","","","","","","","","","","","","","","","","","","","",""
"","","","","","image-keyboard-response","160","454772","0.0-135.0","637b04a69794763b20491590","665500ab8938657b03fbdba8","665792636003e3601401a5ff","2416","stimuli/1101010.jpg","1","","prediction_trial","1","","true","","1","false","true","true","true","false","true","[1]","101","010","1","","","","","","",""
"","","","","","image-keyboard-response","161","455339","0.0-136.0","637b04a69794763b20491590","665500ab8938657b03fbdba8","665792636003e3601401a5ff","564","stimuli/11010101.jpg"," ","","feedback_trial","1","","","","","","","","","","","","","","","","","","","","",""
"","","","","","image-keyboard-response","162","458014","0.0-137.0","637b04a69794763b20491590","665500ab8938657b03fbdba8","665792636003e3601401a5ff","2672","stimuli/0010110.jpg","1","","prediction_trial","0","","false","","0","false","false","true","true","false","false","[0]","010","110","0","","","","","","",""
"","","","","","image-keyboard-response","163","458484","0.0-138.0","637b04a69794763b20491590","665500ab8938657b03fbdba8","665792636003e3601401a5ff","468","stimuli/00101100.jpg"," ","","feedback_trial","0","","","","","","","","","","","","","","","","","","","","",""
"","","","","","image-keyboard-response","164","461967","0.0-139.0","637b04a69794763b20491590","665500ab8938657b03fbdba8","665792636003e3601401a5ff","3479","stimuli/2100111.jpg","0","","prediction_trial","2","","false","","2","false","false","true","true","false","false","[2]","100","111","0","","","","","","",""
"","","","","","image-keyboard-response","165","462420","0.0-140.0","637b04a69794763b20491590","665500ab8938657b03fbdba8","665792636003e3601401a5ff","452","stimuli/21001112.jpg"," ","","feedback_trial","2","","","","","","","","","","","","","","","","","","","","",""
"","","","","","image-keyboard-response","166","463176","0.0-141.0","637b04a69794763b20491590","665500ab8938657b03fbdba8","665792636003e3601401a5ff","753","stimuli/2110110.jpg","2","","prediction_trial","2","","true","","2","true","true","true","true","true","true","[2]","110","110","1","","","","","","",""
"","","","","","image-keyboard-response","167","463556","0.0-142.0","637b04a69794763b20491590","665500ab8938657b03fbdba8","665792636003e3601401a5ff","377","stimuli/21101102.jpg"," ","","feedback_trial","2","","","","","","","","","","","","","","","","","","","","",""
"","","","","","image-keyboard-response","168","464346","0.0-143.0","637b04a69794763b20491590","665500ab8938657b03fbdba8","665792636003e3601401a5ff","787","stimuli/0101000.jpg","0","","prediction_trial","0","","true","","0","true","true","false","false","false","false","[2,0]","101","000","1","","","","","","",""
"","","","","","image-keyboard-response","169","464757","0.0-144.0","637b04a69794763b20491590","665500ab8938657b03fbdba8","665792636003e3601401a5ff","408","stimuli/01010000.jpg"," ","","feedback_trial","2","","","","","","","","","","","","","","","","","","","","",""
"","","","","","image-keyboard-response","170","466961","0.0-145.0","637b04a69794763b20491590","665500ab8938657b03fbdba8","665792636003e3601401a5ff","2203","stimuli/2000111.jpg","0","","prediction_trial","2","","false","","2","false","false","true","true","false","false","[2]","000","111","0","","","","","","",""
"","","","","","image-keyboard-response","171","467437","0.0-146.0","637b04a69794763b20491590","665500ab8938657b03fbdba8","665792636003e3601401a5ff","474","stimuli/20001112.jpg"," ","","feedback_trial","2","","","","","","","","","","","","","","","","","","","","",""
"","","","","","image-keyboard-response","172","467994","0.0-147.0","637b04a69794763b20491590","665500ab8938657b03fbdba8","665792636003e3601401a5ff","555","stimuli/2100100.jpg","2","","prediction_trial","2","","true","","2","true","true","true","true","true","true","[2]","100","100","1","","","","","","",""
"","","","","","image-keyboard-response","173","468361","0.0-148.0","637b04a69794763b20491590","665500ab8938657b03fbdba8","665792636003e3601401a5ff","363","stimuli/21001002.jpg"," ","","feedback_trial","2","","","","","","","","","","","","","","","","","","","","",""
"","","","","","image-keyboard-response","174","469513","0.0-149.0","637b04a69794763b20491590","665500ab8938657b03fbdba8","665792636003e3601401a5ff","1150","stimuli/2110101.jpg","2","","prediction_trial","2","","true","","2","false","false","true","true","false","false","[2]","110","101","1","","","","","","",""
"","","","","","image-keyboard-response","175","470117","0.0-150.0","637b04a69794763b20491590","665500ab8938657b03fbdba8","665792636003e3601401a5ff","600","stimuli/21101012.jpg"," ","","feedback_trial","2","","","","","","","","","","","","","","","","","","","","",""
"","","","","","image-keyboard-response","176","471418","0.0-151.0","637b04a69794763b20491590","665500ab8938657b03fbdba8","665792636003e3601401a5ff","1299","stimuli/1001010.jpg","1","","prediction_trial","1","","true","","1","false","true","true","true","false","true","[1]","001","010","1","","","","","","",""
"","","","","","image-keyboard-response","177","471789","0.0-152.0","637b04a69794763b20491590","665500ab8938657b03fbdba8","665792636003e3601401a5ff","368","stimuli/10010101.jpg"," ","","feedback_trial","1","","","","","","","","","","","","","","","","","","","","",""
"","","","","","image-keyboard-response","178","473478","0.0-153.0","637b04a69794763b20491590","665500ab8938657b03fbdba8","665792636003e3601401a5ff","1687","stimuli/0101111.jpg","1","","prediction_trial","2","","false","","0","false","false","false","false","false","false","[0,2]","101","111","0","","","","","","",""
"","","","","","image-keyboard-response","179","473891","0.0-154.0","637b04a69794763b20491590","665500ab8938657b03fbdba8","665792636003e3601401a5ff","411","stimuli/01011112.jpg"," ","","feedback_trial","0","","","","","","","","","","","","","","","","","","","","",""
"","","","","","image-keyboard-response","180","474664","0.0-155.0","637b04a69794763b20491590","665500ab8938657b03fbdba8","665792636003e3601401a5ff","770","stimuli/2111101.jpg","2","","prediction_trial","0","","false","","2","false","false","false","false","false","false","[0,1,2]","111","101","0","","","","","","",""
"","","","","","image-keyboard-response","181","475100","0.0-156.0","637b04a69794763b20491590","665500ab8938657b03fbdba8","665792636003e3601401a5ff","433","stimuli/21111010.jpg"," ","","feedback_trial","0","","","","","","","","","","","","","","","","","","","","",""
"","","","","","image-keyboard-response","182","475618","0.0-157.0","637b04a69794763b20491590","665500ab8938657b03fbdba8","665792636003e3601401a5ff","516","stimuli/2011101.jpg","0","","prediction_trial","2","","false","","2","false","false","false","false","false","false","[1,2]","011","101","0","","","","","","",""
"","","","","","image-keyboard-response","183","477150","0.0-158.0","637b04a69794763b20491590","665500ab8938657b03fbdba8","665792636003e3601401a5ff","1528","stimuli/20111012.jpg"," ","","feedback_trial","1","","","","","","","","","","","","","","","","","","","","",""
"","","","","","image-keyboard-response","184","477978","0.0-159.0","637b04a69794763b20491590","665500ab8938657b03fbdba8","665792636003e3601401a5ff","822","stimuli/0000000.jpg","0","","prediction_trial","0","","true","","0","true","true","true","true","true","true","[0]","000","000","1","","","","","","",""
"","","","","","image-keyboard-response","185","478395","0.0-160.0","637b04a69794763b20491590","665500ab8938657b03fbdba8","665792636003e3601401a5ff","416","stimuli/00000000.jpg"," ","","feedback_trial","0","","","","","","","","","","","","","","","","","","","","",""
"","","","","","image-keyboard-response","186","479977","0.0-161.0","637b04a69794763b20491590","665500ab8938657b03fbdba8","665792636003e3601401a5ff","1580","stimuli/1001111.jpg","0","","prediction_trial","1","","false","","1","false","false","true","true","false","false","[1]","001","111","0","","","","","","",""
"","","","","","image-keyboard-response","187","480455","0.0-162.0","637b04a69794763b20491590","665500ab8938657b03fbdba8","665792636003e3601401a5ff","475","stimuli/10011111.jpg"," ","","feedback_trial","1","","","","","","","","","","","","","","","","","","","","",""
"","","","","","image-keyboard-response","188","481187","0.0-163.0","637b04a69794763b20491590","665500ab8938657b03fbdba8","665792636003e3601401a5ff","730","stimuli/2000110.jpg","2","","prediction_trial","2","","true","","2","true","true","true","true","true","true","[2]","000","110","1","","","","","","",""
"","","","","","image-keyboard-response","189","481561","0.0-164.0","637b04a69794763b20491590","665500ab8938657b03fbdba8","665792636003e3601401a5ff","372","stimuli/20001102.jpg"," ","","feedback_trial","2","","","","","","","","","","","","","","","","","","","","",""
"","","","","","image-keyboard-response","190","482547","0.0-165.0","637b04a69794763b20491590","665500ab8938657b03fbdba8","665792636003e3601401a5ff","983","stimuli/0010101.jpg","2","","prediction_trial","0","","false","","0","false","false","true","true","false","false","[0]","010","101","0","","","","","","",""
"","","","","","image-keyboard-response","191","482989","0.0-166.0","637b04a69794763b20491590","665500ab8938657b03fbdba8","665792636003e3601401a5ff","438","stimuli/00101010.jpg"," ","","feedback_trial","0","","","","","","","","","","","","","","","","","","","","",""
"","","","","","image-keyboard-response","192","485305","0.0-167.0","637b04a69794763b20491590","665500ab8938657b03fbdba8","665792636003e3601401a5ff","2314","stimuli/1111110.jpg","0","","prediction_trial","0","","true","","1","false","false","false","false","false","false","[0,1,2]","111","110","1","","","","","","",""
"","","","","","image-keyboard-response","193","485711","0.0-168.0","637b04a69794763b20491590","665500ab8938657b03fbdba8","665792636003e3601401a5ff","403","stimuli/11111100.jpg"," ","","feedback_trial","0","","","","","","","","","","","","","","","","","","","","",""
"","","","","","image-keyboard-response","194","487364","0.0-169.0","637b04a69794763b20491590","665500ab8938657b03fbdba8","665792636003e3601401a5ff","1651","stimuli/1111100.jpg","1","","prediction_trial","0","","false","","1","true","true","false","false","false","false","[1,0,2]","111","100","0","","","","","","",""
"","","","","","image-keyboard-response","195","488299","0.0-170.0","637b04a69794763b20491590","665500ab8938657b03fbdba8","665792636003e3601401a5ff","932","stimuli/11111000.jpg"," ","","feedback_trial","1","","","","","","","","","","","","","","","","","","","","",""
"","","","","","image-keyboard-response","196","489369","0.0-171.0","637b04a69794763b20491590","665500ab8938657b03fbdba8","665792636003e3601401a5ff","1067","stimuli/2100110.jpg","2","","prediction_trial","2","","true","","2","true","true","true","true","true","true","[2]","100","110","1","","","","","","",""
"","","","","","image-keyboard-response","197","489936","0.0-172.0","637b04a69794763b20491590","665500ab8938657b03fbdba8","665792636003e3601401a5ff","563","stimuli/21001102.jpg"," ","","feedback_trial","2","","","","","","","","","","","","","","","","","","","","",""
"","","","","","image-keyboard-response","198","492186","0.0-173.0","637b04a69794763b20491590","665500ab8938657b03fbdba8","665792636003e3601401a5ff","2247","stimuli/0001111.jpg","1","","prediction_trial","0","","false","","0","false","false","true","true","false","false","[0]","001","111","0","","","","","","",""
"","","","","","image-keyboard-response","199","492607","0.0-174.0","637b04a69794763b20491590","665500ab8938657b03fbdba8","665792636003e3601401a5ff","418","stimuli/00011110.jpg"," ","","feedback_trial","0","","","","","","","","","","","","","","","","","","","","",""
"","","","","","image-keyboard-response","200","494141","0.0-175.0","637b04a69794763b20491590","665500ab8938657b03fbdba8","665792636003e3601401a5ff","1532","stimuli/1001001.jpg","1","","prediction_trial","1","","true","","1","true","true","true","true","true","true","[1]","001","001","1","","","","","","",""
"","","","","","image-keyboard-response","201","494539","0.0-176.0","637b04a69794763b20491590","665500ab8938657b03fbdba8","665792636003e3601401a5ff","395","stimuli/10010011.jpg"," ","","feedback_trial","1","","","","","","","","","","","","","","","","","","","","",""
"","","","","","image-keyboard-response","202","496067","0.0-177.0","637b04a69794763b20491590","665500ab8938657b03fbdba8","665792636003e3601401a5ff","1525","stimuli/0101101.jpg","0","","prediction_trial","0","","true","","0","false","false","false","false","false","false","[2,0]","101","101","1","","","","","","",""
"","","","","","image-keyboard-response","203","496510","0.0-178.0","637b04a69794763b20491590","665500ab8938657b03fbdba8","665792636003e3601401a5ff","442","stimuli/01011010.jpg"," ","","feedback_trial","2","","","","","","","","","","","","","","","","","","","","",""
"","","","","","image-keyboard-response","204","499393","0.0-179.0","637b04a69794763b20491590","665500ab8938657b03fbdba8","665792636003e3601401a5ff","2880","stimuli/1111010.jpg","1","","prediction_trial","1","","true","","1","false","true","false","false","false","false","[2,0,1]","111","010","1","","","","","","",""
"","","","","","image-keyboard-response","205","499868","0.0-180.0","637b04a69794763b20491590","665500ab8938657b03fbdba8","665792636003e3601401a5ff","473","stimuli/11110101.jpg"," ","","feedback_trial","2","","","","","","","","","","","","","","","","","","","","",""
"","","","","","image-keyboard-response","206","501959","0.0-181.0","637b04a69794763b20491590","665500ab8938657b03fbdba8","665792636003e3601401a5ff","2088","stimuli/1000110.jpg","0","","prediction_trial","1","","false","","1","false","false","true","true","false","false","[1]","000","110","0","","","","","","",""
"","","","","","image-keyboard-response","207","502406","0.0-182.0","637b04a69794763b20491590","665500ab8938657b03fbdba8","665792636003e3601401a5ff","445","stimuli/10001101.jpg"," ","","feedback_trial","1","","","","","","","","","","","","","","","","","","","","",""
"","","","","","image-keyboard-response","208","503480","0.0-183.0","637b04a69794763b20491590","665500ab8938657b03fbdba8","665792636003e3601401a5ff","1071","stimuli/1100100.jpg","1","","prediction_trial","1","","true","","1","true","true","true","true","true","true","[1]","100","100","1","","","","","","",""
"","","","","","image-keyboard-response","209","503840","0.0-184.0","637b04a69794763b20491590","665500ab8938657b03fbdba8","665792636003e3601401a5ff","357","stimuli/11001001.jpg"," ","","feedback_trial","1","","","","","","","","","","","","","","","","","","","","",""
"","","","","","image-keyboard-response","210","504462","0.0-185.0","637b04a69794763b20491590","665500ab8938657b03fbdba8","665792636003e3601401a5ff","619","stimuli/1100001.jpg","1","","prediction_trial","1","","true","","1","true","true","true","true","true","true","[1]","100","001","1","","","","","","",""
"","","","","","image-keyboard-response","211","504810","0.0-186.0","637b04a69794763b20491590","665500ab8938657b03fbdba8","665792636003e3601401a5ff","345","stimuli/11000011.jpg"," ","","feedback_trial","1","","","","","","","","","","","","","","","","","","","","",""
"","","","","","image-keyboard-response","212","506968","0.0-187.0","637b04a69794763b20491590","665500ab8938657b03fbdba8","665792636003e3601401a5ff","2156","stimuli/2000101.jpg","0","","prediction_trial","2","","false","","2","false","false","true","true","false","false","[2]","000","101","0","","","","","","",""
"","","","","","image-keyboard-response","213","507652","0.0-188.0","637b04a69794763b20491590","665500ab8938657b03fbdba8","665792636003e3601401a5ff","682","stimuli/20001012.jpg"," ","","feedback_trial","2","","","","","","","","","","","","","","","","","","","","",""
"","","","","","image-keyboard-response","214","509326","0.0-189.0","637b04a69794763b20491590","665500ab8938657b03fbdba8","665792636003e3601401a5ff","1670","stimuli/0000110.jpg","0","","prediction_trial","0","","true","","0","false","false","true","true","false","false","[0]","000","110","1","","","","","","",""
"","","","","","image-keyboard-response","215","509678","0.0-190.0","637b04a69794763b20491590","665500ab8938657b03fbdba8","665792636003e3601401a5ff","348","stimuli/00001100.jpg"," ","","feedback_trial","0","","","","","","","","","","","","","","","","","","","","",""
"","","","","","image-keyboard-response","216","511712","0.0-191.0","637b04a69794763b20491590","665500ab8938657b03fbdba8","665792636003e3601401a5ff","2033","stimuli/0110111.jpg","2","","prediction_trial","1","","false","","0","false","false","false","false","false","false","[0,1]","110","111","0","","","","","","",""
"","","","","","image-keyboard-response","217","512149","0.0-192.0","637b04a69794763b20491590","665500ab8938657b03fbdba8","665792636003e3601401a5ff","433","stimuli/01101111.jpg"," ","","feedback_trial","0","","","","","","","","","","","","","","","","","","","","",""
"","","","","","image-keyboard-response","218","512833","0.0-193.0","637b04a69794763b20491590","665500ab8938657b03fbdba8","665792636003e3601401a5ff","682","stimuli/0100011.jpg","0","","prediction_trial","0","","true","","0","true","true","false","true","false","true","[0]","100","011","1","","","","","","",""
"","","","","","image-keyboard-response","219","513211","0.0-194.0","637b04a69794763b20491590","665500ab8938657b03fbdba8","665792636003e3601401a5ff","376","stimuli/01000110.jpg"," ","","feedback_trial","0","","","","","","","","","","","","","","","","","","","","",""
"","","","","","image-keyboard-response","220","514180","0.0-195.0","637b04a69794763b20491590","665500ab8938657b03fbdba8","665792636003e3601401a5ff","967","stimuli/2111111.jpg","0","","prediction_trial","2","","false","","2","false","false","false","false","false","false","[1,2,0]","111","111","0","","","","","","",""
"","","","","","image-keyboard-response","221","514802","0.0-196.0","637b04a69794763b20491590","665500ab8938657b03fbdba8","665792636003e3601401a5ff","618","stimuli/21111112.jpg"," ","","feedback_trial","1","","","","","","","","","","","","","","","","","","","","",""
"","","","","","image-keyboard-response","222","515639","0.0-197.0","637b04a69794763b20491590","665500ab8938657b03fbdba8","665792636003e3601401a5ff","835","stimuli/2110000.jpg","2","","prediction_trial","2","","true","","2","true","true","true","true","true","true","[2]","110","000","1","","","","","","",""
"","","","","","image-keyboard-response","223","515959","0.0-198.0","637b04a69794763b20491590","665500ab8938657b03fbdba8","665792636003e3601401a5ff","318","stimuli/21100002.jpg"," ","","feedback_trial","2","","","","","","","","","","","","","","","","","","","","",""
"","","","","","image-keyboard-response","224","517863","0.0-199.0","637b04a69794763b20491590","665500ab8938657b03fbdba8","665792636003e3601401a5ff","1900","stimuli/1011111.jpg","2","","prediction_trial","1","","false","","1","false","false","false","false","false","false","[2,1]","011","111","0","","","","","","",""
"","","","","","image-keyboard-response","225","518223","0.0-200.0","637b04a69794763b20491590","665500ab8938657b03fbdba8","665792636003e3601401a5ff","359","stimuli/10111111.jpg"," ","","feedback_trial","2","","","","","","","","","","","","","","","","","","","","",""
"","","","","","image-keyboard-response","226","521908","0.0-201.0","637b04a69794763b20491590","665500ab8938657b03fbdba8","665792636003e3601401a5ff","3682","stimuli/1110011.jpg","2","","prediction_trial","1","","false","","1","false","false","false","false","false","false","[1,0]","110","011","0","","","","","","",""
"","","","","","image-keyboard-response","227","522376","0.0-202.0","637b04a69794763b20491590","665500ab8938657b03fbdba8","665792636003e3601401a5ff","465","stimuli/11100111.jpg"," ","","feedback_trial","1","","","","","","","","","","","","","","","","","","","","",""
"","","","","","image-keyboard-response","228","523247","0.0-203.0","637b04a69794763b20491590","665500ab8938657b03fbdba8","665792636003e3601401a5ff","869","stimuli/2010001.jpg","2","","prediction_trial","2","","true","","2","false","true","true","true","false","true","[2]","010","001","1","","","","","","",""
"","","","","","image-keyboard-response","229","523628","0.0-204.0","637b04a69794763b20491590","665500ab8938657b03fbdba8","665792636003e3601401a5ff","379","stimuli/20100012.jpg"," ","","feedback_trial","2","","","","","","","","","","","","","","","","","","","","",""
"","","","","","image-keyboard-response","230","524908","0.0-205.0","637b04a69794763b20491590","665500ab8938657b03fbdba8","665792636003e3601401a5ff","1277","stimuli/0111001.jpg","0","","prediction_trial","2","","false","","0","true","true","false","false","false","false","[2,1,0]","111","001","0","","","","","","",""
"","","","","","image-keyboard-response","231","525253","0.0-206.0","637b04a69794763b20491590","665500ab8938657b03fbdba8","665792636003e3601401a5ff","343","stimuli/01110012.jpg"," ","","feedback_trial","2","","","","","","","","","","","","","","","","","","","","",""
"","","","","","image-keyboard-response","232","525693","0.0-207.0","637b04a69794763b20491590","665500ab8938657b03fbdba8","665792636003e3601401a5ff","437","stimuli/2011010.jpg","2","","prediction_trial","2","","true","","2","true","true","false","false","false","false","[2,1]","011","010","1","","","","","","",""
"","","","","","image-keyboard-response","233","526134","0.0-208.0","637b04a69794763b20491590","665500ab8938657b03fbdba8","665792636003e3601401a5ff","438","stimuli/20110102.jpg"," ","","feedback_trial","2","","","","","","","","","","","","","","","","","","","","",""
"","","","","","image-keyboard-response","234","527050","0.0-209.0","637b04a69794763b20491590","665500ab8938657b03fbdba8","665792636003e3601401a5ff","913","stimuli/2010000.jpg","2","","prediction_trial","2","","true","","2","true","true","true","true","true","true","[2]","010","000","1","","","","","","",""
"","","","","","image-keyboard-response","235","527481","0.0-210.0","637b04a69794763b20491590","665500ab8938657b03fbdba8","665792636003e3601401a5ff","428","stimuli/20100002.jpg"," ","","feedback_trial","2","","","","","","","","","","","","","","","","","","","","",""
"","","","","","image-keyboard-response","236","529133","0.0-211.0","637b04a69794763b20491590","665500ab8938657b03fbdba8","665792636003e3601401a5ff","1649","stimuli/0111101.jpg","2","","prediction_trial","0","","false","","0","false","false","false","false","false","false","[0,1,2]","111","101","0","","","","","","",""
"","","","","","image-keyboard-response","237","529534","0.0-212.0","637b04a69794763b20491590","665500ab8938657b03fbdba8","665792636003e3601401a5ff","398","stimuli/01111010.jpg"," ","","feedback_trial","0","","","","","","","","","","","","","","","","","","","","",""
"","","","","","image-keyboard-response","238","531577","0.0-213.0","637b04a69794763b20491590","665500ab8938657b03fbdba8","665792636003e3601401a5ff","2040","stimuli/1010111.jpg","0","","prediction_trial","1","","false","","1","false","false","false","true","false","false","[1]","010","111","0","","","","","","",""
"","","","","","image-keyboard-response","239","532811","0.0-214.0","637b04a69794763b20491590","665500ab8938657b03fbdba8","665792636003e3601401a5ff","1231","stimuli/10101111.jpg"," ","","feedback_trial","1","","","","","","","","","","","","","","","","","","","","",""
"","","","","","image-keyboard-response","240","534531","0.0-215.0","637b04a69794763b20491590","665500ab8938657b03fbdba8","665792636003e3601401a5ff","1717","stimuli/2100011.jpg","1","","prediction_trial","2","","false","","2","false","false","true","true","false","false","[2]","100","011","0","","","","","","",""
"","","","","","image-keyboard-response","241","534948","0.0-216.0","637b04a69794763b20491590","665500ab8938657b03fbdba8","665792636003e3601401a5ff","415","stimuli/21000112.jpg"," ","","feedback_trial","2","","","","","","","","","","","","","","","","","","","","",""
"","","","","","image-keyboard-response","242","535353","0.0-217.0","637b04a69794763b20491590","665500ab8938657b03fbdba8","665792636003e3601401a5ff","403","stimuli/1000100.jpg","2","","prediction_trial","1","","false","","1","true","true","true","true","true","true","[1]","000","100","0","","","","","","",""
"","","","","","image-keyboard-response","243","537140","0.0-218.0","637b04a69794763b20491590","665500ab8938657b03fbdba8","665792636003e3601401a5ff","1784","stimuli/10001001.jpg"," ","","feedback_trial","1","","","","","","","","","","","","","","","","","","","","",""
"","","","","","image-keyboard-response","244","538128","0.0-219.0","637b04a69794763b20491590","665500ab8938657b03fbdba8","665792636003e3601401a5ff","985","stimuli/1001101.jpg","1","","prediction_trial","1","","true","","1","true","true","true","true","true","true","[1]","001","101","1","","","","","","",""
"","","","","","image-keyboard-response","245","538517","0.0-220.0","637b04a69794763b20491590","665500ab8938657b03fbdba8","665792636003e3601401a5ff","387","stimuli/10011011.jpg"," ","","feedback_trial","1","","","","","","","","","","","","","","","","","","","","",""
"","","","","","image-keyboard-response","246","539566","0.0-221.0","637b04a69794763b20491590","665500ab8938657b03fbdba8","665792636003e3601401a5ff","1046","stimuli/1011101.jpg","1","","prediction_trial","1","","true","","1","true","true","false","false","false","false","[1,2]","011","101","1","","","","","","",""
"","","","","","image-keyboard-response","247","539985","0.0-222.0","637b04a69794763b20491590","665500ab8938657b03fbdba8","665792636003e3601401a5ff","415","stimuli/10111011.jpg"," ","","feedback_trial","1","","","","","","","","","","","","","","","","","","","","",""
"","","","","","image-keyboard-response","248","540940","0.0-223.0","637b04a69794763b20491590","665500ab8938657b03fbdba8","665792636003e3601401a5ff","953","stimuli/0011100.jpg","0","","prediction_trial","0","","true","","0","false","true","true","true","false","true","[0]","011","100","1","","","","","","",""
"","","","","","image-keyboard-response","249","541350","0.0-224.0","637b04a69794763b20491590","665500ab8938657b03fbdba8","665792636003e3601401a5ff","407","stimuli/00111000.jpg"," ","","feedback_trial","0","","","","","","","","","","","","","","","","","","","","",""
"","","","","","image-keyboard-response","250","545821","0.0-225.0","637b04a69794763b20491590","665500ab8938657b03fbdba8","665792636003e3601401a5ff","4468","stimuli/2010011.jpg","1","","prediction_trial","2","","false","","2","false","false","true","true","false","false","[2]","010","011","0","","","","","","",""
"","","","","","image-keyboard-response","251","546358","0.0-226.0","637b04a69794763b20491590","665500ab8938657b03fbdba8","665792636003e3601401a5ff","534","stimuli/20100112.jpg"," ","","feedback_trial","2","","","","","","","","","","","","","","","","","","","","",""
"","","","","","image-keyboard-response","252","547046","0.0-227.0","637b04a69794763b20491590","665500ab8938657b03fbdba8","665792636003e3601401a5ff","685","stimuli/0001011.jpg","0","","prediction_trial","0","","true","","0","true","true","true","true","true","true","[0]","001","011","1","","","","","","",""
"","","","","","image-keyboard-response","253","547372","0.0-228.0","637b04a69794763b20491590","665500ab8938657b03fbdba8","665792636003e3601401a5ff","324","stimuli/00010110.jpg"," ","","feedback_trial","0","","","","","","","","","","","","","","","","","","","","",""
"","","","","","image-keyboard-response","254","548998","0.0-229.0","637b04a69794763b20491590","665500ab8938657b03fbdba8","665792636003e3601401a5ff","1622","stimuli/0011110.jpg","1","","prediction_trial","0","","false","","0","false","false","true","true","false","false","[0]","011","110","0","","","","","","",""
"","","","","","image-keyboard-response","255","549458","0.0-230.0","637b04a69794763b20491590","665500ab8938657b03fbdba8","665792636003e3601401a5ff","457","stimuli/00111100.jpg"," ","","feedback_trial","0","","","","","","","","","","","","","","","","","","","","",""
"","","","","","image-keyboard-response","256","550502","0.0-231.0","637b04a69794763b20491590","665500ab8938657b03fbdba8","665792636003e3601401a5ff","1043","stimuli/1101100.jpg","1","","prediction_trial","1","","true","","1","true","true","true","true","true","true","[1]","101","100","1","","","","","","",""
"","","","","","image-keyboard-response","257","550810","0.0-232.0","637b04a69794763b20491590","665500ab8938657b03fbdba8","665792636003e3601401a5ff","304","stimuli/11011001.jpg"," ","","feedback_trial","1","","","","","","","","","","","","","","","","","","","","",""
"","","","","","image-keyboard-response","258","551887","0.0-233.0","637b04a69794763b20491590","665500ab8938657b03fbdba8","665792636003e3601401a5ff","1075","stimuli/0101100.jpg","0","","prediction_trial","2","","false","","0","false","true","false","false","false","false","[2,0]","101","100","0","","","","","","",""
"","","","","","image-keyboard-response","259","552296","0.0-234.0","637b04a69794763b20491590","665500ab8938657b03fbdba8","665792636003e3601401a5ff","407","stimuli/01011002.jpg"," ","","feedback_trial","2","","","","","","","","","","","","","","","","","","","","",""
"","","","","","image-keyboard-response","260","553596","0.0-235.0","637b04a69794763b20491590","665500ab8938657b03fbdba8","665792636003e3601401a5ff","1297","stimuli/2100010.jpg","2","","prediction_trial","2","","true","","2","true","true","true","true","true","true","[2]","100","010","1","","","","","","",""
"","","","","","image-keyboard-response","261","553911","0.0-236.0","637b04a69794763b20491590","665500ab8938657b03fbdba8","665792636003e3601401a5ff","312","stimuli/21000102.jpg"," ","","feedback_trial","2","","","","","","","","","","","","","","","","","","","","",""
"","","","","","image-keyboard-response","262","555024","0.0-237.0","637b04a69794763b20491590","665500ab8938657b03fbdba8","665792636003e3601401a5ff","1111","stimuli/0001110.jpg","0","","prediction_trial","0","","true","","0","false","false","true","true","false","false","[0]","001","110","1","","","","","","",""
"","","","","","image-keyboard-response","263","555668","0.0-238.0","637b04a69794763b20491590","665500ab8938657b03fbdba8","665792636003e3601401a5ff","642","stimuli/00011100.jpg"," ","","feedback_trial","0","","","","","","","","","","","","","","","","","","","","",""
"","","","","","image-keyboard-response","264","556371","0.0-239.0","637b04a69794763b20491590","665500ab8938657b03fbdba8","665792636003e3601401a5ff","700","stimuli/0010000.jpg","0","","prediction_trial","0","","true","","0","true","true","true","true","true","true","[0]","010","000","1","","","","","","",""
"","","","","","image-keyboard-response","265","556827","0.0-240.0","637b04a69794763b20491590","665500ab8938657b03fbdba8","665792636003e3601401a5ff","453","stimuli/00100000.jpg"," ","","feedback_trial","0","","","","","","","","","","","","","","","","","","","","",""
"","","","","","image-keyboard-response","266","558273","0.0-241.0","637b04a69794763b20491590","665500ab8938657b03fbdba8","665792636003e3601401a5ff","1444","stimuli/1010010.jpg","1","","prediction_trial","1","","true","","1","false","true","false","true","false","true","[1]","010","010","1","","","","","","",""
"","","","","","image-keyboard-response","267","558714","0.0-242.0","637b04a69794763b20491590","665500ab8938657b03fbdba8","665792636003e3601401a5ff","437","stimuli/10100101.jpg"," ","","feedback_trial","1","","","","","","","","","","","","","","","","","","","","",""
"","","","","","image-keyboard-response","268","560056","0.0-243.0","637b04a69794763b20491590","665500ab8938657b03fbdba8","665792636003e3601401a5ff","1340","stimuli/1100011.jpg","1","","prediction_trial","1","","true","","1","false","false","true","true","false","false","[1]","100","011","1","","","","","","",""
"","","","","","image-keyboard-response","269","560458","0.0-244.0","637b04a69794763b20491590","665500ab8938657b03fbdba8","665792636003e3601401a5ff","399","stimuli/11000111.jpg"," ","","feedback_trial","1","","","","","","","","","","","","","","","","","","","","",""
"","","","","","image-keyboard-response","270","561846","0.0-245.0","637b04a69794763b20491590","665500ab8938657b03fbdba8","665792636003e3601401a5ff","1384","stimuli/2101101.jpg","2","","prediction_trial","2","","true","","2","false","false","false","false","false","false","[0,2]","101","101","1","","","","","","",""
"","","","","","image-keyboard-response","271","562279","0.0-246.0","637b04a69794763b20491590","665500ab8938657b03fbdba8","665792636003e3601401a5ff","432","stimuli/21011012.jpg"," ","","feedback_trial","0","","","","","","","","","","","","","","","","","","","","",""
"","","","","","image-keyboard-response","272","563506","0.0-247.0","637b04a69794763b20491590","665500ab8938657b03fbdba8","665792636003e3601401a5ff","1225","stimuli/2001001.jpg","2","","prediction_trial","2","","true","","2","false","true","false","true","false","true","[2]","001","001","1","","","","","","",""
"","","","","","image-keyboard-response","273","563843","0.0-248.0","637b04a69794763b20491590","665500ab8938657b03fbdba8","665792636003e3601401a5ff","334","stimuli/20010012.jpg"," ","","feedback_trial","2","","","","","","","","","","","","","","","","","","","","",""
"","","","","","image-keyboard-response","274","565992","0.0-249.0","637b04a69794763b20491590","665500ab8938657b03fbdba8","665792636003e3601401a5ff","2147","stimuli/2001011.jpg","2","","prediction_trial","2","","true","","2","false","false","false","true","false","false","[2]","001","011","1","","","","","","",""
"","","","","","image-keyboard-response","275","566388","0.0-250.0","637b04a69794763b20491590","665500ab8938657b03fbdba8","665792636003e3601401a5ff","393","stimuli/20010112.jpg"," ","","feedback_trial","2","","","","","","","","","","","","","","","","","","","","",""
"","","","","","image-keyboard-response","276","567342","0.0-251.0","637b04a69794763b20491590","665500ab8938657b03fbdba8","665792636003e3601401a5ff","952","stimuli/1001100.jpg","1","","prediction_trial","1","","true","","1","true","true","true","true","true","true","[1]","001","100","1","","","","","","",""
"","","","","","image-keyboard-response","277","567744","0.0-252.0","637b04a69794763b20491590","665500ab8938657b03fbdba8","665792636003e3601401a5ff","398","stimuli/10011001.jpg"," ","","feedback_trial","1","","","","","","","","","","","","","","","","","","","","",""
"","","","","","image-keyboard-response","278","568566","0.0-253.0","637b04a69794763b20491590","665500ab8938657b03fbdba8","665792636003e3601401a5ff","819","stimuli/0011001.jpg","0","","prediction_trial","0","","true","","0","true","true","true","true","true","true","[0]","011","001","1","","","","","","",""
"","","","","","image-keyboard-response","279","569221","0.0-254.0","637b04a69794763b20491590","665500ab8938657b03fbdba8","665792636003e3601401a5ff","652","stimuli/00110010.jpg"," ","","feedback_trial","0","","","","","","","","","","","","","","","","","","","","",""
"","","","","","image-keyboard-response","280","569919","0.0-255.0","637b04a69794763b20491590","665500ab8938657b03fbdba8","665792636003e3601401a5ff","696","stimuli/2010010.jpg","2","","prediction_trial","2","","true","","2","true","true","true","true","true","true","[2]","010","010","1","","","","","","",""
"","","","","","image-keyboard-response","281","570380","0.0-256.0","637b04a69794763b20491590","665500ab8938657b03fbdba8","665792636003e3601401a5ff","457","stimuli/20100102.jpg"," ","","feedback_trial","2","","","","","","","","","","","","","","","","","","","","",""
"","","","","","image-keyboard-response","282","571302","0.0-257.0","637b04a69794763b20491590","665500ab8938657b03fbdba8","665792636003e3601401a5ff","919","stimuli/2101010.jpg","2","","prediction_trial","0","","false","","2","true","true","false","false","false","false","[0,2]","101","010","0","","","","","","",""
"","","","","","image-keyboard-response","283","572279","0.0-258.0","637b04a69794763b20491590","665500ab8938657b03fbdba8","665792636003e3601401a5ff","975","stimuli/21010100.jpg"," ","","feedback_trial","0","","","","","","","","","","","","","","","","","","","","",""
"","","","","","image-keyboard-response","284","573272","0.0-259.0","637b04a69794763b20491590","665500ab8938657b03fbdba8","665792636003e3601401a5ff","991","stimuli/1010000.jpg","1","","prediction_trial","1","","true","","1","true","true","false","true","false","true","[1]","010","000","1","","","","","","",""
"","","","","","image-keyboard-response","285","573656","0.0-260.0","637b04a69794763b20491590","665500ab8938657b03fbdba8","665792636003e3601401a5ff","380","stimuli/10100001.jpg"," ","","feedback_trial","1","","","","","","","","","","","","","","","","","","","","",""
"","","","","","image-keyboard-response","286","574517","0.0-261.0","637b04a69794763b20491590","665500ab8938657b03fbdba8","665792636003e3601401a5ff","859","stimuli/1011000.jpg","1","","prediction_trial","2","","false","","1","true","true","false","false","false","false","[2,1]","011","000","0","","","","","","",""
"","","","","","image-keyboard-response","287","574846","0.0-262.0","637b04a69794763b20491590","665500ab8938657b03fbdba8","665792636003e3601401a5ff","327","stimuli/10110002.jpg"," ","","feedback_trial","2","","","","","","","","","","","","","","","","","","","","",""
"","","","","","image-keyboard-response","288","576221","0.0-263.0","637b04a69794763b20491590","665500ab8938657b03fbdba8","665792636003e3601401a5ff","1372","stimuli/1101001.jpg","1","","prediction_trial","1","","true","","1","true","true","true","true","true","true","[1]","101","001","1","","","","","","",""
"","","","","","image-keyboard-response","289","576619","0.0-264.0","637b04a69794763b20491590","665500ab8938657b03fbdba8","665792636003e3601401a5ff","396","stimuli/11010011.jpg"," ","","feedback_trial","1","","","","","","","","","","","","","","","","","","","","",""
"","","","","","image-keyboard-response","290","577275","0.0-265.0","637b04a69794763b20491590","665500ab8938657b03fbdba8","665792636003e3601401a5ff","652","stimuli/2000000.jpg","2","","prediction_trial","2","","true","","2","true","true","true","true","true","true","[2]","000","000","1","","","","","","",""
"","","","","","image-keyboard-response","291","577569","0.0-266.0","637b04a69794763b20491590","665500ab8938657b03fbdba8","665792636003e3601401a5ff","291","stimuli/20000002.jpg"," ","","feedback_trial","2","","","","","","","","","","","","","","","","","","","","",""
"","","","","","image-keyboard-response","292","579935","0.0-267.0","637b04a69794763b20491590","665500ab8938657b03fbdba8","665792636003e3601401a5ff","2363","stimuli/0100001.jpg","0","","prediction_trial","0","","true","","0","true","true","false","true","false","true","[0]","100","001","1","","","","","","",""
"","","","","","image-keyboard-response","293","581022","0.0-268.0","637b04a69794763b20491590","665500ab8938657b03fbdba8","665792636003e3601401a5ff","1085","stimuli/01000010.jpg"," ","","feedback_trial","0","","","","","","","","","","","","","","","","","","","","",""
"","","","","","image-keyboard-response","294","582162","0.0-269.0","637b04a69794763b20491590","665500ab8938657b03fbdba8","665792636003e3601401a5ff","1137","stimuli/0110011.jpg","0","","prediction_trial","1","","false","","0","true","true","false","false","false","false","[1,0]","110","011","0","","","","","","",""
"","","","","","image-keyboard-response","295","582653","0.0-270.0","637b04a69794763b20491590","665500ab8938657b03fbdba8","665792636003e3601401a5ff","488","stimuli/01100111.jpg"," ","","feedback_trial","1","","","","","","","","","","","","","","","","","","","","",""
"","","","","","image-keyboard-response","296","584161","0.0-271.0","637b04a69794763b20491590","665500ab8938657b03fbdba8","665792636003e3601401a5ff","1506","stimuli/1011011.jpg","1","","prediction_trial","1","","true","","1","false","false","false","false","false","false","[2,1]","011","011","1","","","","","","",""
"","","","","","image-keyboard-response","297","584632","0.0-272.0","637b04a69794763b20491590","665500ab8938657b03fbdba8","665792636003e3601401a5ff","469","stimuli/10110111.jpg"," ","","feedback_trial","2","","","","","","","","","","","","","","","","","","","","",""
"","","","","","image-keyboard-response","298","585526","0.0-273.0","637b04a69794763b20491590","665500ab8938657b03fbdba8","665792636003e3601401a5ff","891","stimuli/0011000.jpg","0","","prediction_trial","0","","true","","0","true","true","true","true","true","true","[0]","011","000","1","","","","","","",""
"","","","","","image-keyboard-response","299","585928","0.0-274.0","637b04a69794763b20491590","665500ab8938657b03fbdba8","665792636003e3601401a5ff","399","stimuli/00110000.jpg"," ","","feedback_trial","0","","","","","","","","","","","","","","","","","","","","",""
"","","","","","image-keyboard-response","300","588863","0.0-275.0","637b04a69794763b20491590","665500ab8938657b03fbdba8","665792636003e3601401a5ff","2933","stimuli/2011100.jpg","2","","prediction_trial","1","","false","","2","true","true","false","false","false","false","[1,2]","011","100","0","","","","","","",""
"","","","","","image-keyboard-response","301","589718","0.0-276.0","637b04a69794763b20491590","665500ab8938657b03fbdba8","665792636003e3601401a5ff","853","stimuli/20111001.jpg"," ","","feedback_trial","1","","","","","","","","","","","","","","","","","","","","",""
"","","","","","image-keyboard-response","302","590506","0.0-277.0","637b04a69794763b20491590","665500ab8938657b03fbdba8","665792636003e3601401a5ff","783","stimuli/0110001.jpg","0","","prediction_trial","1","","false","","0","true","true","false","false","false","false","[0,1]","110","001","0","","","","","","",""
"","","","","","image-keyboard-response","303","591107","0.0-278.0","637b04a69794763b20491590","665500ab8938657b03fbdba8","665792636003e3601401a5ff","599","stimuli/01100011.jpg"," ","","feedback_trial","0","","","","","","","","","","","","","","","","","","","","",""
"","","","","","image-keyboard-response","304","593390","0.0-279.0","637b04a69794763b20491590","665500ab8938657b03fbdba8","665792636003e3601401a5ff","2281","stimuli/1001110.jpg","0","","prediction_trial","1","","false","","1","false","false","true","true","false","false","[1]","001","110","0","","","","","","",""
"","","","","","image-keyboard-response","305","593898","0.0-280.0","637b04a69794763b20491590","665500ab8938657b03fbdba8","665792636003e3601401a5ff","506","stimuli/10011101.jpg"," ","","feedback_trial","1","","","","","","","","","","","","","","","","","","","","",""
"","","","","","image-keyboard-response","306","595598","0.0-281.0","637b04a69794763b20491590","665500ab8938657b03fbdba8","665792636003e3601401a5ff","1696","stimuli/2100001.jpg","2","","prediction_trial","2","","true","","2","false","true","true","true","false","true","[2]","100","001","1","","","","","","",""
"","","","","","image-keyboard-response","307","596107","0.0-282.0","637b04a69794763b20491590","665500ab8938657b03fbdba8","665792636003e3601401a5ff","506","stimuli/21000012.jpg"," ","","feedback_trial","2","","","","","","","","","","","","","","","","","","","","",""
"","","","","","image-keyboard-response","308","597502","0.0-283.0","637b04a69794763b20491590","665500ab8938657b03fbdba8","665792636003e3601401a5ff","1393","stimuli/1110000.jpg","1","","prediction_trial","1","","true","","1","true","true","false","false","false","false","[0,1]","110","000","1","","","","","","",""
"","","","","","image-keyboard-response","309","598042","0.0-284.0","637b04a69794763b20491590","665500ab8938657b03fbdba8","665792636003e3601401a5ff","538","stimuli/11100001.jpg"," ","","feedback_trial","0","","","","","","","","","","","","","","","","","","","","",""
"","","","","","image-keyboard-response","310","598934","0.0-285.0","637b04a69794763b20491590","665500ab8938657b03fbdba8","665792636003e3601401a5ff","890","stimuli/1011001.jpg","1","","prediction_trial","1","","true","","1","true","true","false","false","false","false","[2,1]","011","001","1","","","","","","",""
"","","","","","image-keyboard-response","311","599347","0.0-286.0","637b04a69794763b20491590","665500ab8938657b03fbdba8","665792636003e3601401a5ff","410","stimuli/10110011.jpg"," ","","feedback_trial","2","","","","","","","","","","","","","","","","","","","","",""
"","","","","","image-keyboard-response","312","600170","0.0-287.0","637b04a69794763b20491590","665500ab8938657b03fbdba8","665792636003e3601401a5ff","821","stimuli/1000000.jpg","1","","prediction_trial","1","","true","","1","true","true","true","true","true","true","[1]","000","000","1","","","","","","",""
"","","","","","image-keyboard-response","313","600579","0.0-288.0","637b04a69794763b20491590","665500ab8938657b03fbdba8","665792636003e3601401a5ff","405","stimuli/10000001.jpg"," ","","feedback_trial","1","","","","","","","","","","","","","","","","","","","","",""
"","","","","","image-keyboard-response","314","601956","0.0-289.0","637b04a69794763b20491590","665500ab8938657b03fbdba8","665792636003e3601401a5ff","1375","stimuli/2001110.jpg","2","","prediction_trial","2","","true","","2","true","true","false","true","false","true","[2]","001","110","1","","","","","","",""
"","","","","","image-keyboard-response","315","602736","0.0-290.0","637b04a69794763b20491590","665500ab8938657b03fbdba8","665792636003e3601401a5ff","777","stimuli/20011102.jpg"," ","","feedback_trial","2","","","","","","","","","","","","","","","","","","","","",""
"","","","","","image-keyboard-response","316","603838","0.0-291.0","637b04a69794763b20491590","665500ab8938657b03fbdba8","665792636003e3601401a5ff","1099","stimuli/1111011.jpg","2","","prediction_trial","1","","false","","1","false","false","false","false","false","false","[0,1,2]","111","011","0","","","","","","",""
"","","","","","image-keyboard-response","317","604272","0.0-292.0","637b04a69794763b20491590","665500ab8938657b03fbdba8","665792636003e3601401a5ff","431","stimuli/11110111.jpg"," ","","feedback_trial","0","","","","","","","","","","","","","","","","","","","","",""
"","","","","","survey-html-form","318","686580","0.0-293.0","637b04a69794763b20491590","665500ab8938657b03fbdba8","665792636003e3601401a5ff","82307","","{""feedback"":""Position of blinds and Sam's predilictions."",""age"":""57"",""gender"":""Male"",""other_gender"":"""",""race"":""White"",""other_race"":"""",""ethnicity"":""Non-Hispanic""}","","exit_survey","","","","","","","","","","","","","","","","Position of blinds and Sam's predilictions.","57","Non-Hispanic","Male","White","0.625","0.625"
