"success","timeout","failed_images","failed_audio","failed_video","trial_type","trial_index","time_elapsed","internal_node_id","prolific_id","prolific_study_id","prolific_session_id","rt","stimulus","response","view_history","trial","character_choice","stimulus_dict","accuracy","correct_response","ball_pos","ego_ball_visible","ego_can_infer","alter_ball_visible","alter_can_infer","collective_ball_visible","collective_can_infer","search_locations","alter_occluders","ego_occluders","accuracy_bool","feedback","age","ethnicity","gender","race","overall_accuracy","bonus"
"true","false","[]","[]","[]","preload","0","5815","0.0-0.0","6036f9b3b1842f8b659b18c7","665500ab8938657b03fbdba8","665792af4bef0a0d27ea5a9d","","","","","","","","","","","","","","","","","","","","","","","","","","",""
"true","","","","","fullscreen","1","8671","0.0-1.0","6036f9b3b1842f8b659b18c7","665500ab8938657b03fbdba8","665792af4bef0a0d27ea5a9d","","","","","","","","","","","","","","","","","","","","","","","","","","",""
"","","","","","html-button-response","2","11101","0.0-2.0","6036f9b3b1842f8b659b18c7","665500ab8938657b03fbdba8","665792af4bef0a0d27ea5a9d","2428","<p><b>Consent Form</b></p> <div style=""text-align:left;background-color:lightgrey; padding:20px; max-width:900px;""><p>Please consider this information carefully before deciding whether to participate in this research.</p> <p>The purpose of this research is to examine which factors influence social judgment and decision-making. You will be asked to make judgements about individuals and actions in social scenarios. We are simply interested in your judgement. The study will take less than 1 hour to complete, and you will receive less than $20 on Prolific. Your compensation and time commitment are specified in the study description. There are no anticipated risks associated with participating in this study. The effects of participating should be comparable to those you would ordinarily experience from viewing a computer monitor and using a mouse or keyboard for a similar amount of time. At the end of the study, we will provide an explanation of the questions that motivate this line of research and will describe the potential implications. </p><p> Your participation in this study is completely voluntary and you may refuse to participate or you may choose to withdraw at any time without penalty or loss of benefits to you which are otherwise entitled. Your participation in this study will remain confidential. No personally identifiable information will be associated with your data. Also, all analyses of the data will be averaged across all the participants, so your individual responses will never be specifically analyzed. </p><p> If you have questions or concerns about your participation or payment, or want to request a summary of research findings, please contact Dr. Jonathan Phillips at Jonathan.S.Phillips@dartmouth.edu. </p><p> Please save a copy of this form for your records. </p><p><b>Agreement: </b>The nature and purpose of this research have been sufficiently explained and I agree to participate in this study. I understand that I am free to withdraw at any time without incurring any penalty. Please consent by clicking the button below to continue. Otherwise, please exit the study at any time. </p>","0","","","","","","","","","","","","","","","","","","","","","","","",""
"","","","","","instructions","3","35567","0.0-3.0-0.0","6036f9b3b1842f8b659b18c7","665500ab8938657b03fbdba8","665792af4bef0a0d27ea5a9d","24465","","","[{""page_index"":0,""viewing_time"":1015},{""page_index"":1,""viewing_time"":1303},{""page_index"":2,""viewing_time"":1032},{""page_index"":3,""viewing_time"":2744},{""page_index"":4,""viewing_time"":1080},{""page_index"":5,""viewing_time"":777},{""page_index"":6,""viewing_time"":624},{""page_index"":7,""viewing_time"":2527},{""page_index"":8,""viewing_time"":960},{""page_index"":9,""viewing_time"":681},{""page_index"":10,""viewing_time"":6409},{""page_index"":11,""viewing_time"":2742},{""page_index"":12,""viewing_time"":1706},{""page_index"":13,""viewing_time"":864}]","intro","","","","","","","","","","","","","","","","","","","","","",""
"","","","","","image-keyboard-response","4","38657","0.0-3.0-1.0","6036f9b3b1842f8b659b18c7","665500ab8938657b03fbdba8","665792af4bef0a0d27ea5a9d","3085","stimuli/0101111.jpg","1","","prediction_practice","2","{""filepath"":""stimuli/0101111.jpg"",""ball_pos"":0,""ego_ball_visible"":false,""ego_can_infer"":false,""alter_ball_visible"":false,""alter_can_infer"":false,""collective_ball_visible"":false,""collective_can_infer"":false,""search_locations"":[2,0],""alter_occluders"":""101"",""ego_occluders"":""111""}","false","","","","","","","","","","","","","","","","","","",""
"","","","","","image-keyboard-response","5","42233","0.0-3.0-2.0","6036f9b3b1842f8b659b18c7","665500ab8938657b03fbdba8","665792af4bef0a0d27ea5a9d","3574","stimuli/01011112.jpg"," ","","practrice_feedback","2","","","","","","","","","","","","","","","","","","","","",""
"","","","","","image-keyboard-response","6","46701","0.0-3.0-3.0","6036f9b3b1842f8b659b18c7","665500ab8938657b03fbdba8","665792af4bef0a0d27ea5a9d","4465","stimuli/2001111.jpg","1","","prediction_practice","2","{""filepath"":""stimuli/2001111.jpg"",""ball_pos"":2,""ego_ball_visible"":false,""ego_can_infer"":false,""alter_ball_visible"":false,""alter_can_infer"":true,""collective_ball_visible"":false,""collective_can_infer"":false,""search_locations"":[2],""alter_occluders"":""001"",""ego_occluders"":""111""}","false","","","","","","","","","","","","","","","","","","",""
"","","","","","image-keyboard-response","7","48635","0.0-3.0-4.0","6036f9b3b1842f8b659b18c7","665500ab8938657b03fbdba8","665792af4bef0a0d27ea5a9d","1933","stimuli/20011112.jpg"," ","","practrice_feedback","2","","","","","","","","","","","","","","","","","","","","",""
"","","","","","image-keyboard-response","8","50065","0.0-3.0-5.0","6036f9b3b1842f8b659b18c7","665500ab8938657b03fbdba8","665792af4bef0a0d27ea5a9d","1429","stimuli/2101101.jpg","2","","prediction_practice","2","{""filepath"":""stimuli/2101101.jpg"",""ball_pos"":2,""ego_ball_visible"":false,""ego_can_infer"":false,""alter_ball_visible"":false,""alter_can_infer"":false,""collective_ball_visible"":false,""collective_can_infer"":false,""search_locations"":[2,0],""alter_occluders"":""101"",""ego_occluders"":""101""}","true","","","","","","","","","","","","","","","","","","",""
"","","","","","image-keyboard-response","9","51653","0.0-3.0-6.0","6036f9b3b1842f8b659b18c7","665500ab8938657b03fbdba8","665792af4bef0a0d27ea5a9d","1586","stimuli/21011012.jpg"," ","","practrice_feedback","2","","","","","","","","","","","","","","","","","","","","",""
"","","","","","image-keyboard-response","10","54220","0.0-3.0-7.0","6036f9b3b1842f8b659b18c7","665500ab8938657b03fbdba8","665792af4bef0a0d27ea5a9d","2566","stimuli/1100001.jpg","1","","prediction_practice","1","{""filepath"":""stimuli/1100001.jpg"",""ball_pos"":1,""ego_ball_visible"":true,""ego_can_infer"":true,""alter_ball_visible"":true,""alter_can_infer"":true,""collective_ball_visible"":true,""collective_can_infer"":true,""search_locations"":[1],""alter_occluders"":""100"",""ego_occluders"":""001""}","true","","","","","","","","","","","","","","","","","","",""
"","","","","","image-keyboard-response","11","55109","0.0-3.0-8.0","6036f9b3b1842f8b659b18c7","665500ab8938657b03fbdba8","665792af4bef0a0d27ea5a9d","886","stimuli/11000011.jpg"," ","","practrice_feedback","1","","","","","","","","","","","","","","","","","","","","",""
"","","","","","image-keyboard-response","12","56187","0.0-3.0-9.0","6036f9b3b1842f8b659b18c7","665500ab8938657b03fbdba8","665792af4bef0a0d27ea5a9d","1072","stimuli/0110110.jpg","2","","prediction_practice","1","{""filepath"":""stimuli/0110110.jpg"",""ball_pos"":0,""ego_ball_visible"":false,""ego_can_infer"":false,""alter_ball_visible"":false,""alter_can_infer"":false,""collective_ball_visible"":false,""collective_can_infer"":false,""search_locations"":[1,0],""alter_occluders"":""110"",""ego_occluders"":""110""}","false","","","","","","","","","","","","","","","","","","",""
"","","","","","image-keyboard-response","13","58984","0.0-3.0-10.0","6036f9b3b1842f8b659b18c7","665500ab8938657b03fbdba8","665792af4bef0a0d27ea5a9d","2795","stimuli/01101101.jpg"," ","","practrice_feedback","1","","","","","","","","","","","","","","","","","","","","",""
"","","","","","image-keyboard-response","14","60359","0.0-3.0-11.0","6036f9b3b1842f8b659b18c7","665500ab8938657b03fbdba8","665792af4bef0a0d27ea5a9d","1372","stimuli/0000110.jpg","1","","prediction_practice","0","{""filepath"":""stimuli/0000110.jpg"",""ball_pos"":0,""ego_ball_visible"":false,""ego_can_infer"":false,""alter_ball_visible"":true,""alter_can_infer"":true,""collective_ball_visible"":false,""collective_can_infer"":false,""search_locations"":[0],""alter_occluders"":""000"",""ego_occluders"":""110""}","false","","","","","","","","","","","","","","","","","","",""
"","","","","","image-keyboard-response","15","64662","0.0-3.0-12.0","6036f9b3b1842f8b659b18c7","665500ab8938657b03fbdba8","665792af4bef0a0d27ea5a9d","4302","stimuli/00001100.jpg"," ","","practrice_feedback","0","","","","","","","","","","","","","","","","","","","","",""
"","","","","","image-keyboard-response","16","65846","0.0-3.0-13.0","6036f9b3b1842f8b659b18c7","665500ab8938657b03fbdba8","665792af4bef0a0d27ea5a9d","1184","stimuli/2011101.jpg","0","","prediction_practice","1","{""filepath"":""stimuli/2011101.jpg"",""ball_pos"":2,""ego_ball_visible"":false,""ego_can_infer"":false,""alter_ball_visible"":false,""alter_can_infer"":false,""collective_ball_visible"":false,""collective_can_infer"":false,""search_locations"":[1,2],""alter_occluders"":""011"",""ego_occluders"":""101""}","false","","","","","","","","","","","","","","","","","","",""
"","","","","","image-keyboard-response","17","67022","0.0-3.0-14.0","6036f9b3b1842f8b659b18c7","665500ab8938657b03fbdba8","665792af4bef0a0d27ea5a9d","1174","stimuli/20111011.jpg"," ","","practrice_feedback","1","","","","","","","","","","","","","","","","","","","","",""
"","","","","","image-keyboard-response","18","67985","0.0-3.0-15.0","6036f9b3b1842f8b659b18c7","665500ab8938657b03fbdba8","665792af4bef0a0d27ea5a9d","960","stimuli/2000000.jpg","2","","prediction_practice","2","{""filepath"":""stimuli/2000000.jpg"",""ball_pos"":2,""ego_ball_visible"":true,""ego_can_infer"":true,""alter_ball_visible"":true,""alter_can_infer"":true,""collective_ball_visible"":true,""collective_can_infer"":true,""search_locations"":[2],""alter_occluders"":""000"",""ego_occluders"":""000""}","true","","","","","","","","","","","","","","","","","","",""
"","","","","","image-keyboard-response","19","69053","0.0-3.0-16.0","6036f9b3b1842f8b659b18c7","665500ab8938657b03fbdba8","665792af4bef0a0d27ea5a9d","1067","stimuli/20000002.jpg"," ","","practrice_feedback","2","","","","","","","","","","","","","","","","","","","","",""
"","","","","","image-keyboard-response","20","69817","0.0-3.0-17.0","6036f9b3b1842f8b659b18c7","665500ab8938657b03fbdba8","665792af4bef0a0d27ea5a9d","763","stimuli/2100110.jpg","2","","prediction_practice","2","{""filepath"":""stimuli/2100110.jpg"",""ball_pos"":2,""ego_ball_visible"":true,""ego_can_infer"":true,""alter_ball_visible"":true,""alter_can_infer"":true,""collective_ball_visible"":true,""collective_can_infer"":true,""search_locations"":[2],""alter_occluders"":""100"",""ego_occluders"":""110""}","true","","","","","","","","","","","","","","","","","","",""
"","","","","","image-keyboard-response","21","70585","0.0-3.0-18.0","6036f9b3b1842f8b659b18c7","665500ab8938657b03fbdba8","665792af4bef0a0d27ea5a9d","765","stimuli/21001102.jpg"," ","","practrice_feedback","2","","","","","","","","","","","","","","","","","","","","",""
"","","","","","image-keyboard-response","22","71843","0.0-3.0-19.0","6036f9b3b1842f8b659b18c7","665500ab8938657b03fbdba8","665792af4bef0a0d27ea5a9d","1254","stimuli/0110100.jpg","2","","prediction_practice","0","{""filepath"":""stimuli/0110100.jpg"",""ball_pos"":0,""ego_ball_visible"":false,""ego_can_infer"":true,""alter_ball_visible"":false,""alter_can_infer"":false,""collective_ball_visible"":false,""collective_can_infer"":false,""search_locations"":[1,0],""alter_occluders"":""110"",""ego_occluders"":""100""}","false","","","","","","","","","","","","","","","","","","",""
"","","","","","image-keyboard-response","23","72626","0.0-3.0-20.0","6036f9b3b1842f8b659b18c7","665500ab8938657b03fbdba8","665792af4bef0a0d27ea5a9d","781","stimuli/01101000.jpg"," ","","practrice_feedback","1","","","","","","","","","","","","","","","","","","","","",""
"","","","","","html-button-response","24","76269","0.0-3.0-21.0","6036f9b3b1842f8b659b18c7","665500ab8938657b03fbdba8","665792af4bef0a0d27ea5a9d","3641","Now that you've had some practice, you'll be tested with a couple of easy trials. If you correctly predict Sam's choice, you'll move on to complete the experiment!","0","","","","","","","","","","","","","","","","","","","","","","","",""
"","","","","","image-keyboard-response","25","77537","0.0-3.0-22.0-0.0","6036f9b3b1842f8b659b18c7","665500ab8938657b03fbdba8","665792af4bef0a0d27ea5a9d","1267","stimuli/0000011.jpg","arrowleft","","comprehension_quiz","","","true","arrowleft","","","","","","","","","","","","","","","","","",""
"","","","","","image-keyboard-response","26","78172","0.0-3.0-22.0-1.0","6036f9b3b1842f8b659b18c7","665500ab8938657b03fbdba8","665792af4bef0a0d27ea5a9d","632","stimuli/00000110.jpg"," ","","comprehension_quiz","","","true"," ","","","","","","","","","","","","","","","","","",""
"","","","","","image-keyboard-response","27","79727","0.0-3.0-22.0-2.0","6036f9b3b1842f8b659b18c7","665500ab8938657b03fbdba8","665792af4bef0a0d27ea5a9d","1553","stimuli/1010010.jpg","arrowdown","","comprehension_quiz","","","true","arrowdown","","","","","","","","","","","","","","","","","",""
"","","","","","image-keyboard-response","28","80330","0.0-3.0-22.0-3.0","6036f9b3b1842f8b659b18c7","665500ab8938657b03fbdba8","665792af4bef0a0d27ea5a9d","602","stimuli/10100101.jpg"," ","","comprehension_quiz","","","true"," ","","","","","","","","","","","","","","","","","",""
"","","","","","html-button-response","29","82181","0.0-4.0","6036f9b3b1842f8b659b18c7","665500ab8938657b03fbdba8","665792af4bef0a0d27ea5a9d","1848","The experiment will now begin.","0","","","","","","","","","","","","","","","","","","","","","","","",""
"","","","","","image-keyboard-response","30","83599","0.0-5.0","6036f9b3b1842f8b659b18c7","665500ab8938657b03fbdba8","665792af4bef0a0d27ea5a9d","1417","stimuli/0111000.jpg","0","","prediction_trial","0","","true","","0","true","true","false","false","false","false","[2,0,1]","111","000","1","","","","","","",""
"","","","","","image-keyboard-response","31","84741","0.0-6.0","6036f9b3b1842f8b659b18c7","665500ab8938657b03fbdba8","665792af4bef0a0d27ea5a9d","1141","stimuli/01110000.jpg"," ","","feedback_trial","2","","","","","","","","","","","","","","","","","","","","",""
"","","","","","image-keyboard-response","32","87124","0.0-7.0","6036f9b3b1842f8b659b18c7","665500ab8938657b03fbdba8","665792af4bef0a0d27ea5a9d","2380","stimuli/0101000.jpg","0","","prediction_trial","2","","false","","0","true","true","false","false","false","false","[2,0]","101","000","0","","","","","","",""
"","","","","","image-keyboard-response","33","88127","0.0-8.0","6036f9b3b1842f8b659b18c7","665500ab8938657b03fbdba8","665792af4bef0a0d27ea5a9d","1002","stimuli/01010002.jpg"," ","","feedback_trial","2","","","","","","","","","","","","","","","","","","","","",""
"","","","","","image-keyboard-response","34","88861","0.0-9.0","6036f9b3b1842f8b659b18c7","665500ab8938657b03fbdba8","665792af4bef0a0d27ea5a9d","733","stimuli/2011100.jpg","2","","prediction_trial","1","","false","","2","true","true","false","false","false","false","[2,1]","011","100","0","","","","","","",""
"","","","","","image-keyboard-response","35","89256","0.0-10.0","6036f9b3b1842f8b659b18c7","665500ab8938657b03fbdba8","665792af4bef0a0d27ea5a9d","393","stimuli/20111001.jpg"," ","","feedback_trial","2","","","","","","","","","","","","","","","","","","","","",""
"","","","","","image-keyboard-response","36","89633","0.0-11.0","6036f9b3b1842f8b659b18c7","665500ab8938657b03fbdba8","665792af4bef0a0d27ea5a9d","376","stimuli/2000101.jpg","1","","prediction_trial","2","","false","","2","false","false","true","true","false","false","[2]","000","101","0","","","","","","",""
"","","","","","image-keyboard-response","37","89794","0.0-12.0","6036f9b3b1842f8b659b18c7","665500ab8938657b03fbdba8","665792af4bef0a0d27ea5a9d","160","stimuli/20001012.jpg"," ","","feedback_trial","2","","","","","","","","","","","","","","","","","","","","",""
"","","","","","image-keyboard-response","38","90092","0.0-13.0","6036f9b3b1842f8b659b18c7","665500ab8938657b03fbdba8","665792af4bef0a0d27ea5a9d","297","stimuli/0000111.jpg","1","","prediction_trial","0","","false","","0","false","false","true","true","false","false","[0]","000","111","0","","","","","","",""
"","","","","","image-keyboard-response","39","90376","0.0-14.0","6036f9b3b1842f8b659b18c7","665500ab8938657b03fbdba8","665792af4bef0a0d27ea5a9d","283","stimuli/00001110.jpg"," ","","feedback_trial","0","","","","","","","","","","","","","","","","","","","","",""
"","","","","","image-keyboard-response","40","90523","0.0-15.0","6036f9b3b1842f8b659b18c7","665500ab8938657b03fbdba8","665792af4bef0a0d27ea5a9d","144","stimuli/0010011.jpg","1","","prediction_trial","0","","false","","0","true","true","true","true","true","true","[0]","010","011","0","","","","","","",""
"","","","","","image-keyboard-response","41","90725","0.0-16.0","6036f9b3b1842f8b659b18c7","665500ab8938657b03fbdba8","665792af4bef0a0d27ea5a9d","200","stimuli/00100110.jpg"," ","","feedback_trial","0","","","","","","","","","","","","","","","","","","","","",""
"","","","","","image-keyboard-response","42","90860","0.0-17.0","6036f9b3b1842f8b659b18c7","665500ab8938657b03fbdba8","665792af4bef0a0d27ea5a9d","133","stimuli/2011000.jpg","1","","prediction_trial","1","","true","","2","true","true","false","false","false","false","[1,2]","011","000","1","","","","","","",""
"","","","","","image-keyboard-response","43","91005","0.0-18.0","6036f9b3b1842f8b659b18c7","665500ab8938657b03fbdba8","665792af4bef0a0d27ea5a9d","144","stimuli/20110001.jpg"," ","","feedback_trial","1","","","","","","","","","","","","","","","","","","","","",""
"","","","","","image-keyboard-response","44","91135","0.0-19.0","6036f9b3b1842f8b659b18c7","665500ab8938657b03fbdba8","665792af4bef0a0d27ea5a9d","129","stimuli/0011110.jpg","1","","prediction_trial","0","","false","","0","false","false","true","true","false","false","[0]","011","110","0","","","","","","",""
"","","","","","image-keyboard-response","45","91260","0.0-20.0","6036f9b3b1842f8b659b18c7","665500ab8938657b03fbdba8","665792af4bef0a0d27ea5a9d","124","stimuli/00111100.jpg"," ","","feedback_trial","0","","","","","","","","","","","","","","","","","","","","",""
"","","","","","image-keyboard-response","46","91485","0.0-21.0","6036f9b3b1842f8b659b18c7","665500ab8938657b03fbdba8","665792af4bef0a0d27ea5a9d","224","stimuli/1001011.jpg","1","","prediction_trial","1","","true","","1","false","false","true","true","false","false","[1]","001","011","1","","","","","","",""
"","","","","","image-keyboard-response","47","91615","0.0-22.0","6036f9b3b1842f8b659b18c7","665500ab8938657b03fbdba8","665792af4bef0a0d27ea5a9d","130","stimuli/10010111.jpg"," ","","feedback_trial","1","","","","","","","","","","","","","","","","","","","","",""
"","","","","","image-keyboard-response","48","91787","0.0-23.0","6036f9b3b1842f8b659b18c7","665500ab8938657b03fbdba8","665792af4bef0a0d27ea5a9d","171","stimuli/2111010.jpg","1","","prediction_trial","1","","true","","2","true","true","false","false","false","false","[1,0,2]","111","010","1","","","","","","",""
"","","","","","image-keyboard-response","49","91900","0.0-24.0","6036f9b3b1842f8b659b18c7","665500ab8938657b03fbdba8","665792af4bef0a0d27ea5a9d","111","stimuli/21110101.jpg"," ","","feedback_trial","1","","","","","","","","","","","","","","","","","","","","",""
"","","","","","image-keyboard-response","50","92067","0.0-25.0","6036f9b3b1842f8b659b18c7","665500ab8938657b03fbdba8","665792af4bef0a0d27ea5a9d","165","stimuli/2101100.jpg","1","","prediction_trial","0","","false","","2","true","true","false","false","false","false","[0,2]","101","100","0","","","","","","",""
"","","","","","image-keyboard-response","51","92196","0.0-26.0","6036f9b3b1842f8b659b18c7","665500ab8938657b03fbdba8","665792af4bef0a0d27ea5a9d","128","stimuli/21011000.jpg"," ","","feedback_trial","0","","","","","","","","","","","","","","","","","","","","",""
"","","","","","image-keyboard-response","52","92348","0.0-27.0","6036f9b3b1842f8b659b18c7","665500ab8938657b03fbdba8","665792af4bef0a0d27ea5a9d","151","stimuli/2001111.jpg","0","","prediction_trial","2","","false","","2","false","false","false","true","false","false","[2]","001","111","0","","","","","","",""
"","","","","","image-keyboard-response","53","92497","0.0-28.0","6036f9b3b1842f8b659b18c7","665500ab8938657b03fbdba8","665792af4bef0a0d27ea5a9d","148","stimuli/20011112.jpg"," ","","feedback_trial","2","","","","","","","","","","","","","","","","","","","","",""
"","","","","","image-keyboard-response","54","92693","0.0-29.0","6036f9b3b1842f8b659b18c7","665500ab8938657b03fbdba8","665792af4bef0a0d27ea5a9d","195","stimuli/0001101.jpg","2","","prediction_trial","0","","false","","0","false","false","true","true","false","false","[0]","001","101","0","","","","","","",""
"","","","","","image-keyboard-response","55","92797","0.0-30.0","6036f9b3b1842f8b659b18c7","665500ab8938657b03fbdba8","665792af4bef0a0d27ea5a9d","101","stimuli/00011010.jpg"," ","","feedback_trial","0","","","","","","","","","","","","","","","","","","","","",""
"","","","","","image-keyboard-response","56","93219","0.0-31.0","6036f9b3b1842f8b659b18c7","665500ab8938657b03fbdba8","665792af4bef0a0d27ea5a9d","419","stimuli/2010010.jpg","1","","prediction_trial","2","","false","","2","true","true","true","true","true","true","[2]","010","010","0","","","","","","",""
"","","","","","image-keyboard-response","57","93663","0.0-32.0","6036f9b3b1842f8b659b18c7","665500ab8938657b03fbdba8","665792af4bef0a0d27ea5a9d","442","stimuli/20100102.jpg"," ","","feedback_trial","2","","","","","","","","","","","","","","","","","","","","",""
"","","","","","image-keyboard-response","58","94002","0.0-33.0","6036f9b3b1842f8b659b18c7","665500ab8938657b03fbdba8","665792af4bef0a0d27ea5a9d","337","stimuli/0001111.jpg","2","","prediction_trial","0","","false","","0","false","false","true","true","false","false","[0]","001","111","0","","","","","","",""
"","","","","","image-keyboard-response","59","94291","0.0-34.0","6036f9b3b1842f8b659b18c7","665500ab8938657b03fbdba8","665792af4bef0a0d27ea5a9d","288","stimuli/00011110.jpg"," ","","feedback_trial","0","","","","","","","","","","","","","","","","","","","","",""
"","","","","","image-keyboard-response","60","94649","0.0-35.0","6036f9b3b1842f8b659b18c7","665500ab8938657b03fbdba8","665792af4bef0a0d27ea5a9d","356","stimuli/0010010.jpg","1","","prediction_trial","0","","false","","0","true","true","true","true","true","true","[0]","010","010","0","","","","","","",""
"","","","","","image-keyboard-response","61","94813","0.0-36.0","6036f9b3b1842f8b659b18c7","665500ab8938657b03fbdba8","665792af4bef0a0d27ea5a9d","162","stimuli/00100100.jpg"," ","","feedback_trial","0","","","","","","","","","","","","","","","","","","","","",""
"","","","","","image-keyboard-response","62","94931","0.0-37.0","6036f9b3b1842f8b659b18c7","665500ab8938657b03fbdba8","665792af4bef0a0d27ea5a9d","117","stimuli/0101100.jpg","2","","prediction_trial","0","","false","","0","false","true","false","false","false","false","[0,2]","101","100","0","","","","","","",""
"","","","","","image-keyboard-response","63","95122","0.0-38.0","6036f9b3b1842f8b659b18c7","665500ab8938657b03fbdba8","665792af4bef0a0d27ea5a9d","189","stimuli/01011000.jpg"," ","","feedback_trial","0","","","","","","","","","","","","","","","","","","","","",""
"","","","","","image-keyboard-response","64","95342","0.0-39.0","6036f9b3b1842f8b659b18c7","665500ab8938657b03fbdba8","665792af4bef0a0d27ea5a9d","217","stimuli/0110010.jpg","0","","prediction_trial","1","","false","","0","true","true","false","false","false","false","[1,0]","110","010","0","","","","","","",""
"","","","","","image-keyboard-response","65","95524","0.0-40.0","6036f9b3b1842f8b659b18c7","665500ab8938657b03fbdba8","665792af4bef0a0d27ea5a9d","179","stimuli/01100101.jpg"," ","","feedback_trial","1","","","","","","","","","","","","","","","","","","","","",""
"","","","","","image-keyboard-response","66","95675","0.0-41.0","6036f9b3b1842f8b659b18c7","665500ab8938657b03fbdba8","665792af4bef0a0d27ea5a9d","150","stimuli/1001010.jpg","2","","prediction_trial","1","","false","","1","false","true","true","true","false","true","[1]","001","010","0","","","","","","",""
"","","","","","image-keyboard-response","67","95872","0.0-42.0","6036f9b3b1842f8b659b18c7","665500ab8938657b03fbdba8","665792af4bef0a0d27ea5a9d","195","stimuli/10010101.jpg"," ","","feedback_trial","1","","","","","","","","","","","","","","","","","","","","",""
"","","","","","image-keyboard-response","68","95989","0.0-43.0","6036f9b3b1842f8b659b18c7","665500ab8938657b03fbdba8","665792af4bef0a0d27ea5a9d","114","stimuli/2110111.jpg","1","","prediction_trial","2","","false","","2","false","false","true","true","false","false","[2]","110","111","0","","","","","","",""
"","","","","","image-keyboard-response","69","96146","0.0-44.0","6036f9b3b1842f8b659b18c7","665500ab8938657b03fbdba8","665792af4bef0a0d27ea5a9d","154","stimuli/21101112.jpg"," ","","feedback_trial","2","","","","","","","","","","","","","","","","","","","","",""
"","","","","","image-keyboard-response","70","96268","0.0-45.0","6036f9b3b1842f8b659b18c7","665500ab8938657b03fbdba8","665792af4bef0a0d27ea5a9d","119","stimuli/0001001.jpg","1","","prediction_trial","0","","false","","0","true","true","true","true","true","true","[0]","001","001","0","","","","","","",""
"","","","","","image-keyboard-response","71","96423","0.0-46.0","6036f9b3b1842f8b659b18c7","665500ab8938657b03fbdba8","665792af4bef0a0d27ea5a9d","154","stimuli/00010010.jpg"," ","","feedback_trial","0","","","","","","","","","","","","","","","","","","","","",""
"","","","","","image-keyboard-response","72","96570","0.0-47.0","6036f9b3b1842f8b659b18c7","665500ab8938657b03fbdba8","665792af4bef0a0d27ea5a9d","145","stimuli/2011010.jpg","2","","prediction_trial","1","","false","","2","true","true","false","false","false","false","[1,2]","011","010","0","","","","","","",""
"","","","","","image-keyboard-response","73","96735","0.0-48.0","6036f9b3b1842f8b659b18c7","665500ab8938657b03fbdba8","665792af4bef0a0d27ea5a9d","164","stimuli/20110101.jpg"," ","","feedback_trial","1","","","","","","","","","","","","","","","","","","","","",""
"","","","","","image-keyboard-response","74","96895","0.0-49.0","6036f9b3b1842f8b659b18c7","665500ab8938657b03fbdba8","665792af4bef0a0d27ea5a9d","157","stimuli/2010000.jpg","1","","prediction_trial","2","","false","","2","true","true","true","true","true","true","[2]","010","000","0","","","","","","",""
"","","","","","image-keyboard-response","75","97045","0.0-50.0","6036f9b3b1842f8b659b18c7","665500ab8938657b03fbdba8","665792af4bef0a0d27ea5a9d","150","stimuli/20100002.jpg"," ","","feedback_trial","2","","","","","","","","","","","","","","","","","","","","",""
"","","","","","image-keyboard-response","76","97160","0.0-51.0","6036f9b3b1842f8b659b18c7","665500ab8938657b03fbdba8","665792af4bef0a0d27ea5a9d","113","stimuli/1101100.jpg","1","","prediction_trial","1","","true","","1","true","true","true","true","true","true","[1]","101","100","1","","","","","","",""
"","","","","","image-keyboard-response","77","97349","0.0-52.0","6036f9b3b1842f8b659b18c7","665500ab8938657b03fbdba8","665792af4bef0a0d27ea5a9d","187","stimuli/11011001.jpg"," ","","feedback_trial","1","","","","","","","","","","","","","","","","","","","","",""
"","","","","","image-keyboard-response","78","97496","0.0-53.0","6036f9b3b1842f8b659b18c7","665500ab8938657b03fbdba8","665792af4bef0a0d27ea5a9d","145","stimuli/1011011.jpg","1","","prediction_trial","1","","true","","1","false","false","false","false","false","false","[1,2]","011","011","1","","","","","","",""
"","","","","","image-keyboard-response","79","97669","0.0-54.0","6036f9b3b1842f8b659b18c7","665500ab8938657b03fbdba8","665792af4bef0a0d27ea5a9d","172","stimuli/10110111.jpg"," ","","feedback_trial","1","","","","","","","","","","","","","","","","","","","","",""
"","","","","","image-keyboard-response","80","97807","0.0-55.0","6036f9b3b1842f8b659b18c7","665500ab8938657b03fbdba8","665792af4bef0a0d27ea5a9d","137","stimuli/0100110.jpg","0","","prediction_trial","0","","true","","0","false","false","false","true","false","false","[0]","100","110","1","","","","","","",""
"","","","","","image-keyboard-response","81","97903","0.0-56.0","6036f9b3b1842f8b659b18c7","665500ab8938657b03fbdba8","665792af4bef0a0d27ea5a9d","96","stimuli/01001100.jpg"," ","","feedback_trial","0","","","","","","","","","","","","","","","","","","","","",""
"","","","","","image-keyboard-response","82","98026","0.0-57.0","6036f9b3b1842f8b659b18c7","665500ab8938657b03fbdba8","665792af4bef0a0d27ea5a9d","121","stimuli/0000101.jpg","1","","prediction_trial","0","","false","","0","false","false","true","true","false","false","[0]","000","101","0","","","","","","",""
"","","","","","image-keyboard-response","83","98107","0.0-58.0","6036f9b3b1842f8b659b18c7","665500ab8938657b03fbdba8","665792af4bef0a0d27ea5a9d","80","stimuli/00001010.jpg"," ","","feedback_trial","0","","","","","","","","","","","","","","","","","","","","",""
"","","","","","image-keyboard-response","84","98301","0.0-59.0","6036f9b3b1842f8b659b18c7","665500ab8938657b03fbdba8","665792af4bef0a0d27ea5a9d","192","stimuli/0000010.jpg","0","","prediction_trial","0","","true","","0","true","true","true","true","true","true","[0]","000","010","1","","","","","","",""
"","","","","","image-keyboard-response","85","98310","0.0-60.0","6036f9b3b1842f8b659b18c7","665500ab8938657b03fbdba8","665792af4bef0a0d27ea5a9d","7","stimuli/00000100.jpg"," ","","feedback_trial","0","","","","","","","","","","","","","","","","","","","","",""
"","","","","","image-keyboard-response","86","98515","0.0-61.0","6036f9b3b1842f8b659b18c7","665500ab8938657b03fbdba8","665792af4bef0a0d27ea5a9d","195","stimuli/2101111.jpg","2","","prediction_trial","0","","false","","2","false","false","false","false","false","false","[0,2]","101","111","0","","","","","","",""
"","","","","","image-keyboard-response","87","98624","0.0-62.0","6036f9b3b1842f8b659b18c7","665500ab8938657b03fbdba8","665792af4bef0a0d27ea5a9d","107","stimuli/21011110.jpg"," ","","feedback_trial","0","","","","","","","","","","","","","","","","","","","","",""
"","","","","","image-keyboard-response","88","98755","0.0-63.0","6036f9b3b1842f8b659b18c7","665500ab8938657b03fbdba8","665792af4bef0a0d27ea5a9d","129","stimuli/0111100.jpg","1","","prediction_trial","0","","false","","0","false","true","false","false","false","false","[0,2,1]","111","100","0","","","","","","",""
"","","","","","image-keyboard-response","89","98845","0.0-64.0","6036f9b3b1842f8b659b18c7","665500ab8938657b03fbdba8","665792af4bef0a0d27ea5a9d","89","stimuli/01111000.jpg"," ","","feedback_trial","0","","","","","","","","","","","","","","","","","","","","",""
"","","","","","image-keyboard-response","90","98942","0.0-65.0","6036f9b3b1842f8b659b18c7","665500ab8938657b03fbdba8","665792af4bef0a0d27ea5a9d","95","stimuli/1100101.jpg","1","","prediction_trial","1","","true","","1","true","true","true","true","true","true","[1]","100","101","1","","","","","","",""
"","","","","","image-keyboard-response","91","99075","0.0-66.0","6036f9b3b1842f8b659b18c7","665500ab8938657b03fbdba8","665792af4bef0a0d27ea5a9d","132","stimuli/11001011.jpg"," ","","feedback_trial","1","","","","","","","","","","","","","","","","","","","","",""
"","","","","","image-keyboard-response","92","99188","0.0-67.0","6036f9b3b1842f8b659b18c7","665500ab8938657b03fbdba8","665792af4bef0a0d27ea5a9d","109","stimuli/1110011.jpg","1","","prediction_trial","1","","true","","1","false","false","false","false","false","false","[0,1]","110","011","1","","","","","","",""
"","","","","","image-keyboard-response","93","99359","0.0-68.0","6036f9b3b1842f8b659b18c7","665500ab8938657b03fbdba8","665792af4bef0a0d27ea5a9d","170","stimuli/11100111.jpg"," ","","feedback_trial","0","","","","","","","","","","","","","","","","","","","","",""
"","","","","","image-keyboard-response","94","99460","0.0-69.0","6036f9b3b1842f8b659b18c7","665500ab8938657b03fbdba8","665792af4bef0a0d27ea5a9d","99","stimuli/0011011.jpg","1","","prediction_trial","0","","false","","0","true","true","true","true","true","true","[0]","011","011","0","","","","","","",""
"","","","","","image-keyboard-response","95","99534","0.0-70.0","6036f9b3b1842f8b659b18c7","665500ab8938657b03fbdba8","665792af4bef0a0d27ea5a9d","72","stimuli/00110110.jpg"," ","","feedback_trial","0","","","","","","","","","","","","","","","","","","","","",""
"","","","","","image-keyboard-response","96","99629","0.0-71.0","6036f9b3b1842f8b659b18c7","665500ab8938657b03fbdba8","665792af4bef0a0d27ea5a9d","93","stimuli/2110101.jpg","0","","prediction_trial","2","","false","","2","false","false","true","true","false","false","[2]","110","101","0","","","","","","",""
"","","","","","image-keyboard-response","97","99916","0.0-72.0","6036f9b3b1842f8b659b18c7","665500ab8938657b03fbdba8","665792af4bef0a0d27ea5a9d","286","stimuli/21101012.jpg"," ","","feedback_trial","2","","","","","","","","","","","","","","","","","","","","",""
"","","","","","image-keyboard-response","98","99979","0.0-73.0","6036f9b3b1842f8b659b18c7","665500ab8938657b03fbdba8","665792af4bef0a0d27ea5a9d","62","stimuli/2011110.jpg","1","","prediction_trial","1","","true","","2","true","true","false","false","false","false","[2,1]","011","110","1","","","","","","",""
"","","","","","image-keyboard-response","99","100139","0.0-74.0","6036f9b3b1842f8b659b18c7","665500ab8938657b03fbdba8","665792af4bef0a0d27ea5a9d","159","stimuli/20111101.jpg"," ","","feedback_trial","2","","","","","","","","","","","","","","","","","","","","",""
"","","","","","image-keyboard-response","100","100168","0.0-75.0","6036f9b3b1842f8b659b18c7","665500ab8938657b03fbdba8","665792af4bef0a0d27ea5a9d","28","stimuli/0010110.jpg","0","","prediction_trial","0","","true","","0","false","false","true","true","false","false","[0]","010","110","1","","","","","","",""
"","","","","","image-keyboard-response","101","100434","0.0-76.0","6036f9b3b1842f8b659b18c7","665500ab8938657b03fbdba8","665792af4bef0a0d27ea5a9d","264","stimuli/00101100.jpg"," ","","feedback_trial","0","","","","","","","","","","","","","","","","","","","","",""
"","","","","","image-keyboard-response","102","100447","0.0-77.0","6036f9b3b1842f8b659b18c7","665500ab8938657b03fbdba8","665792af4bef0a0d27ea5a9d","13","stimuli/2110100.jpg","2","","prediction_trial","2","","true","","2","true","true","true","true","true","true","[2]","110","100","1","","","","","","",""
"","","","","","image-keyboard-response","103","100619","0.0-78.0","6036f9b3b1842f8b659b18c7","665500ab8938657b03fbdba8","665792af4bef0a0d27ea5a9d","171","stimuli/21101002.jpg"," ","","feedback_trial","2","","","","","","","","","","","","","","","","","","","","",""
"","","","","","image-keyboard-response","104","100733","0.0-79.0","6036f9b3b1842f8b659b18c7","665500ab8938657b03fbdba8","665792af4bef0a0d27ea5a9d","112","stimuli/2010110.jpg","0","","prediction_trial","2","","false","","2","true","true","true","true","true","true","[2]","010","110","0","","","","","","",""
"","","","","","image-keyboard-response","105","100799","0.0-80.0","6036f9b3b1842f8b659b18c7","665500ab8938657b03fbdba8","665792af4bef0a0d27ea5a9d","63","stimuli/20101102.jpg"," ","","feedback_trial","2","","","","","","","","","","","","","","","","","","","","",""
"","","","","","image-keyboard-response","106","100908","0.0-81.0","6036f9b3b1842f8b659b18c7","665500ab8938657b03fbdba8","665792af4bef0a0d27ea5a9d","107","stimuli/0011001.jpg","0","","prediction_trial","0","","true","","0","true","true","true","true","true","true","[0]","011","001","1","","","","","","",""
"","","","","","image-keyboard-response","107","101205","0.0-82.0","6036f9b3b1842f8b659b18c7","665500ab8938657b03fbdba8","665792af4bef0a0d27ea5a9d","295","stimuli/00110010.jpg"," ","","feedback_trial","0","","","","","","","","","","","","","","","","","","","","",""
"","","","","","image-keyboard-response","108","101285","0.0-83.0","6036f9b3b1842f8b659b18c7","665500ab8938657b03fbdba8","665792af4bef0a0d27ea5a9d","78","stimuli/2001011.jpg","1","","prediction_trial","2","","false","","2","false","false","false","true","false","false","[2]","001","011","0","","","","","","",""
"","","","","","image-keyboard-response","109","101368","0.0-84.0","6036f9b3b1842f8b659b18c7","665500ab8938657b03fbdba8","665792af4bef0a0d27ea5a9d","81","stimuli/20010112.jpg"," ","","feedback_trial","2","","","","","","","","","","","","","","","","","","","","",""
"","","","","","image-keyboard-response","110","101531","0.0-85.0","6036f9b3b1842f8b659b18c7","665500ab8938657b03fbdba8","665792af4bef0a0d27ea5a9d","163","stimuli/1101011.jpg","0","","prediction_trial","1","","false","","1","false","false","true","true","false","false","[1]","101","011","0","","","","","","",""
"","","","","","image-keyboard-response","111","101849","0.0-86.0","6036f9b3b1842f8b659b18c7","665500ab8938657b03fbdba8","665792af4bef0a0d27ea5a9d","317","stimuli/11010111.jpg"," ","","feedback_trial","1","","","","","","","","","","","","","","","","","","","","",""
"","","","","","image-keyboard-response","112","101948","0.0-87.0","6036f9b3b1842f8b659b18c7","665500ab8938657b03fbdba8","665792af4bef0a0d27ea5a9d","98","stimuli/0100111.jpg","1","","prediction_trial","0","","false","","0","false","false","false","true","false","false","[0]","100","111","0","","","","","","",""
"","","","","","image-keyboard-response","113","102271","0.0-88.0","6036f9b3b1842f8b659b18c7","665500ab8938657b03fbdba8","665792af4bef0a0d27ea5a9d","320","stimuli/01001110.jpg"," ","","feedback_trial","0","","","","","","","","","","","","","","","","","","","","",""
"","","","","","image-keyboard-response","114","102421","0.0-89.0","6036f9b3b1842f8b659b18c7","665500ab8938657b03fbdba8","665792af4bef0a0d27ea5a9d","149","stimuli/2111100.jpg","1","","prediction_trial","1","","true","","2","true","true","false","false","false","false","[2,0,1]","111","100","1","","","","","","",""
"","","","","","image-keyboard-response","115","102558","0.0-90.0","6036f9b3b1842f8b659b18c7","665500ab8938657b03fbdba8","665792af4bef0a0d27ea5a9d","134","stimuli/21111001.jpg"," ","","feedback_trial","2","","","","","","","","","","","","","","","","","","","","",""
"","","","","","image-keyboard-response","116","102779","0.0-91.0","6036f9b3b1842f8b659b18c7","665500ab8938657b03fbdba8","665792af4bef0a0d27ea5a9d","220","stimuli/0010000.jpg","0","","prediction_trial","0","","true","","0","true","true","true","true","true","true","[0]","010","000","1","","","","","","",""
"","","","","","image-keyboard-response","117","102956","0.0-92.0","6036f9b3b1842f8b659b18c7","665500ab8938657b03fbdba8","665792af4bef0a0d27ea5a9d","175","stimuli/00100000.jpg"," ","","feedback_trial","0","","","","","","","","","","","","","","","","","","","","",""
"","","","","","image-keyboard-response","118","103146","0.0-93.0","6036f9b3b1842f8b659b18c7","665500ab8938657b03fbdba8","665792af4bef0a0d27ea5a9d","188","stimuli/1111000.jpg","1","","prediction_trial","1","","true","","1","true","true","false","false","false","false","[1,2,0]","111","000","1","","","","","","",""
"","","","","","image-keyboard-response","119","103299","0.0-94.0","6036f9b3b1842f8b659b18c7","665500ab8938657b03fbdba8","665792af4bef0a0d27ea5a9d","152","stimuli/11110001.jpg"," ","","feedback_trial","1","","","","","","","","","","","","","","","","","","","","",""
"","","","","","image-keyboard-response","120","103457","0.0-95.0","6036f9b3b1842f8b659b18c7","665500ab8938657b03fbdba8","665792af4bef0a0d27ea5a9d","157","stimuli/0110000.jpg","0","","prediction_trial","1","","false","","0","true","true","false","false","false","false","[1,0]","110","000","0","","","","","","",""
"","","","","","image-keyboard-response","121","103632","0.0-96.0","6036f9b3b1842f8b659b18c7","665500ab8938657b03fbdba8","665792af4bef0a0d27ea5a9d","174","stimuli/01100001.jpg"," ","","feedback_trial","1","","","","","","","","","","","","","","","","","","","","",""
"","","","","","image-keyboard-response","122","103766","0.0-97.0","6036f9b3b1842f8b659b18c7","665500ab8938657b03fbdba8","665792af4bef0a0d27ea5a9d","132","stimuli/0101001.jpg","1","","prediction_trial","0","","false","","0","true","true","false","false","false","false","[0,2]","101","001","0","","","","","","",""
"","","","","","image-keyboard-response","123","103932","0.0-98.0","6036f9b3b1842f8b659b18c7","665500ab8938657b03fbdba8","665792af4bef0a0d27ea5a9d","165","stimuli/01010010.jpg"," ","","feedback_trial","0","","","","","","","","","","","","","","","","","","","","",""
"","","","","","image-keyboard-response","124","104049","0.0-99.0","6036f9b3b1842f8b659b18c7","665500ab8938657b03fbdba8","665792af4bef0a0d27ea5a9d","114","stimuli/1100010.jpg","1","","prediction_trial","1","","true","","1","false","true","true","true","false","true","[1]","100","010","1","","","","","","",""
"","","","","","image-keyboard-response","125","104238","0.0-100.0","6036f9b3b1842f8b659b18c7","665500ab8938657b03fbdba8","665792af4bef0a0d27ea5a9d","188","stimuli/11000101.jpg"," ","","feedback_trial","1","","","","","","","","","","","","","","","","","","","","",""
"","","","","","image-keyboard-response","126","104322","0.0-101.0","6036f9b3b1842f8b659b18c7","665500ab8938657b03fbdba8","665792af4bef0a0d27ea5a9d","83","stimuli/1111110.jpg","2","","prediction_trial","2","","true","","1","false","false","false","false","false","false","[1,0,2]","111","110","1","","","","","","",""
"","","","","","image-keyboard-response","127","104649","0.0-102.0","6036f9b3b1842f8b659b18c7","665500ab8938657b03fbdba8","665792af4bef0a0d27ea5a9d","326","stimuli/11111102.jpg"," ","","feedback_trial","1","","","","","","","","","","","","","","","","","","","","",""
"","","","","","image-keyboard-response","128","104772","0.0-103.0","6036f9b3b1842f8b659b18c7","665500ab8938657b03fbdba8","665792af4bef0a0d27ea5a9d","122","stimuli/0000100.jpg","0","","prediction_trial","0","","true","","0","false","true","true","true","false","true","[0]","000","100","1","","","","","","",""
"","","","","","image-keyboard-response","129","105048","0.0-104.0","6036f9b3b1842f8b659b18c7","665500ab8938657b03fbdba8","665792af4bef0a0d27ea5a9d","274","stimuli/00001000.jpg"," ","","feedback_trial","0","","","","","","","","","","","","","","","","","","","","",""
"","","","","","image-keyboard-response","130","105067","0.0-105.0","6036f9b3b1842f8b659b18c7","665500ab8938657b03fbdba8","665792af4bef0a0d27ea5a9d","18","stimuli/1000011.jpg","0","","prediction_trial","1","","false","","1","false","false","true","true","false","false","[1]","000","011","0","","","","","","",""
"","","","","","image-keyboard-response","131","105218","0.0-106.0","6036f9b3b1842f8b659b18c7","665500ab8938657b03fbdba8","665792af4bef0a0d27ea5a9d","149","stimuli/10000111.jpg"," ","","feedback_trial","1","","","","","","","","","","","","","","","","","","","","",""
"","","","","","image-keyboard-response","132","105344","0.0-107.0","6036f9b3b1842f8b659b18c7","665500ab8938657b03fbdba8","665792af4bef0a0d27ea5a9d","124","stimuli/1101111.jpg","0","","prediction_trial","1","","false","","1","false","false","true","true","false","false","[1]","101","111","0","","","","","","",""
"","","","","","image-keyboard-response","133","105509","0.0-108.0","6036f9b3b1842f8b659b18c7","665500ab8938657b03fbdba8","665792af4bef0a0d27ea5a9d","164","stimuli/11011111.jpg"," ","","feedback_trial","1","","","","","","","","","","","","","","","","","","","","",""
"","","","","","image-keyboard-response","134","105524","0.0-109.0","6036f9b3b1842f8b659b18c7","665500ab8938657b03fbdba8","665792af4bef0a0d27ea5a9d","14","stimuli/2011111.jpg","2","","prediction_trial","2","","true","","2","false","false","false","false","false","false","[2,1]","011","111","1","","","","","","",""
"","","","","","image-keyboard-response","135","105759","0.0-110.0","6036f9b3b1842f8b659b18c7","665500ab8938657b03fbdba8","665792af4bef0a0d27ea5a9d","233","stimuli/20111112.jpg"," ","","feedback_trial","2","","","","","","","","","","","","","","","","","","","","",""
"","","","","","image-keyboard-response","136","105776","0.0-111.0","6036f9b3b1842f8b659b18c7","665500ab8938657b03fbdba8","665792af4bef0a0d27ea5a9d","16","stimuli/1100000.jpg","1","","prediction_trial","1","","true","","1","true","true","true","true","true","true","[1]","100","000","1","","","","","","",""
"","","","","","image-keyboard-response","137","106144","0.0-112.0","6036f9b3b1842f8b659b18c7","665500ab8938657b03fbdba8","665792af4bef0a0d27ea5a9d","367","stimuli/11000001.jpg"," ","","feedback_trial","1","","","","","","","","","","","","","","","","","","","","",""
"","","","","","image-keyboard-response","138","106282","0.0-113.0","6036f9b3b1842f8b659b18c7","665500ab8938657b03fbdba8","665792af4bef0a0d27ea5a9d","137","stimuli/2001100.jpg","2","","prediction_trial","2","","true","","2","true","true","false","true","false","true","[2]","001","100","1","","","","","","",""
"","","","","","image-keyboard-response","139","106413","0.0-114.0","6036f9b3b1842f8b659b18c7","665500ab8938657b03fbdba8","665792af4bef0a0d27ea5a9d","130","stimuli/20011002.jpg"," ","","feedback_trial","2","","","","","","","","","","","","","","","","","","","","",""
"","","","","","image-keyboard-response","140","106566","0.0-115.0","6036f9b3b1842f8b659b18c7","665500ab8938657b03fbdba8","665792af4bef0a0d27ea5a9d","147","stimuli/1000010.jpg","2","","prediction_trial","1","","false","","1","false","true","true","true","false","true","[1]","000","010","0","","","","","","",""
"","","","","","image-keyboard-response","141","106706","0.0-116.0","6036f9b3b1842f8b659b18c7","665500ab8938657b03fbdba8","665792af4bef0a0d27ea5a9d","139","stimuli/10000101.jpg"," ","","feedback_trial","1","","","","","","","","","","","","","","","","","","","","",""
"","","","","","image-keyboard-response","142","106849","0.0-117.0","6036f9b3b1842f8b659b18c7","665500ab8938657b03fbdba8","665792af4bef0a0d27ea5a9d","142","stimuli/1001110.jpg","0","","prediction_trial","1","","false","","1","false","false","true","true","false","false","[1]","001","110","0","","","","","","",""
"","","","","","image-keyboard-response","143","107021","0.0-118.0","6036f9b3b1842f8b659b18c7","665500ab8938657b03fbdba8","665792af4bef0a0d27ea5a9d","172","stimuli/10011101.jpg"," ","","feedback_trial","1","","","","","","","","","","","","","","","","","","","","",""
"","","","","","image-keyboard-response","144","107101","0.0-119.0","6036f9b3b1842f8b659b18c7","665500ab8938657b03fbdba8","665792af4bef0a0d27ea5a9d","79","stimuli/1010011.jpg","1","","prediction_trial","1","","true","","1","false","false","false","true","false","false","[1]","010","011","1","","","","","","",""
"","","","","","image-keyboard-response","145","107296","0.0-120.0","6036f9b3b1842f8b659b18c7","665500ab8938657b03fbdba8","665792af4bef0a0d27ea5a9d","195","stimuli/10100111.jpg"," ","","feedback_trial","1","","","","","","","","","","","","","","","","","","","","",""
"","","","","","image-keyboard-response","146","107401","0.0-121.0","6036f9b3b1842f8b659b18c7","665500ab8938657b03fbdba8","665792af4bef0a0d27ea5a9d","104","stimuli/1101010.jpg","1","","prediction_trial","1","","true","","1","false","true","true","true","false","true","[1]","101","010","1","","","","","","",""
"","","","","","image-keyboard-response","147","107537","0.0-122.0","6036f9b3b1842f8b659b18c7","665500ab8938657b03fbdba8","665792af4bef0a0d27ea5a9d","135","stimuli/11010101.jpg"," ","","feedback_trial","1","","","","","","","","","","","","","","","","","","","","",""
"","","","","","image-keyboard-response","148","107642","0.0-123.0","6036f9b3b1842f8b659b18c7","665500ab8938657b03fbdba8","665792af4bef0a0d27ea5a9d","103","stimuli/2111000.jpg","1","","prediction_trial","0","","false","","2","true","true","false","false","false","false","[2,1,0]","111","000","0","","","","","","",""
"","","","","","image-keyboard-response","149","107775","0.0-124.0","6036f9b3b1842f8b659b18c7","665500ab8938657b03fbdba8","665792af4bef0a0d27ea5a9d","132","stimuli/21110000.jpg"," ","","feedback_trial","2","","","","","","","","","","","","","","","","","","","","",""
"","","","","","image-keyboard-response","150","107898","0.0-125.0","6036f9b3b1842f8b659b18c7","665500ab8938657b03fbdba8","665792af4bef0a0d27ea5a9d","122","stimuli/2110010.jpg","1","","prediction_trial","2","","false","","2","true","true","true","true","true","true","[2]","110","010","0","","","","","","",""
"","","","","","image-keyboard-response","151","108298","0.0-126.0","6036f9b3b1842f8b659b18c7","665500ab8938657b03fbdba8","665792af4bef0a0d27ea5a9d","399","stimuli/21100102.jpg"," ","","feedback_trial","2","","","","","","","","","","","","","","","","","","","","",""
"","","","","","image-keyboard-response","152","108448","0.0-127.0","6036f9b3b1842f8b659b18c7","665500ab8938657b03fbdba8","665792af4bef0a0d27ea5a9d","149","stimuli/1011000.jpg","2","","prediction_trial","2","","true","","1","true","true","false","false","false","false","[2,1]","011","000","1","","","","","","",""
"","","","","","image-keyboard-response","153","108586","0.0-128.0","6036f9b3b1842f8b659b18c7","665500ab8938657b03fbdba8","665792af4bef0a0d27ea5a9d","137","stimuli/10110002.jpg"," ","","feedback_trial","2","","","","","","","","","","","","","","","","","","","","",""
"","","","","","image-keyboard-response","154","108715","0.0-129.0","6036f9b3b1842f8b659b18c7","665500ab8938657b03fbdba8","665792af4bef0a0d27ea5a9d","128","stimuli/1010010.jpg","1","","prediction_trial","1","","true","","1","false","true","false","true","false","true","[1]","010","010","1","","","","","","",""
"","","","","","image-keyboard-response","155","109118","0.0-130.0","6036f9b3b1842f8b659b18c7","665500ab8938657b03fbdba8","665792af4bef0a0d27ea5a9d","402","stimuli/10100101.jpg"," ","","feedback_trial","1","","","","","","","","","","","","","","","","","","","","",""
"","","","","","image-keyboard-response","156","109281","0.0-131.0","6036f9b3b1842f8b659b18c7","665500ab8938657b03fbdba8","665792af4bef0a0d27ea5a9d","161","stimuli/0011111.jpg","0","","prediction_trial","0","","true","","0","false","false","true","true","false","false","[0]","011","111","1","","","","","","",""
"","","","","","image-keyboard-response","157","109386","0.0-132.0","6036f9b3b1842f8b659b18c7","665500ab8938657b03fbdba8","665792af4bef0a0d27ea5a9d","103","stimuli/00111110.jpg"," ","","feedback_trial","0","","","","","","","","","","","","","","","","","","","","",""
"","","","","","image-keyboard-response","158","109398","0.0-133.0","6036f9b3b1842f8b659b18c7","665500ab8938657b03fbdba8","665792af4bef0a0d27ea5a9d","10","stimuli/2010100.jpg","2","","prediction_trial","2","","true","","2","true","true","true","true","true","true","[2]","010","100","1","","","","","","",""
"","","","","","image-keyboard-response","159","109664","0.0-134.0","6036f9b3b1842f8b659b18c7","665500ab8938657b03fbdba8","665792af4bef0a0d27ea5a9d","265","stimuli/20101002.jpg"," ","","feedback_trial","2","","","","","","","","","","","","","","","","","","","","",""
"","","","","","image-keyboard-response","160","109819","0.0-135.0","6036f9b3b1842f8b659b18c7","665500ab8938657b03fbdba8","665792af4bef0a0d27ea5a9d","153","stimuli/2110011.jpg","1","","prediction_trial","2","","false","","2","false","false","true","true","false","false","[2]","110","011","0","","","","","","",""
"","","","","","image-keyboard-response","161","109934","0.0-136.0","6036f9b3b1842f8b659b18c7","665500ab8938657b03fbdba8","665792af4bef0a0d27ea5a9d","115","stimuli/21100112.jpg"," ","","feedback_trial","2","","","","","","","","","","","","","","","","","","","","",""
"","","","","","image-keyboard-response","162","109947","0.0-137.0","6036f9b3b1842f8b659b18c7","665500ab8938657b03fbdba8","665792af4bef0a0d27ea5a9d","11","stimuli/0110110.jpg","2","","prediction_trial","1","","false","","0","false","false","false","false","false","false","[1,0]","110","110","0","","","","","","",""
"","","","","","image-keyboard-response","163","110041","0.0-138.0","6036f9b3b1842f8b659b18c7","665500ab8938657b03fbdba8","665792af4bef0a0d27ea5a9d","92","stimuli/01101101.jpg"," ","","feedback_trial","1","","","","","","","","","","","","","","","","","","","","",""
"","","","","","image-keyboard-response","164","110071","0.0-139.0","6036f9b3b1842f8b659b18c7","665500ab8938657b03fbdba8","665792af4bef0a0d27ea5a9d","29","stimuli/2101001.jpg","1","","prediction_trial","2","","false","","2","false","true","false","false","false","false","[0,2]","101","001","0","","","","","","",""
"","","","","","image-keyboard-response","165","110443","0.0-140.0","6036f9b3b1842f8b659b18c7","665500ab8938657b03fbdba8","665792af4bef0a0d27ea5a9d","371","stimuli/21010012.jpg"," ","","feedback_trial","0","","","","","","","","","","","","","","","","","","","","",""
"","","","","","image-keyboard-response","166","110455","0.0-141.0","6036f9b3b1842f8b659b18c7","665500ab8938657b03fbdba8","665792af4bef0a0d27ea5a9d","11","stimuli/1011001.jpg","2","","prediction_trial","1","","false","","1","true","true","false","false","false","false","[1,2]","011","001","0","","","","","","",""
"","","","","","image-keyboard-response","167","110962","0.0-142.0","6036f9b3b1842f8b659b18c7","665500ab8938657b03fbdba8","665792af4bef0a0d27ea5a9d","506","stimuli/10110011.jpg"," ","","feedback_trial","1","","","","","","","","","","","","","","","","","","","","",""
"","","","","","image-keyboard-response","168","111111","0.0-143.0","6036f9b3b1842f8b659b18c7","665500ab8938657b03fbdba8","665792af4bef0a0d27ea5a9d","147","stimuli/1100001.jpg","1","","prediction_trial","1","","true","","1","true","true","true","true","true","true","[1]","100","001","1","","","","","","",""
"","","","","","image-keyboard-response","169","111331","0.0-144.0","6036f9b3b1842f8b659b18c7","665500ab8938657b03fbdba8","665792af4bef0a0d27ea5a9d","218","stimuli/11000011.jpg"," ","","feedback_trial","1","","","","","","","","","","","","","","","","","","","","",""
"","","","","","image-keyboard-response","170","111463","0.0-145.0","6036f9b3b1842f8b659b18c7","665500ab8938657b03fbdba8","665792af4bef0a0d27ea5a9d","131","stimuli/2101110.jpg","1","","prediction_trial","0","","false","","2","true","true","false","false","false","false","[2,0]","101","110","0","","","","","","",""
"","","","","","image-keyboard-response","171","111721","0.0-146.0","6036f9b3b1842f8b659b18c7","665500ab8938657b03fbdba8","665792af4bef0a0d27ea5a9d","255","stimuli/21011100.jpg"," ","","feedback_trial","2","","","","","","","","","","","","","","","","","","","","",""
"","","","","","image-keyboard-response","172","111796","0.0-147.0","6036f9b3b1842f8b659b18c7","665500ab8938657b03fbdba8","665792af4bef0a0d27ea5a9d","74","stimuli/0000110.jpg","1","","prediction_trial","0","","false","","0","false","false","true","true","false","false","[0]","000","110","0","","","","","","",""
"","","","","","image-keyboard-response","173","112219","0.0-148.0","6036f9b3b1842f8b659b18c7","665500ab8938657b03fbdba8","665792af4bef0a0d27ea5a9d","421","stimuli/00001100.jpg"," ","","feedback_trial","0","","","","","","","","","","","","","","","","","","","","",""
"","","","","","image-keyboard-response","174","112401","0.0-149.0","6036f9b3b1842f8b659b18c7","665500ab8938657b03fbdba8","665792af4bef0a0d27ea5a9d","181","stimuli/0100100.jpg","2","","prediction_trial","0","","false","","0","false","true","false","true","false","true","[0]","100","100","0","","","","","","",""
"","","","","","image-keyboard-response","175","112640","0.0-150.0","6036f9b3b1842f8b659b18c7","665500ab8938657b03fbdba8","665792af4bef0a0d27ea5a9d","238","stimuli/01001000.jpg"," ","","feedback_trial","0","","","","","","","","","","","","","","","","","","","","",""
"","","","","","image-keyboard-response","176","112884","0.0-151.0","6036f9b3b1842f8b659b18c7","665500ab8938657b03fbdba8","665792af4bef0a0d27ea5a9d","242","stimuli/2100100.jpg","1","","prediction_trial","2","","false","","2","true","true","true","true","true","true","[2]","100","100","0","","","","","","",""
"","","","","","image-keyboard-response","177","113126","0.0-152.0","6036f9b3b1842f8b659b18c7","665500ab8938657b03fbdba8","665792af4bef0a0d27ea5a9d","241","stimuli/21001002.jpg"," ","","feedback_trial","2","","","","","","","","","","","","","","","","","","","","",""
"","","","","","image-keyboard-response","178","113358","0.0-153.0","6036f9b3b1842f8b659b18c7","665500ab8938657b03fbdba8","665792af4bef0a0d27ea5a9d","230","stimuli/2000001.jpg","2","","prediction_trial","2","","true","","2","false","true","true","true","false","true","[2]","000","001","1","","","","","","",""
"","","","","","image-keyboard-response","179","113540","0.0-154.0","6036f9b3b1842f8b659b18c7","665500ab8938657b03fbdba8","665792af4bef0a0d27ea5a9d","181","stimuli/20000012.jpg"," ","","feedback_trial","2","","","","","","","","","","","","","","","","","","","","",""
"","","","","","image-keyboard-response","180","113755","0.0-155.0","6036f9b3b1842f8b659b18c7","665500ab8938657b03fbdba8","665792af4bef0a0d27ea5a9d","214","stimuli/1101001.jpg","1","","prediction_trial","1","","true","","1","true","true","true","true","true","true","[1]","101","001","1","","","","","","",""
"","","","","","image-keyboard-response","181","113982","0.0-156.0","6036f9b3b1842f8b659b18c7","665500ab8938657b03fbdba8","665792af4bef0a0d27ea5a9d","226","stimuli/11010011.jpg"," ","","feedback_trial","1","","","","","","","","","","","","","","","","","","","","",""
"","","","","","image-keyboard-response","182","114135","0.0-157.0","6036f9b3b1842f8b659b18c7","665500ab8938657b03fbdba8","665792af4bef0a0d27ea5a9d","151","stimuli/1010110.jpg","1","","prediction_trial","1","","true","","1","false","false","false","true","false","false","[1]","010","110","1","","","","","","",""
"","","","","","image-keyboard-response","183","114367","0.0-158.0","6036f9b3b1842f8b659b18c7","665500ab8938657b03fbdba8","665792af4bef0a0d27ea5a9d","231","stimuli/10101101.jpg"," ","","feedback_trial","1","","","","","","","","","","","","","","","","","","","","",""
"","","","","","image-keyboard-response","184","114485","0.0-159.0","6036f9b3b1842f8b659b18c7","665500ab8938657b03fbdba8","665792af4bef0a0d27ea5a9d","116","stimuli/0100010.jpg","1","","prediction_trial","0","","false","","0","true","true","false","true","false","true","[0]","100","010","0","","","","","","",""
"","","","","","image-keyboard-response","185","114734","0.0-160.0","6036f9b3b1842f8b659b18c7","665500ab8938657b03fbdba8","665792af4bef0a0d27ea5a9d","248","stimuli/01000100.jpg"," ","","feedback_trial","0","","","","","","","","","","","","","","","","","","","","",""
"","","","","","image-keyboard-response","186","114853","0.0-161.0","6036f9b3b1842f8b659b18c7","665500ab8938657b03fbdba8","665792af4bef0a0d27ea5a9d","111","stimuli/1110000.jpg","1","","prediction_trial","0","","false","","1","true","true","false","false","false","false","[0,1]","110","000","0","","","","","","",""
"","","","","","image-keyboard-response","187","115055","0.0-162.0","6036f9b3b1842f8b659b18c7","665500ab8938657b03fbdba8","665792af4bef0a0d27ea5a9d","200","stimuli/11100000.jpg"," ","","feedback_trial","0","","","","","","","","","","","","","","","","","","","","",""
"","","","","","image-keyboard-response","188","115166","0.0-163.0","6036f9b3b1842f8b659b18c7","665500ab8938657b03fbdba8","665792af4bef0a0d27ea5a9d","110","stimuli/2111101.jpg","1","","prediction_trial","1","","true","","2","false","false","false","false","false","false","[0,2,1]","111","101","1","","","","","","",""
"","","","","","image-keyboard-response","189","115394","0.0-164.0","6036f9b3b1842f8b659b18c7","665500ab8938657b03fbdba8","665792af4bef0a0d27ea5a9d","227","stimuli/21111011.jpg"," ","","feedback_trial","0","","","","","","","","","","","","","","","","","","","","",""
"","","","","","image-keyboard-response","190","115452","0.0-165.0","6036f9b3b1842f8b659b18c7","665500ab8938657b03fbdba8","665792af4bef0a0d27ea5a9d","58","stimuli/2010111.jpg","1","","prediction_trial","2","","false","","2","false","false","true","true","false","false","[2]","010","111","0","","","","","","",""
"","","","","","image-keyboard-response","191","115704","0.0-166.0","6036f9b3b1842f8b659b18c7","665500ab8938657b03fbdba8","665792af4bef0a0d27ea5a9d","251","stimuli/20101112.jpg"," ","","feedback_trial","2","","","","","","","","","","","","","","","","","","","","",""
"","","","","","image-keyboard-response","192","115774","0.0-167.0","6036f9b3b1842f8b659b18c7","665500ab8938657b03fbdba8","665792af4bef0a0d27ea5a9d","69","stimuli/1000001.jpg","1","","prediction_trial","1","","true","","1","true","true","true","true","true","true","[1]","000","001","1","","","","","","",""
"","","","","","image-keyboard-response","193","115992","0.0-168.0","6036f9b3b1842f8b659b18c7","665500ab8938657b03fbdba8","665792af4bef0a0d27ea5a9d","216","stimuli/10000011.jpg"," ","","feedback_trial","1","","","","","","","","","","","","","","","","","","","","",""
"","","","","","image-keyboard-response","194","116096","0.0-169.0","6036f9b3b1842f8b659b18c7","665500ab8938657b03fbdba8","665792af4bef0a0d27ea5a9d","101","stimuli/1010000.jpg","1","","prediction_trial","1","","true","","1","true","true","false","true","false","true","[1]","010","000","1","","","","","","",""
"","","","","","image-keyboard-response","195","116315","0.0-170.0","6036f9b3b1842f8b659b18c7","665500ab8938657b03fbdba8","665792af4bef0a0d27ea5a9d","218","stimuli/10100001.jpg"," ","","feedback_trial","1","","","","","","","","","","","","","","","","","","","","",""
"","","","","","image-keyboard-response","196","116395","0.0-171.0","6036f9b3b1842f8b659b18c7","665500ab8938657b03fbdba8","665792af4bef0a0d27ea5a9d","79","stimuli/2001010.jpg","1","","prediction_trial","2","","false","","2","true","true","false","true","false","true","[2]","001","010","0","","","","","","",""
"","","","","","image-keyboard-response","197","116620","0.0-172.0","6036f9b3b1842f8b659b18c7","665500ab8938657b03fbdba8","665792af4bef0a0d27ea5a9d","224","stimuli/20010102.jpg"," ","","feedback_trial","2","","","","","","","","","","","","","","","","","","","","",""
"","","","","","image-keyboard-response","198","116673","0.0-173.0","6036f9b3b1842f8b659b18c7","665500ab8938657b03fbdba8","665792af4bef0a0d27ea5a9d","51","stimuli/0001110.jpg","1","","prediction_trial","0","","false","","0","false","false","true","true","false","false","[0]","001","110","0","","","","","","",""
"","","","","","image-keyboard-response","199","116903","0.0-174.0","6036f9b3b1842f8b659b18c7","665500ab8938657b03fbdba8","665792af4bef0a0d27ea5a9d","228","stimuli/00011100.jpg"," ","","feedback_trial","0","","","","","","","","","","","","","","","","","","","","",""
"","","","","","image-keyboard-response","200","116979","0.0-175.0","6036f9b3b1842f8b659b18c7","665500ab8938657b03fbdba8","665792af4bef0a0d27ea5a9d","75","stimuli/2010011.jpg","1","","prediction_trial","2","","false","","2","false","false","true","true","false","false","[2]","010","011","0","","","","","","",""
"","","","","","image-keyboard-response","201","117183","0.0-176.0","6036f9b3b1842f8b659b18c7","665500ab8938657b03fbdba8","665792af4bef0a0d27ea5a9d","203","stimuli/20100112.jpg"," ","","feedback_trial","2","","","","","","","","","","","","","","","","","","","","",""
"","","","","","image-keyboard-response","202","117355","0.0-177.0","6036f9b3b1842f8b659b18c7","665500ab8938657b03fbdba8","665792af4bef0a0d27ea5a9d","171","stimuli/2110110.jpg","1","","prediction_trial","2","","false","","2","true","true","true","true","true","true","[2]","110","110","0","","","","","","",""
"","","","","","image-keyboard-response","203","117513","0.0-178.0","6036f9b3b1842f8b659b18c7","665500ab8938657b03fbdba8","665792af4bef0a0d27ea5a9d","157","stimuli/21101102.jpg"," ","","feedback_trial","2","","","","","","","","","","","","","","","","","","","","",""
"","","","","","image-keyboard-response","204","117819","0.0-179.0","6036f9b3b1842f8b659b18c7","665500ab8938657b03fbdba8","665792af4bef0a0d27ea5a9d","305","stimuli/0111001.jpg","1","","prediction_trial","1","","true","","0","true","true","false","false","false","false","[0,1,2]","111","001","1","","","","","","",""
"","","","","","image-keyboard-response","205","117849","0.0-180.0","6036f9b3b1842f8b659b18c7","665500ab8938657b03fbdba8","665792af4bef0a0d27ea5a9d","28","stimuli/01110011.jpg"," ","","feedback_trial","0","","","","","","","","","","","","","","","","","","","","",""
"","","","","","image-keyboard-response","206","118100","0.0-181.0","6036f9b3b1842f8b659b18c7","665500ab8938657b03fbdba8","665792af4bef0a0d27ea5a9d","249","stimuli/0110011.jpg","1","","prediction_trial","1","","true","","0","true","true","false","false","false","false","[1,0]","110","011","1","","","","","","",""
"","","","","","image-keyboard-response","207","118139","0.0-182.0","6036f9b3b1842f8b659b18c7","665500ab8938657b03fbdba8","665792af4bef0a0d27ea5a9d","37","stimuli/01100111.jpg"," ","","feedback_trial","1","","","","","","","","","","","","","","","","","","","","",""
"","","","","","image-keyboard-response","208","118260","0.0-183.0","6036f9b3b1842f8b659b18c7","665500ab8938657b03fbdba8","665792af4bef0a0d27ea5a9d","120","stimuli/0000000.jpg","0","","prediction_trial","0","","true","","0","true","true","true","true","true","true","[0]","000","000","1","","","","","","",""
"","","","","","image-keyboard-response","209","118475","0.0-184.0","6036f9b3b1842f8b659b18c7","665500ab8938657b03fbdba8","665792af4bef0a0d27ea5a9d","212","stimuli/00000000.jpg"," ","","feedback_trial","0","","","","","","","","","","","","","","","","","","","","",""
"","","","","","image-keyboard-response","210","118713","0.0-185.0","6036f9b3b1842f8b659b18c7","665500ab8938657b03fbdba8","665792af4bef0a0d27ea5a9d","235","stimuli/1010001.jpg","0","","prediction_trial","1","","false","","1","true","true","false","true","false","true","[1]","010","001","0","","","","","","",""
"","","","","","image-keyboard-response","211","118752","0.0-186.0","6036f9b3b1842f8b659b18c7","665500ab8938657b03fbdba8","665792af4bef0a0d27ea5a9d","38","stimuli/10100011.jpg"," ","","feedback_trial","1","","","","","","","","","","","","","","","","","","","","",""
"","","","","","image-keyboard-response","212","119098","0.0-187.0","6036f9b3b1842f8b659b18c7","665500ab8938657b03fbdba8","665792af4bef0a0d27ea5a9d","345","stimuli/2100111.jpg","0","","prediction_trial","2","","false","","2","false","false","true","true","false","false","[2]","100","111","0","","","","","","",""
"","","","","","image-keyboard-response","213","119405","0.0-188.0","6036f9b3b1842f8b659b18c7","665500ab8938657b03fbdba8","665792af4bef0a0d27ea5a9d","305","stimuli/21001112.jpg"," ","","feedback_trial","2","","","","","","","","","","","","","","","","","","","","",""
"","","","","","image-keyboard-response","214","124378","0.0-189.0","6036f9b3b1842f8b659b18c7","665500ab8938657b03fbdba8","665792af4bef0a0d27ea5a9d","4972","stimuli/0111110.jpg","1","","prediction_trial","0","","false","","0","false","false","false","false","false","false","[2,0,1]","111","110","0","","","","","","",""
"","","","","","image-keyboard-response","215","125404","0.0-190.0","6036f9b3b1842f8b659b18c7","665500ab8938657b03fbdba8","665792af4bef0a0d27ea5a9d","1024","stimuli/01111100.jpg"," ","","feedback_trial","2","","","","","","","","","","","","","","","","","","","","",""
"","","","","","image-keyboard-response","216","125633","0.0-191.0","6036f9b3b1842f8b659b18c7","665500ab8938657b03fbdba8","665792af4bef0a0d27ea5a9d","228","stimuli/0100011.jpg","0","","prediction_trial","0","","true","","0","true","true","false","true","false","true","[0]","100","011","1","","","","","","",""
"","","","","","image-keyboard-response","217","125827","0.0-192.0","6036f9b3b1842f8b659b18c7","665500ab8938657b03fbdba8","665792af4bef0a0d27ea5a9d","193","stimuli/01000110.jpg"," ","","feedback_trial","0","","","","","","","","","","","","","","","","","","","","",""
"","","","","","image-keyboard-response","218","125877","0.0-193.0","6036f9b3b1842f8b659b18c7","665500ab8938657b03fbdba8","665792af4bef0a0d27ea5a9d","48","stimuli/2110001.jpg","0","","prediction_trial","2","","false","","2","false","true","true","true","false","true","[2]","110","001","0","","","","","","",""
"","","","","","image-keyboard-response","219","126490","0.0-194.0","6036f9b3b1842f8b659b18c7","665500ab8938657b03fbdba8","665792af4bef0a0d27ea5a9d","612","stimuli/21100012.jpg"," ","","feedback_trial","2","","","","","","","","","","","","","","","","","","","","",""
"","","","","","image-keyboard-response","220","126565","0.0-195.0","6036f9b3b1842f8b659b18c7","665500ab8938657b03fbdba8","665792af4bef0a0d27ea5a9d","74","stimuli/1100110.jpg","0","","prediction_trial","1","","false","","1","false","false","true","true","false","false","[1]","100","110","0","","","","","","",""
"","","","","","image-keyboard-response","221","126781","0.0-196.0","6036f9b3b1842f8b659b18c7","665500ab8938657b03fbdba8","665792af4bef0a0d27ea5a9d","215","stimuli/11001101.jpg"," ","","feedback_trial","1","","","","","","","","","","","","","","","","","","","","",""
"","","","","","image-keyboard-response","222","126848","0.0-197.0","6036f9b3b1842f8b659b18c7","665500ab8938657b03fbdba8","665792af4bef0a0d27ea5a9d","66","stimuli/0111010.jpg","0","","prediction_trial","1","","false","","0","true","true","false","false","false","false","[2,0,1]","111","010","0","","","","","","",""
"","","","","","image-keyboard-response","223","126953","0.0-198.0","6036f9b3b1842f8b659b18c7","665500ab8938657b03fbdba8","665792af4bef0a0d27ea5a9d","104","stimuli/01110101.jpg"," ","","feedback_trial","2","","","","","","","","","","","","","","","","","","","","",""
"","","","","","image-keyboard-response","224","126970","0.0-199.0","6036f9b3b1842f8b659b18c7","665500ab8938657b03fbdba8","665792af4bef0a0d27ea5a9d","17","stimuli/0010001.jpg","0","","prediction_trial","0","","true","","0","true","true","true","true","true","true","[0]","010","001","1","","","","","","",""
"","","","","","image-keyboard-response","225","127239","0.0-200.0","6036f9b3b1842f8b659b18c7","665500ab8938657b03fbdba8","665792af4bef0a0d27ea5a9d","268","stimuli/00100010.jpg"," ","","feedback_trial","0","","","","","","","","","","","","","","","","","","","","",""
"","","","","","image-keyboard-response","226","127349","0.0-201.0","6036f9b3b1842f8b659b18c7","665500ab8938657b03fbdba8","665792af4bef0a0d27ea5a9d","108","stimuli/2000110.jpg","1","","prediction_trial","2","","false","","2","true","true","true","true","true","true","[2]","000","110","0","","","","","","",""
"","","","","","image-keyboard-response","227","127478","0.0-202.0","6036f9b3b1842f8b659b18c7","665500ab8938657b03fbdba8","665792af4bef0a0d27ea5a9d","128","stimuli/20001102.jpg"," ","","feedback_trial","2","","","","","","","","","","","","","","","","","","","","",""
"","","","","","image-keyboard-response","228","127548","0.0-203.0","6036f9b3b1842f8b659b18c7","665500ab8938657b03fbdba8","665792af4bef0a0d27ea5a9d","69","stimuli/1111011.jpg","0","","prediction_trial","0","","true","","1","false","false","false","false","false","false","[1,2,0]","111","011","1","","","","","","",""
"","","","","","image-keyboard-response","229","128554","0.0-204.0","6036f9b3b1842f8b659b18c7","665500ab8938657b03fbdba8","665792af4bef0a0d27ea5a9d","1003","stimuli/11110110.jpg"," ","","feedback_trial","1","","","","","","","","","","","","","","","","","","","","",""
"","","","","","image-keyboard-response","230","128593","0.0-205.0","6036f9b3b1842f8b659b18c7","665500ab8938657b03fbdba8","665792af4bef0a0d27ea5a9d","36","stimuli/0111011.jpg","0","","prediction_trial","0","","true","","0","true","true","false","false","false","false","[2,0,1]","111","011","1","","","","","","",""
"","","","","","image-keyboard-response","231","128877","0.0-206.0","6036f9b3b1842f8b659b18c7","665500ab8938657b03fbdba8","665792af4bef0a0d27ea5a9d","282","stimuli/01110110.jpg"," ","","feedback_trial","2","","","","","","","","","","","","","","","","","","","","",""
"","","","","","image-keyboard-response","232","129009","0.0-207.0","6036f9b3b1842f8b659b18c7","665500ab8938657b03fbdba8","665792af4bef0a0d27ea5a9d","131","stimuli/1000110.jpg","1","","prediction_trial","1","","true","","1","false","false","true","true","false","false","[1]","000","110","1","","","","","","",""
"","","","","","image-keyboard-response","233","129094","0.0-208.0","6036f9b3b1842f8b659b18c7","665500ab8938657b03fbdba8","665792af4bef0a0d27ea5a9d","84","stimuli/10001101.jpg"," ","","feedback_trial","1","","","","","","","","","","","","","","","","","","","","",""
"","","","","","image-keyboard-response","234","129237","0.0-209.0","6036f9b3b1842f8b659b18c7","665500ab8938657b03fbdba8","665792af4bef0a0d27ea5a9d","140","stimuli/1011100.jpg","0","","prediction_trial","2","","false","","1","true","true","false","false","false","false","[2,1]","011","100","0","","","","","","",""
"","","","","","image-keyboard-response","235","129353","0.0-210.0","6036f9b3b1842f8b659b18c7","665500ab8938657b03fbdba8","665792af4bef0a0d27ea5a9d","115","stimuli/10111002.jpg"," ","","feedback_trial","2","","","","","","","","","","","","","","","","","","","","",""
"","","","","","image-keyboard-response","236","129467","0.0-211.0","6036f9b3b1842f8b659b18c7","665500ab8938657b03fbdba8","665792af4bef0a0d27ea5a9d","112","stimuli/0111101.jpg","0","","prediction_trial","0","","true","","0","false","false","false","false","false","false","[2,1,0]","111","101","1","","","","","","",""
"","","","","","image-keyboard-response","237","129571","0.0-212.0","6036f9b3b1842f8b659b18c7","665500ab8938657b03fbdba8","665792af4bef0a0d27ea5a9d","103","stimuli/01111010.jpg"," ","","feedback_trial","2","","","","","","","","","","","","","","","","","","","","",""
"","","","","","image-keyboard-response","238","129694","0.0-213.0","6036f9b3b1842f8b659b18c7","665500ab8938657b03fbdba8","665792af4bef0a0d27ea5a9d","122","stimuli/2001101.jpg","1","","prediction_trial","2","","false","","2","false","false","false","true","false","false","[2]","001","101","0","","","","","","",""
"","","","","","image-keyboard-response","239","129756","0.0-214.0","6036f9b3b1842f8b659b18c7","665500ab8938657b03fbdba8","665792af4bef0a0d27ea5a9d","60","stimuli/20011012.jpg"," ","","feedback_trial","2","","","","","","","","","","","","","","","","","","","","",""
"","","","","","image-keyboard-response","240","129899","0.0-215.0","6036f9b3b1842f8b659b18c7","665500ab8938657b03fbdba8","665792af4bef0a0d27ea5a9d","142","stimuli/2111110.jpg","1","","prediction_trial","0","","false","","2","true","true","false","false","false","false","[0,2,1]","111","110","0","","","","","","",""
"","","","","","image-keyboard-response","241","130008","0.0-216.0","6036f9b3b1842f8b659b18c7","665500ab8938657b03fbdba8","665792af4bef0a0d27ea5a9d","107","stimuli/21111100.jpg"," ","","feedback_trial","0","","","","","","","","","","","","","","","","","","","","",""
"","","","","","image-keyboard-response","242","130127","0.0-217.0","6036f9b3b1842f8b659b18c7","665500ab8938657b03fbdba8","665792af4bef0a0d27ea5a9d","117","stimuli/2100110.jpg","1","","prediction_trial","2","","false","","2","true","true","true","true","true","true","[2]","100","110","0","","","","","","",""
"","","","","","image-keyboard-response","243","130359","0.0-218.0","6036f9b3b1842f8b659b18c7","665500ab8938657b03fbdba8","665792af4bef0a0d27ea5a9d","231","stimuli/21001102.jpg"," ","","feedback_trial","2","","","","","","","","","","","","","","","","","","","","",""
"","","","","","image-keyboard-response","244","130601","0.0-219.0","6036f9b3b1842f8b659b18c7","665500ab8938657b03fbdba8","665792af4bef0a0d27ea5a9d","240","stimuli/2011011.jpg","2","","prediction_trial","1","","false","","2","false","false","false","false","false","false","[1,2]","011","011","0","","","","","","",""
"","","","","","image-keyboard-response","245","130608","0.0-220.0","6036f9b3b1842f8b659b18c7","665500ab8938657b03fbdba8","665792af4bef0a0d27ea5a9d","6","stimuli/20110111.jpg"," ","","feedback_trial","1","","","","","","","","","","","","","","","","","","","","",""
"","","","","","image-keyboard-response","246","130773","0.0-221.0","6036f9b3b1842f8b659b18c7","665500ab8938657b03fbdba8","665792af4bef0a0d27ea5a9d","163","stimuli/1101110.jpg","2","","prediction_trial","1","","false","","1","false","false","true","true","false","false","[1]","101","110","0","","","","","","",""
"","","","","","image-keyboard-response","247","130839","0.0-222.0","6036f9b3b1842f8b659b18c7","665500ab8938657b03fbdba8","665792af4bef0a0d27ea5a9d","65","stimuli/11011101.jpg"," ","","feedback_trial","1","","","","","","","","","","","","","","","","","","","","",""
"","","","","","image-keyboard-response","248","131105","0.0-223.0","6036f9b3b1842f8b659b18c7","665500ab8938657b03fbdba8","665792af4bef0a0d27ea5a9d","264","stimuli/2100001.jpg","2","","prediction_trial","2","","true","","2","false","true","true","true","false","true","[2]","100","001","1","","","","","","",""
"","","","","","image-keyboard-response","249","131313","0.0-224.0","6036f9b3b1842f8b659b18c7","665500ab8938657b03fbdba8","665792af4bef0a0d27ea5a9d","206","stimuli/21000012.jpg"," ","","feedback_trial","2","","","","","","","","","","","","","","","","","","","","",""
"","","","","","image-keyboard-response","250","131431","0.0-225.0","6036f9b3b1842f8b659b18c7","665500ab8938657b03fbdba8","665792af4bef0a0d27ea5a9d","118","stimuli/1000000.jpg","1","","prediction_trial","1","","true","","1","true","true","true","true","true","true","[1]","000","000","1","","","","","","",""
"","","","","","image-keyboard-response","251","131742","0.0-226.0","6036f9b3b1842f8b659b18c7","665500ab8938657b03fbdba8","665792af4bef0a0d27ea5a9d","309","stimuli/10000001.jpg"," ","","feedback_trial","1","","","","","","","","","","","","","","","","","","","","",""
"","","","","","image-keyboard-response","252","131780","0.0-227.0","6036f9b3b1842f8b659b18c7","665500ab8938657b03fbdba8","665792af4bef0a0d27ea5a9d","37","stimuli/0101101.jpg","2","","prediction_trial","2","","true","","0","false","false","false","false","false","false","[2,0]","101","101","1","","","","","","",""
"","","","","","image-keyboard-response","253","132916","0.0-228.0","6036f9b3b1842f8b659b18c7","665500ab8938657b03fbdba8","665792af4bef0a0d27ea5a9d","1135","stimuli/01011012.jpg"," ","","feedback_trial","2","","","","","","","","","","","","","","","","","","","","",""
"","","","","","image-keyboard-response","254","132967","0.0-229.0","6036f9b3b1842f8b659b18c7","665500ab8938657b03fbdba8","665792af4bef0a0d27ea5a9d","51","stimuli/1111100.jpg","1","","prediction_trial","2","","false","","1","true","true","false","false","false","false","[1,2,0]","111","100","0","","","","","","",""
"","","","","","image-keyboard-response","255","133207","0.0-230.0","6036f9b3b1842f8b659b18c7","665500ab8938657b03fbdba8","665792af4bef0a0d27ea5a9d","238","stimuli/11111002.jpg"," ","","feedback_trial","1","","","","","","","","","","","","","","","","","","","","",""
"","","","","","image-keyboard-response","256","133440","0.0-231.0","6036f9b3b1842f8b659b18c7","665500ab8938657b03fbdba8","665792af4bef0a0d27ea5a9d","232","stimuli/2000010.jpg","1","","prediction_trial","2","","false","","2","true","true","true","true","true","true","[2]","000","010","0","","","","","","",""
"","","","","","image-keyboard-response","257","133469","0.0-232.0","6036f9b3b1842f8b659b18c7","665500ab8938657b03fbdba8","665792af4bef0a0d27ea5a9d","28","stimuli/20000102.jpg"," ","","feedback_trial","2","","","","","","","","","","","","","","","","","","","","",""
"","","","","","image-keyboard-response","258","133693","0.0-233.0","6036f9b3b1842f8b659b18c7","665500ab8938657b03fbdba8","665792af4bef0a0d27ea5a9d","212","stimuli/0110100.jpg","1","","prediction_trial","1","","true","","0","false","true","false","false","false","false","[1,0]","110","100","1","","","","","","",""
"","","","","","image-keyboard-response","259","133854","0.0-234.0","6036f9b3b1842f8b659b18c7","665500ab8938657b03fbdba8","665792af4bef0a0d27ea5a9d","159","stimuli/01101001.jpg"," ","","feedback_trial","1","","","","","","","","","","","","","","","","","","","","",""
"","","","","","image-keyboard-response","260","133991","0.0-235.0","6036f9b3b1842f8b659b18c7","665500ab8938657b03fbdba8","665792af4bef0a0d27ea5a9d","136","stimuli/2011101.jpg","1","","prediction_trial","2","","false","","2","false","false","false","false","false","false","[1,2]","011","101","0","","","","","","",""
"","","","","","image-keyboard-response","261","134047","0.0-236.0","6036f9b3b1842f8b659b18c7","665500ab8938657b03fbdba8","665792af4bef0a0d27ea5a9d","56","stimuli/20111012.jpg"," ","","feedback_trial","1","","","","","","","","","","","","","","","","","","","","",""
"","","","","","image-keyboard-response","262","134238","0.0-237.0","6036f9b3b1842f8b659b18c7","665500ab8938657b03fbdba8","665792af4bef0a0d27ea5a9d","189","stimuli/2101000.jpg","1","","prediction_trial","0","","false","","2","true","true","false","false","false","false","[0,2]","101","000","0","","","","","","",""
"","","","","","image-keyboard-response","263","134274","0.0-238.0","6036f9b3b1842f8b659b18c7","665500ab8938657b03fbdba8","665792af4bef0a0d27ea5a9d","34","stimuli/21010000.jpg"," ","","feedback_trial","0","","","","","","","","","","","","","","","","","","","","",""
"","","","","","image-keyboard-response","264","134471","0.0-239.0","6036f9b3b1842f8b659b18c7","665500ab8938657b03fbdba8","665792af4bef0a0d27ea5a9d","196","stimuli/1011101.jpg","1","","prediction_trial","2","","false","","1","true","true","false","false","false","false","[1,2]","011","101","0","","","","","","",""
"","","","","","image-keyboard-response","265","134521","0.0-240.0","6036f9b3b1842f8b659b18c7","665500ab8938657b03fbdba8","665792af4bef0a0d27ea5a9d","49","stimuli/10111012.jpg"," ","","feedback_trial","1","","","","","","","","","","","","","","","","","","","","",""
"","","","","","image-keyboard-response","266","134716","0.0-241.0","6036f9b3b1842f8b659b18c7","665500ab8938657b03fbdba8","665792af4bef0a0d27ea5a9d","193","stimuli/1100100.jpg","1","","prediction_trial","1","","true","","1","true","true","true","true","true","true","[1]","100","100","1","","","","","","",""
"","","","","","image-keyboard-response","267","134805","0.0-242.0","6036f9b3b1842f8b659b18c7","665500ab8938657b03fbdba8","665792af4bef0a0d27ea5a9d","87","stimuli/11001001.jpg"," ","","feedback_trial","1","","","","","","","","","","","","","","","","","","","","",""
"","","","","","image-keyboard-response","268","134964","0.0-243.0","6036f9b3b1842f8b659b18c7","665500ab8938657b03fbdba8","665792af4bef0a0d27ea5a9d","157","stimuli/0011010.jpg","1","","prediction_trial","0","","false","","0","true","true","true","true","true","true","[0]","011","010","0","","","","","","",""
"","","","","","image-keyboard-response","269","135027","0.0-244.0","6036f9b3b1842f8b659b18c7","665500ab8938657b03fbdba8","665792af4bef0a0d27ea5a9d","62","stimuli/00110100.jpg"," ","","feedback_trial","0","","","","","","","","","","","","","","","","","","","","",""
"","","","","","image-keyboard-response","270","135208","0.0-245.0","6036f9b3b1842f8b659b18c7","665500ab8938657b03fbdba8","665792af4bef0a0d27ea5a9d","180","stimuli/1000100.jpg","1","","prediction_trial","1","","true","","1","true","true","true","true","true","true","[1]","000","100","1","","","","","","",""
"","","","","","image-keyboard-response","271","135277","0.0-246.0","6036f9b3b1842f8b659b18c7","665500ab8938657b03fbdba8","665792af4bef0a0d27ea5a9d","67","stimuli/10001001.jpg"," ","","feedback_trial","1","","","","","","","","","","","","","","","","","","","","",""
"","","","","","image-keyboard-response","272","135442","0.0-247.0","6036f9b3b1842f8b659b18c7","665500ab8938657b03fbdba8","665792af4bef0a0d27ea5a9d","164","stimuli/2111001.jpg","1","","prediction_trial","0","","false","","2","false","true","false","false","false","false","[0,1,2]","111","001","0","","","","","","",""
"","","","","","image-keyboard-response","273","135502","0.0-248.0","6036f9b3b1842f8b659b18c7","665500ab8938657b03fbdba8","665792af4bef0a0d27ea5a9d","58","stimuli/21110010.jpg"," ","","feedback_trial","0","","","","","","","","","","","","","","","","","","","","",""
"","","","","","image-keyboard-response","274","135693","0.0-249.0","6036f9b3b1842f8b659b18c7","665500ab8938657b03fbdba8","665792af4bef0a0d27ea5a9d","190","stimuli/1110001.jpg","1","","prediction_trial","1","","true","","1","true","true","false","false","false","false","[1,0]","110","001","1","","","","","","",""
"","","","","","image-keyboard-response","275","136811","0.0-250.0","6036f9b3b1842f8b659b18c7","665500ab8938657b03fbdba8","665792af4bef0a0d27ea5a9d","1116","stimuli/11100011.jpg"," ","","feedback_trial","1","","","","","","","","","","","","","","","","","","","","",""
"","","","","","image-keyboard-response","276","136822","0.0-251.0","6036f9b3b1842f8b659b18c7","665500ab8938657b03fbdba8","665792af4bef0a0d27ea5a9d","10","stimuli/2010101.jpg","1","","prediction_trial","2","","false","","2","false","false","true","true","false","false","[2]","010","101","0","","","","","","",""
"","","","","","image-keyboard-response","277","137081","0.0-252.0","6036f9b3b1842f8b659b18c7","665500ab8938657b03fbdba8","665792af4bef0a0d27ea5a9d","258","stimuli/20101012.jpg"," ","","feedback_trial","2","","","","","","","","","","","","","","","","","","","","",""
"","","","","","image-keyboard-response","278","137275","0.0-253.0","6036f9b3b1842f8b659b18c7","665500ab8938657b03fbdba8","665792af4bef0a0d27ea5a9d","193","stimuli/1100111.jpg","1","","prediction_trial","1","","true","","1","false","false","true","true","false","false","[1]","100","111","1","","","","","","",""
"","","","","","image-keyboard-response","279","137335","0.0-254.0","6036f9b3b1842f8b659b18c7","665500ab8938657b03fbdba8","665792af4bef0a0d27ea5a9d","59","stimuli/11001111.jpg"," ","","feedback_trial","1","","","","","","","","","","","","","","","","","","","","",""
"","","","","","image-keyboard-response","280","137556","0.0-255.0","6036f9b3b1842f8b659b18c7","665500ab8938657b03fbdba8","665792af4bef0a0d27ea5a9d","220","stimuli/1011010.jpg","1","","prediction_trial","2","","false","","1","false","true","false","false","false","false","[1,2]","011","010","0","","","","","","",""
"","","","","","image-keyboard-response","281","137992","0.0-256.0","6036f9b3b1842f8b659b18c7","665500ab8938657b03fbdba8","665792af4bef0a0d27ea5a9d","434","stimuli/10110102.jpg"," ","","feedback_trial","1","","","","","","","","","","","","","","","","","","","","",""
"","","","","","image-keyboard-response","282","138039","0.0-257.0","6036f9b3b1842f8b659b18c7","665500ab8938657b03fbdba8","665792af4bef0a0d27ea5a9d","45","stimuli/1110110.jpg","1","","prediction_trial","0","","false","","1","false","false","false","false","false","false","[0,1]","110","110","0","","","","","","",""
"","","","","","image-keyboard-response","283","138309","0.0-258.0","6036f9b3b1842f8b659b18c7","665500ab8938657b03fbdba8","665792af4bef0a0d27ea5a9d","269","stimuli/11101100.jpg"," ","","feedback_trial","0","","","","","","","","","","","","","","","","","","","","",""
"","","","","","image-keyboard-response","284","138432","0.0-259.0","6036f9b3b1842f8b659b18c7","665500ab8938657b03fbdba8","665792af4bef0a0d27ea5a9d","122","stimuli/1011110.jpg","2","","prediction_trial","1","","false","","1","false","false","false","false","false","false","[2,1]","011","110","0","","","","","","",""
"","","","","","image-keyboard-response","285","138692","0.0-260.0","6036f9b3b1842f8b659b18c7","665500ab8938657b03fbdba8","665792af4bef0a0d27ea5a9d","259","stimuli/10111101.jpg"," ","","feedback_trial","2","","","","","","","","","","","","","","","","","","","","",""
"","","","","","image-keyboard-response","286","138850","0.0-261.0","6036f9b3b1842f8b659b18c7","665500ab8938657b03fbdba8","665792af4bef0a0d27ea5a9d","156","stimuli/1001101.jpg","0","","prediction_trial","1","","false","","1","true","true","true","true","true","true","[1]","001","101","0","","","","","","",""
"","","","","","image-keyboard-response","287","138984","0.0-262.0","6036f9b3b1842f8b659b18c7","665500ab8938657b03fbdba8","665792af4bef0a0d27ea5a9d","131","stimuli/10011011.jpg"," ","","feedback_trial","1","","","","","","","","","","","","","","","","","","","","",""
"","","","","","image-keyboard-response","288","138992","0.0-263.0","6036f9b3b1842f8b659b18c7","665500ab8938657b03fbdba8","665792af4bef0a0d27ea5a9d","6","stimuli/0101010.jpg","2","","prediction_trial","2","","true","","0","true","true","false","false","false","false","[2,0]","101","010","1","","","","","","",""
"","","","","","image-keyboard-response","289","139252","0.0-264.0","6036f9b3b1842f8b659b18c7","665500ab8938657b03fbdba8","665792af4bef0a0d27ea5a9d","259","stimuli/01010102.jpg"," ","","feedback_trial","2","","","","","","","","","","","","","","","","","","","","",""
"","","","","","image-keyboard-response","290","139262","0.0-265.0","6036f9b3b1842f8b659b18c7","665500ab8938657b03fbdba8","665792af4bef0a0d27ea5a9d","8","stimuli/2100101.jpg","2","","prediction_trial","2","","true","","2","false","false","true","true","false","false","[2]","100","101","1","","","","","","",""
"","","","","","image-keyboard-response","291","139832","0.0-266.0","6036f9b3b1842f8b659b18c7","665500ab8938657b03fbdba8","665792af4bef0a0d27ea5a9d","568","stimuli/21001012.jpg"," ","","feedback_trial","2","","","","","","","","","","","","","","","","","","","","",""
"","","","","","image-keyboard-response","292","139850","0.0-267.0","6036f9b3b1842f8b659b18c7","665500ab8938657b03fbdba8","665792af4bef0a0d27ea5a9d","17","stimuli/2100011.jpg","2","","prediction_trial","2","","true","","2","false","false","true","true","false","false","[2]","100","011","1","","","","","","",""
"","","","","","image-keyboard-response","293","139858","0.0-268.0","6036f9b3b1842f8b659b18c7","665500ab8938657b03fbdba8","665792af4bef0a0d27ea5a9d","5","stimuli/21000112.jpg"," ","","feedback_trial","2","","","","","","","","","","","","","","","","","","","","",""
"","","","","","image-keyboard-response","294","139862","0.0-269.0","6036f9b3b1842f8b659b18c7","665500ab8938657b03fbdba8","665792af4bef0a0d27ea5a9d","3","stimuli/2001110.jpg","2","","prediction_trial","2","","true","","2","true","true","false","true","false","true","[2]","001","110","1","","","","","","",""
"","","","","","image-keyboard-response","295","140038","0.0-270.0","6036f9b3b1842f8b659b18c7","665500ab8938657b03fbdba8","665792af4bef0a0d27ea5a9d","170","stimuli/20011102.jpg"," ","","feedback_trial","2","","","","","","","","","","","","","","","","","","","","",""
"","","","","","image-keyboard-response","296","140163","0.0-271.0","6036f9b3b1842f8b659b18c7","665500ab8938657b03fbdba8","665792af4bef0a0d27ea5a9d","123","stimuli/1001001.jpg","0","","prediction_trial","1","","false","","1","true","true","true","true","true","true","[1]","001","001","0","","","","","","",""
"","","","","","image-keyboard-response","297","140293","0.0-272.0","6036f9b3b1842f8b659b18c7","665500ab8938657b03fbdba8","665792af4bef0a0d27ea5a9d","127","stimuli/10010011.jpg"," ","","feedback_trial","1","","","","","","","","","","","","","","","","","","","","",""
"","","","","","image-keyboard-response","298","140304","0.0-273.0","6036f9b3b1842f8b659b18c7","665500ab8938657b03fbdba8","665792af4bef0a0d27ea5a9d","10","stimuli/0001100.jpg","2","","prediction_trial","0","","false","","0","false","true","true","true","false","true","[0]","001","100","0","","","","","","",""
"","","","","","image-keyboard-response","299","140486","0.0-274.0","6036f9b3b1842f8b659b18c7","665500ab8938657b03fbdba8","665792af4bef0a0d27ea5a9d","181","stimuli/00011000.jpg"," ","","feedback_trial","0","","","","","","","","","","","","","","","","","","","","",""
"","","","","","image-keyboard-response","300","140680","0.0-275.0","6036f9b3b1842f8b659b18c7","665500ab8938657b03fbdba8","665792af4bef0a0d27ea5a9d","193","stimuli/1100011.jpg","1","","prediction_trial","1","","true","","1","false","false","true","true","false","false","[1]","100","011","1","","","","","","",""
"","","","","","image-keyboard-response","301","140697","0.0-276.0","6036f9b3b1842f8b659b18c7","665500ab8938657b03fbdba8","665792af4bef0a0d27ea5a9d","14","stimuli/11000111.jpg"," ","","feedback_trial","1","","","","","","","","","","","","","","","","","","","","",""
"","","","","","image-keyboard-response","302","140814","0.0-277.0","6036f9b3b1842f8b659b18c7","665500ab8938657b03fbdba8","665792af4bef0a0d27ea5a9d","115","stimuli/2010001.jpg","2","","prediction_trial","2","","true","","2","false","true","true","true","false","true","[2]","010","001","1","","","","","","",""
"","","","","","image-keyboard-response","303","141310","0.0-278.0","6036f9b3b1842f8b659b18c7","665500ab8938657b03fbdba8","665792af4bef0a0d27ea5a9d","494","stimuli/20100012.jpg"," ","","feedback_trial","2","","","","","","","","","","","","","","","","","","","","",""
"","","","","","image-keyboard-response","304","141559","0.0-279.0","6036f9b3b1842f8b659b18c7","665500ab8938657b03fbdba8","665792af4bef0a0d27ea5a9d","246","stimuli/2011001.jpg","0","","prediction_trial","1","","false","","2","false","true","false","false","false","false","[2,1]","011","001","0","","","","","","",""
"","","","","","image-keyboard-response","305","141567","0.0-280.0","6036f9b3b1842f8b659b18c7","665500ab8938657b03fbdba8","665792af4bef0a0d27ea5a9d","7","stimuli/20110011.jpg"," ","","feedback_trial","2","","","","","","","","","","","","","","","","","","","","",""
"","","","","","image-keyboard-response","306","141579","0.0-281.0","6036f9b3b1842f8b659b18c7","665500ab8938657b03fbdba8","665792af4bef0a0d27ea5a9d","10","stimuli/0000011.jpg","2","","prediction_trial","0","","false","","0","true","true","true","true","true","true","[0]","000","011","0","","","","","","",""
"","","","","","image-keyboard-response","307","141884","0.0-282.0","6036f9b3b1842f8b659b18c7","665500ab8938657b03fbdba8","665792af4bef0a0d27ea5a9d","304","stimuli/00000110.jpg"," ","","feedback_trial","0","","","","","","","","","","","","","","","","","","","","",""
"","","","","","image-keyboard-response","308","142118","0.0-283.0","6036f9b3b1842f8b659b18c7","665500ab8938657b03fbdba8","665792af4bef0a0d27ea5a9d","232","stimuli/1101000.jpg","0","","prediction_trial","1","","false","","1","true","true","true","true","true","true","[1]","101","000","0","","","","","","",""
"","","","","","image-keyboard-response","309","142275","0.0-284.0","6036f9b3b1842f8b659b18c7","665500ab8938657b03fbdba8","665792af4bef0a0d27ea5a9d","155","stimuli/11010001.jpg"," ","","feedback_trial","1","","","","","","","","","","","","","","","","","","","","",""
"","","","","","image-keyboard-response","310","142287","0.0-285.0","6036f9b3b1842f8b659b18c7","665500ab8938657b03fbdba8","665792af4bef0a0d27ea5a9d","10","stimuli/0001010.jpg","2","","prediction_trial","0","","false","","0","true","true","true","true","true","true","[0]","001","010","0","","","","","","",""
"","","","","","image-keyboard-response","311","142454","0.0-286.0","6036f9b3b1842f8b659b18c7","665500ab8938657b03fbdba8","665792af4bef0a0d27ea5a9d","165","stimuli/00010100.jpg"," ","","feedback_trial","0","","","","","","","","","","","","","","","","","","","","",""
"","","","","","image-keyboard-response","312","142485","0.0-287.0","6036f9b3b1842f8b659b18c7","665500ab8938657b03fbdba8","665792af4bef0a0d27ea5a9d","29","stimuli/2100000.jpg","1","","prediction_trial","2","","false","","2","true","true","true","true","true","true","[2]","100","000","0","","","","","","",""
"","","","","","image-keyboard-response","313","142816","0.0-288.0","6036f9b3b1842f8b659b18c7","665500ab8938657b03fbdba8","665792af4bef0a0d27ea5a9d","330","stimuli/21000002.jpg"," ","","feedback_trial","2","","","","","","","","","","","","","","","","","","","","",""
"","","","","","image-keyboard-response","314","142855","0.0-289.0","6036f9b3b1842f8b659b18c7","665500ab8938657b03fbdba8","665792af4bef0a0d27ea5a9d","37","stimuli/1111001.jpg","1","","prediction_trial","0","","false","","1","true","true","false","false","false","false","[2,1,0]","111","001","0","","","","","","",""
"","","","","","image-keyboard-response","315","143159","0.0-290.0","6036f9b3b1842f8b659b18c7","665500ab8938657b03fbdba8","665792af4bef0a0d27ea5a9d","303","stimuli/11110010.jpg"," ","","feedback_trial","2","","","","","","","","","","","","","","","","","","","","",""
"","","","","","image-keyboard-response","316","143220","0.0-291.0","6036f9b3b1842f8b659b18c7","665500ab8938657b03fbdba8","665792af4bef0a0d27ea5a9d","61","stimuli/2110000.jpg","1","","prediction_trial","2","","false","","2","true","true","true","true","true","true","[2]","110","000","0","","","","","","",""
"","","","","","image-keyboard-response","317","143519","0.0-292.0","6036f9b3b1842f8b659b18c7","665500ab8938657b03fbdba8","665792af4bef0a0d27ea5a9d","299","stimuli/21100002.jpg"," ","","feedback_trial","2","","","","","","","","","","","","","","","","","","","","",""
"","","","","","survey-html-form","318","363671","0.0-293.0","6036f9b3b1842f8b659b18c7","665500ab8938657b03fbdba8","665792af4bef0a0d27ea5a9d","220147","","{""feedback"":""none"",""age"":""30"",""gender"":""Female"",""other_gender"":"""",""race"":""White"",""other_race"":"""",""ethnicity"":""Non-Hispanic""}","","exit_survey","","","","","","","","","","","","","","","","none","30","Non-Hispanic","Female","White","0.4097222222222222","0.4097222222222222"
