"success","timeout","failed_images","failed_audio","failed_video","trial_type","trial_index","time_elapsed","internal_node_id","prolific_id","prolific_study_id","prolific_session_id","rt","stimulus","response","view_history","trial","character_choice","stimulus_dict","accuracy","correct_response","ball_pos","ego_ball_visible","ego_can_infer","alter_ball_visible","alter_can_infer","collective_ball_visible","collective_can_infer","search_locations","alter_occluders","ego_occluders","accuracy_bool","feedback","age","ethnicity","gender","race","overall_accuracy","bonus"
"true","false","[]","[]","[]","preload","0","4843","0.0-0.0","5d4bed118cbe900016c1f6d0","665500ab8938657b03fbdba8","665792763e86d947fcd8294a","","","","","","","","","","","","","","","","","","","","","","","","","","",""
"true","","","","","fullscreen","1","7202","0.0-1.0","5d4bed118cbe900016c1f6d0","665500ab8938657b03fbdba8","665792763e86d947fcd8294a","","","","","","","","","","","","","","","","","","","","","","","","","","",""
"","","","","","html-button-response","2","15632","0.0-2.0","5d4bed118cbe900016c1f6d0","665500ab8938657b03fbdba8","665792763e86d947fcd8294a","8429","<p><b>Consent Form</b></p> <div style=""text-align:left;background-color:lightgrey; padding:20px; max-width:900px;""><p>Please consider this information carefully before deciding whether to participate in this research.</p> <p>The purpose of this research is to examine which factors influence social judgment and decision-making. You will be asked to make judgements about individuals and actions in social scenarios. We are simply interested in your judgement. The study will take less than 1 hour to complete, and you will receive less than $20 on Prolific. Your compensation and time commitment are specified in the study description. There are no anticipated risks associated with participating in this study. The effects of participating should be comparable to those you would ordinarily experience from viewing a computer monitor and using a mouse or keyboard for a similar amount of time. At the end of the study, we will provide an explanation of the questions that motivate this line of research and will describe the potential implications. </p><p> Your participation in this study is completely voluntary and you may refuse to participate or you may choose to withdraw at any time without penalty or loss of benefits to you which are otherwise entitled. Your participation in this study will remain confidential. No personally identifiable information will be associated with your data. Also, all analyses of the data will be averaged across all the participants, so your individual responses will never be specifically analyzed. </p><p> If you have questions or concerns about your participation or payment, or want to request a summary of research findings, please contact Dr. Jonathan Phillips at Jonathan.S.Phillips@dartmouth.edu. </p><p> Please save a copy of this form for your records. </p><p><b>Agreement: </b>The nature and purpose of this research have been sufficiently explained and I agree to participate in this study. I understand that I am free to withdraw at any time without incurring any penalty. Please consent by clicking the button below to continue. Otherwise, please exit the study at any time. </p>","0","","","","","","","","","","","","","","","","","","","","","","","",""
"","","","","","instructions","3","73778","0.0-3.0-0.0","5d4bed118cbe900016c1f6d0","665500ab8938657b03fbdba8","665792763e86d947fcd8294a","58146","","","[{""page_index"":0,""viewing_time"":1537},{""page_index"":1,""viewing_time"":2106},{""page_index"":2,""viewing_time"":2482},{""page_index"":3,""viewing_time"":1876},{""page_index"":2,""viewing_time"":372},{""page_index"":1,""viewing_time"":648},{""page_index"":0,""viewing_time"":1458},{""page_index"":1,""viewing_time"":990},{""page_index"":2,""viewing_time"":1070},{""page_index"":3,""viewing_time"":4784},{""page_index"":4,""viewing_time"":1828},{""page_index"":5,""viewing_time"":1772},{""page_index"":6,""viewing_time"":3676},{""page_index"":7,""viewing_time"":1796},{""page_index"":8,""viewing_time"":2948},{""page_index"":9,""viewing_time"":2310},{""page_index"":10,""viewing_time"":13804},{""page_index"":11,""viewing_time"":4454},{""page_index"":12,""viewing_time"":7234},{""page_index"":13,""viewing_time"":1000}]","intro","","","","","","","","","","","","","","","","","","","","","",""
"","","","","","image-keyboard-response","4","76219","0.0-3.0-1.0","5d4bed118cbe900016c1f6d0","665500ab8938657b03fbdba8","665792763e86d947fcd8294a","2439","stimuli/2110110.jpg","2","","prediction_practice","2","{""filepath"":""stimuli/2110110.jpg"",""ball_pos"":2,""ego_ball_visible"":true,""ego_can_infer"":true,""alter_ball_visible"":true,""alter_can_infer"":true,""collective_ball_visible"":true,""collective_can_infer"":true,""search_locations"":[2],""alter_occluders"":""110"",""ego_occluders"":""110""}","true","","","","","","","","","","","","","","","","","","",""
"","","","","","image-keyboard-response","5","77507","0.0-3.0-2.0","5d4bed118cbe900016c1f6d0","665500ab8938657b03fbdba8","665792763e86d947fcd8294a","1286","stimuli/21101102.jpg"," ","","practrice_feedback","2","","","","","","","","","","","","","","","","","","","","",""
"","","","","","image-keyboard-response","6","79411","0.0-3.0-3.0","5d4bed118cbe900016c1f6d0","665500ab8938657b03fbdba8","665792763e86d947fcd8294a","1903","stimuli/2001001.jpg","2","","prediction_practice","2","{""filepath"":""stimuli/2001001.jpg"",""ball_pos"":2,""ego_ball_visible"":false,""ego_can_infer"":true,""alter_ball_visible"":false,""alter_can_infer"":true,""collective_ball_visible"":false,""collective_can_infer"":true,""search_locations"":[2],""alter_occluders"":""001"",""ego_occluders"":""001""}","true","","","","","","","","","","","","","","","","","","",""
"","","","","","image-keyboard-response","7","80043","0.0-3.0-4.0","5d4bed118cbe900016c1f6d0","665500ab8938657b03fbdba8","665792763e86d947fcd8294a","631","stimuli/20010012.jpg"," ","","practrice_feedback","2","","","","","","","","","","","","","","","","","","","","",""
"","","","","","image-keyboard-response","8","81563","0.0-3.0-5.0","5d4bed118cbe900016c1f6d0","665500ab8938657b03fbdba8","665792763e86d947fcd8294a","1519","stimuli/1101011.jpg","1","","prediction_practice","1","{""filepath"":""stimuli/1101011.jpg"",""ball_pos"":1,""ego_ball_visible"":false,""ego_can_infer"":false,""alter_ball_visible"":true,""alter_can_infer"":true,""collective_ball_visible"":false,""collective_can_infer"":false,""search_locations"":[1],""alter_occluders"":""101"",""ego_occluders"":""011""}","true","","","","","","","","","","","","","","","","","","",""
"","","","","","image-keyboard-response","9","82451","0.0-3.0-6.0","5d4bed118cbe900016c1f6d0","665500ab8938657b03fbdba8","665792763e86d947fcd8294a","886","stimuli/11010111.jpg"," ","","practrice_feedback","1","","","","","","","","","","","","","","","","","","","","",""
"","","","","","image-keyboard-response","10","83651","0.0-3.0-7.0","5d4bed118cbe900016c1f6d0","665500ab8938657b03fbdba8","665792763e86d947fcd8294a","1199","stimuli/1101000.jpg","1","","prediction_practice","1","{""filepath"":""stimuli/1101000.jpg"",""ball_pos"":1,""ego_ball_visible"":true,""ego_can_infer"":true,""alter_ball_visible"":true,""alter_can_infer"":true,""collective_ball_visible"":true,""collective_can_infer"":true,""search_locations"":[1],""alter_occluders"":""101"",""ego_occluders"":""000""}","true","","","","","","","","","","","","","","","","","","",""
"","","","","","image-keyboard-response","11","84147","0.0-3.0-8.0","5d4bed118cbe900016c1f6d0","665500ab8938657b03fbdba8","665792763e86d947fcd8294a","494","stimuli/11010001.jpg"," ","","practrice_feedback","1","","","","","","","","","","","","","","","","","","","","",""
"","","","","","image-keyboard-response","12","85156","0.0-3.0-9.0","5d4bed118cbe900016c1f6d0","665500ab8938657b03fbdba8","665792763e86d947fcd8294a","1008","stimuli/2100011.jpg","2","","prediction_practice","2","{""filepath"":""stimuli/2100011.jpg"",""ball_pos"":2,""ego_ball_visible"":false,""ego_can_infer"":false,""alter_ball_visible"":true,""alter_can_infer"":true,""collective_ball_visible"":false,""collective_can_infer"":false,""search_locations"":[2],""alter_occluders"":""100"",""ego_occluders"":""011""}","true","","","","","","","","","","","","","","","","","","",""
"","","","","","image-keyboard-response","13","85731","0.0-3.0-10.0","5d4bed118cbe900016c1f6d0","665500ab8938657b03fbdba8","665792763e86d947fcd8294a","573","stimuli/21000112.jpg"," ","","practrice_feedback","2","","","","","","","","","","","","","","","","","","","","",""
"","","","","","image-keyboard-response","14","86779","0.0-3.0-11.0","5d4bed118cbe900016c1f6d0","665500ab8938657b03fbdba8","665792763e86d947fcd8294a","1047","stimuli/2000111.jpg","1","","prediction_practice","2","{""filepath"":""stimuli/2000111.jpg"",""ball_pos"":2,""ego_ball_visible"":false,""ego_can_infer"":false,""alter_ball_visible"":true,""alter_can_infer"":true,""collective_ball_visible"":false,""collective_can_infer"":false,""search_locations"":[2],""alter_occluders"":""000"",""ego_occluders"":""111""}","false","","","","","","","","","","","","","","","","","","",""
"","","","","","image-keyboard-response","15","87467","0.0-3.0-12.0","5d4bed118cbe900016c1f6d0","665500ab8938657b03fbdba8","665792763e86d947fcd8294a","687","stimuli/20001112.jpg"," ","","practrice_feedback","2","","","","","","","","","","","","","","","","","","","","",""
"","","","","","image-keyboard-response","16","88155","0.0-3.0-13.0","5d4bed118cbe900016c1f6d0","665500ab8938657b03fbdba8","665792763e86d947fcd8294a","687","stimuli/2000001.jpg","2","","prediction_practice","2","{""filepath"":""stimuli/2000001.jpg"",""ball_pos"":2,""ego_ball_visible"":false,""ego_can_infer"":true,""alter_ball_visible"":true,""alter_can_infer"":true,""collective_ball_visible"":false,""collective_can_infer"":true,""search_locations"":[2],""alter_occluders"":""000"",""ego_occluders"":""001""}","true","","","","","","","","","","","","","","","","","","",""
"","","","","","image-keyboard-response","17","88700","0.0-3.0-14.0","5d4bed118cbe900016c1f6d0","665500ab8938657b03fbdba8","665792763e86d947fcd8294a","543","stimuli/20000012.jpg"," ","","practrice_feedback","2","","","","","","","","","","","","","","","","","","","","",""
"","","","","","image-keyboard-response","18","89819","0.0-3.0-15.0","5d4bed118cbe900016c1f6d0","665500ab8938657b03fbdba8","665792763e86d947fcd8294a","1117","stimuli/0010010.jpg","0","","prediction_practice","0","{""filepath"":""stimuli/0010010.jpg"",""ball_pos"":0,""ego_ball_visible"":true,""ego_can_infer"":true,""alter_ball_visible"":true,""alter_can_infer"":true,""collective_ball_visible"":true,""collective_can_infer"":true,""search_locations"":[0],""alter_occluders"":""010"",""ego_occluders"":""010""}","true","","","","","","","","","","","","","","","","","","",""
"","","","","","image-keyboard-response","19","90195","0.0-3.0-16.0","5d4bed118cbe900016c1f6d0","665500ab8938657b03fbdba8","665792763e86d947fcd8294a","375","stimuli/00100100.jpg"," ","","practrice_feedback","0","","","","","","","","","","","","","","","","","","","","",""
"","","","","","image-keyboard-response","20","91683","0.0-3.0-17.0","5d4bed118cbe900016c1f6d0","665500ab8938657b03fbdba8","665792763e86d947fcd8294a","1487","stimuli/2101111.jpg","1","","prediction_practice","0","{""filepath"":""stimuli/2101111.jpg"",""ball_pos"":2,""ego_ball_visible"":false,""ego_can_infer"":false,""alter_ball_visible"":false,""alter_can_infer"":false,""collective_ball_visible"":false,""collective_can_infer"":false,""search_locations"":[0,2],""alter_occluders"":""101"",""ego_occluders"":""111""}","false","","","","","","","","","","","","","","","","","","",""
"","","","","","image-keyboard-response","21","92354","0.0-3.0-18.0","5d4bed118cbe900016c1f6d0","665500ab8938657b03fbdba8","665792763e86d947fcd8294a","671","stimuli/21011110.jpg"," ","","practrice_feedback","0","","","","","","","","","","","","","","","","","","","","",""
"","","","","","image-keyboard-response","22","93715","0.0-3.0-19.0","5d4bed118cbe900016c1f6d0","665500ab8938657b03fbdba8","665792763e86d947fcd8294a","1360","stimuli/0001110.jpg","1","","prediction_practice","0","{""filepath"":""stimuli/0001110.jpg"",""ball_pos"":0,""ego_ball_visible"":false,""ego_can_infer"":false,""alter_ball_visible"":true,""alter_can_infer"":true,""collective_ball_visible"":false,""collective_can_infer"":false,""search_locations"":[0],""alter_occluders"":""001"",""ego_occluders"":""110""}","false","","","","","","","","","","","","","","","","","","",""
"","","","","","image-keyboard-response","23","94211","0.0-3.0-20.0","5d4bed118cbe900016c1f6d0","665500ab8938657b03fbdba8","665792763e86d947fcd8294a","495","stimuli/00011100.jpg"," ","","practrice_feedback","0","","","","","","","","","","","","","","","","","","","","",""
"","","","","","html-button-response","24","167423","0.0-3.0-21.0","5d4bed118cbe900016c1f6d0","665500ab8938657b03fbdba8","665792763e86d947fcd8294a","73210","Now that you've had some practice, you'll be tested with a couple of easy trials. If you correctly predict Sam's choice, you'll move on to complete the experiment!","0","","","","","","","","","","","","","","","","","","","","","","","",""
"","","","","","image-keyboard-response","25","170051","0.0-3.0-22.0-0.0","5d4bed118cbe900016c1f6d0","665500ab8938657b03fbdba8","665792763e86d947fcd8294a","2627","stimuli/0000011.jpg","arrowleft","","comprehension_quiz","","","true","arrowleft","","","","","","","","","","","","","","","","","",""
"","","","","","image-keyboard-response","26","172091","0.0-3.0-22.0-1.0","5d4bed118cbe900016c1f6d0","665500ab8938657b03fbdba8","665792763e86d947fcd8294a","2038","stimuli/00000110.jpg"," ","","comprehension_quiz","","","true"," ","","","","","","","","","","","","","","","","","",""
"","","","","","image-keyboard-response","27","173699","0.0-3.0-22.0-2.0","5d4bed118cbe900016c1f6d0","665500ab8938657b03fbdba8","665792763e86d947fcd8294a","1606","stimuli/1010010.jpg","arrowdown","","comprehension_quiz","","","true","arrowdown","","","","","","","","","","","","","","","","","",""
"","","","","","image-keyboard-response","28","174131","0.0-3.0-22.0-3.0","5d4bed118cbe900016c1f6d0","665500ab8938657b03fbdba8","665792763e86d947fcd8294a","431","stimuli/10100101.jpg"," ","","comprehension_quiz","","","true"," ","","","","","","","","","","","","","","","","","",""
"","","","","","html-button-response","29","176506","0.0-4.0","5d4bed118cbe900016c1f6d0","665500ab8938657b03fbdba8","665792763e86d947fcd8294a","2374","The experiment will now begin.","0","","","","","","","","","","","","","","","","","","","","","","","",""
"","","","","","image-keyboard-response","30","178331","0.0-5.0","5d4bed118cbe900016c1f6d0","665500ab8938657b03fbdba8","665792763e86d947fcd8294a","1824","stimuli/2111101.jpg","2","","prediction_trial","1","","false","","2","false","false","false","false","false","false","[1,2,0]","111","101","0","","","","","","",""
"","","","","","image-keyboard-response","31","182354","0.0-6.0","5d4bed118cbe900016c1f6d0","665500ab8938657b03fbdba8","665792763e86d947fcd8294a","4022","stimuli/21111011.jpg"," ","","feedback_trial","1","","","","","","","","","","","","","","","","","","","","",""
"","","","","","image-keyboard-response","32","183275","0.0-7.0","5d4bed118cbe900016c1f6d0","665500ab8938657b03fbdba8","665792763e86d947fcd8294a","919","stimuli/2111100.jpg","2","","prediction_trial","1","","false","","2","true","true","false","false","false","false","[1,0,2]","111","100","0","","","","","","",""
"","","","","","image-keyboard-response","33","184579","0.0-8.0","5d4bed118cbe900016c1f6d0","665500ab8938657b03fbdba8","665792763e86d947fcd8294a","1303","stimuli/21111001.jpg"," ","","feedback_trial","1","","","","","","","","","","","","","","","","","","","","",""
"","","","","","image-keyboard-response","34","186443","0.0-9.0","5d4bed118cbe900016c1f6d0","665500ab8938657b03fbdba8","665792763e86d947fcd8294a","1863","stimuli/2010010.jpg","2","","prediction_trial","2","","true","","2","true","true","true","true","true","true","[2]","010","010","1","","","","","","",""
"","","","","","image-keyboard-response","35","187346","0.0-10.0","5d4bed118cbe900016c1f6d0","665500ab8938657b03fbdba8","665792763e86d947fcd8294a","903","stimuli/20100102.jpg"," ","","feedback_trial","2","","","","","","","","","","","","","","","","","","","","",""
"","","","","","image-keyboard-response","36","188178","0.0-11.0","5d4bed118cbe900016c1f6d0","665500ab8938657b03fbdba8","665792763e86d947fcd8294a","831","stimuli/2001010.jpg","2","","prediction_trial","2","","true","","2","true","true","false","true","false","true","[2]","001","010","1","","","","","","",""
"","","","","","image-keyboard-response","37","189739","0.0-12.0","5d4bed118cbe900016c1f6d0","665500ab8938657b03fbdba8","665792763e86d947fcd8294a","1559","stimuli/20010102.jpg"," ","","feedback_trial","2","","","","","","","","","","","","","","","","","","","","",""
"","","","","","image-keyboard-response","38","191627","0.0-13.0","5d4bed118cbe900016c1f6d0","665500ab8938657b03fbdba8","665792763e86d947fcd8294a","1887","stimuli/1110110.jpg","1","","prediction_trial","0","","false","","1","false","false","false","false","false","false","[0,1]","110","110","0","","","","","","",""
"","","","","","image-keyboard-response","39","192323","0.0-14.0","5d4bed118cbe900016c1f6d0","665500ab8938657b03fbdba8","665792763e86d947fcd8294a","695","stimuli/11101100.jpg"," ","","feedback_trial","0","","","","","","","","","","","","","","","","","","","","",""
"","","","","","image-keyboard-response","40","193458","0.0-15.0","5d4bed118cbe900016c1f6d0","665500ab8938657b03fbdba8","665792763e86d947fcd8294a","1134","stimuli/1010110.jpg","1","","prediction_trial","1","","true","","1","false","false","false","true","false","false","[1]","010","110","1","","","","","","",""
"","","","","","image-keyboard-response","41","194042","0.0-16.0","5d4bed118cbe900016c1f6d0","665500ab8938657b03fbdba8","665792763e86d947fcd8294a","583","stimuli/10101101.jpg"," ","","feedback_trial","1","","","","","","","","","","","","","","","","","","","","",""
"","","","","","image-keyboard-response","42","195179","0.0-17.0","5d4bed118cbe900016c1f6d0","665500ab8938657b03fbdba8","665792763e86d947fcd8294a","1136","stimuli/2001101.jpg","2","","prediction_trial","2","","true","","2","false","false","false","true","false","false","[2]","001","101","1","","","","","","",""
"","","","","","image-keyboard-response","43","195931","0.0-18.0","5d4bed118cbe900016c1f6d0","665500ab8938657b03fbdba8","665792763e86d947fcd8294a","751","stimuli/20011012.jpg"," ","","feedback_trial","2","","","","","","","","","","","","","","","","","","","","",""
"","","","","","image-keyboard-response","44","197986","0.0-19.0","5d4bed118cbe900016c1f6d0","665500ab8938657b03fbdba8","665792763e86d947fcd8294a","2055","stimuli/1011111.jpg","0","","prediction_trial","1","","false","","1","false","false","false","false","false","false","[1,2]","011","111","0","","","","","","",""
"","","","","","image-keyboard-response","45","198642","0.0-20.0","5d4bed118cbe900016c1f6d0","665500ab8938657b03fbdba8","665792763e86d947fcd8294a","655","stimuli/10111111.jpg"," ","","feedback_trial","1","","","","","","","","","","","","","","","","","","","","",""
"","","","","","image-keyboard-response","46","199610","0.0-21.0","5d4bed118cbe900016c1f6d0","665500ab8938657b03fbdba8","665792763e86d947fcd8294a","968","stimuli/0101100.jpg","0","","prediction_trial","0","","true","","0","false","true","false","false","false","false","[0,2]","101","100","1","","","","","","",""
"","","","","","image-keyboard-response","47","200691","0.0-22.0","5d4bed118cbe900016c1f6d0","665500ab8938657b03fbdba8","665792763e86d947fcd8294a","1079","stimuli/01011000.jpg"," ","","feedback_trial","0","","","","","","","","","","","","","","","","","","","","",""
"","","","","","image-keyboard-response","48","201490","0.0-23.0","5d4bed118cbe900016c1f6d0","665500ab8938657b03fbdba8","665792763e86d947fcd8294a","799","stimuli/0100100.jpg","0","","prediction_trial","0","","true","","0","false","true","false","true","false","true","[0]","100","100","1","","","","","","",""
"","","","","","image-keyboard-response","49","202226","0.0-24.0","5d4bed118cbe900016c1f6d0","665500ab8938657b03fbdba8","665792763e86d947fcd8294a","735","stimuli/01001000.jpg"," ","","feedback_trial","0","","","","","","","","","","","","","","","","","","","","",""
"","","","","","image-keyboard-response","50","202978","0.0-25.0","5d4bed118cbe900016c1f6d0","665500ab8938657b03fbdba8","665792763e86d947fcd8294a","752","stimuli/0110100.jpg","0","","prediction_trial","0","","true","","0","false","true","false","false","false","false","[0,1]","110","100","1","","","","","","",""
"","","","","","image-keyboard-response","51","203754","0.0-26.0","5d4bed118cbe900016c1f6d0","665500ab8938657b03fbdba8","665792763e86d947fcd8294a","775","stimuli/01101000.jpg"," ","","feedback_trial","0","","","","","","","","","","","","","","","","","","","","",""
"","","","","","image-keyboard-response","52","204650","0.0-27.0","5d4bed118cbe900016c1f6d0","665500ab8938657b03fbdba8","665792763e86d947fcd8294a","894","stimuli/1010011.jpg","1","","prediction_trial","1","","true","","1","false","false","false","true","false","false","[1]","010","011","1","","","","","","",""
"","","","","","image-keyboard-response","53","205242","0.0-28.0","5d4bed118cbe900016c1f6d0","665500ab8938657b03fbdba8","665792763e86d947fcd8294a","591","stimuli/10100111.jpg"," ","","feedback_trial","1","","","","","","","","","","","","","","","","","","","","",""
"","","","","","image-keyboard-response","54","208130","0.0-29.0","5d4bed118cbe900016c1f6d0","665500ab8938657b03fbdba8","665792763e86d947fcd8294a","2888","stimuli/0101110.jpg","1","","prediction_trial","0","","false","","0","false","false","false","false","false","false","[0,2]","101","110","0","","","","","","",""
"","","","","","image-keyboard-response","55","208810","0.0-30.0","5d4bed118cbe900016c1f6d0","665500ab8938657b03fbdba8","665792763e86d947fcd8294a","678","stimuli/01011100.jpg"," ","","feedback_trial","0","","","","","","","","","","","","","","","","","","","","",""
"","","","","","image-keyboard-response","56","209531","0.0-31.0","5d4bed118cbe900016c1f6d0","665500ab8938657b03fbdba8","665792763e86d947fcd8294a","719","stimuli/0000011.jpg","0","","prediction_trial","0","","true","","0","true","true","true","true","true","true","[0]","000","011","1","","","","","","",""
"","","","","","image-keyboard-response","57","210202","0.0-32.0","5d4bed118cbe900016c1f6d0","665500ab8938657b03fbdba8","665792763e86d947fcd8294a","670","stimuli/00000110.jpg"," ","","feedback_trial","0","","","","","","","","","","","","","","","","","","","","",""
"","","","","","image-keyboard-response","58","211282","0.0-33.0","5d4bed118cbe900016c1f6d0","665500ab8938657b03fbdba8","665792763e86d947fcd8294a","1079","stimuli/1001111.jpg","2","","prediction_trial","1","","false","","1","false","false","true","true","false","false","[1]","001","111","0","","","","","","",""
"","","","","","image-keyboard-response","59","211810","0.0-34.0","5d4bed118cbe900016c1f6d0","665500ab8938657b03fbdba8","665792763e86d947fcd8294a","527","stimuli/10011111.jpg"," ","","feedback_trial","1","","","","","","","","","","","","","","","","","","","","",""
"","","","","","image-keyboard-response","60","212530","0.0-35.0","5d4bed118cbe900016c1f6d0","665500ab8938657b03fbdba8","665792763e86d947fcd8294a","719","stimuli/1110100.jpg","1","","prediction_trial","1","","true","","1","true","true","false","false","false","false","[1,0]","110","100","1","","","","","","",""
"","","","","","image-keyboard-response","61","213074","0.0-36.0","5d4bed118cbe900016c1f6d0","665500ab8938657b03fbdba8","665792763e86d947fcd8294a","543","stimuli/11101001.jpg"," ","","feedback_trial","1","","","","","","","","","","","","","","","","","","","","",""
"","","","","","image-keyboard-response","62","213962","0.0-37.0","5d4bed118cbe900016c1f6d0","665500ab8938657b03fbdba8","665792763e86d947fcd8294a","887","stimuli/0100101.jpg","0","","prediction_trial","0","","true","","0","false","false","false","true","false","false","[0]","100","101","1","","","","","","",""
"","","","","","image-keyboard-response","63","214443","0.0-38.0","5d4bed118cbe900016c1f6d0","665500ab8938657b03fbdba8","665792763e86d947fcd8294a","479","stimuli/01001010.jpg"," ","","feedback_trial","0","","","","","","","","","","","","","","","","","","","","",""
"","","","","","image-keyboard-response","64","215610","0.0-39.0","5d4bed118cbe900016c1f6d0","665500ab8938657b03fbdba8","665792763e86d947fcd8294a","1166","stimuli/1100001.jpg","1","","prediction_trial","1","","true","","1","true","true","true","true","true","true","[1]","100","001","1","","","","","","",""
"","","","","","image-keyboard-response","65","216138","0.0-40.0","5d4bed118cbe900016c1f6d0","665500ab8938657b03fbdba8","665792763e86d947fcd8294a","528","stimuli/11000011.jpg"," ","","feedback_trial","1","","","","","","","","","","","","","","","","","","","","",""
"","","","","","image-keyboard-response","66","216786","0.0-41.0","5d4bed118cbe900016c1f6d0","665500ab8938657b03fbdba8","665792763e86d947fcd8294a","646","stimuli/2101110.jpg","2","","prediction_trial","0","","false","","2","true","true","false","false","false","false","[0,2]","101","110","0","","","","","","",""
"","","","","","image-keyboard-response","67","217467","0.0-42.0","5d4bed118cbe900016c1f6d0","665500ab8938657b03fbdba8","665792763e86d947fcd8294a","679","stimuli/21011100.jpg"," ","","feedback_trial","0","","","","","","","","","","","","","","","","","","","","",""
"","","","","","image-keyboard-response","68","218042","0.0-43.0","5d4bed118cbe900016c1f6d0","665500ab8938657b03fbdba8","665792763e86d947fcd8294a","575","stimuli/2000000.jpg","2","","prediction_trial","2","","true","","2","true","true","true","true","true","true","[2]","000","000","1","","","","","","",""
"","","","","","image-keyboard-response","69","218538","0.0-44.0","5d4bed118cbe900016c1f6d0","665500ab8938657b03fbdba8","665792763e86d947fcd8294a","495","stimuli/20000002.jpg"," ","","feedback_trial","2","","","","","","","","","","","","","","","","","","","","",""
"","","","","","image-keyboard-response","70","219490","0.0-45.0","5d4bed118cbe900016c1f6d0","665500ab8938657b03fbdba8","665792763e86d947fcd8294a","950","stimuli/1100111.jpg","0","","prediction_trial","1","","false","","1","false","false","true","true","false","false","[1]","100","111","0","","","","","","",""
"","","","","","image-keyboard-response","71","219946","0.0-46.0","5d4bed118cbe900016c1f6d0","665500ab8938657b03fbdba8","665792763e86d947fcd8294a","456","stimuli/11001111.jpg"," ","","feedback_trial","1","","","","","","","","","","","","","","","","","","","","",""
"","","","","","image-keyboard-response","72","220778","0.0-47.0","5d4bed118cbe900016c1f6d0","665500ab8938657b03fbdba8","665792763e86d947fcd8294a","831","stimuli/2010101.jpg","2","","prediction_trial","2","","true","","2","false","false","true","true","false","false","[2]","010","101","1","","","","","","",""
"","","","","","image-keyboard-response","73","221339","0.0-48.0","5d4bed118cbe900016c1f6d0","665500ab8938657b03fbdba8","665792763e86d947fcd8294a","559","stimuli/20101012.jpg"," ","","feedback_trial","2","","","","","","","","","","","","","","","","","","","","",""
"","","","","","image-keyboard-response","74","222170","0.0-49.0","5d4bed118cbe900016c1f6d0","665500ab8938657b03fbdba8","665792763e86d947fcd8294a","830","stimuli/1100101.jpg","1","","prediction_trial","1","","true","","1","true","true","true","true","true","true","[1]","100","101","1","","","","","","",""
"","","","","","image-keyboard-response","75","222538","0.0-50.0","5d4bed118cbe900016c1f6d0","665500ab8938657b03fbdba8","665792763e86d947fcd8294a","367","stimuli/11001011.jpg"," ","","feedback_trial","1","","","","","","","","","","","","","","","","","","","","",""
"","","","","","image-keyboard-response","76","223154","0.0-51.0","5d4bed118cbe900016c1f6d0","665500ab8938657b03fbdba8","665792763e86d947fcd8294a","616","stimuli/1011101.jpg","1","","prediction_trial","1","","true","","1","true","true","false","false","false","false","[2,1]","011","101","1","","","","","","",""
"","","","","","image-keyboard-response","77","223706","0.0-52.0","5d4bed118cbe900016c1f6d0","665500ab8938657b03fbdba8","665792763e86d947fcd8294a","550","stimuli/10111011.jpg"," ","","feedback_trial","2","","","","","","","","","","","","","","","","","","","","",""
"","","","","","image-keyboard-response","78","224794","0.0-53.0","5d4bed118cbe900016c1f6d0","665500ab8938657b03fbdba8","665792763e86d947fcd8294a","1087","stimuli/2111111.jpg","0","","prediction_trial","1","","false","","2","false","false","false","false","false","false","[1,0,2]","111","111","0","","","","","","",""
"","","","","","image-keyboard-response","79","225234","0.0-54.0","5d4bed118cbe900016c1f6d0","665500ab8938657b03fbdba8","665792763e86d947fcd8294a","439","stimuli/21111111.jpg"," ","","feedback_trial","1","","","","","","","","","","","","","","","","","","","","",""
"","","","","","image-keyboard-response","80","226010","0.0-55.0","5d4bed118cbe900016c1f6d0","665500ab8938657b03fbdba8","665792763e86d947fcd8294a","776","stimuli/2110101.jpg","2","","prediction_trial","2","","true","","2","false","false","true","true","false","false","[2]","110","101","1","","","","","","",""
"","","","","","image-keyboard-response","81","226627","0.0-56.0","5d4bed118cbe900016c1f6d0","665500ab8938657b03fbdba8","665792763e86d947fcd8294a","615","stimuli/21101012.jpg"," ","","feedback_trial","2","","","","","","","","","","","","","","","","","","","","",""
"","","","","","image-keyboard-response","82","227315","0.0-57.0","5d4bed118cbe900016c1f6d0","665500ab8938657b03fbdba8","665792763e86d947fcd8294a","687","stimuli/0111001.jpg","0","","prediction_trial","1","","false","","0","true","true","false","false","false","false","[0,2,1]","111","001","0","","","","","","",""
"","","","","","image-keyboard-response","83","228299","0.0-58.0","5d4bed118cbe900016c1f6d0","665500ab8938657b03fbdba8","665792763e86d947fcd8294a","983","stimuli/01110011.jpg"," ","","feedback_trial","0","","","","","","","","","","","","","","","","","","","","",""
"","","","","","image-keyboard-response","84","229195","0.0-59.0","5d4bed118cbe900016c1f6d0","665500ab8938657b03fbdba8","665792763e86d947fcd8294a","895","stimuli/2100001.jpg","2","","prediction_trial","2","","true","","2","false","true","true","true","false","true","[2]","100","001","1","","","","","","",""
"","","","","","image-keyboard-response","85","229779","0.0-60.0","5d4bed118cbe900016c1f6d0","665500ab8938657b03fbdba8","665792763e86d947fcd8294a","584","stimuli/21000012.jpg"," ","","feedback_trial","2","","","","","","","","","","","","","","","","","","","","",""
"","","","","","image-keyboard-response","86","230563","0.0-61.0","5d4bed118cbe900016c1f6d0","665500ab8938657b03fbdba8","665792763e86d947fcd8294a","784","stimuli/2110001.jpg","2","","prediction_trial","2","","true","","2","false","true","true","true","false","true","[2]","110","001","1","","","","","","",""
"","","","","","image-keyboard-response","87","231083","0.0-62.0","5d4bed118cbe900016c1f6d0","665500ab8938657b03fbdba8","665792763e86d947fcd8294a","518","stimuli/21100012.jpg"," ","","feedback_trial","2","","","","","","","","","","","","","","","","","","","","",""
"","","","","","image-keyboard-response","88","231899","0.0-63.0","5d4bed118cbe900016c1f6d0","665500ab8938657b03fbdba8","665792763e86d947fcd8294a","815","stimuli/2101111.jpg","0","","prediction_trial","2","","false","","2","false","false","false","false","false","false","[0,2]","101","111","0","","","","","","",""
"","","","","","image-keyboard-response","89","232387","0.0-64.0","5d4bed118cbe900016c1f6d0","665500ab8938657b03fbdba8","665792763e86d947fcd8294a","486","stimuli/21011112.jpg"," ","","feedback_trial","0","","","","","","","","","","","","","","","","","","","","",""
"","","","","","image-keyboard-response","90","233179","0.0-65.0","5d4bed118cbe900016c1f6d0","665500ab8938657b03fbdba8","665792763e86d947fcd8294a","791","stimuli/0110101.jpg","0","","prediction_trial","0","","true","","0","false","false","false","false","false","false","[1,0]","110","101","1","","","","","","",""
"","","","","","image-keyboard-response","91","233651","0.0-66.0","5d4bed118cbe900016c1f6d0","665500ab8938657b03fbdba8","665792763e86d947fcd8294a","471","stimuli/01101010.jpg"," ","","feedback_trial","1","","","","","","","","","","","","","","","","","","","","",""
"","","","","","image-keyboard-response","92","235323","0.0-67.0","5d4bed118cbe900016c1f6d0","665500ab8938657b03fbdba8","665792763e86d947fcd8294a","1671","stimuli/2010111.jpg","1","","prediction_trial","2","","false","","2","false","false","true","true","false","false","[2]","010","111","0","","","","","","",""
"","","","","","image-keyboard-response","93","235787","0.0-68.0","5d4bed118cbe900016c1f6d0","665500ab8938657b03fbdba8","665792763e86d947fcd8294a","463","stimuli/20101112.jpg"," ","","feedback_trial","2","","","","","","","","","","","","","","","","","","","","",""
"","","","","","image-keyboard-response","94","236779","0.0-69.0","5d4bed118cbe900016c1f6d0","665500ab8938657b03fbdba8","665792763e86d947fcd8294a","991","stimuli/1111011.jpg","1","","prediction_trial","2","","false","","1","false","false","false","false","false","false","[1,0,2]","111","011","0","","","","","","",""
"","","","","","image-keyboard-response","95","237211","0.0-70.0","5d4bed118cbe900016c1f6d0","665500ab8938657b03fbdba8","665792763e86d947fcd8294a","431","stimuli/11110112.jpg"," ","","feedback_trial","1","","","","","","","","","","","","","","","","","","","","",""
"","","","","","image-keyboard-response","96","237787","0.0-71.0","5d4bed118cbe900016c1f6d0","665500ab8938657b03fbdba8","665792763e86d947fcd8294a","576","stimuli/2000010.jpg","2","","prediction_trial","2","","true","","2","true","true","true","true","true","true","[2]","000","010","1","","","","","","",""
"","","","","","image-keyboard-response","97","238250","0.0-72.0","5d4bed118cbe900016c1f6d0","665500ab8938657b03fbdba8","665792763e86d947fcd8294a","463","stimuli/20000102.jpg"," ","","feedback_trial","2","","","","","","","","","","","","","","","","","","","","",""
"","","","","","image-keyboard-response","98","239131","0.0-73.0","5d4bed118cbe900016c1f6d0","665500ab8938657b03fbdba8","665792763e86d947fcd8294a","880","stimuli/1000010.jpg","1","","prediction_trial","1","","true","","1","false","true","true","true","false","true","[1]","000","010","1","","","","","","",""
"","","","","","image-keyboard-response","99","239731","0.0-74.0","5d4bed118cbe900016c1f6d0","665500ab8938657b03fbdba8","665792763e86d947fcd8294a","598","stimuli/10000101.jpg"," ","","feedback_trial","1","","","","","","","","","","","","","","","","","","","","",""
"","","","","","image-keyboard-response","100","240555","0.0-75.0","5d4bed118cbe900016c1f6d0","665500ab8938657b03fbdba8","665792763e86d947fcd8294a","823","stimuli/1101010.jpg","1","","prediction_trial","1","","true","","1","false","true","true","true","false","true","[1]","101","010","1","","","","","","",""
"","","","","","image-keyboard-response","101","240963","0.0-76.0","5d4bed118cbe900016c1f6d0","665500ab8938657b03fbdba8","665792763e86d947fcd8294a","407","stimuli/11010101.jpg"," ","","feedback_trial","1","","","","","","","","","","","","","","","","","","","","",""
"","","","","","image-keyboard-response","102","241579","0.0-77.0","5d4bed118cbe900016c1f6d0","665500ab8938657b03fbdba8","665792763e86d947fcd8294a","615","stimuli/0110001.jpg","0","","prediction_trial","0","","true","","0","true","true","false","false","false","false","[1,0]","110","001","1","","","","","","",""
"","","","","","image-keyboard-response","103","242075","0.0-78.0","5d4bed118cbe900016c1f6d0","665500ab8938657b03fbdba8","665792763e86d947fcd8294a","495","stimuli/01100010.jpg"," ","","feedback_trial","1","","","","","","","","","","","","","","","","","","","","",""
"","","","","","image-keyboard-response","104","242995","0.0-79.0","5d4bed118cbe900016c1f6d0","665500ab8938657b03fbdba8","665792763e86d947fcd8294a","919","stimuli/0101101.jpg","2","","prediction_trial","0","","false","","0","false","false","false","false","false","false","[2,0]","101","101","0","","","","","","",""
"","","","","","image-keyboard-response","105","243563","0.0-80.0","5d4bed118cbe900016c1f6d0","665500ab8938657b03fbdba8","665792763e86d947fcd8294a","567","stimuli/01011010.jpg"," ","","feedback_trial","2","","","","","","","","","","","","","","","","","","","","",""
"","","","","","image-keyboard-response","106","244411","0.0-81.0","5d4bed118cbe900016c1f6d0","665500ab8938657b03fbdba8","665792763e86d947fcd8294a","847","stimuli/1101100.jpg","1","","prediction_trial","1","","true","","1","true","true","true","true","true","true","[1]","101","100","1","","","","","","",""
"","","","","","image-keyboard-response","107","244803","0.0-82.0","5d4bed118cbe900016c1f6d0","665500ab8938657b03fbdba8","665792763e86d947fcd8294a","391","stimuli/11011001.jpg"," ","","feedback_trial","1","","","","","","","","","","","","","","","","","","","","",""
"","","","","","image-keyboard-response","108","245955","0.0-83.0","5d4bed118cbe900016c1f6d0","665500ab8938657b03fbdba8","665792763e86d947fcd8294a","1151","stimuli/2101011.jpg","1","","prediction_trial","2","","false","","2","false","false","false","false","false","false","[2,0]","101","011","0","","","","","","",""
"","","","","","image-keyboard-response","109","246395","0.0-84.0","5d4bed118cbe900016c1f6d0","665500ab8938657b03fbdba8","665792763e86d947fcd8294a","439","stimuli/21010112.jpg"," ","","feedback_trial","2","","","","","","","","","","","","","","","","","","","","",""
"","","","","","image-keyboard-response","110","246947","0.0-85.0","5d4bed118cbe900016c1f6d0","665500ab8938657b03fbdba8","665792763e86d947fcd8294a","551","stimuli/0110011.jpg","0","","prediction_trial","0","","true","","0","true","true","false","false","false","false","[1,0]","110","011","1","","","","","","",""
"","","","","","image-keyboard-response","111","247547","0.0-86.0","5d4bed118cbe900016c1f6d0","665500ab8938657b03fbdba8","665792763e86d947fcd8294a","599","stimuli/01100110.jpg"," ","","feedback_trial","1","","","","","","","","","","","","","","","","","","","","",""
"","","","","","image-keyboard-response","112","248451","0.0-87.0","5d4bed118cbe900016c1f6d0","665500ab8938657b03fbdba8","665792763e86d947fcd8294a","903","stimuli/1110111.jpg","1","","prediction_trial","1","","true","","1","false","false","false","false","false","false","[0,1]","110","111","1","","","","","","",""
"","","","","","image-keyboard-response","113","248931","0.0-88.0","5d4bed118cbe900016c1f6d0","665500ab8938657b03fbdba8","665792763e86d947fcd8294a","479","stimuli/11101111.jpg"," ","","feedback_trial","0","","","","","","","","","","","","","","","","","","","","",""
"","","","","","image-keyboard-response","114","250075","0.0-89.0","5d4bed118cbe900016c1f6d0","665500ab8938657b03fbdba8","665792763e86d947fcd8294a","1143","stimuli/1101011.jpg","2","","prediction_trial","1","","false","","1","false","false","true","true","false","false","[1]","101","011","0","","","","","","",""
"","","","","","image-keyboard-response","115","250627","0.0-90.0","5d4bed118cbe900016c1f6d0","665500ab8938657b03fbdba8","665792763e86d947fcd8294a","551","stimuli/11010111.jpg"," ","","feedback_trial","1","","","","","","","","","","","","","","","","","","","","",""
"","","","","","image-keyboard-response","116","251266","0.0-91.0","5d4bed118cbe900016c1f6d0","665500ab8938657b03fbdba8","665792763e86d947fcd8294a","639","stimuli/0011001.jpg","0","","prediction_trial","0","","true","","0","true","true","true","true","true","true","[0]","011","001","1","","","","","","",""
"","","","","","image-keyboard-response","117","251707","0.0-92.0","5d4bed118cbe900016c1f6d0","665500ab8938657b03fbdba8","665792763e86d947fcd8294a","440","stimuli/00110010.jpg"," ","","feedback_trial","0","","","","","","","","","","","","","","","","","","","","",""
"","","","","","image-keyboard-response","118","252940","0.0-93.0","5d4bed118cbe900016c1f6d0","665500ab8938657b03fbdba8","665792763e86d947fcd8294a","1232","stimuli/1000111.jpg","1","","prediction_trial","1","","true","","1","false","false","true","true","false","false","[1]","000","111","1","","","","","","",""
"","","","","","image-keyboard-response","119","253483","0.0-94.0","5d4bed118cbe900016c1f6d0","665500ab8938657b03fbdba8","665792763e86d947fcd8294a","542","stimuli/10001111.jpg"," ","","feedback_trial","1","","","","","","","","","","","","","","","","","","","","",""
"","","","","","image-keyboard-response","120","254419","0.0-95.0","5d4bed118cbe900016c1f6d0","665500ab8938657b03fbdba8","665792763e86d947fcd8294a","935","stimuli/2101001.jpg","2","","prediction_trial","0","","false","","2","false","true","false","false","false","false","[0,2]","101","001","0","","","","","","",""
"","","","","","image-keyboard-response","121","255019","0.0-96.0","5d4bed118cbe900016c1f6d0","665500ab8938657b03fbdba8","665792763e86d947fcd8294a","587","stimuli/21010010.jpg"," ","","feedback_trial","0","","","","","","","","","","","","","","","","","","","","",""
"","","","","","image-keyboard-response","122","255739","0.0-97.0","5d4bed118cbe900016c1f6d0","665500ab8938657b03fbdba8","665792763e86d947fcd8294a","719","stimuli/1000101.jpg","1","","prediction_trial","1","","true","","1","true","true","true","true","true","true","[1]","000","101","1","","","","","","",""
"","","","","","image-keyboard-response","123","256075","0.0-98.0","5d4bed118cbe900016c1f6d0","665500ab8938657b03fbdba8","665792763e86d947fcd8294a","335","stimuli/10001011.jpg"," ","","feedback_trial","1","","","","","","","","","","","","","","","","","","","","",""
"","","","","","image-keyboard-response","124","256747","0.0-99.0","5d4bed118cbe900016c1f6d0","665500ab8938657b03fbdba8","665792763e86d947fcd8294a","672","stimuli/1011001.jpg","1","","prediction_trial","1","","true","","1","true","true","false","false","false","false","[2,1]","011","001","1","","","","","","",""
"","","","","","image-keyboard-response","125","257210","0.0-100.0","5d4bed118cbe900016c1f6d0","665500ab8938657b03fbdba8","665792763e86d947fcd8294a","461","stimuli/10110011.jpg"," ","","feedback_trial","2","","","","","","","","","","","","","","","","","","","","",""
"","","","","","image-keyboard-response","126","258108","0.0-101.0","5d4bed118cbe900016c1f6d0","665500ab8938657b03fbdba8","665792763e86d947fcd8294a","896","stimuli/1001010.jpg","1","","prediction_trial","1","","true","","1","false","true","true","true","false","true","[1]","001","010","1","","","","","","",""
"","","","","","image-keyboard-response","127","258547","0.0-102.0","5d4bed118cbe900016c1f6d0","665500ab8938657b03fbdba8","665792763e86d947fcd8294a","437","stimuli/10010101.jpg"," ","","feedback_trial","1","","","","","","","","","","","","","","","","","","","","",""
"","","","","","image-keyboard-response","128","259179","0.0-103.0","5d4bed118cbe900016c1f6d0","665500ab8938657b03fbdba8","665792763e86d947fcd8294a","631","stimuli/0111000.jpg","0","","prediction_trial","2","","false","","0","true","true","false","false","false","false","[2,1,0]","111","000","0","","","","","","",""
"","","","","","image-keyboard-response","129","259731","0.0-104.0","5d4bed118cbe900016c1f6d0","665500ab8938657b03fbdba8","665792763e86d947fcd8294a","551","stimuli/01110002.jpg"," ","","feedback_trial","2","","","","","","","","","","","","","","","","","","","","",""
"","","","","","image-keyboard-response","130","260283","0.0-105.0","5d4bed118cbe900016c1f6d0","665500ab8938657b03fbdba8","665792763e86d947fcd8294a","551","stimuli/1101001.jpg","1","","prediction_trial","1","","true","","1","true","true","true","true","true","true","[1]","101","001","1","","","","","","",""
"","","","","","image-keyboard-response","131","260739","0.0-106.0","5d4bed118cbe900016c1f6d0","665500ab8938657b03fbdba8","665792763e86d947fcd8294a","455","stimuli/11010011.jpg"," ","","feedback_trial","1","","","","","","","","","","","","","","","","","","","","",""
"","","","","","image-keyboard-response","132","261443","0.0-107.0","5d4bed118cbe900016c1f6d0","665500ab8938657b03fbdba8","665792763e86d947fcd8294a","703","stimuli/1100011.jpg","1","","prediction_trial","1","","true","","1","false","false","true","true","false","false","[1]","100","011","1","","","","","","",""
"","","","","","image-keyboard-response","133","261907","0.0-108.0","5d4bed118cbe900016c1f6d0","665500ab8938657b03fbdba8","665792763e86d947fcd8294a","463","stimuli/11000111.jpg"," ","","feedback_trial","1","","","","","","","","","","","","","","","","","","","","",""
"","","","","","image-keyboard-response","134","262579","0.0-109.0","5d4bed118cbe900016c1f6d0","665500ab8938657b03fbdba8","665792763e86d947fcd8294a","670","stimuli/2111001.jpg","2","","prediction_trial","2","","true","","2","false","true","false","false","false","false","[0,1,2]","111","001","1","","","","","","",""
"","","","","","image-keyboard-response","135","263035","0.0-110.0","5d4bed118cbe900016c1f6d0","665500ab8938657b03fbdba8","665792763e86d947fcd8294a","455","stimuli/21110012.jpg"," ","","feedback_trial","0","","","","","","","","","","","","","","","","","","","","",""
"","","","","","image-keyboard-response","136","263947","0.0-111.0","5d4bed118cbe900016c1f6d0","665500ab8938657b03fbdba8","665792763e86d947fcd8294a","911","stimuli/0111110.jpg","1","","prediction_trial","0","","false","","0","false","false","false","false","false","false","[2,1,0]","111","110","0","","","","","","",""
"","","","","","image-keyboard-response","137","264395","0.0-112.0","5d4bed118cbe900016c1f6d0","665500ab8938657b03fbdba8","665792763e86d947fcd8294a","447","stimuli/01111100.jpg"," ","","feedback_trial","2","","","","","","","","","","","","","","","","","","","","",""
"","","","","","image-keyboard-response","138","264907","0.0-113.0","5d4bed118cbe900016c1f6d0","665500ab8938657b03fbdba8","665792763e86d947fcd8294a","512","stimuli/1001101.jpg","1","","prediction_trial","1","","true","","1","true","true","true","true","true","true","[1]","001","101","1","","","","","","",""
"","","","","","image-keyboard-response","139","265315","0.0-114.0","5d4bed118cbe900016c1f6d0","665500ab8938657b03fbdba8","665792763e86d947fcd8294a","406","stimuli/10011011.jpg"," ","","feedback_trial","1","","","","","","","","","","","","","","","","","","","","",""
"","","","","","image-keyboard-response","140","266003","0.0-115.0","5d4bed118cbe900016c1f6d0","665500ab8938657b03fbdba8","665792763e86d947fcd8294a","687","stimuli/2110100.jpg","2","","prediction_trial","2","","true","","2","true","true","true","true","true","true","[2]","110","100","1","","","","","","",""
"","","","","","image-keyboard-response","141","266555","0.0-116.0","5d4bed118cbe900016c1f6d0","665500ab8938657b03fbdba8","665792763e86d947fcd8294a","551","stimuli/21101002.jpg"," ","","feedback_trial","2","","","","","","","","","","","","","","","","","","","","",""
"","","","","","image-keyboard-response","142","270363","0.0-117.0","5d4bed118cbe900016c1f6d0","665500ab8938657b03fbdba8","665792763e86d947fcd8294a","3807","stimuli/1111101.jpg","1","","prediction_trial","2","","false","","1","true","true","false","false","false","false","[2,1,0]","111","101","0","","","","","","",""
"","","","","","image-keyboard-response","143","270875","0.0-118.0","5d4bed118cbe900016c1f6d0","665500ab8938657b03fbdba8","665792763e86d947fcd8294a","510","stimuli/11111012.jpg"," ","","feedback_trial","2","","","","","","","","","","","","","","","","","","","","",""
"","","","","","image-keyboard-response","144","271339","0.0-119.0","5d4bed118cbe900016c1f6d0","665500ab8938657b03fbdba8","665792763e86d947fcd8294a","463","stimuli/1010001.jpg","1","","prediction_trial","1","","true","","1","true","true","false","true","false","true","[1]","010","001","1","","","","","","",""
"","","","","","image-keyboard-response","145","271771","0.0-120.0","5d4bed118cbe900016c1f6d0","665500ab8938657b03fbdba8","665792763e86d947fcd8294a","431","stimuli/10100011.jpg"," ","","feedback_trial","1","","","","","","","","","","","","","","","","","","","","",""
"","","","","","image-keyboard-response","146","272603","0.0-121.0","5d4bed118cbe900016c1f6d0","665500ab8938657b03fbdba8","665792763e86d947fcd8294a","831","stimuli/0001110.jpg","1","","prediction_trial","0","","false","","0","false","false","true","true","false","false","[0]","001","110","0","","","","","","",""
"","","","","","image-keyboard-response","147","273011","0.0-122.0","5d4bed118cbe900016c1f6d0","665500ab8938657b03fbdba8","665792763e86d947fcd8294a","406","stimuli/00011100.jpg"," ","","feedback_trial","0","","","","","","","","","","","","","","","","","","","","",""
"","","","","","image-keyboard-response","148","273555","0.0-123.0","5d4bed118cbe900016c1f6d0","665500ab8938657b03fbdba8","665792763e86d947fcd8294a","543","stimuli/0100001.jpg","0","","prediction_trial","0","","true","","0","true","true","false","true","false","true","[0]","100","001","1","","","","","","",""
"","","","","","image-keyboard-response","149","273987","0.0-124.0","5d4bed118cbe900016c1f6d0","665500ab8938657b03fbdba8","665792763e86d947fcd8294a","431","stimuli/01000010.jpg"," ","","feedback_trial","0","","","","","","","","","","","","","","","","","","","","",""
"","","","","","image-keyboard-response","150","274682","0.0-125.0","5d4bed118cbe900016c1f6d0","665500ab8938657b03fbdba8","665792763e86d947fcd8294a","695","stimuli/2001001.jpg","2","","prediction_trial","2","","true","","2","false","true","false","true","false","true","[2]","001","001","1","","","","","","",""
"","","","","","image-keyboard-response","151","275083","0.0-126.0","5d4bed118cbe900016c1f6d0","665500ab8938657b03fbdba8","665792763e86d947fcd8294a","399","stimuli/20010012.jpg"," ","","feedback_trial","2","","","","","","","","","","","","","","","","","","","","",""
"","","","","","image-keyboard-response","152","275739","0.0-127.0","5d4bed118cbe900016c1f6d0","665500ab8938657b03fbdba8","665792763e86d947fcd8294a","655","stimuli/2100100.jpg","2","","prediction_trial","2","","true","","2","true","true","true","true","true","true","[2]","100","100","1","","","","","","",""
"","","","","","image-keyboard-response","153","276083","0.0-128.0","5d4bed118cbe900016c1f6d0","665500ab8938657b03fbdba8","665792763e86d947fcd8294a","343","stimuli/21001002.jpg"," ","","feedback_trial","2","","","","","","","","","","","","","","","","","","","","",""
"","","","","","image-keyboard-response","154","276787","0.0-129.0","5d4bed118cbe900016c1f6d0","665500ab8938657b03fbdba8","665792763e86d947fcd8294a","703","stimuli/1100000.jpg","1","","prediction_trial","1","","true","","1","true","true","true","true","true","true","[1]","100","000","1","","","","","","",""
"","","","","","image-keyboard-response","155","277091","0.0-130.0","5d4bed118cbe900016c1f6d0","665500ab8938657b03fbdba8","665792763e86d947fcd8294a","303","stimuli/11000001.jpg"," ","","feedback_trial","1","","","","","","","","","","","","","","","","","","","","",""
"","","","","","image-keyboard-response","156","277907","0.0-131.0","5d4bed118cbe900016c1f6d0","665500ab8938657b03fbdba8","665792763e86d947fcd8294a","814","stimuli/1110010.jpg","1","","prediction_trial","1","","true","","1","false","true","false","false","false","false","[0,1]","110","010","1","","","","","","",""
"","","","","","image-keyboard-response","157","278315","0.0-132.0","5d4bed118cbe900016c1f6d0","665500ab8938657b03fbdba8","665792763e86d947fcd8294a","407","stimuli/11100101.jpg"," ","","feedback_trial","0","","","","","","","","","","","","","","","","","","","","",""
"","","","","","image-keyboard-response","158","279091","0.0-133.0","5d4bed118cbe900016c1f6d0","665500ab8938657b03fbdba8","665792763e86d947fcd8294a","775","stimuli/2001011.jpg","1","","prediction_trial","2","","false","","2","false","false","false","true","false","false","[2]","001","011","0","","","","","","",""
"","","","","","image-keyboard-response","159","279539","0.0-134.0","5d4bed118cbe900016c1f6d0","665500ab8938657b03fbdba8","665792763e86d947fcd8294a","447","stimuli/20010112.jpg"," ","","feedback_trial","2","","","","","","","","","","","","","","","","","","","","",""
"","","","","","image-keyboard-response","160","280163","0.0-135.0","5d4bed118cbe900016c1f6d0","665500ab8938657b03fbdba8","665792763e86d947fcd8294a","623","stimuli/2000111.jpg","1","","prediction_trial","2","","false","","2","false","false","true","true","false","false","[2]","000","111","0","","","","","","",""
"","","","","","image-keyboard-response","161","280595","0.0-136.0","5d4bed118cbe900016c1f6d0","665500ab8938657b03fbdba8","665792763e86d947fcd8294a","431","stimuli/20001112.jpg"," ","","feedback_trial","2","","","","","","","","","","","","","","","","","","","","",""
"","","","","","image-keyboard-response","162","281067","0.0-137.0","5d4bed118cbe900016c1f6d0","665500ab8938657b03fbdba8","665792763e86d947fcd8294a","472","stimuli/1010101.jpg","1","","prediction_trial","1","","true","","1","true","true","false","true","false","true","[1]","010","101","1","","","","","","",""
"","","","","","image-keyboard-response","163","281434","0.0-138.0","5d4bed118cbe900016c1f6d0","665500ab8938657b03fbdba8","665792763e86d947fcd8294a","365","stimuli/10101011.jpg"," ","","feedback_trial","1","","","","","","","","","","","","","","","","","","","","",""
"","","","","","image-keyboard-response","164","282123","0.0-139.0","5d4bed118cbe900016c1f6d0","665500ab8938657b03fbdba8","665792763e86d947fcd8294a","688","stimuli/2110111.jpg","0","","prediction_trial","2","","false","","2","false","false","true","true","false","false","[2]","110","111","0","","","","","","",""
"","","","","","image-keyboard-response","165","282571","0.0-140.0","5d4bed118cbe900016c1f6d0","665500ab8938657b03fbdba8","665792763e86d947fcd8294a","446","stimuli/21101112.jpg"," ","","feedback_trial","2","","","","","","","","","","","","","","","","","","","","",""
"","","","","","image-keyboard-response","166","283210","0.0-141.0","5d4bed118cbe900016c1f6d0","665500ab8938657b03fbdba8","665792763e86d947fcd8294a","639","stimuli/0001101.jpg","0","","prediction_trial","0","","true","","0","false","false","true","true","false","false","[0]","001","101","1","","","","","","",""
"","","","","","image-keyboard-response","167","283611","0.0-142.0","5d4bed118cbe900016c1f6d0","665500ab8938657b03fbdba8","665792763e86d947fcd8294a","400","stimuli/00011010.jpg"," ","","feedback_trial","0","","","","","","","","","","","","","","","","","","","","",""
"","","","","","image-keyboard-response","168","284330","0.0-143.0","5d4bed118cbe900016c1f6d0","665500ab8938657b03fbdba8","665792763e86d947fcd8294a","719","stimuli/0001011.jpg","0","","prediction_trial","0","","true","","0","true","true","true","true","true","true","[0]","001","011","1","","","","","","",""
"","","","","","image-keyboard-response","169","284611","0.0-144.0","5d4bed118cbe900016c1f6d0","665500ab8938657b03fbdba8","665792763e86d947fcd8294a","280","stimuli/00010110.jpg"," ","","feedback_trial","0","","","","","","","","","","","","","","","","","","","","",""
"","","","","","image-keyboard-response","170","285178","0.0-145.0","5d4bed118cbe900016c1f6d0","665500ab8938657b03fbdba8","665792763e86d947fcd8294a","567","stimuli/1011000.jpg","1","","prediction_trial","1","","true","","1","true","true","false","false","false","false","[2,1]","011","000","1","","","","","","",""
"","","","","","image-keyboard-response","171","285531","0.0-146.0","5d4bed118cbe900016c1f6d0","665500ab8938657b03fbdba8","665792763e86d947fcd8294a","351","stimuli/10110001.jpg"," ","","feedback_trial","2","","","","","","","","","","","","","","","","","","","","",""
"","","","","","image-keyboard-response","172","286082","0.0-147.0","5d4bed118cbe900016c1f6d0","665500ab8938657b03fbdba8","665792763e86d947fcd8294a","551","stimuli/2101010.jpg","2","","prediction_trial","2","","true","","2","true","true","false","false","false","false","[0,2]","101","010","1","","","","","","",""
"","","","","","image-keyboard-response","173","286491","0.0-148.0","5d4bed118cbe900016c1f6d0","665500ab8938657b03fbdba8","665792763e86d947fcd8294a","408","stimuli/21010102.jpg"," ","","feedback_trial","0","","","","","","","","","","","","","","","","","","","","",""
"","","","","","image-keyboard-response","174","287179","0.0-149.0","5d4bed118cbe900016c1f6d0","665500ab8938657b03fbdba8","665792763e86d947fcd8294a","688","stimuli/2010001.jpg","2","","prediction_trial","2","","true","","2","false","true","true","true","false","true","[2]","010","001","1","","","","","","",""
"","","","","","image-keyboard-response","175","287570","0.0-150.0","5d4bed118cbe900016c1f6d0","665500ab8938657b03fbdba8","665792763e86d947fcd8294a","389","stimuli/20100012.jpg"," ","","feedback_trial","2","","","","","","","","","","","","","","","","","","","","",""
"","","","","","image-keyboard-response","176","288723","0.0-151.0","5d4bed118cbe900016c1f6d0","665500ab8938657b03fbdba8","665792763e86d947fcd8294a","1151","stimuli/0111111.jpg","0","","prediction_trial","2","","false","","0","false","false","false","false","false","false","[1,2,0]","111","111","0","","","","","","",""
"","","","","","image-keyboard-response","177","289746","0.0-152.0","5d4bed118cbe900016c1f6d0","665500ab8938657b03fbdba8","665792763e86d947fcd8294a","1022","stimuli/01111112.jpg"," ","","feedback_trial","1","","","","","","","","","","","","","","","","","","","","",""
"","","","","","image-keyboard-response","178","290283","0.0-153.0","5d4bed118cbe900016c1f6d0","665500ab8938657b03fbdba8","665792763e86d947fcd8294a","536","stimuli/0111100.jpg","0","","prediction_trial","1","","false","","0","false","true","false","false","false","false","[2,1,0]","111","100","0","","","","","","",""
"","","","","","image-keyboard-response","179","290731","0.0-154.0","5d4bed118cbe900016c1f6d0","665500ab8938657b03fbdba8","665792763e86d947fcd8294a","446","stimuli/01111001.jpg"," ","","feedback_trial","2","","","","","","","","","","","","","","","","","","","","",""
"","","","","","image-keyboard-response","180","291434","0.0-155.0","5d4bed118cbe900016c1f6d0","665500ab8938657b03fbdba8","665792763e86d947fcd8294a","703","stimuli/0110111.jpg","1","","prediction_trial","1","","true","","0","false","false","false","false","false","false","[0,1]","110","111","1","","","","","","",""
"","","","","","image-keyboard-response","181","291891","0.0-156.0","5d4bed118cbe900016c1f6d0","665500ab8938657b03fbdba8","665792763e86d947fcd8294a","456","stimuli/01101111.jpg"," ","","feedback_trial","0","","","","","","","","","","","","","","","","","","","","",""
"","","","","","image-keyboard-response","182","292874","0.0-157.0","5d4bed118cbe900016c1f6d0","665500ab8938657b03fbdba8","665792763e86d947fcd8294a","981","stimuli/2010011.jpg","1","","prediction_trial","2","","false","","2","false","false","true","true","false","false","[2]","010","011","0","","","","","","",""
"","","","","","image-keyboard-response","183","293234","0.0-158.0","5d4bed118cbe900016c1f6d0","665500ab8938657b03fbdba8","665792763e86d947fcd8294a","359","stimuli/20100112.jpg"," ","","feedback_trial","2","","","","","","","","","","","","","","","","","","","","",""
"","","","","","image-keyboard-response","184","293914","0.0-159.0","5d4bed118cbe900016c1f6d0","665500ab8938657b03fbdba8","665792763e86d947fcd8294a","680","stimuli/2110011.jpg","1","","prediction_trial","2","","false","","2","false","false","true","true","false","false","[2]","110","011","0","","","","","","",""
"","","","","","image-keyboard-response","185","294370","0.0-160.0","5d4bed118cbe900016c1f6d0","665500ab8938657b03fbdba8","665792763e86d947fcd8294a","455","stimuli/21100112.jpg"," ","","feedback_trial","2","","","","","","","","","","","","","","","","","","","","",""
"","","","","","image-keyboard-response","186","294899","0.0-161.0","5d4bed118cbe900016c1f6d0","665500ab8938657b03fbdba8","665792763e86d947fcd8294a","527","stimuli/1010100.jpg","1","","prediction_trial","1","","true","","1","true","true","false","true","false","true","[1]","010","100","1","","","","","","",""
"","","","","","image-keyboard-response","187","295282","0.0-162.0","5d4bed118cbe900016c1f6d0","665500ab8938657b03fbdba8","665792763e86d947fcd8294a","382","stimuli/10101001.jpg"," ","","feedback_trial","1","","","","","","","","","","","","","","","","","","","","",""
"","","","","","image-keyboard-response","188","296018","0.0-163.0","5d4bed118cbe900016c1f6d0","665500ab8938657b03fbdba8","665792763e86d947fcd8294a","735","stimuli/1000011.jpg","1","","prediction_trial","1","","true","","1","false","false","true","true","false","false","[1]","000","011","1","","","","","","",""
"","","","","","image-keyboard-response","189","296418","0.0-164.0","5d4bed118cbe900016c1f6d0","665500ab8938657b03fbdba8","665792763e86d947fcd8294a","399","stimuli/10000111.jpg"," ","","feedback_trial","1","","","","","","","","","","","","","","","","","","","","",""
"","","","","","image-keyboard-response","190","297506","0.0-165.0","5d4bed118cbe900016c1f6d0","665500ab8938657b03fbdba8","665792763e86d947fcd8294a","1087","stimuli/0000110.jpg","0","","prediction_trial","0","","true","","0","false","false","true","true","false","false","[0]","000","110","1","","","","","","",""
"","","","","","image-keyboard-response","191","297923","0.0-166.0","5d4bed118cbe900016c1f6d0","665500ab8938657b03fbdba8","665792763e86d947fcd8294a","416","stimuli/00001100.jpg"," ","","feedback_trial","0","","","","","","","","","","","","","","","","","","","","",""
"","","","","","image-keyboard-response","192","298746","0.0-167.0","5d4bed118cbe900016c1f6d0","665500ab8938657b03fbdba8","665792763e86d947fcd8294a","822","stimuli/2101101.jpg","0","","prediction_trial","0","","true","","2","false","false","false","false","false","false","[2,0]","101","101","1","","","","","","",""
"","","","","","image-keyboard-response","193","299155","0.0-168.0","5d4bed118cbe900016c1f6d0","665500ab8938657b03fbdba8","665792763e86d947fcd8294a","408","stimuli/21011010.jpg"," ","","feedback_trial","2","","","","","","","","","","","","","","","","","","","","",""
"","","","","","image-keyboard-response","194","299938","0.0-169.0","5d4bed118cbe900016c1f6d0","665500ab8938657b03fbdba8","665792763e86d947fcd8294a","782","stimuli/1000100.jpg","1","","prediction_trial","1","","true","","1","true","true","true","true","true","true","[1]","000","100","1","","","","","","",""
"","","","","","image-keyboard-response","195","300242","0.0-170.0","5d4bed118cbe900016c1f6d0","665500ab8938657b03fbdba8","665792763e86d947fcd8294a","303","stimuli/10001001.jpg"," ","","feedback_trial","1","","","","","","","","","","","","","","","","","","","","",""
"","","","","","image-keyboard-response","196","300834","0.0-171.0","5d4bed118cbe900016c1f6d0","665500ab8938657b03fbdba8","665792763e86d947fcd8294a","592","stimuli/0010010.jpg","0","","prediction_trial","0","","true","","0","true","true","true","true","true","true","[0]","010","010","1","","","","","","",""
"","","","","","image-keyboard-response","197","301194","0.0-172.0","5d4bed118cbe900016c1f6d0","665500ab8938657b03fbdba8","665792763e86d947fcd8294a","359","stimuli/00100100.jpg"," ","","feedback_trial","0","","","","","","","","","","","","","","","","","","","","",""
"","","","","","image-keyboard-response","198","301994","0.0-173.0","5d4bed118cbe900016c1f6d0","665500ab8938657b03fbdba8","665792763e86d947fcd8294a","799","stimuli/0011011.jpg","0","","prediction_trial","0","","true","","0","true","true","true","true","true","true","[0]","011","011","1","","","","","","",""
"","","","","","image-keyboard-response","199","302266","0.0-174.0","5d4bed118cbe900016c1f6d0","665500ab8938657b03fbdba8","665792763e86d947fcd8294a","270","stimuli/00110110.jpg"," ","","feedback_trial","0","","","","","","","","","","","","","","","","","","","","",""
"","","","","","image-keyboard-response","200","302866","0.0-175.0","5d4bed118cbe900016c1f6d0","665500ab8938657b03fbdba8","665792763e86d947fcd8294a","600","stimuli/2000110.jpg","2","","prediction_trial","2","","true","","2","true","true","true","true","true","true","[2]","000","110","1","","","","","","",""
"","","","","","image-keyboard-response","201","303194","0.0-176.0","5d4bed118cbe900016c1f6d0","665500ab8938657b03fbdba8","665792763e86d947fcd8294a","327","stimuli/20001102.jpg"," ","","feedback_trial","2","","","","","","","","","","","","","","","","","","","","",""
"","","","","","image-keyboard-response","202","303842","0.0-177.0","5d4bed118cbe900016c1f6d0","665500ab8938657b03fbdba8","665792763e86d947fcd8294a","647","stimuli/2010110.jpg","2","","prediction_trial","2","","true","","2","true","true","true","true","true","true","[2]","010","110","1","","","","","","",""
"","","","","","image-keyboard-response","203","304122","0.0-178.0","5d4bed118cbe900016c1f6d0","665500ab8938657b03fbdba8","665792763e86d947fcd8294a","279","stimuli/20101102.jpg"," ","","feedback_trial","2","","","","","","","","","","","","","","","","","","","","",""
"","","","","","image-keyboard-response","204","304754","0.0-179.0","5d4bed118cbe900016c1f6d0","665500ab8938657b03fbdba8","665792763e86d947fcd8294a","631","stimuli/0011010.jpg","0","","prediction_trial","0","","true","","0","true","true","true","true","true","true","[0]","011","010","1","","","","","","",""
"","","","","","image-keyboard-response","205","305058","0.0-180.0","5d4bed118cbe900016c1f6d0","665500ab8938657b03fbdba8","665792763e86d947fcd8294a","303","stimuli/00110100.jpg"," ","","feedback_trial","0","","","","","","","","","","","","","","","","","","","","",""
"","","","","","image-keyboard-response","206","305874","0.0-181.0","5d4bed118cbe900016c1f6d0","665500ab8938657b03fbdba8","665792763e86d947fcd8294a","815","stimuli/0111101.jpg","2","","prediction_trial","1","","false","","0","false","false","false","false","false","false","[1,2,0]","111","101","0","","","","","","",""
"","","","","","image-keyboard-response","207","306330","0.0-182.0","5d4bed118cbe900016c1f6d0","665500ab8938657b03fbdba8","665792763e86d947fcd8294a","455","stimuli/01111011.jpg"," ","","feedback_trial","1","","","","","","","","","","","","","","","","","","","","",""
"","","","","","image-keyboard-response","208","306786","0.0-183.0","5d4bed118cbe900016c1f6d0","665500ab8938657b03fbdba8","665792763e86d947fcd8294a","454","stimuli/2111000.jpg","2","","prediction_trial","1","","false","","2","true","true","false","false","false","false","[0,1,2]","111","000","0","","","","","","",""
"","","","","","image-keyboard-response","209","307306","0.0-184.0","5d4bed118cbe900016c1f6d0","665500ab8938657b03fbdba8","665792763e86d947fcd8294a","519","stimuli/21110001.jpg"," ","","feedback_trial","0","","","","","","","","","","","","","","","","","","","","",""
"","","","","","image-keyboard-response","210","307843","0.0-185.0","5d4bed118cbe900016c1f6d0","665500ab8938657b03fbdba8","665792763e86d947fcd8294a","536","stimuli/1110011.jpg","2","","prediction_trial","0","","false","","1","false","false","false","false","false","false","[1,0]","110","011","0","","","","","","",""
"","","","","","image-keyboard-response","211","308386","0.0-186.0","5d4bed118cbe900016c1f6d0","665500ab8938657b03fbdba8","665792763e86d947fcd8294a","541","stimuli/11100110.jpg"," ","","feedback_trial","1","","","","","","","","","","","","","","","","","","","","",""
"","","","","","image-keyboard-response","212","308914","0.0-187.0","5d4bed118cbe900016c1f6d0","665500ab8938657b03fbdba8","665792763e86d947fcd8294a","526","stimuli/0010011.jpg","0","","prediction_trial","0","","true","","0","true","true","true","true","true","true","[0]","010","011","1","","","","","","",""
"","","","","","image-keyboard-response","213","309307","0.0-188.0","5d4bed118cbe900016c1f6d0","665500ab8938657b03fbdba8","665792763e86d947fcd8294a","392","stimuli/00100110.jpg"," ","","feedback_trial","0","","","","","","","","","","","","","","","","","","","","",""
"","","","","","image-keyboard-response","214","309954","0.0-189.0","5d4bed118cbe900016c1f6d0","665500ab8938657b03fbdba8","665792763e86d947fcd8294a","646","stimuli/1101000.jpg","1","","prediction_trial","1","","true","","1","true","true","true","true","true","true","[1]","101","000","1","","","","","","",""
"","","","","","image-keyboard-response","215","310250","0.0-190.0","5d4bed118cbe900016c1f6d0","665500ab8938657b03fbdba8","665792763e86d947fcd8294a","295","stimuli/11010001.jpg"," ","","feedback_trial","1","","","","","","","","","","","","","","","","","","","","",""
"","","","","","image-keyboard-response","216","310914","0.0-191.0","5d4bed118cbe900016c1f6d0","665500ab8938657b03fbdba8","665792763e86d947fcd8294a","664","stimuli/2000011.jpg","1","","prediction_trial","2","","false","","2","false","false","true","true","false","false","[2]","000","011","0","","","","","","",""
"","","","","","image-keyboard-response","217","311354","0.0-192.0","5d4bed118cbe900016c1f6d0","665500ab8938657b03fbdba8","665792763e86d947fcd8294a","439","stimuli/20000112.jpg"," ","","feedback_trial","2","","","","","","","","","","","","","","","","","","","","",""
"","","","","","image-keyboard-response","218","311819","0.0-193.0","5d4bed118cbe900016c1f6d0","665500ab8938657b03fbdba8","665792763e86d947fcd8294a","463","stimuli/0000010.jpg","0","","prediction_trial","0","","true","","0","true","true","true","true","true","true","[0]","000","010","1","","","","","","",""
"","","","","","image-keyboard-response","219","312186","0.0-194.0","5d4bed118cbe900016c1f6d0","665500ab8938657b03fbdba8","665792763e86d947fcd8294a","366","stimuli/00000100.jpg"," ","","feedback_trial","0","","","","","","","","","","","","","","","","","","","","",""
"","","","","","image-keyboard-response","220","313026","0.0-195.0","5d4bed118cbe900016c1f6d0","665500ab8938657b03fbdba8","665792763e86d947fcd8294a","839","stimuli/2000101.jpg","2","","prediction_trial","2","","true","","2","false","false","true","true","false","false","[2]","000","101","1","","","","","","",""
"","","","","","image-keyboard-response","221","313442","0.0-196.0","5d4bed118cbe900016c1f6d0","665500ab8938657b03fbdba8","665792763e86d947fcd8294a","415","stimuli/20001012.jpg"," ","","feedback_trial","2","","","","","","","","","","","","","","","","","","","","",""
"","","","","","image-keyboard-response","222","314107","0.0-197.0","5d4bed118cbe900016c1f6d0","665500ab8938657b03fbdba8","665792763e86d947fcd8294a","663","stimuli/0010101.jpg","0","","prediction_trial","0","","true","","0","false","false","true","true","false","false","[0]","010","101","1","","","","","","",""
"","","","","","image-keyboard-response","223","314602","0.0-198.0","5d4bed118cbe900016c1f6d0","665500ab8938657b03fbdba8","665792763e86d947fcd8294a","494","stimuli/00101010.jpg"," ","","feedback_trial","0","","","","","","","","","","","","","","","","","","","","",""
"","","","","","image-keyboard-response","224","315098","0.0-199.0","5d4bed118cbe900016c1f6d0","665500ab8938657b03fbdba8","665792763e86d947fcd8294a","495","stimuli/2110010.jpg","2","","prediction_trial","2","","true","","2","true","true","true","true","true","true","[2]","110","010","1","","","","","","",""
"","","","","","image-keyboard-response","225","315466","0.0-200.0","5d4bed118cbe900016c1f6d0","665500ab8938657b03fbdba8","665792763e86d947fcd8294a","367","stimuli/21100102.jpg"," ","","feedback_trial","2","","","","","","","","","","","","","","","","","","","","",""
"","","","","","image-keyboard-response","226","316346","0.0-201.0","5d4bed118cbe900016c1f6d0","665500ab8938657b03fbdba8","665792763e86d947fcd8294a","879","stimuli/2011011.jpg","1","","prediction_trial","1","","true","","2","false","false","false","false","false","false","[1,2]","011","011","1","","","","","","",""
"","","","","","image-keyboard-response","227","316714","0.0-202.0","5d4bed118cbe900016c1f6d0","665500ab8938657b03fbdba8","665792763e86d947fcd8294a","367","stimuli/20110111.jpg"," ","","feedback_trial","1","","","","","","","","","","","","","","","","","","","","",""
"","","","","","image-keyboard-response","228","317250","0.0-203.0","5d4bed118cbe900016c1f6d0","665500ab8938657b03fbdba8","665792763e86d947fcd8294a","534","stimuli/2110110.jpg","2","","prediction_trial","2","","true","","2","true","true","true","true","true","true","[2]","110","110","1","","","","","","",""
"","","","","","image-keyboard-response","229","317618","0.0-204.0","5d4bed118cbe900016c1f6d0","665500ab8938657b03fbdba8","665792763e86d947fcd8294a","368","stimuli/21101102.jpg"," ","","feedback_trial","2","","","","","","","","","","","","","","","","","","","","",""
"","","","","","image-keyboard-response","230","318362","0.0-205.0","5d4bed118cbe900016c1f6d0","665500ab8938657b03fbdba8","665792763e86d947fcd8294a","743","stimuli/2100101.jpg","0","","prediction_trial","2","","false","","2","false","false","true","true","false","false","[2]","100","101","0","","","","","","",""
"","","","","","image-keyboard-response","231","318802","0.0-206.0","5d4bed118cbe900016c1f6d0","665500ab8938657b03fbdba8","665792763e86d947fcd8294a","439","stimuli/21001012.jpg"," ","","feedback_trial","2","","","","","","","","","","","","","","","","","","","","",""
"","","","","","image-keyboard-response","232","319491","0.0-207.0","5d4bed118cbe900016c1f6d0","665500ab8938657b03fbdba8","665792763e86d947fcd8294a","687","stimuli/1011011.jpg","1","","prediction_trial","2","","false","","1","false","false","false","false","false","false","[1,2]","011","011","0","","","","","","",""
"","","","","","image-keyboard-response","233","319930","0.0-208.0","5d4bed118cbe900016c1f6d0","665500ab8938657b03fbdba8","665792763e86d947fcd8294a","438","stimuli/10110112.jpg"," ","","feedback_trial","1","","","","","","","","","","","","","","","","","","","","",""
"","","","","","image-keyboard-response","234","320490","0.0-209.0","5d4bed118cbe900016c1f6d0","665500ab8938657b03fbdba8","665792763e86d947fcd8294a","559","stimuli/0100110.jpg","0","","prediction_trial","0","","true","","0","false","false","false","true","false","false","[0]","100","110","1","","","","","","",""
"","","","","","image-keyboard-response","235","321002","0.0-210.0","5d4bed118cbe900016c1f6d0","665500ab8938657b03fbdba8","665792763e86d947fcd8294a","511","stimuli/01001100.jpg"," ","","feedback_trial","0","","","","","","","","","","","","","","","","","","","","",""
"","","","","","image-keyboard-response","236","343794","0.0-211.0","5d4bed118cbe900016c1f6d0","665500ab8938657b03fbdba8","665792763e86d947fcd8294a","22791","stimuli/0101111.jpg","0","","prediction_trial","2","","false","","0","false","false","false","false","false","false","[0,2]","101","111","0","","","","","","",""
"","","","","","image-keyboard-response","237","344474","0.0-212.0","5d4bed118cbe900016c1f6d0","665500ab8938657b03fbdba8","665792763e86d947fcd8294a","678","stimuli/01011112.jpg"," ","","feedback_trial","0","","","","","","","","","","","","","","","","","","","","",""
"","","","","","image-keyboard-response","238","345234","0.0-213.0","5d4bed118cbe900016c1f6d0","665500ab8938657b03fbdba8","665792763e86d947fcd8294a","758","stimuli/1010010.jpg","1","","prediction_trial","1","","true","","1","false","true","false","true","false","true","[1]","010","010","1","","","","","","",""
"","","","","","image-keyboard-response","239","345650","0.0-214.0","5d4bed118cbe900016c1f6d0","665500ab8938657b03fbdba8","665792763e86d947fcd8294a","416","stimuli/10100101.jpg"," ","","feedback_trial","1","","","","","","","","","","","","","","","","","","","","",""
"","","","","","image-keyboard-response","240","346266","0.0-215.0","5d4bed118cbe900016c1f6d0","665500ab8938657b03fbdba8","665792763e86d947fcd8294a","615","stimuli/1110001.jpg","1","","prediction_trial","0","","false","","1","true","true","false","false","false","false","[1,0]","110","001","0","","","","","","",""
"","","","","","image-keyboard-response","241","346834","0.0-216.0","5d4bed118cbe900016c1f6d0","665500ab8938657b03fbdba8","665792763e86d947fcd8294a","567","stimuli/11100010.jpg"," ","","feedback_trial","1","","","","","","","","","","","","","","","","","","","","",""
"","","","","","image-keyboard-response","242","347289","0.0-217.0","5d4bed118cbe900016c1f6d0","665500ab8938657b03fbdba8","665792763e86d947fcd8294a","455","stimuli/2011010.jpg","2","","prediction_trial","2","","true","","2","true","true","false","false","false","false","[2,1]","011","010","1","","","","","","",""
"","","","","","image-keyboard-response","243","347689","0.0-218.0","5d4bed118cbe900016c1f6d0","665500ab8938657b03fbdba8","665792763e86d947fcd8294a","399","stimuli/20110102.jpg"," ","","feedback_trial","2","","","","","","","","","","","","","","","","","","","","",""
"","","","","","image-keyboard-response","244","349041","0.0-219.0","5d4bed118cbe900016c1f6d0","665500ab8938657b03fbdba8","665792763e86d947fcd8294a","1351","stimuli/2011101.jpg","2","","prediction_trial","1","","false","","2","false","false","false","false","false","false","[2,1]","011","101","0","","","","","","",""
"","","","","","image-keyboard-response","245","349442","0.0-220.0","5d4bed118cbe900016c1f6d0","665500ab8938657b03fbdba8","665792763e86d947fcd8294a","400","stimuli/20111011.jpg"," ","","feedback_trial","2","","","","","","","","","","","","","","","","","","","","",""
"","","","","","image-keyboard-response","246","350026","0.0-221.0","5d4bed118cbe900016c1f6d0","665500ab8938657b03fbdba8","665792763e86d947fcd8294a","582","stimuli/1100110.jpg","0","","prediction_trial","1","","false","","1","false","false","true","true","false","false","[1]","100","110","0","","","","","","",""
"","","","","","image-keyboard-response","247","350481","0.0-222.0","5d4bed118cbe900016c1f6d0","665500ab8938657b03fbdba8","665792763e86d947fcd8294a","453","stimuli/11001101.jpg"," ","","feedback_trial","1","","","","","","","","","","","","","","","","","","","","",""
"","","","","","image-keyboard-response","248","350930","0.0-223.0","5d4bed118cbe900016c1f6d0","665500ab8938657b03fbdba8","665792763e86d947fcd8294a","447","stimuli/0110110.jpg","1","","prediction_trial","1","","true","","0","false","false","false","false","false","false","[1,0]","110","110","1","","","","","","",""
"","","","","","image-keyboard-response","249","351402","0.0-224.0","5d4bed118cbe900016c1f6d0","665500ab8938657b03fbdba8","665792763e86d947fcd8294a","471","stimuli/01101101.jpg"," ","","feedback_trial","1","","","","","","","","","","","","","","","","","","","","",""
"","","","","","image-keyboard-response","250","352386","0.0-225.0","5d4bed118cbe900016c1f6d0","665500ab8938657b03fbdba8","665792763e86d947fcd8294a","983","stimuli/0001111.jpg","1","","prediction_trial","0","","false","","0","false","false","true","true","false","false","[0]","001","111","0","","","","","","",""
"","","","","","image-keyboard-response","251","352769","0.0-226.0","5d4bed118cbe900016c1f6d0","665500ab8938657b03fbdba8","665792763e86d947fcd8294a","383","stimuli/00011110.jpg"," ","","feedback_trial","0","","","","","","","","","","","","","","","","","","","","",""
"","","","","","image-keyboard-response","252","353274","0.0-227.0","5d4bed118cbe900016c1f6d0","665500ab8938657b03fbdba8","665792763e86d947fcd8294a","503","stimuli/2011000.jpg","2","","prediction_trial","2","","true","","2","true","true","false","false","false","false","[2,1]","011","000","1","","","","","","",""
"","","","","","image-keyboard-response","253","353754","0.0-228.0","5d4bed118cbe900016c1f6d0","665500ab8938657b03fbdba8","665792763e86d947fcd8294a","477","stimuli/20110002.jpg"," ","","feedback_trial","2","","","","","","","","","","","","","","","","","","","","",""
"","","","","","image-keyboard-response","254","367378","0.0-229.0","5d4bed118cbe900016c1f6d0","665500ab8938657b03fbdba8","665792763e86d947fcd8294a","13623","stimuli/0101001.jpg","0","","prediction_trial","0","","true","","0","true","true","false","false","false","false","[2,0]","101","001","1","","","","","","",""
"","","","","","image-keyboard-response","255","367881","0.0-230.0","5d4bed118cbe900016c1f6d0","665500ab8938657b03fbdba8","665792763e86d947fcd8294a","502","stimuli/01010010.jpg"," ","","feedback_trial","2","","","","","","","","","","","","","","","","","","","","",""
"","","","","","image-keyboard-response","256","368497","0.0-231.0","5d4bed118cbe900016c1f6d0","665500ab8938657b03fbdba8","665792763e86d947fcd8294a","615","stimuli/0101011.jpg","0","","prediction_trial","2","","false","","0","true","true","false","false","false","false","[0,2]","101","011","0","","","","","","",""
"","","","","","image-keyboard-response","257","368993","0.0-232.0","5d4bed118cbe900016c1f6d0","665500ab8938657b03fbdba8","665792763e86d947fcd8294a","495","stimuli/01010112.jpg"," ","","feedback_trial","0","","","","","","","","","","","","","","","","","","","","",""
"","","","","","image-keyboard-response","258","369610","0.0-233.0","5d4bed118cbe900016c1f6d0","665500ab8938657b03fbdba8","665792763e86d947fcd8294a","616","stimuli/1001100.jpg","1","","prediction_trial","1","","true","","1","true","true","true","true","true","true","[1]","001","100","1","","","","","","",""
"","","","","","image-keyboard-response","259","369985","0.0-234.0","5d4bed118cbe900016c1f6d0","665500ab8938657b03fbdba8","665792763e86d947fcd8294a","373","stimuli/10011001.jpg"," ","","feedback_trial","1","","","","","","","","","","","","","","","","","","","","",""
"","","","","","image-keyboard-response","260","370617","0.0-235.0","5d4bed118cbe900016c1f6d0","665500ab8938657b03fbdba8","665792763e86d947fcd8294a","631","stimuli/1010111.jpg","1","","prediction_trial","1","","true","","1","false","false","false","true","false","false","[1]","010","111","1","","","","","","",""
"","","","","","image-keyboard-response","261","371081","0.0-236.0","5d4bed118cbe900016c1f6d0","665500ab8938657b03fbdba8","665792763e86d947fcd8294a","463","stimuli/10101111.jpg"," ","","feedback_trial","1","","","","","","","","","","","","","","","","","","","","",""
"","","","","","image-keyboard-response","262","371905","0.0-237.0","5d4bed118cbe900016c1f6d0","665500ab8938657b03fbdba8","665792763e86d947fcd8294a","823","stimuli/1000110.jpg","1","","prediction_trial","1","","true","","1","false","false","true","true","false","false","[1]","000","110","1","","","","","","",""
"","","","","","image-keyboard-response","263","372417","0.0-238.0","5d4bed118cbe900016c1f6d0","665500ab8938657b03fbdba8","665792763e86d947fcd8294a","511","stimuli/10001101.jpg"," ","","feedback_trial","1","","","","","","","","","","","","","","","","","","","","",""
"","","","","","image-keyboard-response","264","373001","0.0-239.0","5d4bed118cbe900016c1f6d0","665500ab8938657b03fbdba8","665792763e86d947fcd8294a","583","stimuli/0101000.jpg","0","","prediction_trial","0","","true","","0","true","true","false","false","false","false","[0,2]","101","000","1","","","","","","",""
"","","","","","image-keyboard-response","265","373521","0.0-240.0","5d4bed118cbe900016c1f6d0","665500ab8938657b03fbdba8","665792763e86d947fcd8294a","519","stimuli/01010000.jpg"," ","","feedback_trial","0","","","","","","","","","","","","","","","","","","","","",""
"","","","","","image-keyboard-response","266","374145","0.0-241.0","5d4bed118cbe900016c1f6d0","665500ab8938657b03fbdba8","665792763e86d947fcd8294a","623","stimuli/2100110.jpg","2","","prediction_trial","2","","true","","2","true","true","true","true","true","true","[2]","100","110","1","","","","","","",""
"","","","","","image-keyboard-response","267","374569","0.0-242.0","5d4bed118cbe900016c1f6d0","665500ab8938657b03fbdba8","665792763e86d947fcd8294a","423","stimuli/21001102.jpg"," ","","feedback_trial","2","","","","","","","","","","","","","","","","","","","","",""
"","","","","","image-keyboard-response","268","375121","0.0-243.0","5d4bed118cbe900016c1f6d0","665500ab8938657b03fbdba8","665792763e86d947fcd8294a","551","stimuli/1110000.jpg","1","","prediction_trial","0","","false","","1","true","true","false","false","false","false","[1,0]","110","000","0","","","","","","",""
"","","","","","image-keyboard-response","269","375633","0.0-244.0","5d4bed118cbe900016c1f6d0","665500ab8938657b03fbdba8","665792763e86d947fcd8294a","511","stimuli/11100000.jpg"," ","","feedback_trial","1","","","","","","","","","","","","","","","","","","","","",""
"","","","","","image-keyboard-response","270","376225","0.0-245.0","5d4bed118cbe900016c1f6d0","665500ab8938657b03fbdba8","665792763e86d947fcd8294a","590","stimuli/2000001.jpg","2","","prediction_trial","2","","true","","2","false","true","true","true","false","true","[2]","000","001","1","","","","","","",""
"","","","","","image-keyboard-response","271","376657","0.0-246.0","5d4bed118cbe900016c1f6d0","665500ab8938657b03fbdba8","665792763e86d947fcd8294a","432","stimuli/20000012.jpg"," ","","feedback_trial","2","","","","","","","","","","","","","","","","","","","","",""
"","","","","","image-keyboard-response","272","377602","0.0-247.0","5d4bed118cbe900016c1f6d0","665500ab8938657b03fbdba8","665792763e86d947fcd8294a","944","stimuli/0010111.jpg","1","","prediction_trial","0","","false","","0","false","false","true","true","false","false","[0]","010","111","0","","","","","","",""
"","","","","","image-keyboard-response","273","378113","0.0-248.0","5d4bed118cbe900016c1f6d0","665500ab8938657b03fbdba8","665792763e86d947fcd8294a","510","stimuli/00101110.jpg"," ","","feedback_trial","0","","","","","","","","","","","","","","","","","","","","",""
"","","","","","image-keyboard-response","274","378625","0.0-249.0","5d4bed118cbe900016c1f6d0","665500ab8938657b03fbdba8","665792763e86d947fcd8294a","511","stimuli/2100000.jpg","2","","prediction_trial","2","","true","","2","true","true","true","true","true","true","[2]","100","000","1","","","","","","",""
"","","","","","image-keyboard-response","275","379106","0.0-250.0","5d4bed118cbe900016c1f6d0","665500ab8938657b03fbdba8","665792763e86d947fcd8294a","479","stimuli/21000002.jpg"," ","","feedback_trial","2","","","","","","","","","","","","","","","","","","","","",""
"","","","","","image-keyboard-response","276","379809","0.0-251.0","5d4bed118cbe900016c1f6d0","665500ab8938657b03fbdba8","665792763e86d947fcd8294a","702","stimuli/0011100.jpg","0","","prediction_trial","0","","true","","0","false","true","true","true","false","true","[0]","011","100","1","","","","","","",""
"","","","","","image-keyboard-response","277","380322","0.0-252.0","5d4bed118cbe900016c1f6d0","665500ab8938657b03fbdba8","665792763e86d947fcd8294a","511","stimuli/00111000.jpg"," ","","feedback_trial","0","","","","","","","","","","","","","","","","","","","","",""
"","","","","","image-keyboard-response","278","381321","0.0-253.0","5d4bed118cbe900016c1f6d0","665500ab8938657b03fbdba8","665792763e86d947fcd8294a","997","stimuli/1001011.jpg","2","","prediction_trial","1","","false","","1","false","false","true","true","false","false","[1]","001","011","0","","","","","","",""
"","","","","","image-keyboard-response","279","381929","0.0-254.0","5d4bed118cbe900016c1f6d0","665500ab8938657b03fbdba8","665792763e86d947fcd8294a","607","stimuli/10010111.jpg"," ","","feedback_trial","1","","","","","","","","","","","","","","","","","","","","",""
"","","","","","image-keyboard-response","280","382377","0.0-255.0","5d4bed118cbe900016c1f6d0","665500ab8938657b03fbdba8","665792763e86d947fcd8294a","448","stimuli/2001110.jpg","2","","prediction_trial","2","","true","","2","true","true","false","true","false","true","[2]","001","110","1","","","","","","",""
"","","","","","image-keyboard-response","281","382874","0.0-256.0","5d4bed118cbe900016c1f6d0","665500ab8938657b03fbdba8","665792763e86d947fcd8294a","496","stimuli/20011102.jpg"," ","","feedback_trial","2","","","","","","","","","","","","","","","","","","","","",""
"","","","","","image-keyboard-response","282","383753","0.0-257.0","5d4bed118cbe900016c1f6d0","665500ab8938657b03fbdba8","665792763e86d947fcd8294a","877","stimuli/2100011.jpg","1","","prediction_trial","2","","false","","2","false","false","true","true","false","false","[2]","100","011","0","","","","","","",""
"","","","","","image-keyboard-response","283","384186","0.0-258.0","5d4bed118cbe900016c1f6d0","665500ab8938657b03fbdba8","665792763e86d947fcd8294a","431","stimuli/21000112.jpg"," ","","feedback_trial","2","","","","","","","","","","","","","","","","","","","","",""
"","","","","","image-keyboard-response","284","384658","0.0-259.0","5d4bed118cbe900016c1f6d0","665500ab8938657b03fbdba8","665792763e86d947fcd8294a","471","stimuli/1011100.jpg","1","","prediction_trial","2","","false","","1","true","true","false","false","false","false","[1,2]","011","100","0","","","","","","",""
"","","","","","image-keyboard-response","285","385217","0.0-260.0","5d4bed118cbe900016c1f6d0","665500ab8938657b03fbdba8","665792763e86d947fcd8294a","558","stimuli/10111002.jpg"," ","","feedback_trial","1","","","","","","","","","","","","","","","","","","","","",""
"","","","","","image-keyboard-response","286","385873","0.0-261.0","5d4bed118cbe900016c1f6d0","665500ab8938657b03fbdba8","665792763e86d947fcd8294a","655","stimuli/0100111.jpg","1","","prediction_trial","0","","false","","0","false","false","false","true","false","false","[0]","100","111","0","","","","","","",""
"","","","","","image-keyboard-response","287","386401","0.0-262.0","5d4bed118cbe900016c1f6d0","665500ab8938657b03fbdba8","665792763e86d947fcd8294a","527","stimuli/01001110.jpg"," ","","feedback_trial","0","","","","","","","","","","","","","","","","","","","","",""
"","","","","","image-keyboard-response","288","387217","0.0-263.0","5d4bed118cbe900016c1f6d0","665500ab8938657b03fbdba8","665792763e86d947fcd8294a","814","stimuli/1011010.jpg","1","","prediction_trial","2","","false","","1","false","true","false","false","false","false","[2,1]","011","010","0","","","","","","",""
"","","","","","image-keyboard-response","289","387713","0.0-264.0","5d4bed118cbe900016c1f6d0","665500ab8938657b03fbdba8","665792763e86d947fcd8294a","496","stimuli/10110102.jpg"," ","","feedback_trial","2","","","","","","","","","","","","","","","","","","","","",""
"","","","","","image-keyboard-response","290","388426","0.0-265.0","5d4bed118cbe900016c1f6d0","665500ab8938657b03fbdba8","665792763e86d947fcd8294a","711","stimuli/0000101.jpg","0","","prediction_trial","0","","true","","0","false","false","true","true","false","false","[0]","000","101","1","","","","","","",""
"","","","","","image-keyboard-response","291","389121","0.0-266.0","5d4bed118cbe900016c1f6d0","665500ab8938657b03fbdba8","665792763e86d947fcd8294a","694","stimuli/00001010.jpg"," ","","feedback_trial","0","","","","","","","","","","","","","","","","","","","","",""
"","","","","","image-keyboard-response","292","390289","0.0-267.0","5d4bed118cbe900016c1f6d0","665500ab8938657b03fbdba8","665792763e86d947fcd8294a","1167","stimuli/0010100.jpg","0","","prediction_trial","0","","true","","0","false","true","true","true","false","true","[0]","010","100","1","","","","","","",""
"","","","","","image-keyboard-response","293","390858","0.0-268.0","5d4bed118cbe900016c1f6d0","665500ab8938657b03fbdba8","665792763e86d947fcd8294a","568","stimuli/00101000.jpg"," ","","feedback_trial","0","","","","","","","","","","","","","","","","","","","","",""
"","","","","","image-keyboard-response","294","391681","0.0-269.0","5d4bed118cbe900016c1f6d0","665500ab8938657b03fbdba8","665792763e86d947fcd8294a","821","stimuli/0111011.jpg","0","","prediction_trial","0","","true","","0","true","true","false","false","false","false","[2,0,1]","111","011","1","","","","","","",""
"","","","","","image-keyboard-response","295","392177","0.0-270.0","5d4bed118cbe900016c1f6d0","665500ab8938657b03fbdba8","665792763e86d947fcd8294a","495","stimuli/01110110.jpg"," ","","feedback_trial","2","","","","","","","","","","","","","","","","","","","","",""
"","","","","","image-keyboard-response","296","392778","0.0-271.0","5d4bed118cbe900016c1f6d0","665500ab8938657b03fbdba8","665792763e86d947fcd8294a","599","stimuli/2101000.jpg","2","","prediction_trial","2","","true","","2","true","true","false","false","false","false","[2,0]","101","000","1","","","","","","",""
"","","","","","image-keyboard-response","297","393257","0.0-272.0","5d4bed118cbe900016c1f6d0","665500ab8938657b03fbdba8","665792763e86d947fcd8294a","478","stimuli/21010002.jpg"," ","","feedback_trial","2","","","","","","","","","","","","","","","","","","","","",""
"","","","","","image-keyboard-response","298","394081","0.0-273.0","5d4bed118cbe900016c1f6d0","665500ab8938657b03fbdba8","665792763e86d947fcd8294a","823","stimuli/1111010.jpg","1","","prediction_trial","2","","false","","1","false","true","false","false","false","false","[0,1,2]","111","010","0","","","","","","",""
"","","","","","image-keyboard-response","299","394554","0.0-274.0","5d4bed118cbe900016c1f6d0","665500ab8938657b03fbdba8","665792763e86d947fcd8294a","471","stimuli/11110102.jpg"," ","","feedback_trial","0","","","","","","","","","","","","","","","","","","","","",""
"","","","","","image-keyboard-response","300","395042","0.0-275.0","5d4bed118cbe900016c1f6d0","665500ab8938657b03fbdba8","665792763e86d947fcd8294a","486","stimuli/2001000.jpg","2","","prediction_trial","2","","true","","2","true","true","false","true","false","true","[2]","001","000","1","","","","","","",""
"","","","","","image-keyboard-response","301","395602","0.0-276.0","5d4bed118cbe900016c1f6d0","665500ab8938657b03fbdba8","665792763e86d947fcd8294a","558","stimuli/20010002.jpg"," ","","feedback_trial","2","","","","","","","","","","","","","","","","","","","","",""
"","","","","","image-keyboard-response","302","396169","0.0-277.0","5d4bed118cbe900016c1f6d0","665500ab8938657b03fbdba8","665792763e86d947fcd8294a","566","stimuli/0111010.jpg","0","","prediction_trial","0","","true","","0","true","true","false","false","false","false","[0,1,2]","111","010","1","","","","","","",""
"","","","","","image-keyboard-response","303","396666","0.0-278.0","5d4bed118cbe900016c1f6d0","665500ab8938657b03fbdba8","665792763e86d947fcd8294a","496","stimuli/01110100.jpg"," ","","feedback_trial","0","","","","","","","","","","","","","","","","","","","","",""
"","","","","","image-keyboard-response","304","397537","0.0-279.0","5d4bed118cbe900016c1f6d0","665500ab8938657b03fbdba8","665792763e86d947fcd8294a","869","stimuli/0000100.jpg","0","","prediction_trial","0","","true","","0","false","true","true","true","false","true","[0]","000","100","1","","","","","","",""
"","","","","","image-keyboard-response","305","398073","0.0-280.0","5d4bed118cbe900016c1f6d0","665500ab8938657b03fbdba8","665792763e86d947fcd8294a","535","stimuli/00001000.jpg"," ","","feedback_trial","0","","","","","","","","","","","","","","","","","","","","",""
"","","","","","image-keyboard-response","306","398825","0.0-281.0","5d4bed118cbe900016c1f6d0","665500ab8938657b03fbdba8","665792763e86d947fcd8294a","751","stimuli/0110010.jpg","0","","prediction_trial","1","","false","","0","true","true","false","false","false","false","[1,0]","110","010","0","","","","","","",""
"","","","","","image-keyboard-response","307","399369","0.0-282.0","5d4bed118cbe900016c1f6d0","665500ab8938657b03fbdba8","665792763e86d947fcd8294a","543","stimuli/01100101.jpg"," ","","feedback_trial","1","","","","","","","","","","","","","","","","","","","","",""
"","","","","","image-keyboard-response","308","399850","0.0-283.0","5d4bed118cbe900016c1f6d0","665500ab8938657b03fbdba8","665792763e86d947fcd8294a","479","stimuli/2010000.jpg","2","","prediction_trial","2","","true","","2","true","true","true","true","true","true","[2]","010","000","1","","","","","","",""
"","","","","","image-keyboard-response","309","400346","0.0-284.0","5d4bed118cbe900016c1f6d0","665500ab8938657b03fbdba8","665792763e86d947fcd8294a","494","stimuli/20100002.jpg"," ","","feedback_trial","2","","","","","","","","","","","","","","","","","","","","",""
"","","","","","image-keyboard-response","310","401265","0.0-285.0","5d4bed118cbe900016c1f6d0","665500ab8938657b03fbdba8","665792763e86d947fcd8294a","917","stimuli/1000000.jpg","1","","prediction_trial","1","","true","","1","true","true","true","true","true","true","[1]","000","000","1","","","","","","",""
"","","","","","image-keyboard-response","311","401809","0.0-286.0","5d4bed118cbe900016c1f6d0","665500ab8938657b03fbdba8","665792763e86d947fcd8294a","544","stimuli/10000001.jpg"," ","","feedback_trial","1","","","","","","","","","","","","","","","","","","","","",""
"","","","","","image-keyboard-response","312","402417","0.0-287.0","5d4bed118cbe900016c1f6d0","665500ab8938657b03fbdba8","665792763e86d947fcd8294a","606","stimuli/2100010.jpg","2","","prediction_trial","2","","true","","2","true","true","true","true","true","true","[2]","100","010","1","","","","","","",""
"","","","","","image-keyboard-response","313","402889","0.0-288.0","5d4bed118cbe900016c1f6d0","665500ab8938657b03fbdba8","665792763e86d947fcd8294a","471","stimuli/21000102.jpg"," ","","feedback_trial","2","","","","","","","","","","","","","","","","","","","","",""
"","","","","","image-keyboard-response","314","403609","0.0-289.0","5d4bed118cbe900016c1f6d0","665500ab8938657b03fbdba8","665792763e86d947fcd8294a","719","stimuli/1111001.jpg","1","","prediction_trial","2","","false","","1","true","true","false","false","false","false","[2,0,1]","111","001","0","","","","","","",""
"","","","","","image-keyboard-response","315","404185","0.0-290.0","5d4bed118cbe900016c1f6d0","665500ab8938657b03fbdba8","665792763e86d947fcd8294a","575","stimuli/11110012.jpg"," ","","feedback_trial","2","","","","","","","","","","","","","","","","","","","","",""
"","","","","","image-keyboard-response","316","404753","0.0-291.0","5d4bed118cbe900016c1f6d0","665500ab8938657b03fbdba8","665792763e86d947fcd8294a","567","stimuli/1111000.jpg","1","","prediction_trial","1","","true","","1","true","true","false","false","false","false","[2,1,0]","111","000","1","","","","","","",""
"","","","","","image-keyboard-response","317","405217","0.0-292.0","5d4bed118cbe900016c1f6d0","665500ab8938657b03fbdba8","665792763e86d947fcd8294a","462","stimuli/11110001.jpg"," ","","feedback_trial","2","","","","","","","","","","","","","","","","","","","","",""
"","","","","","survey-html-form","318","475542","0.0-293.0","5d4bed118cbe900016c1f6d0","665500ab8938657b03fbdba8","665792763e86d947fcd8294a","70323","","{""feedback"":""If the red ball wasnt visible I just took a lucky guess."",""age"":""32"",""gender"":""Male"",""other_gender"":"""",""race"":""White"",""other_race"":"""",""ethnicity"":""Non-Hispanic""}","","exit_survey","","","","","","","","","","","","","","","","If the red ball wasnt visible I just took a lucky guess.","32","Non-Hispanic","Male","White","0.6527777777777778","0.6527777777777778"
