"success","timeout","failed_images","failed_audio","failed_video","trial_type","trial_index","time_elapsed","internal_node_id","prolific_id","prolific_study_id","prolific_session_id","rt","stimulus","response","view_history","trial","character_choice","stimulus_dict","accuracy","correct_response","ball_pos","ego_ball_visible","ego_can_infer","alter_ball_visible","alter_can_infer","collective_ball_visible","collective_can_infer","search_locations","alter_occluders","ego_occluders","accuracy_bool","feedback","age","ethnicity","gender","race","overall_accuracy","bonus"
"true","false","[]","[]","[]","preload","0","4257","0.0-0.0","568e7f66e3ef9e000ba1a089","665500ab8938657b03fbdba8","665781bc45b1539c53753ed6","","","","","","","","","","","","","","","","","","","","","","","","","","",""
"true","","","","","fullscreen","1","7415","0.0-1.0","568e7f66e3ef9e000ba1a089","665500ab8938657b03fbdba8","665781bc45b1539c53753ed6","","","","","","","","","","","","","","","","","","","","","","","","","","",""
"","","","","","html-button-response","2","22492","0.0-2.0","568e7f66e3ef9e000ba1a089","665500ab8938657b03fbdba8","665781bc45b1539c53753ed6","15077","<p><b>Consent Form</b></p> <div style=""text-align:left;background-color:lightgrey; padding:20px; max-width:900px;""><p>Please consider this information carefully before deciding whether to participate in this research.</p> <p>The purpose of this research is to examine which factors influence social judgment and decision-making. You will be asked to make judgements about individuals and actions in social scenarios. We are simply interested in your judgement. The study will take less than 1 hour to complete, and you will receive less than $20 on Prolific. Your compensation and time commitment are specified in the study description. There are no anticipated risks associated with participating in this study. The effects of participating should be comparable to those you would ordinarily experience from viewing a computer monitor and using a mouse or keyboard for a similar amount of time. At the end of the study, we will provide an explanation of the questions that motivate this line of research and will describe the potential implications. </p><p> Your participation in this study is completely voluntary and you may refuse to participate or you may choose to withdraw at any time without penalty or loss of benefits to you which are otherwise entitled. Your participation in this study will remain confidential. No personally identifiable information will be associated with your data. Also, all analyses of the data will be averaged across all the participants, so your individual responses will never be specifically analyzed. </p><p> If you have questions or concerns about your participation or payment, or want to request a summary of research findings, please contact Dr. Jonathan Phillips at Jonathan.S.Phillips@dartmouth.edu. </p><p> Please save a copy of this form for your records. </p><p><b>Agreement: </b>The nature and purpose of this research have been sufficiently explained and I agree to participate in this study. I understand that I am free to withdraw at any time without incurring any penalty. Please consent by clicking the button below to continue. Otherwise, please exit the study at any time. </p>","0","","","","","","","","","","","","","","","","","","","","","","","",""
"","","","","","instructions","3","96141","0.0-3.0-0.0","568e7f66e3ef9e000ba1a089","665500ab8938657b03fbdba8","665781bc45b1539c53753ed6","73648","","","[{""page_index"":0,""viewing_time"":1975},{""page_index"":1,""viewing_time"":3623},{""page_index"":2,""viewing_time"":3438},{""page_index"":3,""viewing_time"":6390},{""page_index"":4,""viewing_time"":3814},{""page_index"":5,""viewing_time"":6149},{""page_index"":6,""viewing_time"":5725},{""page_index"":7,""viewing_time"":4359},{""page_index"":8,""viewing_time"":3645},{""page_index"":9,""viewing_time"":3112},{""page_index"":10,""viewing_time"":17216},{""page_index"":11,""viewing_time"":6205},{""page_index"":12,""viewing_time"":6133},{""page_index"":13,""viewing_time"":1863}]","intro","","","","","","","","","","","","","","","","","","","","","",""
"","","","","","image-keyboard-response","4","101445","0.0-3.0-1.0","568e7f66e3ef9e000ba1a089","665500ab8938657b03fbdba8","665781bc45b1539c53753ed6","5302","stimuli/1100111.jpg","1","","prediction_practice","1","{""filepath"":""stimuli/1100111.jpg"",""ball_pos"":1,""ego_ball_visible"":false,""ego_can_infer"":false,""alter_ball_visible"":true,""alter_can_infer"":true,""collective_ball_visible"":false,""collective_can_infer"":false,""search_locations"":[1],""alter_occluders"":""100"",""ego_occluders"":""111""}","true","","","","","","","","","","","","","","","","","","",""
"","","","","","image-keyboard-response","5","103845","0.0-3.0-2.0","568e7f66e3ef9e000ba1a089","665500ab8938657b03fbdba8","665781bc45b1539c53753ed6","2399","stimuli/11001111.jpg"," ","","practrice_feedback","1","","","","","","","","","","","","","","","","","","","","",""
"","","","","","image-keyboard-response","6","107084","0.0-3.0-3.0","568e7f66e3ef9e000ba1a089","665500ab8938657b03fbdba8","665781bc45b1539c53753ed6","3239","stimuli/0010100.jpg","0","","prediction_practice","0","{""filepath"":""stimuli/0010100.jpg"",""ball_pos"":0,""ego_ball_visible"":false,""ego_can_infer"":true,""alter_ball_visible"":true,""alter_can_infer"":true,""collective_ball_visible"":false,""collective_can_infer"":true,""search_locations"":[0],""alter_occluders"":""010"",""ego_occluders"":""100""}","true","","","","","","","","","","","","","","","","","","",""
"","","","","","image-keyboard-response","7","109756","0.0-3.0-4.0","568e7f66e3ef9e000ba1a089","665500ab8938657b03fbdba8","665781bc45b1539c53753ed6","2671","stimuli/00101000.jpg"," ","","practrice_feedback","0","","","","","","","","","","","","","","","","","","","","",""
"","","","","","image-keyboard-response","8","112212","0.0-3.0-5.0","568e7f66e3ef9e000ba1a089","665500ab8938657b03fbdba8","665781bc45b1539c53753ed6","2456","stimuli/2111110.jpg","2","","prediction_practice","2","{""filepath"":""stimuli/2111110.jpg"",""ball_pos"":2,""ego_ball_visible"":true,""ego_can_infer"":true,""alter_ball_visible"":false,""alter_can_infer"":false,""collective_ball_visible"":false,""collective_can_infer"":false,""search_locations"":[2,1,0],""alter_occluders"":""111"",""ego_occluders"":""110""}","true","","","","","","","","","","","","","","","","","","",""
"","","","","","image-keyboard-response","9","114948","0.0-3.0-6.0","568e7f66e3ef9e000ba1a089","665500ab8938657b03fbdba8","665781bc45b1539c53753ed6","2731","stimuli/21111102.jpg"," ","","practrice_feedback","2","","","","","","","","","","","","","","","","","","","","",""
"","","","","","image-keyboard-response","10","117780","0.0-3.0-7.0","568e7f66e3ef9e000ba1a089","665500ab8938657b03fbdba8","665781bc45b1539c53753ed6","2832","stimuli/0110111.jpg","1","","prediction_practice","1","{""filepath"":""stimuli/0110111.jpg"",""ball_pos"":0,""ego_ball_visible"":false,""ego_can_infer"":false,""alter_ball_visible"":false,""alter_can_infer"":false,""collective_ball_visible"":false,""collective_can_infer"":false,""search_locations"":[0,1],""alter_occluders"":""110"",""ego_occluders"":""111""}","true","","","","","","","","","","","","","","","","","","",""
"","","","","","image-keyboard-response","11","119580","0.0-3.0-8.0","568e7f66e3ef9e000ba1a089","665500ab8938657b03fbdba8","665781bc45b1539c53753ed6","1800","stimuli/01101111.jpg"," ","","practrice_feedback","0","","","","","","","","","","","","","","","","","","","","",""
"","","","","","image-keyboard-response","12","121542","0.0-3.0-9.0","568e7f66e3ef9e000ba1a089","665500ab8938657b03fbdba8","665781bc45b1539c53753ed6","1975","stimuli/2101100.jpg","2","","prediction_practice","0","{""filepath"":""stimuli/2101100.jpg"",""ball_pos"":2,""ego_ball_visible"":true,""ego_can_infer"":true,""alter_ball_visible"":false,""alter_can_infer"":false,""collective_ball_visible"":false,""collective_can_infer"":false,""search_locations"":[2,0],""alter_occluders"":""101"",""ego_occluders"":""100""}","false","","","","","","","","","","","","","","","","","","",""
"","","","","","image-keyboard-response","13","124926","0.0-3.0-10.0","568e7f66e3ef9e000ba1a089","665500ab8938657b03fbdba8","665781bc45b1539c53753ed6","3384","stimuli/21011000.jpg"," ","","practrice_feedback","2","","","","","","","","","","","","","","","","","","","","",""
"","","","","","image-keyboard-response","14","127174","0.0-3.0-11.0","568e7f66e3ef9e000ba1a089","665500ab8938657b03fbdba8","665781bc45b1539c53753ed6","2248","stimuli/1101101.jpg","1","","prediction_practice","1","{""filepath"":""stimuli/1101101.jpg"",""ball_pos"":1,""ego_ball_visible"":true,""ego_can_infer"":true,""alter_ball_visible"":true,""alter_can_infer"":true,""collective_ball_visible"":true,""collective_can_infer"":true,""search_locations"":[1],""alter_occluders"":""101"",""ego_occluders"":""101""}","true","","","","","","","","","","","","","","","","","","",""
"","","","","","image-keyboard-response","15","129014","0.0-3.0-12.0","568e7f66e3ef9e000ba1a089","665500ab8938657b03fbdba8","665781bc45b1539c53753ed6","1839","stimuli/11011011.jpg"," ","","practrice_feedback","1","","","","","","","","","","","","","","","","","","","","",""
"","","","","","image-keyboard-response","16","136430","0.0-3.0-13.0","568e7f66e3ef9e000ba1a089","665500ab8938657b03fbdba8","665781bc45b1539c53753ed6","7416","stimuli/0011111.jpg","0","","prediction_practice","0","{""filepath"":""stimuli/0011111.jpg"",""ball_pos"":0,""ego_ball_visible"":false,""ego_can_infer"":false,""alter_ball_visible"":true,""alter_can_infer"":true,""collective_ball_visible"":false,""collective_can_infer"":false,""search_locations"":[0],""alter_occluders"":""011"",""ego_occluders"":""111""}","true","","","","","","","","","","","","","","","","","","",""
"","","","","","image-keyboard-response","17","138254","0.0-3.0-14.0","568e7f66e3ef9e000ba1a089","665500ab8938657b03fbdba8","665781bc45b1539c53753ed6","1824","stimuli/00111110.jpg"," ","","practrice_feedback","0","","","","","","","","","","","","","","","","","","","","",""
"","","","","","image-keyboard-response","18","139934","0.0-3.0-15.0","568e7f66e3ef9e000ba1a089","665500ab8938657b03fbdba8","665781bc45b1539c53753ed6","1680","stimuli/2100010.jpg","2","","prediction_practice","2","{""filepath"":""stimuli/2100010.jpg"",""ball_pos"":2,""ego_ball_visible"":true,""ego_can_infer"":true,""alter_ball_visible"":true,""alter_can_infer"":true,""collective_ball_visible"":true,""collective_can_infer"":true,""search_locations"":[2],""alter_occluders"":""100"",""ego_occluders"":""010""}","true","","","","","","","","","","","","","","","","","","",""
"","","","","","image-keyboard-response","19","141574","0.0-3.0-16.0","568e7f66e3ef9e000ba1a089","665500ab8938657b03fbdba8","665781bc45b1539c53753ed6","1640","stimuli/21000102.jpg"," ","","practrice_feedback","2","","","","","","","","","","","","","","","","","","","","",""
"","","","","","image-keyboard-response","20","142750","0.0-3.0-17.0","568e7f66e3ef9e000ba1a089","665500ab8938657b03fbdba8","665781bc45b1539c53753ed6","1176","stimuli/1010101.jpg","1","","prediction_practice","1","{""filepath"":""stimuli/1010101.jpg"",""ball_pos"":1,""ego_ball_visible"":true,""ego_can_infer"":true,""alter_ball_visible"":false,""alter_can_infer"":true,""collective_ball_visible"":false,""collective_can_infer"":true,""search_locations"":[1],""alter_occluders"":""010"",""ego_occluders"":""101""}","true","","","","","","","","","","","","","","","","","","",""
"","","","","","image-keyboard-response","21","144814","0.0-3.0-18.0","568e7f66e3ef9e000ba1a089","665500ab8938657b03fbdba8","665781bc45b1539c53753ed6","2063","stimuli/10101011.jpg"," ","","practrice_feedback","1","","","","","","","","","","","","","","","","","","","","",""
"","","","","","image-keyboard-response","22","146118","0.0-3.0-19.0","568e7f66e3ef9e000ba1a089","665500ab8938657b03fbdba8","665781bc45b1539c53753ed6","1304","stimuli/1000001.jpg","1","","prediction_practice","1","{""filepath"":""stimuli/1000001.jpg"",""ball_pos"":1,""ego_ball_visible"":true,""ego_can_infer"":true,""alter_ball_visible"":true,""alter_can_infer"":true,""collective_ball_visible"":true,""collective_can_infer"":true,""search_locations"":[1],""alter_occluders"":""000"",""ego_occluders"":""001""}","true","","","","","","","","","","","","","","","","","","",""
"","","","","","image-keyboard-response","23","147342","0.0-3.0-20.0","568e7f66e3ef9e000ba1a089","665500ab8938657b03fbdba8","665781bc45b1539c53753ed6","1223","stimuli/10000011.jpg"," ","","practrice_feedback","1","","","","","","","","","","","","","","","","","","","","",""
"","","","","","html-button-response","24","153814","0.0-3.0-21.0","568e7f66e3ef9e000ba1a089","665500ab8938657b03fbdba8","665781bc45b1539c53753ed6","6471","Now that you've had some practice, you'll be tested with a couple of easy trials. If you correctly predict Sam's choice, you'll move on to complete the experiment!","0","","","","","","","","","","","","","","","","","","","","","","","",""
"","","","","","image-keyboard-response","25","156150","0.0-3.0-22.0-0.0","568e7f66e3ef9e000ba1a089","665500ab8938657b03fbdba8","665781bc45b1539c53753ed6","2335","stimuli/0000011.jpg","arrowleft","","comprehension_quiz","","","true","arrowleft","","","","","","","","","","","","","","","","","",""
"","","","","","image-keyboard-response","26","157390","0.0-3.0-22.0-1.0","568e7f66e3ef9e000ba1a089","665500ab8938657b03fbdba8","665781bc45b1539c53753ed6","1239","stimuli/00000110.jpg"," ","","comprehension_quiz","","","true"," ","","","","","","","","","","","","","","","","","",""
"","","","","","image-keyboard-response","27","159334","0.0-3.0-22.0-2.0","568e7f66e3ef9e000ba1a089","665500ab8938657b03fbdba8","665781bc45b1539c53753ed6","1944","stimuli/1010010.jpg","arrowdown","","comprehension_quiz","","","true","arrowdown","","","","","","","","","","","","","","","","","",""
"","","","","","image-keyboard-response","28","160462","0.0-3.0-22.0-3.0","568e7f66e3ef9e000ba1a089","665500ab8938657b03fbdba8","665781bc45b1539c53753ed6","1128","stimuli/10100101.jpg"," ","","comprehension_quiz","","","true"," ","","","","","","","","","","","","","","","","","",""
"","","","","","html-button-response","29","162937","0.0-4.0","568e7f66e3ef9e000ba1a089","665500ab8938657b03fbdba8","665781bc45b1539c53753ed6","2474","The experiment will now begin.","0","","","","","","","","","","","","","","","","","","","","","","","",""
"","","","","","image-keyboard-response","30","164334","0.0-5.0","568e7f66e3ef9e000ba1a089","665500ab8938657b03fbdba8","665781bc45b1539c53753ed6","1396","stimuli/1110101.jpg","1","","prediction_trial","1","","true","","1","true","true","false","false","false","false","[0,1]","110","101","1","","","","","","",""
"","","","","","image-keyboard-response","31","165222","0.0-6.0","568e7f66e3ef9e000ba1a089","665500ab8938657b03fbdba8","665781bc45b1539c53753ed6","888","stimuli/11101011.jpg"," ","","feedback_trial","0","","","","","","","","","","","","","","","","","","","","",""
"","","","","","image-keyboard-response","32","165990","0.0-7.0","568e7f66e3ef9e000ba1a089","665500ab8938657b03fbdba8","665781bc45b1539c53753ed6","768","stimuli/2101100.jpg","2","","prediction_trial","2","","true","","2","true","true","false","false","false","false","[2,0]","101","100","1","","","","","","",""
"","","","","","image-keyboard-response","33","166966","0.0-8.0","568e7f66e3ef9e000ba1a089","665500ab8938657b03fbdba8","665781bc45b1539c53753ed6","976","stimuli/21011002.jpg"," ","","feedback_trial","2","","","","","","","","","","","","","","","","","","","","",""
"","","","","","image-keyboard-response","34","172286","0.0-9.0","568e7f66e3ef9e000ba1a089","665500ab8938657b03fbdba8","665781bc45b1539c53753ed6","5320","stimuli/2001011.jpg","2","","prediction_trial","2","","true","","2","false","false","false","true","false","false","[2]","001","011","1","","","","","","",""
"","","","","","image-keyboard-response","35","173438","0.0-10.0","568e7f66e3ef9e000ba1a089","665500ab8938657b03fbdba8","665781bc45b1539c53753ed6","1152","stimuli/20010112.jpg"," ","","feedback_trial","2","","","","","","","","","","","","","","","","","","","","",""
"","","","","","image-keyboard-response","36","178422","0.0-11.0","568e7f66e3ef9e000ba1a089","665500ab8938657b03fbdba8","665781bc45b1539c53753ed6","4984","stimuli/0001110.jpg","1","","prediction_trial","0","","false","","0","false","false","true","true","false","false","[0]","001","110","0","","","","","","",""
"","","","","","image-keyboard-response","37","179870","0.0-12.0","568e7f66e3ef9e000ba1a089","665500ab8938657b03fbdba8","665781bc45b1539c53753ed6","1447","stimuli/00011100.jpg"," ","","feedback_trial","0","","","","","","","","","","","","","","","","","","","","",""
"","","","","","image-keyboard-response","38","184066","0.0-13.0","568e7f66e3ef9e000ba1a089","665500ab8938657b03fbdba8","665781bc45b1539c53753ed6","4184","stimuli/0100110.jpg","0","","prediction_trial","0","","true","","0","false","false","false","true","false","false","[0]","100","110","1","","","","","","",""
"","","","","","image-keyboard-response","39","185146","0.0-14.0","568e7f66e3ef9e000ba1a089","665500ab8938657b03fbdba8","665781bc45b1539c53753ed6","1080","stimuli/01001100.jpg"," ","","feedback_trial","0","","","","","","","","","","","","","","","","","","","","",""
"","","","","","image-keyboard-response","40","186306","0.0-15.0","568e7f66e3ef9e000ba1a089","665500ab8938657b03fbdba8","665781bc45b1539c53753ed6","1160","stimuli/1100100.jpg","1","","prediction_trial","1","","true","","1","true","true","true","true","true","true","[1]","100","100","1","","","","","","",""
"","","","","","image-keyboard-response","41","186738","0.0-16.0","568e7f66e3ef9e000ba1a089","665500ab8938657b03fbdba8","665781bc45b1539c53753ed6","432","stimuli/11001001.jpg"," ","","feedback_trial","1","","","","","","","","","","","","","","","","","","","","",""
"","","","","","image-keyboard-response","42","187498","0.0-17.0","568e7f66e3ef9e000ba1a089","665500ab8938657b03fbdba8","665781bc45b1539c53753ed6","760","stimuli/0010010.jpg","0","","prediction_trial","0","","true","","0","true","true","true","true","true","true","[0]","010","010","1","","","","","","",""
"","","","","","image-keyboard-response","43","187826","0.0-18.0","568e7f66e3ef9e000ba1a089","665500ab8938657b03fbdba8","665781bc45b1539c53753ed6","328","stimuli/00100100.jpg"," ","","feedback_trial","0","","","","","","","","","","","","","","","","","","","","",""
"","","","","","image-keyboard-response","44","189523","0.0-19.0","568e7f66e3ef9e000ba1a089","665500ab8938657b03fbdba8","665781bc45b1539c53753ed6","1696","stimuli/1010010.jpg","1","","prediction_trial","1","","true","","1","false","true","false","true","false","true","[1]","010","010","1","","","","","","",""
"","","","","","image-keyboard-response","45","190970","0.0-20.0","568e7f66e3ef9e000ba1a089","665500ab8938657b03fbdba8","665781bc45b1539c53753ed6","1447","stimuli/10100101.jpg"," ","","feedback_trial","1","","","","","","","","","","","","","","","","","","","","",""
"","","","","","image-keyboard-response","46","191906","0.0-21.0","568e7f66e3ef9e000ba1a089","665500ab8938657b03fbdba8","665781bc45b1539c53753ed6","936","stimuli/1011100.jpg","1","","prediction_trial","1","","true","","1","true","true","false","false","false","false","[1,2]","011","100","1","","","","","","",""
"","","","","","image-keyboard-response","47","192235","0.0-22.0","568e7f66e3ef9e000ba1a089","665500ab8938657b03fbdba8","665781bc45b1539c53753ed6","328","stimuli/10111001.jpg"," ","","feedback_trial","1","","","","","","","","","","","","","","","","","","","","",""
"","","","","","image-keyboard-response","48","193098","0.0-23.0","568e7f66e3ef9e000ba1a089","665500ab8938657b03fbdba8","665781bc45b1539c53753ed6","863","stimuli/1110001.jpg","1","","prediction_trial","0","","false","","1","true","true","false","false","false","false","[1,0]","110","001","0","","","","","","",""
"","","","","","image-keyboard-response","49","193339","0.0-24.0","568e7f66e3ef9e000ba1a089","665500ab8938657b03fbdba8","665781bc45b1539c53753ed6","240","stimuli/11100010.jpg"," ","","feedback_trial","1","","","","","","","","","","","","","","","","","","","","",""
"","","","","","image-keyboard-response","50","195018","0.0-25.0","568e7f66e3ef9e000ba1a089","665500ab8938657b03fbdba8","665781bc45b1539c53753ed6","1679","stimuli/0010100.jpg","0","","prediction_trial","0","","true","","0","false","true","true","true","false","true","[0]","010","100","1","","","","","","",""
"","","","","","image-keyboard-response","51","195499","0.0-26.0","568e7f66e3ef9e000ba1a089","665500ab8938657b03fbdba8","665781bc45b1539c53753ed6","480","stimuli/00101000.jpg"," ","","feedback_trial","0","","","","","","","","","","","","","","","","","","","","",""
"","","","","","image-keyboard-response","52","198122","0.0-27.0","568e7f66e3ef9e000ba1a089","665500ab8938657b03fbdba8","665781bc45b1539c53753ed6","2624","stimuli/1010111.jpg","1","","prediction_trial","1","","true","","1","false","false","false","true","false","false","[1]","010","111","1","","","","","","",""
"","","","","","image-keyboard-response","53","198451","0.0-28.0","568e7f66e3ef9e000ba1a089","665500ab8938657b03fbdba8","665781bc45b1539c53753ed6","328","stimuli/10101111.jpg"," ","","feedback_trial","1","","","","","","","","","","","","","","","","","","","","",""
"","","","","","image-keyboard-response","54","199251","0.0-29.0","568e7f66e3ef9e000ba1a089","665500ab8938657b03fbdba8","665781bc45b1539c53753ed6","799","stimuli/0001001.jpg","0","","prediction_trial","0","","true","","0","true","true","true","true","true","true","[0]","001","001","1","","","","","","",""
"","","","","","image-keyboard-response","55","199571","0.0-30.0","568e7f66e3ef9e000ba1a089","665500ab8938657b03fbdba8","665781bc45b1539c53753ed6","320","stimuli/00010010.jpg"," ","","feedback_trial","0","","","","","","","","","","","","","","","","","","","","",""
"","","","","","image-keyboard-response","56","202554","0.0-31.0","568e7f66e3ef9e000ba1a089","665500ab8938657b03fbdba8","665781bc45b1539c53753ed6","2983","stimuli/0111111.jpg","2","","prediction_trial","1","","false","","0","false","false","false","false","false","false","[1,0,2]","111","111","0","","","","","","",""
"","","","","","image-keyboard-response","57","203706","0.0-32.0","568e7f66e3ef9e000ba1a089","665500ab8938657b03fbdba8","665781bc45b1539c53753ed6","1152","stimuli/01111111.jpg"," ","","feedback_trial","1","","","","","","","","","","","","","","","","","","","","",""
"","","","","","image-keyboard-response","58","205338","0.0-33.0","568e7f66e3ef9e000ba1a089","665500ab8938657b03fbdba8","665781bc45b1539c53753ed6","1632","stimuli/1101010.jpg","1","","prediction_trial","1","","true","","1","false","true","true","true","false","true","[1]","101","010","1","","","","","","",""
"","","","","","image-keyboard-response","59","206770","0.0-34.0","568e7f66e3ef9e000ba1a089","665500ab8938657b03fbdba8","665781bc45b1539c53753ed6","1431","stimuli/11010101.jpg"," ","","feedback_trial","1","","","","","","","","","","","","","","","","","","","","",""
"","","","","","image-keyboard-response","60","207586","0.0-35.0","568e7f66e3ef9e000ba1a089","665500ab8938657b03fbdba8","665781bc45b1539c53753ed6","816","stimuli/1100001.jpg","1","","prediction_trial","1","","true","","1","true","true","true","true","true","true","[1]","100","001","1","","","","","","",""
"","","","","","image-keyboard-response","61","207826","0.0-36.0","568e7f66e3ef9e000ba1a089","665500ab8938657b03fbdba8","665781bc45b1539c53753ed6","240","stimuli/11000011.jpg"," ","","feedback_trial","1","","","","","","","","","","","","","","","","","","","","",""
"","","","","","image-keyboard-response","62","209130","0.0-37.0","568e7f66e3ef9e000ba1a089","665500ab8938657b03fbdba8","665781bc45b1539c53753ed6","1304","stimuli/1011101.jpg","1","","prediction_trial","2","","false","","1","true","true","false","false","false","false","[2,1]","011","101","0","","","","","","",""
"","","","","","image-keyboard-response","63","210834","0.0-38.0","568e7f66e3ef9e000ba1a089","665500ab8938657b03fbdba8","665781bc45b1539c53753ed6","1703","stimuli/10111012.jpg"," ","","feedback_trial","2","","","","","","","","","","","","","","","","","","","","",""
"","","","","","image-keyboard-response","64","214546","0.0-39.0","568e7f66e3ef9e000ba1a089","665500ab8938657b03fbdba8","665781bc45b1539c53753ed6","3712","stimuli/1100010.jpg","1","","prediction_trial","1","","true","","1","false","true","true","true","false","true","[1]","100","010","1","","","","","","",""
"","","","","","image-keyboard-response","65","215226","0.0-40.0","568e7f66e3ef9e000ba1a089","665500ab8938657b03fbdba8","665781bc45b1539c53753ed6","679","stimuli/11000101.jpg"," ","","feedback_trial","1","","","","","","","","","","","","","","","","","","","","",""
"","","","","","image-keyboard-response","66","217722","0.0-41.0","568e7f66e3ef9e000ba1a089","665500ab8938657b03fbdba8","665781bc45b1539c53753ed6","2496","stimuli/1000111.jpg","0","","prediction_trial","1","","false","","1","false","false","true","true","false","false","[1]","000","111","0","","","","","","",""
"","","","","","image-keyboard-response","67","220130","0.0-42.0","568e7f66e3ef9e000ba1a089","665500ab8938657b03fbdba8","665781bc45b1539c53753ed6","2408","stimuli/10001111.jpg"," ","","feedback_trial","1","","","","","","","","","","","","","","","","","","","","",""
"","","","","","image-keyboard-response","68","231066","0.0-43.0","568e7f66e3ef9e000ba1a089","665500ab8938657b03fbdba8","665781bc45b1539c53753ed6","10936","stimuli/1110010.jpg","1","","prediction_trial","0","","false","","1","false","true","false","false","false","false","[1,0]","110","010","0","","","","","","",""
"","","","","","image-keyboard-response","69","232530","0.0-44.0","568e7f66e3ef9e000ba1a089","665500ab8938657b03fbdba8","665781bc45b1539c53753ed6","1464","stimuli/11100100.jpg"," ","","feedback_trial","1","","","","","","","","","","","","","","","","","","","","",""
"","","","","","image-keyboard-response","70","235170","0.0-45.0","568e7f66e3ef9e000ba1a089","665500ab8938657b03fbdba8","665781bc45b1539c53753ed6","2640","stimuli/1110110.jpg","0","","prediction_trial","0","","true","","1","false","false","false","false","false","false","[0,1]","110","110","1","","","","","","",""
"","","","","","image-keyboard-response","71","235762","0.0-46.0","568e7f66e3ef9e000ba1a089","665500ab8938657b03fbdba8","665781bc45b1539c53753ed6","592","stimuli/11101100.jpg"," ","","feedback_trial","0","","","","","","","","","","","","","","","","","","","","",""
"","","","","","image-keyboard-response","72","237146","0.0-47.0","568e7f66e3ef9e000ba1a089","665500ab8938657b03fbdba8","665781bc45b1539c53753ed6","1383","stimuli/0100010.jpg","0","","prediction_trial","0","","true","","0","true","true","false","true","false","true","[0]","100","010","1","","","","","","",""
"","","","","","image-keyboard-response","73","237506","0.0-48.0","568e7f66e3ef9e000ba1a089","665500ab8938657b03fbdba8","665781bc45b1539c53753ed6","360","stimuli/01000100.jpg"," ","","feedback_trial","0","","","","","","","","","","","","","","","","","","","","",""
"","","","","","image-keyboard-response","74","238762","0.0-49.0","568e7f66e3ef9e000ba1a089","665500ab8938657b03fbdba8","665781bc45b1539c53753ed6","1256","stimuli/2010001.jpg","2","","prediction_trial","2","","true","","2","false","true","true","true","false","true","[2]","010","001","1","","","","","","",""
"","","","","","image-keyboard-response","75","239346","0.0-50.0","568e7f66e3ef9e000ba1a089","665500ab8938657b03fbdba8","665781bc45b1539c53753ed6","584","stimuli/20100012.jpg"," ","","feedback_trial","2","","","","","","","","","","","","","","","","","","","","",""
"","","","","","image-keyboard-response","76","240850","0.0-51.0","568e7f66e3ef9e000ba1a089","665500ab8938657b03fbdba8","665781bc45b1539c53753ed6","1503","stimuli/0111011.jpg","0","","prediction_trial","2","","false","","0","true","true","false","false","false","false","[1,2,0]","111","011","0","","","","","","",""
"","","","","","image-keyboard-response","77","241210","0.0-52.0","568e7f66e3ef9e000ba1a089","665500ab8938657b03fbdba8","665781bc45b1539c53753ed6","360","stimuli/01110112.jpg"," ","","feedback_trial","1","","","","","","","","","","","","","","","","","","","","",""
"","","","","","image-keyboard-response","78","242314","0.0-53.0","568e7f66e3ef9e000ba1a089","665500ab8938657b03fbdba8","665781bc45b1539c53753ed6","1104","stimuli/0110001.jpg","0","","prediction_trial","0","","true","","0","true","true","false","false","false","false","[0,1]","110","001","1","","","","","","",""
"","","","","","image-keyboard-response","79","242698","0.0-54.0","568e7f66e3ef9e000ba1a089","665500ab8938657b03fbdba8","665781bc45b1539c53753ed6","384","stimuli/01100010.jpg"," ","","feedback_trial","0","","","","","","","","","","","","","","","","","","","","",""
"","","","","","image-keyboard-response","80","244002","0.0-55.0","568e7f66e3ef9e000ba1a089","665500ab8938657b03fbdba8","665781bc45b1539c53753ed6","1304","stimuli/1110000.jpg","1","","prediction_trial","0","","false","","1","true","true","false","false","false","false","[0,1]","110","000","0","","","","","","",""
"","","","","","image-keyboard-response","81","244372","0.0-56.0","568e7f66e3ef9e000ba1a089","665500ab8938657b03fbdba8","665781bc45b1539c53753ed6","384","stimuli/11100000.jpg"," ","","feedback_trial","0","","","","","","","","","","","","","","","","","","","","",""
"","","","","","image-keyboard-response","82","249996","0.0-57.0","568e7f66e3ef9e000ba1a089","665500ab8938657b03fbdba8","665781bc45b1539c53753ed6","5624","stimuli/2000011.jpg","2","","prediction_trial","2","","true","","2","false","false","true","true","false","false","[2]","000","011","1","","","","","","",""
"","","","","","image-keyboard-response","83","250476","0.0-58.0","568e7f66e3ef9e000ba1a089","665500ab8938657b03fbdba8","665781bc45b1539c53753ed6","480","stimuli/20000112.jpg"," ","","feedback_trial","2","","","","","","","","","","","","","","","","","","","","",""
"","","","","","image-keyboard-response","84","251364","0.0-59.0","568e7f66e3ef9e000ba1a089","665500ab8938657b03fbdba8","665781bc45b1539c53753ed6","888","stimuli/1110100.jpg","1","","prediction_trial","1","","true","","1","true","true","false","false","false","false","[1,0]","110","100","1","","","","","","",""
"","","","","","image-keyboard-response","85","251900","0.0-60.0","568e7f66e3ef9e000ba1a089","665500ab8938657b03fbdba8","665781bc45b1539c53753ed6","536","stimuli/11101001.jpg"," ","","feedback_trial","1","","","","","","","","","","","","","","","","","","","","",""
"","","","","","image-keyboard-response","86","254964","0.0-61.0","568e7f66e3ef9e000ba1a089","665500ab8938657b03fbdba8","665781bc45b1539c53753ed6","3064","stimuli/1010011.jpg","1","","prediction_trial","1","","true","","1","false","false","false","true","false","false","[1]","010","011","1","","","","","","",""
"","","","","","image-keyboard-response","87","255484","0.0-62.0","568e7f66e3ef9e000ba1a089","665500ab8938657b03fbdba8","665781bc45b1539c53753ed6","520","stimuli/10100111.jpg"," ","","feedback_trial","1","","","","","","","","","","","","","","","","","","","","",""
"","","","","","image-keyboard-response","88","258148","0.0-63.0","568e7f66e3ef9e000ba1a089","665500ab8938657b03fbdba8","665781bc45b1539c53753ed6","2663","stimuli/1001011.jpg","2","","prediction_trial","1","","false","","1","false","false","true","true","false","false","[1]","001","011","0","","","","","","",""
"","","","","","image-keyboard-response","89","259284","0.0-64.0","568e7f66e3ef9e000ba1a089","665500ab8938657b03fbdba8","665781bc45b1539c53753ed6","1136","stimuli/10010111.jpg"," ","","feedback_trial","1","","","","","","","","","","","","","","","","","","","","",""
"","","","","","image-keyboard-response","90","263604","0.0-65.0","568e7f66e3ef9e000ba1a089","665500ab8938657b03fbdba8","665781bc45b1539c53753ed6","4320","stimuli/0101100.jpg","0","","prediction_trial","2","","false","","0","false","true","false","false","false","false","[2,0]","101","100","0","","","","","","",""
"","","","","","image-keyboard-response","91","264732","0.0-66.0","568e7f66e3ef9e000ba1a089","665500ab8938657b03fbdba8","665781bc45b1539c53753ed6","1128","stimuli/01011002.jpg"," ","","feedback_trial","2","","","","","","","","","","","","","","","","","","","","",""
"","","","","","image-keyboard-response","92","266836","0.0-67.0","568e7f66e3ef9e000ba1a089","665500ab8938657b03fbdba8","665781bc45b1539c53753ed6","2104","stimuli/2111111.jpg","1","","prediction_trial","0","","false","","2","false","false","false","false","false","false","[0,2,1]","111","111","0","","","","","","",""
"","","","","","image-keyboard-response","93","267548","0.0-68.0","568e7f66e3ef9e000ba1a089","665500ab8938657b03fbdba8","665781bc45b1539c53753ed6","712","stimuli/21111110.jpg"," ","","feedback_trial","0","","","","","","","","","","","","","","","","","","","","",""
"","","","","","image-keyboard-response","94","269164","0.0-69.0","568e7f66e3ef9e000ba1a089","665500ab8938657b03fbdba8","665781bc45b1539c53753ed6","1616","stimuli/2011111.jpg","0","","prediction_trial","1","","false","","2","false","false","false","false","false","false","[2,1]","011","111","0","","","","","","",""
"","","","","","image-keyboard-response","95","269972","0.0-70.0","568e7f66e3ef9e000ba1a089","665500ab8938657b03fbdba8","665781bc45b1539c53753ed6","808","stimuli/20111111.jpg"," ","","feedback_trial","2","","","","","","","","","","","","","","","","","","","","",""
"","","","","","image-keyboard-response","96","270972","0.0-71.0","568e7f66e3ef9e000ba1a089","665500ab8938657b03fbdba8","665781bc45b1539c53753ed6","1000","stimuli/1010101.jpg","1","","prediction_trial","1","","true","","1","true","true","false","true","false","true","[1]","010","101","1","","","","","","",""
"","","","","","image-keyboard-response","97","271388","0.0-72.0","568e7f66e3ef9e000ba1a089","665500ab8938657b03fbdba8","665781bc45b1539c53753ed6","416","stimuli/10101011.jpg"," ","","feedback_trial","1","","","","","","","","","","","","","","","","","","","","",""
"","","","","","image-keyboard-response","98","273852","0.0-73.0","568e7f66e3ef9e000ba1a089","665500ab8938657b03fbdba8","665781bc45b1539c53753ed6","2464","stimuli/0000101.jpg","2","","prediction_trial","0","","false","","0","false","false","true","true","false","false","[0]","000","101","0","","","","","","",""
"","","","","","image-keyboard-response","99","274740","0.0-74.0","568e7f66e3ef9e000ba1a089","665500ab8938657b03fbdba8","665781bc45b1539c53753ed6","888","stimuli/00001010.jpg"," ","","feedback_trial","0","","","","","","","","","","","","","","","","","","","","",""
"","","","","","image-keyboard-response","100","275644","0.0-75.0","568e7f66e3ef9e000ba1a089","665500ab8938657b03fbdba8","665781bc45b1539c53753ed6","904","stimuli/0101010.jpg","0","","prediction_trial","0","","true","","0","true","true","false","false","false","false","[2,0]","101","010","1","","","","","","",""
"","","","","","image-keyboard-response","101","276044","0.0-76.0","568e7f66e3ef9e000ba1a089","665500ab8938657b03fbdba8","665781bc45b1539c53753ed6","400","stimuli/01010100.jpg"," ","","feedback_trial","2","","","","","","","","","","","","","","","","","","","","",""
"","","","","","image-keyboard-response","102","279244","0.0-77.0","568e7f66e3ef9e000ba1a089","665500ab8938657b03fbdba8","665781bc45b1539c53753ed6","3200","stimuli/2011101.jpg","0","","prediction_trial","1","","false","","2","false","false","false","false","false","false","[2,1]","011","101","0","","","","","","",""
"","","","","","image-keyboard-response","103","280180","0.0-78.0","568e7f66e3ef9e000ba1a089","665500ab8938657b03fbdba8","665781bc45b1539c53753ed6","936","stimuli/20111011.jpg"," ","","feedback_trial","2","","","","","","","","","","","","","","","","","","","","",""
"","","","","","image-keyboard-response","104","281700","0.0-79.0","568e7f66e3ef9e000ba1a089","665500ab8938657b03fbdba8","665781bc45b1539c53753ed6","1520","stimuli/1000000.jpg","1","","prediction_trial","1","","true","","1","true","true","true","true","true","true","[1]","000","000","1","","","","","","",""
"","","","","","image-keyboard-response","105","283916","0.0-80.0","568e7f66e3ef9e000ba1a089","665500ab8938657b03fbdba8","665781bc45b1539c53753ed6","2216","stimuli/10000001.jpg"," ","","feedback_trial","1","","","","","","","","","","","","","","","","","","","","",""
"","","","","","image-keyboard-response","106","284828","0.0-81.0","568e7f66e3ef9e000ba1a089","665500ab8938657b03fbdba8","665781bc45b1539c53753ed6","912","stimuli/0010011.jpg","0","","prediction_trial","0","","true","","0","true","true","true","true","true","true","[0]","010","011","1","","","","","","",""
"","","","","","image-keyboard-response","107","285316","0.0-82.0","568e7f66e3ef9e000ba1a089","665500ab8938657b03fbdba8","665781bc45b1539c53753ed6","488","stimuli/00100110.jpg"," ","","feedback_trial","0","","","","","","","","","","","","","","","","","","","","",""
"","","","","","image-keyboard-response","108","287348","0.0-83.0","568e7f66e3ef9e000ba1a089","665500ab8938657b03fbdba8","665781bc45b1539c53753ed6","2031","stimuli/1110011.jpg","1","","prediction_trial","0","","false","","1","false","false","false","false","false","false","[0,1]","110","011","0","","","","","","",""
"","","","","","image-keyboard-response","109","288428","0.0-84.0","568e7f66e3ef9e000ba1a089","665500ab8938657b03fbdba8","665781bc45b1539c53753ed6","1080","stimuli/11100110.jpg"," ","","feedback_trial","0","","","","","","","","","","","","","","","","","","","","",""
"","","","","","image-keyboard-response","110","289556","0.0-85.0","568e7f66e3ef9e000ba1a089","665500ab8938657b03fbdba8","665781bc45b1539c53753ed6","1128","stimuli/1101000.jpg","1","","prediction_trial","1","","true","","1","true","true","true","true","true","true","[1]","101","000","1","","","","","","",""
"","","","","","image-keyboard-response","111","289996","0.0-86.0","568e7f66e3ef9e000ba1a089","665500ab8938657b03fbdba8","665781bc45b1539c53753ed6","440","stimuli/11010001.jpg"," ","","feedback_trial","1","","","","","","","","","","","","","","","","","","","","",""
"","","","","","image-keyboard-response","112","294229","0.0-87.0","568e7f66e3ef9e000ba1a089","665500ab8938657b03fbdba8","665781bc45b1539c53753ed6","4232","stimuli/1111110.jpg","0","","prediction_trial","2","","false","","1","false","false","false","false","false","false","[2,0,1]","111","110","0","","","","","","",""
"","","","","","image-keyboard-response","113","294988","0.0-88.0","568e7f66e3ef9e000ba1a089","665500ab8938657b03fbdba8","665781bc45b1539c53753ed6","759","stimuli/11111102.jpg"," ","","feedback_trial","2","","","","","","","","","","","","","","","","","","","","",""
"","","","","","image-keyboard-response","114","297876","0.0-89.0","568e7f66e3ef9e000ba1a089","665500ab8938657b03fbdba8","665781bc45b1539c53753ed6","2887","stimuli/0101111.jpg","1","","prediction_trial","0","","false","","0","false","false","false","false","false","false","[2,0]","101","111","0","","","","","","",""
"","","","","","image-keyboard-response","115","298860","0.0-90.0","568e7f66e3ef9e000ba1a089","665500ab8938657b03fbdba8","665781bc45b1539c53753ed6","984","stimuli/01011110.jpg"," ","","feedback_trial","2","","","","","","","","","","","","","","","","","","","","",""
"","","","","","image-keyboard-response","116","300172","0.0-91.0","568e7f66e3ef9e000ba1a089","665500ab8938657b03fbdba8","665781bc45b1539c53753ed6","1311","stimuli/0011100.jpg","0","","prediction_trial","0","","true","","0","false","true","true","true","false","true","[0]","011","100","1","","","","","","",""
"","","","","","image-keyboard-response","117","300660","0.0-92.0","568e7f66e3ef9e000ba1a089","665500ab8938657b03fbdba8","665781bc45b1539c53753ed6","488","stimuli/00111000.jpg"," ","","feedback_trial","0","","","","","","","","","","","","","","","","","","","","",""
"","","","","","image-keyboard-response","118","303524","0.0-93.0","568e7f66e3ef9e000ba1a089","665500ab8938657b03fbdba8","665781bc45b1539c53753ed6","2864","stimuli/1100011.jpg","2","","prediction_trial","1","","false","","1","false","false","true","true","false","false","[1]","100","011","0","","","","","","",""
"","","","","","image-keyboard-response","119","304100","0.0-94.0","568e7f66e3ef9e000ba1a089","665500ab8938657b03fbdba8","665781bc45b1539c53753ed6","576","stimuli/11000111.jpg"," ","","feedback_trial","1","","","","","","","","","","","","","","","","","","","","",""
"","","","","","image-keyboard-response","120","307046","0.0-95.0","568e7f66e3ef9e000ba1a089","665500ab8938657b03fbdba8","665781bc45b1539c53753ed6","2944","stimuli/0111110.jpg","1","","prediction_trial","0","","false","","0","false","false","false","false","false","false","[2,1,0]","111","110","0","","","","","","",""
"","","","","","image-keyboard-response","121","307670","0.0-96.0","568e7f66e3ef9e000ba1a089","665500ab8938657b03fbdba8","665781bc45b1539c53753ed6","623","stimuli/01111100.jpg"," ","","feedback_trial","2","","","","","","","","","","","","","","","","","","","","",""
"","","","","","image-keyboard-response","122","310990","0.0-97.0","568e7f66e3ef9e000ba1a089","665500ab8938657b03fbdba8","665781bc45b1539c53753ed6","3320","stimuli/1111111.jpg","1","","prediction_trial","0","","false","","1","false","false","false","false","false","false","[2,1,0]","111","111","0","","","","","","",""
"","","","","","image-keyboard-response","123","311846","0.0-98.0","568e7f66e3ef9e000ba1a089","665500ab8938657b03fbdba8","665781bc45b1539c53753ed6","856","stimuli/11111110.jpg"," ","","feedback_trial","2","","","","","","","","","","","","","","","","","","","","",""
"","","","","","image-keyboard-response","124","314534","0.0-99.0","568e7f66e3ef9e000ba1a089","665500ab8938657b03fbdba8","665781bc45b1539c53753ed6","2688","stimuli/1101110.jpg","1","","prediction_trial","1","","true","","1","false","false","true","true","false","false","[1]","101","110","1","","","","","","",""
"","","","","","image-keyboard-response","125","314950","0.0-100.0","568e7f66e3ef9e000ba1a089","665500ab8938657b03fbdba8","665781bc45b1539c53753ed6","416","stimuli/11011101.jpg"," ","","feedback_trial","1","","","","","","","","","","","","","","","","","","","","",""
"","","","","","image-keyboard-response","126","315894","0.0-101.0","568e7f66e3ef9e000ba1a089","665500ab8938657b03fbdba8","665781bc45b1539c53753ed6","944","stimuli/1111101.jpg","1","","prediction_trial","1","","true","","1","true","true","false","false","false","false","[2,0,1]","111","101","1","","","","","","",""
"","","","","","image-keyboard-response","127","316222","0.0-102.0","568e7f66e3ef9e000ba1a089","665500ab8938657b03fbdba8","665781bc45b1539c53753ed6","328","stimuli/11111011.jpg"," ","","feedback_trial","2","","","","","","","","","","","","","","","","","","","","",""
"","","","","","image-keyboard-response","128","318430","0.0-103.0","568e7f66e3ef9e000ba1a089","665500ab8938657b03fbdba8","665781bc45b1539c53753ed6","2208","stimuli/1001110.jpg","0","","prediction_trial","1","","false","","1","false","false","true","true","false","false","[1]","001","110","0","","","","","","",""
"","","","","","image-keyboard-response","129","319086","0.0-104.0","568e7f66e3ef9e000ba1a089","665500ab8938657b03fbdba8","665781bc45b1539c53753ed6","656","stimuli/10011101.jpg"," ","","feedback_trial","1","","","","","","","","","","","","","","","","","","","","",""
"","","","","","image-keyboard-response","130","320118","0.0-105.0","568e7f66e3ef9e000ba1a089","665500ab8938657b03fbdba8","665781bc45b1539c53753ed6","1031","stimuli/0000011.jpg","0","","prediction_trial","0","","true","","0","true","true","true","true","true","true","[0]","000","011","1","","","","","","",""
"","","","","","image-keyboard-response","131","320470","0.0-106.0","568e7f66e3ef9e000ba1a089","665500ab8938657b03fbdba8","665781bc45b1539c53753ed6","352","stimuli/00000110.jpg"," ","","feedback_trial","0","","","","","","","","","","","","","","","","","","","","",""
"","","","","","image-keyboard-response","132","322406","0.0-107.0","568e7f66e3ef9e000ba1a089","665500ab8938657b03fbdba8","665781bc45b1539c53753ed6","1936","stimuli/0011110.jpg","0","","prediction_trial","0","","true","","0","false","false","true","true","false","false","[0]","011","110","1","","","","","","",""
"","","","","","image-keyboard-response","133","322806","0.0-108.0","568e7f66e3ef9e000ba1a089","665500ab8938657b03fbdba8","665781bc45b1539c53753ed6","400","stimuli/00111100.jpg"," ","","feedback_trial","0","","","","","","","","","","","","","","","","","","","","",""
"","","","","","image-keyboard-response","134","324702","0.0-109.0","568e7f66e3ef9e000ba1a089","665500ab8938657b03fbdba8","665781bc45b1539c53753ed6","1896","stimuli/0110111.jpg","0","","prediction_trial","0","","true","","0","false","false","false","false","false","false","[0,1]","110","111","1","","","","","","",""
"","","","","","image-keyboard-response","135","325206","0.0-110.0","568e7f66e3ef9e000ba1a089","665500ab8938657b03fbdba8","665781bc45b1539c53753ed6","504","stimuli/01101110.jpg"," ","","feedback_trial","0","","","","","","","","","","","","","","","","","","","","",""
"","","","","","image-keyboard-response","136","328886","0.0-111.0","568e7f66e3ef9e000ba1a089","665500ab8938657b03fbdba8","665781bc45b1539c53753ed6","3680","stimuli/1101011.jpg","1","","prediction_trial","1","","true","","1","false","false","true","true","false","false","[1]","101","011","1","","","","","","",""
"","","","","","image-keyboard-response","137","329894","0.0-112.0","568e7f66e3ef9e000ba1a089","665500ab8938657b03fbdba8","665781bc45b1539c53753ed6","1008","stimuli/11010111.jpg"," ","","feedback_trial","1","","","","","","","","","","","","","","","","","","","","",""
"","","","","","image-keyboard-response","138","330878","0.0-113.0","568e7f66e3ef9e000ba1a089","665500ab8938657b03fbdba8","665781bc45b1539c53753ed6","984","stimuli/0011011.jpg","0","","prediction_trial","0","","true","","0","true","true","true","true","true","true","[0]","011","011","1","","","","","","",""
"","","","","","image-keyboard-response","139","331318","0.0-114.0","568e7f66e3ef9e000ba1a089","665500ab8938657b03fbdba8","665781bc45b1539c53753ed6","440","stimuli/00110110.jpg"," ","","feedback_trial","0","","","","","","","","","","","","","","","","","","","","",""
"","","","","","image-keyboard-response","140","335926","0.0-115.0","568e7f66e3ef9e000ba1a089","665500ab8938657b03fbdba8","665781bc45b1539c53753ed6","4608","stimuli/0100101.jpg","2","","prediction_trial","0","","false","","0","false","false","false","true","false","false","[0]","100","101","0","","","","","","",""
"","","","","","image-keyboard-response","141","336582","0.0-116.0","568e7f66e3ef9e000ba1a089","665500ab8938657b03fbdba8","665781bc45b1539c53753ed6","656","stimuli/01001010.jpg"," ","","feedback_trial","0","","","","","","","","","","","","","","","","","","","","",""
"","","","","","image-keyboard-response","142","340438","0.0-117.0","568e7f66e3ef9e000ba1a089","665500ab8938657b03fbdba8","665781bc45b1539c53753ed6","3855","stimuli/2100101.jpg","0","","prediction_trial","2","","false","","2","false","false","true","true","false","false","[2]","100","101","0","","","","","","",""
"","","","","","image-keyboard-response","143","340910","0.0-118.0","568e7f66e3ef9e000ba1a089","665500ab8938657b03fbdba8","665781bc45b1539c53753ed6","472","stimuli/21001012.jpg"," ","","feedback_trial","2","","","","","","","","","","","","","","","","","","","","",""
"","","","","","image-keyboard-response","144","342006","0.0-119.0","568e7f66e3ef9e000ba1a089","665500ab8938657b03fbdba8","665781bc45b1539c53753ed6","1096","stimuli/2001110.jpg","2","","prediction_trial","2","","true","","2","true","true","false","true","false","true","[2]","001","110","1","","","","","","",""
"","","","","","image-keyboard-response","145","342430","0.0-120.0","568e7f66e3ef9e000ba1a089","665500ab8938657b03fbdba8","665781bc45b1539c53753ed6","424","stimuli/20011102.jpg"," ","","feedback_trial","2","","","","","","","","","","","","","","","","","","","","",""
"","","","","","image-keyboard-response","146","345006","0.0-121.0","568e7f66e3ef9e000ba1a089","665500ab8938657b03fbdba8","665781bc45b1539c53753ed6","2576","stimuli/2000001.jpg","2","","prediction_trial","2","","true","","2","false","true","true","true","false","true","[2]","000","001","1","","","","","","",""
"","","","","","image-keyboard-response","147","345446","0.0-122.0","568e7f66e3ef9e000ba1a089","665500ab8938657b03fbdba8","665781bc45b1539c53753ed6","440","stimuli/20000012.jpg"," ","","feedback_trial","2","","","","","","","","","","","","","","","","","","","","",""
"","","","","","image-keyboard-response","148","347366","0.0-123.0","568e7f66e3ef9e000ba1a089","665500ab8938657b03fbdba8","665781bc45b1539c53753ed6","1920","stimuli/0100011.jpg","0","","prediction_trial","0","","true","","0","true","true","false","true","false","true","[0]","100","011","1","","","","","","",""
"","","","","","image-keyboard-response","149","347782","0.0-124.0","568e7f66e3ef9e000ba1a089","665500ab8938657b03fbdba8","665781bc45b1539c53753ed6","416","stimuli/01000110.jpg"," ","","feedback_trial","0","","","","","","","","","","","","","","","","","","","","",""
"","","","","","image-keyboard-response","150","352230","0.0-125.0","568e7f66e3ef9e000ba1a089","665500ab8938657b03fbdba8","665781bc45b1539c53753ed6","4448","stimuli/2110111.jpg","2","","prediction_trial","2","","true","","2","false","false","true","true","false","false","[2]","110","111","1","","","","","","",""
"","","","","","image-keyboard-response","151","352814","0.0-126.0","568e7f66e3ef9e000ba1a089","665500ab8938657b03fbdba8","665781bc45b1539c53753ed6","583","stimuli/21101112.jpg"," ","","feedback_trial","2","","","","","","","","","","","","","","","","","","","","",""
"","","","","","image-keyboard-response","152","355014","0.0-127.0","568e7f66e3ef9e000ba1a089","665500ab8938657b03fbdba8","665781bc45b1539c53753ed6","2200","stimuli/1001001.jpg","1","","prediction_trial","1","","true","","1","true","true","true","true","true","true","[1]","001","001","1","","","","","","",""
"","","","","","image-keyboard-response","153","355382","0.0-128.0","568e7f66e3ef9e000ba1a089","665500ab8938657b03fbdba8","665781bc45b1539c53753ed6","368","stimuli/10010011.jpg"," ","","feedback_trial","1","","","","","","","","","","","","","","","","","","","","",""
"","","","","","image-keyboard-response","154","356102","0.0-129.0","568e7f66e3ef9e000ba1a089","665500ab8938657b03fbdba8","665781bc45b1539c53753ed6","720","stimuli/1011001.jpg","1","","prediction_trial","1","","true","","1","true","true","false","false","false","false","[1,2]","011","001","1","","","","","","",""
"","","","","","image-keyboard-response","155","356694","0.0-130.0","568e7f66e3ef9e000ba1a089","665500ab8938657b03fbdba8","665781bc45b1539c53753ed6","592","stimuli/10110011.jpg"," ","","feedback_trial","1","","","","","","","","","","","","","","","","","","","","",""
"","","","","","image-keyboard-response","156","357758","0.0-131.0","568e7f66e3ef9e000ba1a089","665500ab8938657b03fbdba8","665781bc45b1539c53753ed6","1064","stimuli/1111100.jpg","1","","prediction_trial","2","","false","","1","true","true","false","false","false","false","[0,1,2]","111","100","0","","","","","","",""
"","","","","","image-keyboard-response","157","358110","0.0-132.0","568e7f66e3ef9e000ba1a089","665500ab8938657b03fbdba8","665781bc45b1539c53753ed6","352","stimuli/11111002.jpg"," ","","feedback_trial","0","","","","","","","","","","","","","","","","","","","","",""
"","","","","","image-keyboard-response","158","363655","0.0-133.0","568e7f66e3ef9e000ba1a089","665500ab8938657b03fbdba8","665781bc45b1539c53753ed6","5545","stimuli/2100011.jpg","2","","prediction_trial","2","","true","","2","false","false","true","true","false","false","[2]","100","011","1","","","","","","",""
"","","","","","image-keyboard-response","159","364175","0.0-134.0","568e7f66e3ef9e000ba1a089","665500ab8938657b03fbdba8","665781bc45b1539c53753ed6","519","stimuli/21000112.jpg"," ","","feedback_trial","2","","","","","","","","","","","","","","","","","","","","",""
"","","","","","image-keyboard-response","160","366671","0.0-135.0","568e7f66e3ef9e000ba1a089","665500ab8938657b03fbdba8","665781bc45b1539c53753ed6","2496","stimuli/0010110.jpg","0","","prediction_trial","0","","true","","0","false","false","true","true","false","false","[0]","010","110","1","","","","","","",""
"","","","","","image-keyboard-response","161","367438","0.0-136.0","568e7f66e3ef9e000ba1a089","665500ab8938657b03fbdba8","665781bc45b1539c53753ed6","768","stimuli/00101100.jpg"," ","","feedback_trial","0","","","","","","","","","","","","","","","","","","","","",""
"","","","","","image-keyboard-response","162","369093","0.0-137.0","568e7f66e3ef9e000ba1a089","665500ab8938657b03fbdba8","665781bc45b1539c53753ed6","1655","stimuli/0110100.jpg","0","","prediction_trial","1","","false","","0","false","true","false","false","false","false","[0,1]","110","100","0","","","","","","",""
"","","","","","image-keyboard-response","163","369885","0.0-138.0","568e7f66e3ef9e000ba1a089","665500ab8938657b03fbdba8","665781bc45b1539c53753ed6","791","stimuli/01101001.jpg"," ","","feedback_trial","0","","","","","","","","","","","","","","","","","","","","",""
"","","","","","image-keyboard-response","164","370693","0.0-139.0","568e7f66e3ef9e000ba1a089","665500ab8938657b03fbdba8","665781bc45b1539c53753ed6","808","stimuli/0001011.jpg","0","","prediction_trial","0","","true","","0","true","true","true","true","true","true","[0]","001","011","1","","","","","","",""
"","","","","","image-keyboard-response","165","371141","0.0-140.0","568e7f66e3ef9e000ba1a089","665500ab8938657b03fbdba8","665781bc45b1539c53753ed6","448","stimuli/00010110.jpg"," ","","feedback_trial","0","","","","","","","","","","","","","","","","","","","","",""
"","","","","","image-keyboard-response","166","378382","0.0-141.0","568e7f66e3ef9e000ba1a089","665500ab8938657b03fbdba8","665781bc45b1539c53753ed6","7240","stimuli/0101110.jpg","1","","prediction_trial","0","","false","","0","false","false","false","false","false","false","[0,2]","101","110","0","","","","","","",""
"","","","","","image-keyboard-response","167","379462","0.0-142.0","568e7f66e3ef9e000ba1a089","665500ab8938657b03fbdba8","665781bc45b1539c53753ed6","1080","stimuli/01011100.jpg"," ","","feedback_trial","0","","","","","","","","","","","","","","","","","","","","",""
"","","","","","image-keyboard-response","168","387189","0.0-143.0","568e7f66e3ef9e000ba1a089","665500ab8938657b03fbdba8","665781bc45b1539c53753ed6","7727","stimuli/0001101.jpg","2","","prediction_trial","0","","false","","0","false","false","true","true","false","false","[0]","001","101","0","","","","","","",""
"","","","","","image-keyboard-response","169","387917","0.0-144.0","568e7f66e3ef9e000ba1a089","665500ab8938657b03fbdba8","665781bc45b1539c53753ed6","728","stimuli/00011010.jpg"," ","","feedback_trial","0","","","","","","","","","","","","","","","","","","","","",""
"","","","","","image-keyboard-response","170","391125","0.0-145.0","568e7f66e3ef9e000ba1a089","665500ab8938657b03fbdba8","665781bc45b1539c53753ed6","3208","stimuli/0011111.jpg","0","","prediction_trial","0","","true","","0","false","false","true","true","false","false","[0]","011","111","1","","","","","","",""
"","","","","","image-keyboard-response","171","391549","0.0-146.0","568e7f66e3ef9e000ba1a089","665500ab8938657b03fbdba8","665781bc45b1539c53753ed6","424","stimuli/00111110.jpg"," ","","feedback_trial","0","","","","","","","","","","","","","","","","","","","","",""
"","","","","","image-keyboard-response","172","394133","0.0-147.0","568e7f66e3ef9e000ba1a089","665500ab8938657b03fbdba8","665781bc45b1539c53753ed6","2584","stimuli/2111001.jpg","2","","prediction_trial","1","","false","","2","false","true","false","false","false","false","[1,2,0]","111","001","0","","","","","","",""
"","","","","","image-keyboard-response","173","394925","0.0-148.0","568e7f66e3ef9e000ba1a089","665500ab8938657b03fbdba8","665781bc45b1539c53753ed6","792","stimuli/21110011.jpg"," ","","feedback_trial","1","","","","","","","","","","","","","","","","","","","","",""
"","","","","","image-keyboard-response","174","396109","0.0-149.0","568e7f66e3ef9e000ba1a089","665500ab8938657b03fbdba8","665781bc45b1539c53753ed6","1184","stimuli/2111010.jpg","2","","prediction_trial","1","","false","","2","true","true","false","false","false","false","[1,0,2]","111","010","0","","","","","","",""
"","","","","","image-keyboard-response","175","397125","0.0-150.0","568e7f66e3ef9e000ba1a089","665500ab8938657b03fbdba8","665781bc45b1539c53753ed6","1016","stimuli/21110101.jpg"," ","","feedback_trial","1","","","","","","","","","","","","","","","","","","","","",""
"","","","","","image-keyboard-response","176","400909","0.0-151.0","568e7f66e3ef9e000ba1a089","665500ab8938657b03fbdba8","665781bc45b1539c53753ed6","3784","stimuli/1100110.jpg","0","","prediction_trial","1","","false","","1","false","false","true","true","false","false","[1]","100","110","0","","","","","","",""
"","","","","","image-keyboard-response","177","401845","0.0-152.0","568e7f66e3ef9e000ba1a089","665500ab8938657b03fbdba8","665781bc45b1539c53753ed6","936","stimuli/11001101.jpg"," ","","feedback_trial","1","","","","","","","","","","","","","","","","","","","","",""
"","","","","","image-keyboard-response","178","402949","0.0-153.0","568e7f66e3ef9e000ba1a089","665500ab8938657b03fbdba8","665781bc45b1539c53753ed6","1104","stimuli/1101101.jpg","1","","prediction_trial","1","","true","","1","true","true","true","true","true","true","[1]","101","101","1","","","","","","",""
"","","","","","image-keyboard-response","179","403493","0.0-154.0","568e7f66e3ef9e000ba1a089","665500ab8938657b03fbdba8","665781bc45b1539c53753ed6","544","stimuli/11011011.jpg"," ","","feedback_trial","1","","","","","","","","","","","","","","","","","","","","",""
"","","","","","image-keyboard-response","180","406925","0.0-155.0","568e7f66e3ef9e000ba1a089","665500ab8938657b03fbdba8","665781bc45b1539c53753ed6","3432","stimuli/2101010.jpg","0","","prediction_trial","0","","true","","2","true","true","false","false","false","false","[2,0]","101","010","1","","","","","","",""
"","","","","","image-keyboard-response","181","408341","0.0-156.0","568e7f66e3ef9e000ba1a089","665500ab8938657b03fbdba8","665781bc45b1539c53753ed6","1416","stimuli/21010100.jpg"," ","","feedback_trial","2","","","","","","","","","","","","","","","","","","","","",""
"","","","","","image-keyboard-response","182","409925","0.0-157.0","568e7f66e3ef9e000ba1a089","665500ab8938657b03fbdba8","665781bc45b1539c53753ed6","1584","stimuli/2010010.jpg","2","","prediction_trial","2","","true","","2","true","true","true","true","true","true","[2]","010","010","1","","","","","","",""
"","","","","","image-keyboard-response","183","410485","0.0-158.0","568e7f66e3ef9e000ba1a089","665500ab8938657b03fbdba8","665781bc45b1539c53753ed6","560","stimuli/20100102.jpg"," ","","feedback_trial","2","","","","","","","","","","","","","","","","","","","","",""
"","","","","","image-keyboard-response","184","414997","0.0-159.0","568e7f66e3ef9e000ba1a089","665500ab8938657b03fbdba8","665781bc45b1539c53753ed6","4512","stimuli/2101110.jpg","0","","prediction_trial","0","","true","","2","true","true","false","false","false","false","[0,2]","101","110","1","","","","","","",""
"","","","","","image-keyboard-response","185","415685","0.0-160.0","568e7f66e3ef9e000ba1a089","665500ab8938657b03fbdba8","665781bc45b1539c53753ed6","688","stimuli/21011100.jpg"," ","","feedback_trial","0","","","","","","","","","","","","","","","","","","","","",""
"","","","","","image-keyboard-response","186","418133","0.0-161.0","568e7f66e3ef9e000ba1a089","665500ab8938657b03fbdba8","665781bc45b1539c53753ed6","2448","stimuli/2011010.jpg","1","","prediction_trial","2","","false","","2","true","true","false","false","false","false","[1,2]","011","010","0","","","","","","",""
"","","","","","image-keyboard-response","187","419141","0.0-162.0","568e7f66e3ef9e000ba1a089","665500ab8938657b03fbdba8","665781bc45b1539c53753ed6","1008","stimuli/20110102.jpg"," ","","feedback_trial","1","","","","","","","","","","","","","","","","","","","","",""
"","","","","","image-keyboard-response","188","420829","0.0-163.0","568e7f66e3ef9e000ba1a089","665500ab8938657b03fbdba8","665781bc45b1539c53753ed6","1688","stimuli/0000000.jpg","0","","prediction_trial","0","","true","","0","true","true","true","true","true","true","[0]","000","000","1","","","","","","",""
"","","","","","image-keyboard-response","189","421237","0.0-164.0","568e7f66e3ef9e000ba1a089","665500ab8938657b03fbdba8","665781bc45b1539c53753ed6","408","stimuli/00000000.jpg"," ","","feedback_trial","0","","","","","","","","","","","","","","","","","","","","",""
"","","","","","image-keyboard-response","190","424797","0.0-165.0","568e7f66e3ef9e000ba1a089","665500ab8938657b03fbdba8","665781bc45b1539c53753ed6","3560","stimuli/1011010.jpg","1","","prediction_trial","2","","false","","1","false","true","false","false","false","false","[2,1]","011","010","0","","","","","","",""
"","","","","","image-keyboard-response","191","425597","0.0-166.0","568e7f66e3ef9e000ba1a089","665500ab8938657b03fbdba8","665781bc45b1539c53753ed6","800","stimuli/10110102.jpg"," ","","feedback_trial","2","","","","","","","","","","","","","","","","","","","","",""
"","","","","","image-keyboard-response","192","426637","0.0-167.0","568e7f66e3ef9e000ba1a089","665500ab8938657b03fbdba8","665781bc45b1539c53753ed6","1039","stimuli/0011000.jpg","0","","prediction_trial","0","","true","","0","true","true","true","true","true","true","[0]","011","000","1","","","","","","",""
"","","","","","image-keyboard-response","193","427037","0.0-168.0","568e7f66e3ef9e000ba1a089","665500ab8938657b03fbdba8","665781bc45b1539c53753ed6","400","stimuli/00110000.jpg"," ","","feedback_trial","0","","","","","","","","","","","","","","","","","","","","",""
"","","","","","image-keyboard-response","194","428120","0.0-169.0","568e7f66e3ef9e000ba1a089","665500ab8938657b03fbdba8","665781bc45b1539c53753ed6","1080","stimuli/2000100.jpg","2","","prediction_trial","2","","true","","2","true","true","true","true","true","true","[2]","000","100","1","","","","","","",""
"","","","","","image-keyboard-response","195","428528","0.0-170.0","568e7f66e3ef9e000ba1a089","665500ab8938657b03fbdba8","665781bc45b1539c53753ed6","408","stimuli/20001002.jpg"," ","","feedback_trial","2","","","","","","","","","","","","","","","","","","","","",""
"","","","","","image-keyboard-response","196","431144","0.0-171.0","568e7f66e3ef9e000ba1a089","665500ab8938657b03fbdba8","665781bc45b1539c53753ed6","2616","stimuli/2101000.jpg","0","","prediction_trial","2","","false","","2","true","true","false","false","false","false","[2,0]","101","000","0","","","","","","",""
"","","","","","image-keyboard-response","197","432464","0.0-172.0","568e7f66e3ef9e000ba1a089","665500ab8938657b03fbdba8","665781bc45b1539c53753ed6","1320","stimuli/21010002.jpg"," ","","feedback_trial","2","","","","","","","","","","","","","","","","","","","","",""
"","","","","","image-keyboard-response","198","437336","0.0-173.0","568e7f66e3ef9e000ba1a089","665500ab8938657b03fbdba8","665781bc45b1539c53753ed6","4872","stimuli/2111101.jpg","1","","prediction_trial","0","","false","","2","false","false","false","false","false","false","[0,1,2]","111","101","0","","","","","","",""
"","","","","","image-keyboard-response","199","438049","0.0-174.0","568e7f66e3ef9e000ba1a089","665500ab8938657b03fbdba8","665781bc45b1539c53753ed6","712","stimuli/21111010.jpg"," ","","feedback_trial","0","","","","","","","","","","","","","","","","","","","","",""
"","","","","","image-keyboard-response","200","438952","0.0-175.0","568e7f66e3ef9e000ba1a089","665500ab8938657b03fbdba8","665781bc45b1539c53753ed6","903","stimuli/0101000.jpg","0","","prediction_trial","0","","true","","0","true","true","false","false","false","false","[2,0]","101","000","1","","","","","","",""
"","","","","","image-keyboard-response","201","439512","0.0-176.0","568e7f66e3ef9e000ba1a089","665500ab8938657b03fbdba8","665781bc45b1539c53753ed6","560","stimuli/01010000.jpg"," ","","feedback_trial","2","","","","","","","","","","","","","","","","","","","","",""
"","","","","","image-keyboard-response","202","442560","0.0-177.0","568e7f66e3ef9e000ba1a089","665500ab8938657b03fbdba8","665781bc45b1539c53753ed6","3048","stimuli/0110000.jpg","1","","prediction_trial","1","","true","","0","true","true","false","false","false","false","[0,1]","110","000","1","","","","","","",""
"","","","","","image-keyboard-response","203","443024","0.0-178.0","568e7f66e3ef9e000ba1a089","665500ab8938657b03fbdba8","665781bc45b1539c53753ed6","464","stimuli/01100001.jpg"," ","","feedback_trial","0","","","","","","","","","","","","","","","","","","","","",""
"","","","","","image-keyboard-response","204","447032","0.0-179.0","568e7f66e3ef9e000ba1a089","665500ab8938657b03fbdba8","665781bc45b1539c53753ed6","4008","stimuli/2010111.jpg","1","","prediction_trial","2","","false","","2","false","false","true","true","false","false","[2]","010","111","0","","","","","","",""
"","","","","","image-keyboard-response","205","447640","0.0-180.0","568e7f66e3ef9e000ba1a089","665500ab8938657b03fbdba8","665781bc45b1539c53753ed6","608","stimuli/20101112.jpg"," ","","feedback_trial","2","","","","","","","","","","","","","","","","","","","","",""
"","","","","","image-keyboard-response","206","448720","0.0-181.0","568e7f66e3ef9e000ba1a089","665500ab8938657b03fbdba8","665781bc45b1539c53753ed6","1079","stimuli/2000000.jpg","2","","prediction_trial","2","","true","","2","true","true","true","true","true","true","[2]","000","000","1","","","","","","",""
"","","","","","image-keyboard-response","207","449128","0.0-182.0","568e7f66e3ef9e000ba1a089","665500ab8938657b03fbdba8","665781bc45b1539c53753ed6","408","stimuli/20000002.jpg"," ","","feedback_trial","2","","","","","","","","","","","","","","","","","","","","",""
"","","","","","image-keyboard-response","208","451464","0.0-183.0","568e7f66e3ef9e000ba1a089","665500ab8938657b03fbdba8","665781bc45b1539c53753ed6","2336","stimuli/0110110.jpg","0","","prediction_trial","1","","false","","0","false","false","false","false","false","false","[1,0]","110","110","0","","","","","","",""
"","","","","","image-keyboard-response","209","452160","0.0-184.0","568e7f66e3ef9e000ba1a089","665500ab8938657b03fbdba8","665781bc45b1539c53753ed6","696","stimuli/01101101.jpg"," ","","feedback_trial","1","","","","","","","","","","","","","","","","","","","","",""
"","","","","","image-keyboard-response","210","452912","0.0-185.0","568e7f66e3ef9e000ba1a089","665500ab8938657b03fbdba8","665781bc45b1539c53753ed6","752","stimuli/0010000.jpg","0","","prediction_trial","0","","true","","0","true","true","true","true","true","true","[0]","010","000","1","","","","","","",""
"","","","","","image-keyboard-response","211","453296","0.0-186.0","568e7f66e3ef9e000ba1a089","665500ab8938657b03fbdba8","665781bc45b1539c53753ed6","384","stimuli/00100000.jpg"," ","","feedback_trial","0","","","","","","","","","","","","","","","","","","","","",""
"","","","","","image-keyboard-response","212","455368","0.0-187.0","568e7f66e3ef9e000ba1a089","665500ab8938657b03fbdba8","665781bc45b1539c53753ed6","2072","stimuli/0001111.jpg","1","","prediction_trial","0","","false","","0","false","false","true","true","false","false","[0]","001","111","0","","","","","","",""
"","","","","","image-keyboard-response","213","455952","0.0-188.0","568e7f66e3ef9e000ba1a089","665500ab8938657b03fbdba8","665781bc45b1539c53753ed6","584","stimuli/00011110.jpg"," ","","feedback_trial","0","","","","","","","","","","","","","","","","","","","","",""
"","","","","","image-keyboard-response","214","456664","0.0-189.0","568e7f66e3ef9e000ba1a089","665500ab8938657b03fbdba8","665781bc45b1539c53753ed6","712","stimuli/1001101.jpg","1","","prediction_trial","1","","true","","1","true","true","true","true","true","true","[1]","001","101","1","","","","","","",""
"","","","","","image-keyboard-response","215","457056","0.0-190.0","568e7f66e3ef9e000ba1a089","665500ab8938657b03fbdba8","665781bc45b1539c53753ed6","392","stimuli/10011011.jpg"," ","","feedback_trial","1","","","","","","","","","","","","","","","","","","","","",""
"","","","","","image-keyboard-response","216","457752","0.0-191.0","568e7f66e3ef9e000ba1a089","665500ab8938657b03fbdba8","665781bc45b1539c53753ed6","696","stimuli/1011000.jpg","1","","prediction_trial","1","","true","","1","true","true","false","false","false","false","[2,1]","011","000","1","","","","","","",""
"","","","","","image-keyboard-response","217","458512","0.0-192.0","568e7f66e3ef9e000ba1a089","665500ab8938657b03fbdba8","665781bc45b1539c53753ed6","760","stimuli/10110001.jpg"," ","","feedback_trial","2","","","","","","","","","","","","","","","","","","","","",""
"","","","","","image-keyboard-response","218","459776","0.0-193.0","568e7f66e3ef9e000ba1a089","665500ab8938657b03fbdba8","665781bc45b1539c53753ed6","1264","stimuli/1001000.jpg","1","","prediction_trial","1","","true","","1","true","true","true","true","true","true","[1]","001","000","1","","","","","","",""
"","","","","","image-keyboard-response","219","460136","0.0-194.0","568e7f66e3ef9e000ba1a089","665500ab8938657b03fbdba8","665781bc45b1539c53753ed6","360","stimuli/10010001.jpg"," ","","feedback_trial","1","","","","","","","","","","","","","","","","","","","","",""
"","","","","","image-keyboard-response","220","461984","0.0-195.0","568e7f66e3ef9e000ba1a089","665500ab8938657b03fbdba8","665781bc45b1539c53753ed6","1848","stimuli/2001001.jpg","2","","prediction_trial","2","","true","","2","false","true","false","true","false","true","[2]","001","001","1","","","","","","",""
"","","","","","image-keyboard-response","221","462400","0.0-196.0","568e7f66e3ef9e000ba1a089","665500ab8938657b03fbdba8","665781bc45b1539c53753ed6","416","stimuli/20010012.jpg"," ","","feedback_trial","2","","","","","","","","","","","","","","","","","","","","",""
"","","","","","image-keyboard-response","222","466824","0.0-197.0","568e7f66e3ef9e000ba1a089","665500ab8938657b03fbdba8","665781bc45b1539c53753ed6","4424","stimuli/1011111.jpg","1","","prediction_trial","1","","true","","1","false","false","false","false","false","false","[1,2]","011","111","1","","","","","","",""
"","","","","","image-keyboard-response","223","467664","0.0-198.0","568e7f66e3ef9e000ba1a089","665500ab8938657b03fbdba8","665781bc45b1539c53753ed6","840","stimuli/10111111.jpg"," ","","feedback_trial","1","","","","","","","","","","","","","","","","","","","","",""
"","","","","","image-keyboard-response","224","471800","0.0-199.0","568e7f66e3ef9e000ba1a089","665500ab8938657b03fbdba8","665781bc45b1539c53753ed6","4136","stimuli/2100001.jpg","2","","prediction_trial","2","","true","","2","false","true","true","true","false","true","[2]","100","001","1","","","","","","",""
"","","","","","image-keyboard-response","225","472216","0.0-200.0","568e7f66e3ef9e000ba1a089","665500ab8938657b03fbdba8","665781bc45b1539c53753ed6","416","stimuli/21000012.jpg"," ","","feedback_trial","2","","","","","","","","","","","","","","","","","","","","",""
"","","","","","image-keyboard-response","226","473208","0.0-201.0","568e7f66e3ef9e000ba1a089","665500ab8938657b03fbdba8","665781bc45b1539c53753ed6","992","stimuli/2010110.jpg","2","","prediction_trial","2","","true","","2","true","true","true","true","true","true","[2]","010","110","1","","","","","","",""
"","","","","","image-keyboard-response","227","473560","0.0-202.0","568e7f66e3ef9e000ba1a089","665500ab8938657b03fbdba8","665781bc45b1539c53753ed6","352","stimuli/20101102.jpg"," ","","feedback_trial","2","","","","","","","","","","","","","","","","","","","","",""
"","","","","","image-keyboard-response","228","474216","0.0-203.0","568e7f66e3ef9e000ba1a089","665500ab8938657b03fbdba8","665781bc45b1539c53753ed6","656","stimuli/2010100.jpg","2","","prediction_trial","2","","true","","2","true","true","true","true","true","true","[2]","010","100","1","","","","","","",""
"","","","","","image-keyboard-response","229","474640","0.0-204.0","568e7f66e3ef9e000ba1a089","665500ab8938657b03fbdba8","665781bc45b1539c53753ed6","424","stimuli/20101002.jpg"," ","","feedback_trial","2","","","","","","","","","","","","","","","","","","","","",""
"","","","","","image-keyboard-response","230","476224","0.0-205.0","568e7f66e3ef9e000ba1a089","665500ab8938657b03fbdba8","665781bc45b1539c53753ed6","1584","stimuli/1111001.jpg","1","","prediction_trial","2","","false","","1","true","true","false","false","false","false","[2,0,1]","111","001","0","","","","","","",""
"","","","","","image-keyboard-response","231","477120","0.0-206.0","568e7f66e3ef9e000ba1a089","665500ab8938657b03fbdba8","665781bc45b1539c53753ed6","896","stimuli/11110012.jpg"," ","","feedback_trial","2","","","","","","","","","","","","","","","","","","","","",""
"","","","","","image-keyboard-response","232","479256","0.0-207.0","568e7f66e3ef9e000ba1a089","665500ab8938657b03fbdba8","665781bc45b1539c53753ed6","2136","stimuli/1111000.jpg","0","","prediction_trial","0","","true","","1","true","true","false","false","false","false","[2,1,0]","111","000","1","","","","","","",""
"","","","","","image-keyboard-response","233","479688","0.0-208.0","568e7f66e3ef9e000ba1a089","665500ab8938657b03fbdba8","665781bc45b1539c53753ed6","432","stimuli/11110000.jpg"," ","","feedback_trial","2","","","","","","","","","","","","","","","","","","","","",""
"","","","","","image-keyboard-response","234","480920","0.0-209.0","568e7f66e3ef9e000ba1a089","665500ab8938657b03fbdba8","665781bc45b1539c53753ed6","1232","stimuli/1001100.jpg","1","","prediction_trial","1","","true","","1","true","true","true","true","true","true","[1]","001","100","1","","","","","","",""
"","","","","","image-keyboard-response","235","481376","0.0-210.0","568e7f66e3ef9e000ba1a089","665500ab8938657b03fbdba8","665781bc45b1539c53753ed6","456","stimuli/10011001.jpg"," ","","feedback_trial","1","","","","","","","","","","","","","","","","","","","","",""
"","","","","","image-keyboard-response","236","483608","0.0-211.0","568e7f66e3ef9e000ba1a089","665500ab8938657b03fbdba8","665781bc45b1539c53753ed6","2232","stimuli/1001111.jpg","2","","prediction_trial","1","","false","","1","false","false","true","true","false","false","[1]","001","111","0","","","","","","",""
"","","","","","image-keyboard-response","237","484288","0.0-212.0","568e7f66e3ef9e000ba1a089","665500ab8938657b03fbdba8","665781bc45b1539c53753ed6","680","stimuli/10011111.jpg"," ","","feedback_trial","1","","","","","","","","","","","","","","","","","","","","",""
"","","","","","image-keyboard-response","238","488705","0.0-213.0","568e7f66e3ef9e000ba1a089","665500ab8938657b03fbdba8","665781bc45b1539c53753ed6","4416","stimuli/1111011.jpg","0","","prediction_trial","2","","false","","1","false","false","false","false","false","false","[0,2,1]","111","011","0","","","","","","",""
"","","","","","image-keyboard-response","239","489417","0.0-214.0","568e7f66e3ef9e000ba1a089","665500ab8938657b03fbdba8","665781bc45b1539c53753ed6","712","stimuli/11110112.jpg"," ","","feedback_trial","0","","","","","","","","","","","","","","","","","","","","",""
"","","","","","image-keyboard-response","240","490489","0.0-215.0","568e7f66e3ef9e000ba1a089","665500ab8938657b03fbdba8","665781bc45b1539c53753ed6","1072","stimuli/0001000.jpg","0","","prediction_trial","0","","true","","0","true","true","true","true","true","true","[0]","001","000","1","","","","","","",""
"","","","","","image-keyboard-response","241","490945","0.0-216.0","568e7f66e3ef9e000ba1a089","665500ab8938657b03fbdba8","665781bc45b1539c53753ed6","456","stimuli/00010000.jpg"," ","","feedback_trial","0","","","","","","","","","","","","","","","","","","","","",""
"","","","","","image-keyboard-response","242","492361","0.0-217.0","568e7f66e3ef9e000ba1a089","665500ab8938657b03fbdba8","665781bc45b1539c53753ed6","1416","stimuli/1100000.jpg","2","","prediction_trial","1","","false","","1","true","true","true","true","true","true","[1]","100","000","0","","","","","","",""
"","","","","","image-keyboard-response","243","492817","0.0-218.0","568e7f66e3ef9e000ba1a089","665500ab8938657b03fbdba8","665781bc45b1539c53753ed6","456","stimuli/11000001.jpg"," ","","feedback_trial","1","","","","","","","","","","","","","","","","","","","","",""
"","","","","","image-keyboard-response","244","497473","0.0-219.0","568e7f66e3ef9e000ba1a089","665500ab8938657b03fbdba8","665781bc45b1539c53753ed6","4656","stimuli/2101111.jpg","1","","prediction_trial","0","","false","","2","false","false","false","false","false","false","[2,0]","101","111","0","","","","","","",""
"","","","","","image-keyboard-response","245","498265","0.0-220.0","568e7f66e3ef9e000ba1a089","665500ab8938657b03fbdba8","665781bc45b1539c53753ed6","791","stimuli/21011110.jpg"," ","","feedback_trial","2","","","","","","","","","","","","","","","","","","","","",""
"","","","","","image-keyboard-response","246","499153","0.0-221.0","568e7f66e3ef9e000ba1a089","665500ab8938657b03fbdba8","665781bc45b1539c53753ed6","887","stimuli/0000001.jpg","0","","prediction_trial","0","","true","","0","true","true","true","true","true","true","[0]","000","001","1","","","","","","",""
"","","","","","image-keyboard-response","247","499561","0.0-222.0","568e7f66e3ef9e000ba1a089","665500ab8938657b03fbdba8","665781bc45b1539c53753ed6","408","stimuli/00000010.jpg"," ","","feedback_trial","0","","","","","","","","","","","","","","","","","","","","",""
"","","","","","image-keyboard-response","248","501833","0.0-223.0","568e7f66e3ef9e000ba1a089","665500ab8938657b03fbdba8","665781bc45b1539c53753ed6","2272","stimuli/2001100.jpg","2","","prediction_trial","2","","true","","2","true","true","false","true","false","true","[2]","001","100","1","","","","","","",""
"","","","","","image-keyboard-response","249","502225","0.0-224.0","568e7f66e3ef9e000ba1a089","665500ab8938657b03fbdba8","665781bc45b1539c53753ed6","392","stimuli/20011002.jpg"," ","","feedback_trial","2","","","","","","","","","","","","","","","","","","","","",""
"","","","","","image-keyboard-response","250","503257","0.0-225.0","568e7f66e3ef9e000ba1a089","665500ab8938657b03fbdba8","665781bc45b1539c53753ed6","1033","stimuli/0110011.jpg","0","","prediction_trial","1","","false","","0","true","true","false","false","false","false","[1,0]","110","011","0","","","","","","",""
"","","","","","image-keyboard-response","251","504081","0.0-226.0","568e7f66e3ef9e000ba1a089","665500ab8938657b03fbdba8","665781bc45b1539c53753ed6","824","stimuli/01100111.jpg"," ","","feedback_trial","1","","","","","","","","","","","","","","","","","","","","",""
"","","","","","image-keyboard-response","252","507673","0.0-227.0","568e7f66e3ef9e000ba1a089","665500ab8938657b03fbdba8","665781bc45b1539c53753ed6","3591","stimuli/1111010.jpg","1","","prediction_trial","1","","true","","1","false","true","false","false","false","false","[0,2,1]","111","010","1","","","","","","",""
"","","","","","image-keyboard-response","253","508433","0.0-228.0","568e7f66e3ef9e000ba1a089","665500ab8938657b03fbdba8","665781bc45b1539c53753ed6","760","stimuli/11110101.jpg"," ","","feedback_trial","0","","","","","","","","","","","","","","","","","","","","",""
"","","","","","image-keyboard-response","254","510777","0.0-229.0","568e7f66e3ef9e000ba1a089","665500ab8938657b03fbdba8","665781bc45b1539c53753ed6","2344","stimuli/2111100.jpg","0","","prediction_trial","2","","false","","2","true","true","false","false","false","false","[2,1,0]","111","100","0","","","","","","",""
"","","","","","image-keyboard-response","255","511897","0.0-230.0","568e7f66e3ef9e000ba1a089","665500ab8938657b03fbdba8","665781bc45b1539c53753ed6","1120","stimuli/21111002.jpg"," ","","feedback_trial","2","","","","","","","","","","","","","","","","","","","","",""
"","","","","","image-keyboard-response","256","513385","0.0-231.0","568e7f66e3ef9e000ba1a089","665500ab8938657b03fbdba8","665781bc45b1539c53753ed6","1488","stimuli/0000100.jpg","0","","prediction_trial","0","","true","","0","false","true","true","true","false","true","[0]","000","100","1","","","","","","",""
"","","","","","image-keyboard-response","257","513969","0.0-232.0","568e7f66e3ef9e000ba1a089","665500ab8938657b03fbdba8","665781bc45b1539c53753ed6","583","stimuli/00001000.jpg"," ","","feedback_trial","0","","","","","","","","","","","","","","","","","","","","",""
"","","","","","image-keyboard-response","258","517730","0.0-233.0","568e7f66e3ef9e000ba1a089","665500ab8938657b03fbdba8","665781bc45b1539c53753ed6","3761","stimuli/0000111.jpg","1","","prediction_trial","0","","false","","0","false","false","true","true","false","false","[0]","000","111","0","","","","","","",""
"","","","","","image-keyboard-response","259","519089","0.0-234.0","568e7f66e3ef9e000ba1a089","665500ab8938657b03fbdba8","665781bc45b1539c53753ed6","1359","stimuli/00001110.jpg"," ","","feedback_trial","0","","","","","","","","","","","","","","","","","","","","",""
"","","","","","image-keyboard-response","260","520490","0.0-235.0","568e7f66e3ef9e000ba1a089","665500ab8938657b03fbdba8","665781bc45b1539c53753ed6","1400","stimuli/2000111.jpg","2","","prediction_trial","2","","true","","2","false","false","true","true","false","false","[2]","000","111","1","","","","","","",""
"","","","","","image-keyboard-response","261","521010","0.0-236.0","568e7f66e3ef9e000ba1a089","665500ab8938657b03fbdba8","665781bc45b1539c53753ed6","520","stimuli/20001112.jpg"," ","","feedback_trial","2","","","","","","","","","","","","","","","","","","","","",""
"","","","","","image-keyboard-response","262","522594","0.0-237.0","568e7f66e3ef9e000ba1a089","665500ab8938657b03fbdba8","665781bc45b1539c53753ed6","1584","stimuli/0001100.jpg","0","","prediction_trial","0","","true","","0","false","true","true","true","false","true","[0]","001","100","1","","","","","","",""
"","","","","","image-keyboard-response","263","523185","0.0-238.0","568e7f66e3ef9e000ba1a089","665500ab8938657b03fbdba8","665781bc45b1539c53753ed6","591","stimuli/00011000.jpg"," ","","feedback_trial","0","","","","","","","","","","","","","","","","","","","","",""
"","","","","","image-keyboard-response","264","525658","0.0-239.0","568e7f66e3ef9e000ba1a089","665500ab8938657b03fbdba8","665781bc45b1539c53753ed6","2472","stimuli/0100100.jpg","0","","prediction_trial","0","","true","","0","false","true","false","true","false","true","[0]","100","100","1","","","","","","",""
"","","","","","image-keyboard-response","265","526130","0.0-240.0","568e7f66e3ef9e000ba1a089","665500ab8938657b03fbdba8","665781bc45b1539c53753ed6","472","stimuli/01001000.jpg"," ","","feedback_trial","0","","","","","","","","","","","","","","","","","","","","",""
"","","","","","image-keyboard-response","266","528481","0.0-241.0","568e7f66e3ef9e000ba1a089","665500ab8938657b03fbdba8","665781bc45b1539c53753ed6","2352","stimuli/0110010.jpg","0","","prediction_trial","1","","false","","0","true","true","false","false","false","false","[1,0]","110","010","0","","","","","","",""
"","","","","","image-keyboard-response","267","529209","0.0-242.0","568e7f66e3ef9e000ba1a089","665500ab8938657b03fbdba8","665781bc45b1539c53753ed6","727","stimuli/01100101.jpg"," ","","feedback_trial","1","","","","","","","","","","","","","","","","","","","","",""
"","","","","","image-keyboard-response","268","532985","0.0-243.0","568e7f66e3ef9e000ba1a089","665500ab8938657b03fbdba8","665781bc45b1539c53753ed6","3775","stimuli/1011110.jpg","1","","prediction_trial","2","","false","","1","false","false","false","false","false","false","[2,1]","011","110","0","","","","","","",""
"","","","","","image-keyboard-response","269","534361","0.0-244.0","568e7f66e3ef9e000ba1a089","665500ab8938657b03fbdba8","665781bc45b1539c53753ed6","1376","stimuli/10111102.jpg"," ","","feedback_trial","2","","","","","","","","","","","","","","","","","","","","",""
"","","","","","image-keyboard-response","270","535649","0.0-245.0","568e7f66e3ef9e000ba1a089","665500ab8938657b03fbdba8","665781bc45b1539c53753ed6","1287","stimuli/2011000.jpg","2","","prediction_trial","2","","true","","2","true","true","false","false","false","false","[2,1]","011","000","1","","","","","","",""
"","","","","","image-keyboard-response","271","536057","0.0-246.0","568e7f66e3ef9e000ba1a089","665500ab8938657b03fbdba8","665781bc45b1539c53753ed6","408","stimuli/20110002.jpg"," ","","feedback_trial","2","","","","","","","","","","","","","","","","","","","","",""
"","","","","","image-keyboard-response","272","539857","0.0-247.0","568e7f66e3ef9e000ba1a089","665500ab8938657b03fbdba8","665781bc45b1539c53753ed6","3800","stimuli/0000110.jpg","0","","prediction_trial","0","","true","","0","false","false","true","true","false","false","[0]","000","110","1","","","","","","",""
"","","","","","image-keyboard-response","273","540353","0.0-248.0","568e7f66e3ef9e000ba1a089","665500ab8938657b03fbdba8","665781bc45b1539c53753ed6","496","stimuli/00001100.jpg"," ","","feedback_trial","0","","","","","","","","","","","","","","","","","","","","",""
"","","","","","image-keyboard-response","274","541721","0.0-249.0","568e7f66e3ef9e000ba1a089","665500ab8938657b03fbdba8","665781bc45b1539c53753ed6","1368","stimuli/2100100.jpg","2","","prediction_trial","2","","true","","2","true","true","true","true","true","true","[2]","100","100","1","","","","","","",""
"","","","","","image-keyboard-response","275","542145","0.0-250.0","568e7f66e3ef9e000ba1a089","665500ab8938657b03fbdba8","665781bc45b1539c53753ed6","424","stimuli/21001002.jpg"," ","","feedback_trial","2","","","","","","","","","","","","","","","","","","","","",""
"","","","","","image-keyboard-response","276","543697","0.0-251.0","568e7f66e3ef9e000ba1a089","665500ab8938657b03fbdba8","665781bc45b1539c53753ed6","1552","stimuli/1011011.jpg","1","","prediction_trial","1","","true","","1","false","false","false","false","false","false","[2,1]","011","011","1","","","","","","",""
"","","","","","image-keyboard-response","277","544417","0.0-252.0","568e7f66e3ef9e000ba1a089","665500ab8938657b03fbdba8","665781bc45b1539c53753ed6","720","stimuli/10110111.jpg"," ","","feedback_trial","2","","","","","","","","","","","","","","","","","","","","",""
"","","","","","image-keyboard-response","278","546441","0.0-253.0","568e7f66e3ef9e000ba1a089","665500ab8938657b03fbdba8","665781bc45b1539c53753ed6","2024","stimuli/0111001.jpg","0","","prediction_trial","0","","true","","0","true","true","false","false","false","false","[2,0,1]","111","001","1","","","","","","",""
"","","","","","image-keyboard-response","279","546841","0.0-254.0","568e7f66e3ef9e000ba1a089","665500ab8938657b03fbdba8","665781bc45b1539c53753ed6","400","stimuli/01110010.jpg"," ","","feedback_trial","2","","","","","","","","","","","","","","","","","","","","",""
"","","","","","image-keyboard-response","280","550503","0.0-255.0","568e7f66e3ef9e000ba1a089","665500ab8938657b03fbdba8","665781bc45b1539c53753ed6","3664","stimuli/2100111.jpg","2","","prediction_trial","2","","true","","2","false","false","true","true","false","false","[2]","100","111","1","","","","","","",""
"","","","","","image-keyboard-response","281","550991","0.0-256.0","568e7f66e3ef9e000ba1a089","665500ab8938657b03fbdba8","665781bc45b1539c53753ed6","488","stimuli/21001112.jpg"," ","","feedback_trial","2","","","","","","","","","","","","","","","","","","","","",""
"","","","","","image-keyboard-response","282","551991","0.0-257.0","568e7f66e3ef9e000ba1a089","665500ab8938657b03fbdba8","665781bc45b1539c53753ed6","1000","stimuli/0011001.jpg","0","","prediction_trial","0","","true","","0","true","true","true","true","true","true","[0]","011","001","1","","","","","","",""
"","","","","","image-keyboard-response","283","552375","0.0-258.0","568e7f66e3ef9e000ba1a089","665500ab8938657b03fbdba8","665781bc45b1539c53753ed6","384","stimuli/00110010.jpg"," ","","feedback_trial","0","","","","","","","","","","","","","","","","","","","","",""
"","","","","","image-keyboard-response","284","556152","0.0-259.0","568e7f66e3ef9e000ba1a089","665500ab8938657b03fbdba8","665781bc45b1539c53753ed6","3777","stimuli/0011101.jpg","1","","prediction_trial","0","","false","","0","false","false","true","true","false","false","[0]","011","101","0","","","","","","",""
"","","","","","image-keyboard-response","285","556855","0.0-260.0","568e7f66e3ef9e000ba1a089","665500ab8938657b03fbdba8","665781bc45b1539c53753ed6","703","stimuli/00111010.jpg"," ","","feedback_trial","0","","","","","","","","","","","","","","","","","","","","",""
"","","","","","image-keyboard-response","286","558152","0.0-261.0","568e7f66e3ef9e000ba1a089","665500ab8938657b03fbdba8","665781bc45b1539c53753ed6","1297","stimuli/2100010.jpg","2","","prediction_trial","2","","true","","2","true","true","true","true","true","true","[2]","100","010","1","","","","","","",""
"","","","","","image-keyboard-response","287","558607","0.0-262.0","568e7f66e3ef9e000ba1a089","665500ab8938657b03fbdba8","665781bc45b1539c53753ed6","455","stimuli/21000102.jpg"," ","","feedback_trial","2","","","","","","","","","","","","","","","","","","","","",""
"","","","","","image-keyboard-response","288","561200","0.0-263.0","568e7f66e3ef9e000ba1a089","665500ab8938657b03fbdba8","665781bc45b1539c53753ed6","2593","stimuli/2110011.jpg","2","","prediction_trial","2","","true","","2","false","false","true","true","false","false","[2]","110","011","1","","","","","","",""
"","","","","","image-keyboard-response","289","561592","0.0-264.0","568e7f66e3ef9e000ba1a089","665500ab8938657b03fbdba8","665781bc45b1539c53753ed6","391","stimuli/21100112.jpg"," ","","feedback_trial","2","","","","","","","","","","","","","","","","","","","","",""
"","","","","","image-keyboard-response","290","566424","0.0-265.0","568e7f66e3ef9e000ba1a089","665500ab8938657b03fbdba8","665781bc45b1539c53753ed6","4832","stimuli/2011001.jpg","1","","prediction_trial","2","","false","","2","false","true","false","false","false","false","[2,1]","011","001","0","","","","","","",""
"","","","","","image-keyboard-response","291","567128","0.0-266.0","568e7f66e3ef9e000ba1a089","665500ab8938657b03fbdba8","665781bc45b1539c53753ed6","704","stimuli/20110012.jpg"," ","","feedback_trial","2","","","","","","","","","","","","","","","","","","","","",""
"","","","","","image-keyboard-response","292","568824","0.0-267.0","568e7f66e3ef9e000ba1a089","665500ab8938657b03fbdba8","665781bc45b1539c53753ed6","1696","stimuli/2000101.jpg","0","","prediction_trial","2","","false","","2","false","false","true","true","false","false","[2]","000","101","0","","","","","","",""
"","","","","","image-keyboard-response","293","569456","0.0-268.0","568e7f66e3ef9e000ba1a089","665500ab8938657b03fbdba8","665781bc45b1539c53753ed6","631","stimuli/20001012.jpg"," ","","feedback_trial","2","","","","","","","","","","","","","","","","","","","","",""
"","","","","","image-keyboard-response","294","570792","0.0-269.0","568e7f66e3ef9e000ba1a089","665500ab8938657b03fbdba8","665781bc45b1539c53753ed6","1336","stimuli/0111101.jpg","2","","prediction_trial","2","","true","","0","false","false","false","false","false","false","[0,1,2]","111","101","1","","","","","","",""
"","","","","","image-keyboard-response","295","571256","0.0-270.0","568e7f66e3ef9e000ba1a089","665500ab8938657b03fbdba8","665781bc45b1539c53753ed6","464","stimuli/01111012.jpg"," ","","feedback_trial","0","","","","","","","","","","","","","","","","","","","","",""
"","","","","","image-keyboard-response","296","572328","0.0-271.0","568e7f66e3ef9e000ba1a089","665500ab8938657b03fbdba8","665781bc45b1539c53753ed6","1072","stimuli/0100000.jpg","0","","prediction_trial","0","","true","","0","true","true","false","true","false","true","[0]","100","000","1","","","","","","",""
"","","","","","image-keyboard-response","297","572735","0.0-272.0","568e7f66e3ef9e000ba1a089","665500ab8938657b03fbdba8","665781bc45b1539c53753ed6","407","stimuli/01000000.jpg"," ","","feedback_trial","0","","","","","","","","","","","","","","","","","","","","",""
"","","","","","image-keyboard-response","298","573968","0.0-273.0","568e7f66e3ef9e000ba1a089","665500ab8938657b03fbdba8","665781bc45b1539c53753ed6","1232","stimuli/2010000.jpg","2","","prediction_trial","2","","true","","2","true","true","true","true","true","true","[2]","010","000","1","","","","","","",""
"","","","","","image-keyboard-response","299","574391","0.0-274.0","568e7f66e3ef9e000ba1a089","665500ab8938657b03fbdba8","665781bc45b1539c53753ed6","423","stimuli/20100002.jpg"," ","","feedback_trial","2","","","","","","","","","","","","","","","","","","","","",""
"","","","","","image-keyboard-response","300","583928","0.0-275.0","568e7f66e3ef9e000ba1a089","665500ab8938657b03fbdba8","665781bc45b1539c53753ed6","9536","stimuli/2101001.jpg","2","","prediction_trial","0","","false","","2","false","true","false","false","false","false","[2,0]","101","001","0","","","","","","",""
"","","","","","image-keyboard-response","301","586240","0.0-276.0","568e7f66e3ef9e000ba1a089","665500ab8938657b03fbdba8","665781bc45b1539c53753ed6","2312","stimuli/21010010.jpg"," ","","feedback_trial","2","","","","","","","","","","","","","","","","","","","","",""
"","","","","","image-keyboard-response","302","587160","0.0-277.0","568e7f66e3ef9e000ba1a089","665500ab8938657b03fbdba8","665781bc45b1539c53753ed6","919","stimuli/2111000.jpg","2","","prediction_trial","0","","false","","2","true","true","false","false","false","false","[2,0,1]","111","000","0","","","","","","",""
"","","","","","image-keyboard-response","303","587912","0.0-278.0","568e7f66e3ef9e000ba1a089","665500ab8938657b03fbdba8","665781bc45b1539c53753ed6","752","stimuli/21110000.jpg"," ","","feedback_trial","2","","","","","","","","","","","","","","","","","","","","",""
"","","","","","image-keyboard-response","304","590479","0.0-279.0","568e7f66e3ef9e000ba1a089","665500ab8938657b03fbdba8","665781bc45b1539c53753ed6","2567","stimuli/0100001.jpg","0","","prediction_trial","0","","true","","0","true","true","false","true","false","true","[0]","100","001","1","","","","","","",""
"","","","","","image-keyboard-response","305","590919","0.0-280.0","568e7f66e3ef9e000ba1a089","665500ab8938657b03fbdba8","665781bc45b1539c53753ed6","440","stimuli/01000010.jpg"," ","","feedback_trial","0","","","","","","","","","","","","","","","","","","","","",""
"","","","","","image-keyboard-response","306","594527","0.0-281.0","568e7f66e3ef9e000ba1a089","665500ab8938657b03fbdba8","665781bc45b1539c53753ed6","3608","stimuli/2101101.jpg","0","","prediction_trial","0","","true","","2","false","false","false","false","false","false","[0,2]","101","101","1","","","","","","",""
"","","","","","image-keyboard-response","307","595143","0.0-282.0","568e7f66e3ef9e000ba1a089","665500ab8938657b03fbdba8","665781bc45b1539c53753ed6","616","stimuli/21011010.jpg"," ","","feedback_trial","0","","","","","","","","","","","","","","","","","","","","",""
"","","","","","image-keyboard-response","308","595960","0.0-283.0","568e7f66e3ef9e000ba1a089","665500ab8938657b03fbdba8","665781bc45b1539c53753ed6","816","stimuli/0101011.jpg","0","","prediction_trial","0","","true","","0","true","true","false","false","false","false","[2,0]","101","011","1","","","","","","",""
"","","","","","image-keyboard-response","309","596568","0.0-284.0","568e7f66e3ef9e000ba1a089","665500ab8938657b03fbdba8","665781bc45b1539c53753ed6","608","stimuli/01010110.jpg"," ","","feedback_trial","2","","","","","","","","","","","","","","","","","","","","",""
"","","","","","image-keyboard-response","310","600695","0.0-285.0","568e7f66e3ef9e000ba1a089","665500ab8938657b03fbdba8","665781bc45b1539c53753ed6","4127","stimuli/2001101.jpg","2","","prediction_trial","2","","true","","2","false","false","false","true","false","false","[2]","001","101","1","","","","","","",""
"","","","","","image-keyboard-response","311","601199","0.0-286.0","568e7f66e3ef9e000ba1a089","665500ab8938657b03fbdba8","665781bc45b1539c53753ed6","504","stimuli/20011012.jpg"," ","","feedback_trial","2","","","","","","","","","","","","","","","","","","","","",""
"","","","","","image-keyboard-response","312","602455","0.0-287.0","568e7f66e3ef9e000ba1a089","665500ab8938657b03fbdba8","665781bc45b1539c53753ed6","1256","stimuli/1000001.jpg","1","","prediction_trial","1","","true","","1","true","true","true","true","true","true","[1]","000","001","1","","","","","","",""
"","","","","","image-keyboard-response","313","602959","0.0-288.0","568e7f66e3ef9e000ba1a089","665500ab8938657b03fbdba8","665781bc45b1539c53753ed6","504","stimuli/10000011.jpg"," ","","feedback_trial","1","","","","","","","","","","","","","","","","","","","","",""
"","","","","","image-keyboard-response","314","606375","0.0-289.0","568e7f66e3ef9e000ba1a089","665500ab8938657b03fbdba8","665781bc45b1539c53753ed6","3416","stimuli/1110111.jpg","2","","prediction_trial","0","","false","","1","false","false","false","false","false","false","[0,1]","110","111","0","","","","","","",""
"","","","","","image-keyboard-response","315","607583","0.0-290.0","568e7f66e3ef9e000ba1a089","665500ab8938657b03fbdba8","665781bc45b1539c53753ed6","1207","stimuli/11101110.jpg"," ","","feedback_trial","0","","","","","","","","","","","","","","","","","","","","",""
"","","","","","image-keyboard-response","316","610399","0.0-291.0","568e7f66e3ef9e000ba1a089","665500ab8938657b03fbdba8","665781bc45b1539c53753ed6","2816","stimuli/2011011.jpg","1","","prediction_trial","1","","true","","2","false","false","false","false","false","false","[2,1]","011","011","1","","","","","","",""
"","","","","","image-keyboard-response","317","611047","0.0-292.0","568e7f66e3ef9e000ba1a089","665500ab8938657b03fbdba8","665781bc45b1539c53753ed6","640","stimuli/20110111.jpg"," ","","feedback_trial","2","","","","","","","","","","","","","","","","","","","","",""
"","","","","","survey-html-form","318","631877","0.0-293.0","568e7f66e3ef9e000ba1a089","665500ab8938657b03fbdba8","665781bc45b1539c53753ed6","20829","","{""feedback"":"""",""age"":""65"",""gender"":""Female"",""other_gender"":"""",""race"":""White"",""other_race"":"""",""ethnicity"":""Non-Hispanic""}","","exit_survey","","","","","","","","","","","","","","","","","65","Non-Hispanic","Female","White","0.6319444444444444","0.6319444444444444"
