"success","timeout","failed_images","failed_audio","failed_video","trial_type","trial_index","time_elapsed","internal_node_id","prolific_id","prolific_study_id","prolific_session_id","rt","stimulus","response","view_history","trial","character_choice","stimulus_dict","accuracy","correct_response","ball_pos","ego_ball_visible","ego_can_infer","alter_ball_visible","alter_can_infer","collective_ball_visible","collective_can_infer","search_locations","alter_occluders","ego_occluders","accuracy_bool","feedback","age","ethnicity","gender","race","overall_accuracy","bonus"
"true","false","[]","[]","[]","preload","0","5948","0.0-0.0","59b941556495ef00019fbc80","665500ab8938657b03fbdba8","66579274e2ba9ae37d367759","","","","","","","","","","","","","","","","","","","","","","","","","","",""
"true","","","","","fullscreen","1","15524","0.0-1.0","59b941556495ef00019fbc80","665500ab8938657b03fbdba8","66579274e2ba9ae37d367759","","","","","","","","","","","","","","","","","","","","","","","","","","",""
"","","","","","html-button-response","2","26577","0.0-2.0","59b941556495ef00019fbc80","665500ab8938657b03fbdba8","66579274e2ba9ae37d367759","11052","<p><b>Consent Form</b></p> <div style=""text-align:left;background-color:lightgrey; padding:20px; max-width:900px;""><p>Please consider this information carefully before deciding whether to participate in this research.</p> <p>The purpose of this research is to examine which factors influence social judgment and decision-making. You will be asked to make judgements about individuals and actions in social scenarios. We are simply interested in your judgement. The study will take less than 1 hour to complete, and you will receive less than $20 on Prolific. Your compensation and time commitment are specified in the study description. There are no anticipated risks associated with participating in this study. The effects of participating should be comparable to those you would ordinarily experience from viewing a computer monitor and using a mouse or keyboard for a similar amount of time. At the end of the study, we will provide an explanation of the questions that motivate this line of research and will describe the potential implications. </p><p> Your participation in this study is completely voluntary and you may refuse to participate or you may choose to withdraw at any time without penalty or loss of benefits to you which are otherwise entitled. Your participation in this study will remain confidential. No personally identifiable information will be associated with your data. Also, all analyses of the data will be averaged across all the participants, so your individual responses will never be specifically analyzed. </p><p> If you have questions or concerns about your participation or payment, or want to request a summary of research findings, please contact Dr. Jonathan Phillips at Jonathan.S.Phillips@dartmouth.edu. </p><p> Please save a copy of this form for your records. </p><p><b>Agreement: </b>The nature and purpose of this research have been sufficiently explained and I agree to participate in this study. I understand that I am free to withdraw at any time without incurring any penalty. Please consent by clicking the button below to continue. Otherwise, please exit the study at any time. </p>","0","","","","","","","","","","","","","","","","","","","","","","","",""
"","","","","","instructions","3","109775","0.0-3.0-0.0","59b941556495ef00019fbc80","665500ab8938657b03fbdba8","66579274e2ba9ae37d367759","83197","","","[{""page_index"":0,""viewing_time"":3266},{""page_index"":1,""viewing_time"":2044},{""page_index"":2,""viewing_time"":3292},{""page_index"":3,""viewing_time"":4872},{""page_index"":4,""viewing_time"":4192},{""page_index"":5,""viewing_time"":2686},{""page_index"":6,""viewing_time"":5596},{""page_index"":7,""viewing_time"":4508},{""page_index"":8,""viewing_time"":4200},{""page_index"":9,""viewing_time"":3126},{""page_index"":10,""viewing_time"":29456},{""page_index"":11,""viewing_time"":9826},{""page_index"":12,""viewing_time"":4736},{""page_index"":13,""viewing_time"":1396}]","intro","","","","","","","","","","","","","","","","","","","","","",""
"","","","","","image-keyboard-response","4","115225","0.0-3.0-1.0","59b941556495ef00019fbc80","665500ab8938657b03fbdba8","66579274e2ba9ae37d367759","5447","stimuli/0110101.jpg","2","","prediction_practice","1","{""filepath"":""stimuli/0110101.jpg"",""ball_pos"":0,""ego_ball_visible"":false,""ego_can_infer"":false,""alter_ball_visible"":false,""alter_can_infer"":false,""collective_ball_visible"":false,""collective_can_infer"":false,""search_locations"":[1,0],""alter_occluders"":""110"",""ego_occluders"":""101""}","false","","","","","","","","","","","","","","","","","","",""
"","","","","","image-keyboard-response","5","117666","0.0-3.0-2.0","59b941556495ef00019fbc80","665500ab8938657b03fbdba8","66579274e2ba9ae37d367759","2439","stimuli/01101011.jpg"," ","","practrice_feedback","1","","","","","","","","","","","","","","","","","","","","",""
"","","","","","image-keyboard-response","6","120387","0.0-3.0-3.0","59b941556495ef00019fbc80","665500ab8938657b03fbdba8","66579274e2ba9ae37d367759","2720","stimuli/1001001.jpg","1","","prediction_practice","1","{""filepath"":""stimuli/1001001.jpg"",""ball_pos"":1,""ego_ball_visible"":true,""ego_can_infer"":true,""alter_ball_visible"":true,""alter_can_infer"":true,""collective_ball_visible"":true,""collective_can_infer"":true,""search_locations"":[1],""alter_occluders"":""001"",""ego_occluders"":""001""}","true","","","","","","","","","","","","","","","","","","",""
"","","","","","image-keyboard-response","7","122203","0.0-3.0-4.0","59b941556495ef00019fbc80","665500ab8938657b03fbdba8","66579274e2ba9ae37d367759","1814","stimuli/10010011.jpg"," ","","practrice_feedback","1","","","","","","","","","","","","","","","","","","","","",""
"","","","","","image-keyboard-response","8","127399","0.0-3.0-5.0","59b941556495ef00019fbc80","665500ab8938657b03fbdba8","66579274e2ba9ae37d367759","5195","stimuli/2111110.jpg","1","","prediction_practice","2","{""filepath"":""stimuli/2111110.jpg"",""ball_pos"":2,""ego_ball_visible"":true,""ego_can_infer"":true,""alter_ball_visible"":false,""alter_can_infer"":false,""collective_ball_visible"":false,""collective_can_infer"":false,""search_locations"":[0,2,1],""alter_occluders"":""111"",""ego_occluders"":""110""}","false","","","","","","","","","","","","","","","","","","",""
"","","","","","image-keyboard-response","9","128781","0.0-3.0-6.0","59b941556495ef00019fbc80","665500ab8938657b03fbdba8","66579274e2ba9ae37d367759","1381","stimuli/21111102.jpg"," ","","practrice_feedback","0","","","","","","","","","","","","","","","","","","","","",""
"","","","","","image-keyboard-response","10","131656","0.0-3.0-7.0","59b941556495ef00019fbc80","665500ab8938657b03fbdba8","66579274e2ba9ae37d367759","2873","stimuli/1111100.jpg","1","","prediction_practice","0","{""filepath"":""stimuli/1111100.jpg"",""ball_pos"":1,""ego_ball_visible"":true,""ego_can_infer"":true,""alter_ball_visible"":false,""alter_can_infer"":false,""collective_ball_visible"":false,""collective_can_infer"":false,""search_locations"":[2,1,0],""alter_occluders"":""111"",""ego_occluders"":""100""}","false","","","","","","","","","","","","","","","","","","",""
"","","","","","image-keyboard-response","11","134827","0.0-3.0-8.0","59b941556495ef00019fbc80","665500ab8938657b03fbdba8","66579274e2ba9ae37d367759","3169","stimuli/11111000.jpg"," ","","practrice_feedback","2","","","","","","","","","","","","","","","","","","","","",""
"","","","","","image-keyboard-response","12","137599","0.0-3.0-9.0","59b941556495ef00019fbc80","665500ab8938657b03fbdba8","66579274e2ba9ae37d367759","2771","stimuli/0000110.jpg","0","","prediction_practice","0","{""filepath"":""stimuli/0000110.jpg"",""ball_pos"":0,""ego_ball_visible"":false,""ego_can_infer"":false,""alter_ball_visible"":true,""alter_can_infer"":true,""collective_ball_visible"":false,""collective_can_infer"":false,""search_locations"":[0],""alter_occluders"":""000"",""ego_occluders"":""110""}","true","","","","","","","","","","","","","","","","","","",""
"","","","","","image-keyboard-response","13","139075","0.0-3.0-10.0","59b941556495ef00019fbc80","665500ab8938657b03fbdba8","66579274e2ba9ae37d367759","1475","stimuli/00001100.jpg"," ","","practrice_feedback","0","","","","","","","","","","","","","","","","","","","","",""
"","","","","","image-keyboard-response","14","141071","0.0-3.0-11.0","59b941556495ef00019fbc80","665500ab8938657b03fbdba8","66579274e2ba9ae37d367759","1993","stimuli/0011100.jpg","0","","prediction_practice","0","{""filepath"":""stimuli/0011100.jpg"",""ball_pos"":0,""ego_ball_visible"":false,""ego_can_infer"":true,""alter_ball_visible"":true,""alter_can_infer"":true,""collective_ball_visible"":false,""collective_can_infer"":true,""search_locations"":[0],""alter_occluders"":""011"",""ego_occluders"":""100""}","true","","","","","","","","","","","","","","","","","","",""
"","","","","","image-keyboard-response","15","142045","0.0-3.0-12.0","59b941556495ef00019fbc80","665500ab8938657b03fbdba8","66579274e2ba9ae37d367759","973","stimuli/00111000.jpg"," ","","practrice_feedback","0","","","","","","","","","","","","","","","","","","","","",""
"","","","","","image-keyboard-response","16","145181","0.0-3.0-13.0","59b941556495ef00019fbc80","665500ab8938657b03fbdba8","66579274e2ba9ae37d367759","3134","stimuli/2011000.jpg","1","","prediction_practice","2","{""filepath"":""stimuli/2011000.jpg"",""ball_pos"":2,""ego_ball_visible"":true,""ego_can_infer"":true,""alter_ball_visible"":false,""alter_can_infer"":false,""collective_ball_visible"":false,""collective_can_infer"":false,""search_locations"":[1,2],""alter_occluders"":""011"",""ego_occluders"":""000""}","false","","","","","","","","","","","","","","","","","","",""
"","","","","","image-keyboard-response","17","146028","0.0-3.0-14.0","59b941556495ef00019fbc80","665500ab8938657b03fbdba8","66579274e2ba9ae37d367759","846","stimuli/20110002.jpg"," ","","practrice_feedback","1","","","","","","","","","","","","","","","","","","","","",""
"","","","","","image-keyboard-response","18","147646","0.0-3.0-15.0","59b941556495ef00019fbc80","665500ab8938657b03fbdba8","66579274e2ba9ae37d367759","1617","stimuli/2100000.jpg","2","","prediction_practice","2","{""filepath"":""stimuli/2100000.jpg"",""ball_pos"":2,""ego_ball_visible"":true,""ego_can_infer"":true,""alter_ball_visible"":true,""alter_can_infer"":true,""collective_ball_visible"":true,""collective_can_infer"":true,""search_locations"":[2],""alter_occluders"":""100"",""ego_occluders"":""000""}","true","","","","","","","","","","","","","","","","","","",""
"","","","","","image-keyboard-response","19","148215","0.0-3.0-16.0","59b941556495ef00019fbc80","665500ab8938657b03fbdba8","66579274e2ba9ae37d367759","569","stimuli/21000002.jpg"," ","","practrice_feedback","2","","","","","","","","","","","","","","","","","","","","",""
"","","","","","image-keyboard-response","20","150703","0.0-3.0-17.0","59b941556495ef00019fbc80","665500ab8938657b03fbdba8","66579274e2ba9ae37d367759","2486","stimuli/2111001.jpg","2","","prediction_practice","1","{""filepath"":""stimuli/2111001.jpg"",""ball_pos"":2,""ego_ball_visible"":false,""ego_can_infer"":true,""alter_ball_visible"":false,""alter_can_infer"":false,""collective_ball_visible"":false,""collective_can_infer"":false,""search_locations"":[0,1,2],""alter_occluders"":""111"",""ego_occluders"":""001""}","false","","","","","","","","","","","","","","","","","","",""
"","","","","","image-keyboard-response","21","151493","0.0-3.0-18.0","59b941556495ef00019fbc80","665500ab8938657b03fbdba8","66579274e2ba9ae37d367759","788","stimuli/21110011.jpg"," ","","practrice_feedback","0","","","","","","","","","","","","","","","","","","","","",""
"","","","","","image-keyboard-response","22","153069","0.0-3.0-19.0","59b941556495ef00019fbc80","665500ab8938657b03fbdba8","66579274e2ba9ae37d367759","1574","stimuli/1011111.jpg","0","","prediction_practice","1","{""filepath"":""stimuli/1011111.jpg"",""ball_pos"":1,""ego_ball_visible"":false,""ego_can_infer"":false,""alter_ball_visible"":false,""alter_can_infer"":false,""collective_ball_visible"":false,""collective_can_infer"":false,""search_locations"":[1,2],""alter_occluders"":""011"",""ego_occluders"":""111""}","false","","","","","","","","","","","","","","","","","","",""
"","","","","","image-keyboard-response","23","154903","0.0-3.0-20.0","59b941556495ef00019fbc80","665500ab8938657b03fbdba8","66579274e2ba9ae37d367759","1833","stimuli/10111111.jpg"," ","","practrice_feedback","1","","","","","","","","","","","","","","","","","","","","",""
"","","","","","html-button-response","24","159268","0.0-3.0-21.0","59b941556495ef00019fbc80","665500ab8938657b03fbdba8","66579274e2ba9ae37d367759","4364","Now that you've had some practice, you'll be tested with a couple of easy trials. If you correctly predict Sam's choice, you'll move on to complete the experiment!","0","","","","","","","","","","","","","","","","","","","","","","","",""
"","","","","","image-keyboard-response","25","162219","0.0-3.0-22.0-0.0","59b941556495ef00019fbc80","665500ab8938657b03fbdba8","66579274e2ba9ae37d367759","2945","stimuli/0000011.jpg","arrowleft","","comprehension_quiz","","","true","arrowleft","","","","","","","","","","","","","","","","","",""
"","","","","","image-keyboard-response","26","163139","0.0-3.0-22.0-1.0","59b941556495ef00019fbc80","665500ab8938657b03fbdba8","66579274e2ba9ae37d367759","918","stimuli/00000110.jpg"," ","","comprehension_quiz","","","true"," ","","","","","","","","","","","","","","","","","",""
"","","","","","image-keyboard-response","27","165159","0.0-3.0-22.0-2.0","59b941556495ef00019fbc80","665500ab8938657b03fbdba8","66579274e2ba9ae37d367759","2018","stimuli/1010010.jpg","arrowdown","","comprehension_quiz","","","true","arrowdown","","","","","","","","","","","","","","","","","",""
"","","","","","image-keyboard-response","28","165889","0.0-3.0-22.0-3.0","59b941556495ef00019fbc80","665500ab8938657b03fbdba8","66579274e2ba9ae37d367759","729","stimuli/10100101.jpg"," ","","comprehension_quiz","","","true"," ","","","","","","","","","","","","","","","","","",""
"","","","","","html-button-response","29","170786","0.0-4.0","59b941556495ef00019fbc80","665500ab8938657b03fbdba8","66579274e2ba9ae37d367759","4895","The experiment will now begin.","0","","","","","","","","","","","","","","","","","","","","","","","",""
"","","","","","image-keyboard-response","30","173874","0.0-5.0","59b941556495ef00019fbc80","665500ab8938657b03fbdba8","66579274e2ba9ae37d367759","3086","stimuli/0000100.jpg","0","","prediction_trial","0","","true","","0","false","true","true","true","false","true","[0]","000","100","1","","","","","","",""
"","","","","","image-keyboard-response","31","174444","0.0-6.0","59b941556495ef00019fbc80","665500ab8938657b03fbdba8","66579274e2ba9ae37d367759","569","stimuli/00001000.jpg"," ","","feedback_trial","0","","","","","","","","","","","","","","","","","","","","",""
"","","","","","image-keyboard-response","32","176538","0.0-7.0","59b941556495ef00019fbc80","665500ab8938657b03fbdba8","66579274e2ba9ae37d367759","2093","stimuli/0001110.jpg","1","","prediction_trial","0","","false","","0","false","false","true","true","false","false","[0]","001","110","0","","","","","","",""
"","","","","","image-keyboard-response","33","177146","0.0-8.0","59b941556495ef00019fbc80","665500ab8938657b03fbdba8","66579274e2ba9ae37d367759","607","stimuli/00011100.jpg"," ","","feedback_trial","0","","","","","","","","","","","","","","","","","","","","",""
"","","","","","image-keyboard-response","34","178426","0.0-9.0","59b941556495ef00019fbc80","665500ab8938657b03fbdba8","66579274e2ba9ae37d367759","1278","stimuli/0011000.jpg","0","","prediction_trial","0","","true","","0","true","true","true","true","true","true","[0]","011","000","1","","","","","","",""
"","","","","","image-keyboard-response","35","179064","0.0-10.0","59b941556495ef00019fbc80","665500ab8938657b03fbdba8","66579274e2ba9ae37d367759","636","stimuli/00110000.jpg"," ","","feedback_trial","0","","","","","","","","","","","","","","","","","","","","",""
"","","","","","image-keyboard-response","36","180015","0.0-11.0","59b941556495ef00019fbc80","665500ab8938657b03fbdba8","66579274e2ba9ae37d367759","950","stimuli/2110000.jpg","2","","prediction_trial","2","","true","","2","true","true","true","true","true","true","[2]","110","000","1","","","","","","",""
"","","","","","image-keyboard-response","37","180517","0.0-12.0","59b941556495ef00019fbc80","665500ab8938657b03fbdba8","66579274e2ba9ae37d367759","501","stimuli/21100002.jpg"," ","","feedback_trial","2","","","","","","","","","","","","","","","","","","","","",""
"","","","","","image-keyboard-response","38","182936","0.0-13.0","59b941556495ef00019fbc80","665500ab8938657b03fbdba8","66579274e2ba9ae37d367759","2417","stimuli/1111100.jpg","2","","prediction_trial","1","","false","","1","true","true","false","false","false","false","[2,1,0]","111","100","0","","","","","","",""
"","","","","","image-keyboard-response","39","183549","0.0-14.0","59b941556495ef00019fbc80","665500ab8938657b03fbdba8","66579274e2ba9ae37d367759","612","stimuli/11111001.jpg"," ","","feedback_trial","2","","","","","","","","","","","","","","","","","","","","",""
"","","","","","image-keyboard-response","40","185538","0.0-15.0","59b941556495ef00019fbc80","665500ab8938657b03fbdba8","66579274e2ba9ae37d367759","1987","stimuli/1011010.jpg","1","","prediction_trial","2","","false","","1","false","true","false","false","false","false","[2,1]","011","010","0","","","","","","",""
"","","","","","image-keyboard-response","41","186558","0.0-16.0","59b941556495ef00019fbc80","665500ab8938657b03fbdba8","66579274e2ba9ae37d367759","1019","stimuli/10110102.jpg"," ","","feedback_trial","2","","","","","","","","","","","","","","","","","","","","",""
"","","","","","image-keyboard-response","42","187468","0.0-17.0","59b941556495ef00019fbc80","665500ab8938657b03fbdba8","66579274e2ba9ae37d367759","908","stimuli/0010011.jpg","0","","prediction_trial","0","","true","","0","true","true","true","true","true","true","[0]","010","011","1","","","","","","",""
"","","","","","image-keyboard-response","43","188022","0.0-18.0","59b941556495ef00019fbc80","665500ab8938657b03fbdba8","66579274e2ba9ae37d367759","552","stimuli/00100110.jpg"," ","","feedback_trial","0","","","","","","","","","","","","","","","","","","","","",""
"","","","","","image-keyboard-response","44","189517","0.0-19.0","59b941556495ef00019fbc80","665500ab8938657b03fbdba8","66579274e2ba9ae37d367759","1488","stimuli/2110101.jpg","2","","prediction_trial","2","","true","","2","false","false","true","true","false","false","[2]","110","101","1","","","","","","",""
"","","","","","image-keyboard-response","45","190205","0.0-20.0","59b941556495ef00019fbc80","665500ab8938657b03fbdba8","66579274e2ba9ae37d367759","686","stimuli/21101012.jpg"," ","","feedback_trial","2","","","","","","","","","","","","","","","","","","","","",""
"","","","","","image-keyboard-response","46","190895","0.0-21.0","59b941556495ef00019fbc80","665500ab8938657b03fbdba8","66579274e2ba9ae37d367759","689","stimuli/0011010.jpg","0","","prediction_trial","0","","true","","0","true","true","true","true","true","true","[0]","011","010","1","","","","","","",""
"","","","","","image-keyboard-response","47","191419","0.0-22.0","59b941556495ef00019fbc80","665500ab8938657b03fbdba8","66579274e2ba9ae37d367759","522","stimuli/00110100.jpg"," ","","feedback_trial","0","","","","","","","","","","","","","","","","","","","","",""
"","","","","","image-keyboard-response","48","193364","0.0-23.0","59b941556495ef00019fbc80","665500ab8938657b03fbdba8","66579274e2ba9ae37d367759","1944","stimuli/0101000.jpg","0","","prediction_trial","0","","true","","0","true","true","false","false","false","false","[0,2]","101","000","1","","","","","","",""
"","","","","","image-keyboard-response","49","194073","0.0-24.0","59b941556495ef00019fbc80","665500ab8938657b03fbdba8","66579274e2ba9ae37d367759","708","stimuli/01010000.jpg"," ","","feedback_trial","0","","","","","","","","","","","","","","","","","","","","",""
"","","","","","image-keyboard-response","50","195375","0.0-25.0","59b941556495ef00019fbc80","665500ab8938657b03fbdba8","66579274e2ba9ae37d367759","1300","stimuli/2111011.jpg","2","","prediction_trial","1","","false","","2","false","false","false","false","false","false","[0,2,1]","111","011","0","","","","","","",""
"","","","","","image-keyboard-response","51","195941","0.0-26.0","59b941556495ef00019fbc80","665500ab8938657b03fbdba8","66579274e2ba9ae37d367759","565","stimuli/21110111.jpg"," ","","feedback_trial","0","","","","","","","","","","","","","","","","","","","","",""
"","","","","","image-keyboard-response","52","197680","0.0-27.0","59b941556495ef00019fbc80","665500ab8938657b03fbdba8","66579274e2ba9ae37d367759","1738","stimuli/0100011.jpg","0","","prediction_trial","0","","true","","0","true","true","false","true","false","true","[0]","100","011","1","","","","","","",""
"","","","","","image-keyboard-response","53","198240","0.0-28.0","59b941556495ef00019fbc80","665500ab8938657b03fbdba8","66579274e2ba9ae37d367759","559","stimuli/01000110.jpg"," ","","feedback_trial","0","","","","","","","","","","","","","","","","","","","","",""
"","","","","","image-keyboard-response","54","199771","0.0-29.0","59b941556495ef00019fbc80","665500ab8938657b03fbdba8","66579274e2ba9ae37d367759","1529","stimuli/2011110.jpg","2","","prediction_trial","1","","false","","2","true","true","false","false","false","false","[2,1]","011","110","0","","","","","","",""
"","","","","","image-keyboard-response","55","200618","0.0-30.0","59b941556495ef00019fbc80","665500ab8938657b03fbdba8","66579274e2ba9ae37d367759","846","stimuli/20111101.jpg"," ","","feedback_trial","2","","","","","","","","","","","","","","","","","","","","",""
"","","","","","image-keyboard-response","56","201937","0.0-31.0","59b941556495ef00019fbc80","665500ab8938657b03fbdba8","66579274e2ba9ae37d367759","1318","stimuli/1011101.jpg","1","","prediction_trial","2","","false","","1","true","true","false","false","false","false","[1,2]","011","101","0","","","","","","",""
"","","","","","image-keyboard-response","57","202569","0.0-32.0","59b941556495ef00019fbc80","665500ab8938657b03fbdba8","66579274e2ba9ae37d367759","631","stimuli/10111012.jpg"," ","","feedback_trial","1","","","","","","","","","","","","","","","","","","","","",""
"","","","","","image-keyboard-response","58","203537","0.0-33.0","59b941556495ef00019fbc80","665500ab8938657b03fbdba8","66579274e2ba9ae37d367759","966","stimuli/1100101.jpg","1","","prediction_trial","1","","true","","1","true","true","true","true","true","true","[1]","100","101","1","","","","","","",""
"","","","","","image-keyboard-response","59","203978","0.0-34.0","59b941556495ef00019fbc80","665500ab8938657b03fbdba8","66579274e2ba9ae37d367759","440","stimuli/11001011.jpg"," ","","feedback_trial","1","","","","","","","","","","","","","","","","","","","","",""
"","","","","","image-keyboard-response","60","205309","0.0-35.0","59b941556495ef00019fbc80","665500ab8938657b03fbdba8","66579274e2ba9ae37d367759","1330","stimuli/1011000.jpg","1","","prediction_trial","1","","true","","1","true","true","false","false","false","false","[1,2]","011","000","1","","","","","","",""
"","","","","","image-keyboard-response","61","205973","0.0-36.0","59b941556495ef00019fbc80","665500ab8938657b03fbdba8","66579274e2ba9ae37d367759","662","stimuli/10110001.jpg"," ","","feedback_trial","1","","","","","","","","","","","","","","","","","","","","",""
"","","","","","image-keyboard-response","62","207952","0.0-37.0","59b941556495ef00019fbc80","665500ab8938657b03fbdba8","66579274e2ba9ae37d367759","1977","stimuli/2101011.jpg","1","","prediction_trial","2","","false","","2","false","false","false","false","false","false","[0,2]","101","011","0","","","","","","",""
"","","","","","image-keyboard-response","63","208561","0.0-38.0","59b941556495ef00019fbc80","665500ab8938657b03fbdba8","66579274e2ba9ae37d367759","607","stimuli/21010112.jpg"," ","","feedback_trial","0","","","","","","","","","","","","","","","","","","","","",""
"","","","","","image-keyboard-response","64","209723","0.0-39.0","59b941556495ef00019fbc80","665500ab8938657b03fbdba8","66579274e2ba9ae37d367759","1161","stimuli/2100000.jpg","2","","prediction_trial","2","","true","","2","true","true","true","true","true","true","[2]","100","000","1","","","","","","",""
"","","","","","image-keyboard-response","65","210179","0.0-40.0","59b941556495ef00019fbc80","665500ab8938657b03fbdba8","66579274e2ba9ae37d367759","454","stimuli/21000002.jpg"," ","","feedback_trial","2","","","","","","","","","","","","","","","","","","","","",""
"","","","","","image-keyboard-response","66","211536","0.0-41.0","59b941556495ef00019fbc80","665500ab8938657b03fbdba8","66579274e2ba9ae37d367759","1356","stimuli/2100110.jpg","2","","prediction_trial","2","","true","","2","true","true","true","true","true","true","[2]","100","110","1","","","","","","",""
"","","","","","image-keyboard-response","67","211990","0.0-42.0","59b941556495ef00019fbc80","665500ab8938657b03fbdba8","66579274e2ba9ae37d367759","453","stimuli/21001102.jpg"," ","","feedback_trial","2","","","","","","","","","","","","","","","","","","","","",""
"","","","","","image-keyboard-response","68","213479","0.0-43.0","59b941556495ef00019fbc80","665500ab8938657b03fbdba8","66579274e2ba9ae37d367759","1487","stimuli/2000101.jpg","0","","prediction_trial","2","","false","","2","false","false","true","true","false","false","[2]","000","101","0","","","","","","",""
"","","","","","image-keyboard-response","69","214242","0.0-44.0","59b941556495ef00019fbc80","665500ab8938657b03fbdba8","66579274e2ba9ae37d367759","761","stimuli/20001012.jpg"," ","","feedback_trial","2","","","","","","","","","","","","","","","","","","","","",""
"","","","","","image-keyboard-response","70","215823","0.0-45.0","59b941556495ef00019fbc80","665500ab8938657b03fbdba8","66579274e2ba9ae37d367759","1580","stimuli/2101111.jpg","1","","prediction_trial","2","","false","","2","false","false","false","false","false","false","[2,0]","101","111","0","","","","","","",""
"","","","","","image-keyboard-response","71","216371","0.0-46.0","59b941556495ef00019fbc80","665500ab8938657b03fbdba8","66579274e2ba9ae37d367759","546","stimuli/21011112.jpg"," ","","feedback_trial","2","","","","","","","","","","","","","","","","","","","","",""
"","","","","","image-keyboard-response","72","218004","0.0-47.0","59b941556495ef00019fbc80","665500ab8938657b03fbdba8","66579274e2ba9ae37d367759","1631","stimuli/2010001.jpg","2","","prediction_trial","2","","true","","2","false","true","true","true","false","true","[2]","010","001","1","","","","","","",""
"","","","","","image-keyboard-response","73","218510","0.0-48.0","59b941556495ef00019fbc80","665500ab8938657b03fbdba8","66579274e2ba9ae37d367759","505","stimuli/20100012.jpg"," ","","feedback_trial","2","","","","","","","","","","","","","","","","","","","","",""
"","","","","","image-keyboard-response","74","219427","0.0-49.0","59b941556495ef00019fbc80","665500ab8938657b03fbdba8","66579274e2ba9ae37d367759","916","stimuli/0001001.jpg","0","","prediction_trial","0","","true","","0","true","true","true","true","true","true","[0]","001","001","1","","","","","","",""
"","","","","","image-keyboard-response","75","219886","0.0-50.0","59b941556495ef00019fbc80","665500ab8938657b03fbdba8","66579274e2ba9ae37d367759","458","stimuli/00010010.jpg"," ","","feedback_trial","0","","","","","","","","","","","","","","","","","","","","",""
"","","","","","image-keyboard-response","76","221528","0.0-51.0","59b941556495ef00019fbc80","665500ab8938657b03fbdba8","66579274e2ba9ae37d367759","1640","stimuli/0101010.jpg","0","","prediction_trial","0","","true","","0","true","true","false","false","false","false","[2,0]","101","010","1","","","","","","",""
"","","","","","image-keyboard-response","77","222174","0.0-52.0","59b941556495ef00019fbc80","665500ab8938657b03fbdba8","66579274e2ba9ae37d367759","643","stimuli/01010100.jpg"," ","","feedback_trial","2","","","","","","","","","","","","","","","","","","","","",""
"","","","","","image-keyboard-response","78","223021","0.0-53.0","59b941556495ef00019fbc80","665500ab8938657b03fbdba8","66579274e2ba9ae37d367759","846","stimuli/2010000.jpg","2","","prediction_trial","2","","true","","2","true","true","true","true","true","true","[2]","010","000","1","","","","","","",""
"","","","","","image-keyboard-response","79","223530","0.0-54.0","59b941556495ef00019fbc80","665500ab8938657b03fbdba8","66579274e2ba9ae37d367759","508","stimuli/20100002.jpg"," ","","feedback_trial","2","","","","","","","","","","","","","","","","","","","","",""
"","","","","","image-keyboard-response","80","224619","0.0-55.0","59b941556495ef00019fbc80","665500ab8938657b03fbdba8","66579274e2ba9ae37d367759","1087","stimuli/0111010.jpg","0","","prediction_trial","1","","false","","0","true","true","false","false","false","false","[2,0,1]","111","010","0","","","","","","",""
"","","","","","image-keyboard-response","81","225133","0.0-56.0","59b941556495ef00019fbc80","665500ab8938657b03fbdba8","66579274e2ba9ae37d367759","513","stimuli/01110101.jpg"," ","","feedback_trial","2","","","","","","","","","","","","","","","","","","","","",""
"","","","","","image-keyboard-response","82","226022","0.0-57.0","59b941556495ef00019fbc80","665500ab8938657b03fbdba8","66579274e2ba9ae37d367759","888","stimuli/2001110.jpg","2","","prediction_trial","2","","true","","2","true","true","false","true","false","true","[2]","001","110","1","","","","","","",""
"","","","","","image-keyboard-response","83","226667","0.0-58.0","59b941556495ef00019fbc80","665500ab8938657b03fbdba8","66579274e2ba9ae37d367759","644","stimuli/20011102.jpg"," ","","feedback_trial","2","","","","","","","","","","","","","","","","","","","","",""
"","","","","","image-keyboard-response","84","228383","0.0-59.0","59b941556495ef00019fbc80","665500ab8938657b03fbdba8","66579274e2ba9ae37d367759","1715","stimuli/2010011.jpg","2","","prediction_trial","2","","true","","2","false","false","true","true","false","false","[2]","010","011","1","","","","","","",""
"","","","","","image-keyboard-response","85","228973","0.0-60.0","59b941556495ef00019fbc80","665500ab8938657b03fbdba8","66579274e2ba9ae37d367759","588","stimuli/20100112.jpg"," ","","feedback_trial","2","","","","","","","","","","","","","","","","","","","","",""
"","","","","","image-keyboard-response","86","230245","0.0-61.0","59b941556495ef00019fbc80","665500ab8938657b03fbdba8","66579274e2ba9ae37d367759","1271","stimuli/0111101.jpg","0","","prediction_trial","1","","false","","0","false","false","false","false","false","false","[0,2,1]","111","101","0","","","","","","",""
"","","","","","image-keyboard-response","87","230781","0.0-62.0","59b941556495ef00019fbc80","665500ab8938657b03fbdba8","66579274e2ba9ae37d367759","534","stimuli/01111011.jpg"," ","","feedback_trial","0","","","","","","","","","","","","","","","","","","","","",""
"","","","","","image-keyboard-response","88","232574","0.0-63.0","59b941556495ef00019fbc80","665500ab8938657b03fbdba8","66579274e2ba9ae37d367759","1792","stimuli/1100111.jpg","1","","prediction_trial","1","","true","","1","false","false","true","true","false","false","[1]","100","111","1","","","","","","",""
"","","","","","image-keyboard-response","89","233283","0.0-64.0","59b941556495ef00019fbc80","665500ab8938657b03fbdba8","66579274e2ba9ae37d367759","707","stimuli/11001111.jpg"," ","","feedback_trial","1","","","","","","","","","","","","","","","","","","","","",""
"","","","","","image-keyboard-response","90","234294","0.0-65.0","59b941556495ef00019fbc80","665500ab8938657b03fbdba8","66579274e2ba9ae37d367759","1010","stimuli/0000001.jpg","0","","prediction_trial","0","","true","","0","true","true","true","true","true","true","[0]","000","001","1","","","","","","",""
"","","","","","image-keyboard-response","91","234736","0.0-66.0","59b941556495ef00019fbc80","665500ab8938657b03fbdba8","66579274e2ba9ae37d367759","441","stimuli/00000010.jpg"," ","","feedback_trial","0","","","","","","","","","","","","","","","","","","","","",""
"","","","","","image-keyboard-response","92","235672","0.0-67.0","59b941556495ef00019fbc80","665500ab8938657b03fbdba8","66579274e2ba9ae37d367759","935","stimuli/2111100.jpg","2","","prediction_trial","1","","false","","2","true","true","false","false","false","false","[1,0,2]","111","100","0","","","","","","",""
"","","","","","image-keyboard-response","93","236081","0.0-68.0","59b941556495ef00019fbc80","665500ab8938657b03fbdba8","66579274e2ba9ae37d367759","407","stimuli/21111001.jpg"," ","","feedback_trial","1","","","","","","","","","","","","","","","","","","","","",""
"","","","","","image-keyboard-response","94","237593","0.0-69.0","59b941556495ef00019fbc80","665500ab8938657b03fbdba8","66579274e2ba9ae37d367759","1511","stimuli/2101110.jpg","1","","prediction_trial","2","","false","","2","true","true","false","false","false","false","[0,2]","101","110","0","","","","","","",""
"","","","","","image-keyboard-response","95","238397","0.0-70.0","59b941556495ef00019fbc80","665500ab8938657b03fbdba8","66579274e2ba9ae37d367759","801","stimuli/21011102.jpg"," ","","feedback_trial","0","","","","","","","","","","","","","","","","","","","","",""
"","","","","","image-keyboard-response","96","239700","0.0-71.0","59b941556495ef00019fbc80","665500ab8938657b03fbdba8","66579274e2ba9ae37d367759","1302","stimuli/1001011.jpg","1","","prediction_trial","1","","true","","1","false","false","true","true","false","false","[1]","001","011","1","","","","","","",""
"","","","","","image-keyboard-response","97","240262","0.0-72.0","59b941556495ef00019fbc80","665500ab8938657b03fbdba8","66579274e2ba9ae37d367759","560","stimuli/10010111.jpg"," ","","feedback_trial","1","","","","","","","","","","","","","","","","","","","","",""
"","","","","","image-keyboard-response","98","241322","0.0-73.0","59b941556495ef00019fbc80","665500ab8938657b03fbdba8","66579274e2ba9ae37d367759","1058","stimuli/0100111.jpg","1","","prediction_trial","0","","false","","0","false","false","false","true","false","false","[0]","100","111","0","","","","","","",""
"","","","","","image-keyboard-response","99","241805","0.0-74.0","59b941556495ef00019fbc80","665500ab8938657b03fbdba8","66579274e2ba9ae37d367759","481","stimuli/01001110.jpg"," ","","feedback_trial","0","","","","","","","","","","","","","","","","","","","","",""
"","","","","","image-keyboard-response","100","243148","0.0-75.0","59b941556495ef00019fbc80","665500ab8938657b03fbdba8","66579274e2ba9ae37d367759","1342","stimuli/1011001.jpg","1","","prediction_trial","1","","true","","1","true","true","false","false","false","false","[2,1]","011","001","1","","","","","","",""
"","","","","","image-keyboard-response","101","243751","0.0-76.0","59b941556495ef00019fbc80","665500ab8938657b03fbdba8","66579274e2ba9ae37d367759","602","stimuli/10110011.jpg"," ","","feedback_trial","2","","","","","","","","","","","","","","","","","","","","",""
"","","","","","image-keyboard-response","102","244451","0.0-77.0","59b941556495ef00019fbc80","665500ab8938657b03fbdba8","66579274e2ba9ae37d367759","699","stimuli/2000100.jpg","2","","prediction_trial","2","","true","","2","true","true","true","true","true","true","[2]","000","100","1","","","","","","",""
"","","","","","image-keyboard-response","103","244904","0.0-78.0","59b941556495ef00019fbc80","665500ab8938657b03fbdba8","66579274e2ba9ae37d367759","451","stimuli/20001002.jpg"," ","","feedback_trial","2","","","","","","","","","","","","","","","","","","","","",""
"","","","","","image-keyboard-response","104","246206","0.0-79.0","59b941556495ef00019fbc80","665500ab8938657b03fbdba8","66579274e2ba9ae37d367759","1301","stimuli/2011001.jpg","2","","prediction_trial","1","","false","","2","false","true","false","false","false","false","[2,1]","011","001","0","","","","","","",""
"","","","","","image-keyboard-response","105","246703","0.0-80.0","59b941556495ef00019fbc80","665500ab8938657b03fbdba8","66579274e2ba9ae37d367759","495","stimuli/20110011.jpg"," ","","feedback_trial","2","","","","","","","","","","","","","","","","","","","","",""
"","","","","","image-keyboard-response","106","248029","0.0-81.0","59b941556495ef00019fbc80","665500ab8938657b03fbdba8","66579274e2ba9ae37d367759","1326","stimuli/0010101.jpg","0","","prediction_trial","0","","true","","0","false","false","true","true","false","false","[0]","010","101","1","","","","","","",""
"","","","","","image-keyboard-response","107","248538","0.0-82.0","59b941556495ef00019fbc80","665500ab8938657b03fbdba8","66579274e2ba9ae37d367759","507","stimuli/00101010.jpg"," ","","feedback_trial","0","","","","","","","","","","","","","","","","","","","","",""
"","","","","","image-keyboard-response","108","249534","0.0-83.0","59b941556495ef00019fbc80","665500ab8938657b03fbdba8","66579274e2ba9ae37d367759","994","stimuli/1110000.jpg","1","","prediction_trial","1","","true","","1","true","true","false","false","false","false","[1,0]","110","000","1","","","","","","",""
"","","","","","image-keyboard-response","109","250226","0.0-84.0","59b941556495ef00019fbc80","665500ab8938657b03fbdba8","66579274e2ba9ae37d367759","691","stimuli/11100001.jpg"," ","","feedback_trial","1","","","","","","","","","","","","","","","","","","","","",""
"","","","","","image-keyboard-response","110","252216","0.0-85.0","59b941556495ef00019fbc80","665500ab8938657b03fbdba8","66579274e2ba9ae37d367759","1989","stimuli/0111100.jpg","0","","prediction_trial","0","","true","","0","false","true","false","false","false","false","[0,1,2]","111","100","1","","","","","","",""
"","","","","","image-keyboard-response","111","252668","0.0-86.0","59b941556495ef00019fbc80","665500ab8938657b03fbdba8","66579274e2ba9ae37d367759","451","stimuli/01111000.jpg"," ","","feedback_trial","0","","","","","","","","","","","","","","","","","","","","",""
"","","","","","image-keyboard-response","112","253748","0.0-87.0","59b941556495ef00019fbc80","665500ab8938657b03fbdba8","66579274e2ba9ae37d367759","1078","stimuli/0010100.jpg","0","","prediction_trial","0","","true","","0","false","true","true","true","false","true","[0]","010","100","1","","","","","","",""
"","","","","","image-keyboard-response","113","254157","0.0-88.0","59b941556495ef00019fbc80","665500ab8938657b03fbdba8","66579274e2ba9ae37d367759","407","stimuli/00101000.jpg"," ","","feedback_trial","0","","","","","","","","","","","","","","","","","","","","",""
"","","","","","image-keyboard-response","114","255174","0.0-89.0","59b941556495ef00019fbc80","665500ab8938657b03fbdba8","66579274e2ba9ae37d367759","1016","stimuli/1001100.jpg","1","","prediction_trial","1","","true","","1","true","true","true","true","true","true","[1]","001","100","1","","","","","","",""
"","","","","","image-keyboard-response","115","255546","0.0-90.0","59b941556495ef00019fbc80","665500ab8938657b03fbdba8","66579274e2ba9ae37d367759","371","stimuli/10011001.jpg"," ","","feedback_trial","1","","","","","","","","","","","","","","","","","","","","",""
"","","","","","image-keyboard-response","116","258040","0.0-91.0","59b941556495ef00019fbc80","665500ab8938657b03fbdba8","66579274e2ba9ae37d367759","2488","stimuli/1010100.jpg","1","","prediction_trial","1","","true","","1","true","true","false","true","false","true","[1]","010","100","1","","","","","","",""
"","","","","","image-keyboard-response","117","258492","0.0-92.0","59b941556495ef00019fbc80","665500ab8938657b03fbdba8","66579274e2ba9ae37d367759","450","stimuli/10101001.jpg"," ","","feedback_trial","1","","","","","","","","","","","","","","","","","","","","",""
"","","","","","image-keyboard-response","118","260308","0.0-93.0","59b941556495ef00019fbc80","665500ab8938657b03fbdba8","66579274e2ba9ae37d367759","1814","stimuli/0101110.jpg","1","","prediction_trial","0","","false","","0","false","false","false","false","false","false","[2,0]","101","110","0","","","","","","",""
"","","","","","image-keyboard-response","119","260785","0.0-94.0","59b941556495ef00019fbc80","665500ab8938657b03fbdba8","66579274e2ba9ae37d367759","475","stimuli/01011100.jpg"," ","","feedback_trial","2","","","","","","","","","","","","","","","","","","","","",""
"","","","","","image-keyboard-response","120","262854","0.0-95.0","59b941556495ef00019fbc80","665500ab8938657b03fbdba8","66579274e2ba9ae37d367759","2067","stimuli/2001111.jpg","1","","prediction_trial","2","","false","","2","false","false","false","true","false","false","[2]","001","111","0","","","","","","",""
"","","","","","image-keyboard-response","121","263368","0.0-96.0","59b941556495ef00019fbc80","665500ab8938657b03fbdba8","66579274e2ba9ae37d367759","513","stimuli/20011112.jpg"," ","","feedback_trial","2","","","","","","","","","","","","","","","","","","","","",""
"","","","","","image-keyboard-response","122","264692","0.0-97.0","59b941556495ef00019fbc80","665500ab8938657b03fbdba8","66579274e2ba9ae37d367759","1322","stimuli/0011110.jpg","1","","prediction_trial","0","","false","","0","false","false","true","true","false","false","[0]","011","110","0","","","","","","",""
"","","","","","image-keyboard-response","123","265200","0.0-98.0","59b941556495ef00019fbc80","665500ab8938657b03fbdba8","66579274e2ba9ae37d367759","507","stimuli/00111100.jpg"," ","","feedback_trial","0","","","","","","","","","","","","","","","","","","","","",""
"","","","","","image-keyboard-response","124","266283","0.0-99.0","59b941556495ef00019fbc80","665500ab8938657b03fbdba8","66579274e2ba9ae37d367759","1082","stimuli/2011111.jpg","1","","prediction_trial","1","","true","","2","false","false","false","false","false","false","[1,2]","011","111","1","","","","","","",""
"","","","","","image-keyboard-response","125","266755","0.0-100.0","59b941556495ef00019fbc80","665500ab8938657b03fbdba8","66579274e2ba9ae37d367759","470","stimuli/20111111.jpg"," ","","feedback_trial","1","","","","","","","","","","","","","","","","","","","","",""
"","","","","","image-keyboard-response","126","267982","0.0-101.0","59b941556495ef00019fbc80","665500ab8938657b03fbdba8","66579274e2ba9ae37d367759","1226","stimuli/2110111.jpg","1","","prediction_trial","2","","false","","2","false","false","true","true","false","false","[2]","110","111","0","","","","","","",""
"","","","","","image-keyboard-response","127","268825","0.0-102.0","59b941556495ef00019fbc80","665500ab8938657b03fbdba8","66579274e2ba9ae37d367759","841","stimuli/21101112.jpg"," ","","feedback_trial","2","","","","","","","","","","","","","","","","","","","","",""
"","","","","","image-keyboard-response","128","269953","0.0-103.0","59b941556495ef00019fbc80","665500ab8938657b03fbdba8","66579274e2ba9ae37d367759","1127","stimuli/1110001.jpg","1","","prediction_trial","0","","false","","1","true","true","false","false","false","false","[0,1]","110","001","0","","","","","","",""
"","","","","","image-keyboard-response","129","270710","0.0-104.0","59b941556495ef00019fbc80","665500ab8938657b03fbdba8","66579274e2ba9ae37d367759","756","stimuli/11100010.jpg"," ","","feedback_trial","0","","","","","","","","","","","","","","","","","","","","",""
"","","","","","image-keyboard-response","130","271482","0.0-105.0","59b941556495ef00019fbc80","665500ab8938657b03fbdba8","66579274e2ba9ae37d367759","771","stimuli/1010001.jpg","1","","prediction_trial","1","","true","","1","true","true","false","true","false","true","[1]","010","001","1","","","","","","",""
"","","","","","image-keyboard-response","131","272191","0.0-106.0","59b941556495ef00019fbc80","665500ab8938657b03fbdba8","66579274e2ba9ae37d367759","707","stimuli/10100011.jpg"," ","","feedback_trial","1","","","","","","","","","","","","","","","","","","","","",""
"","","","","","image-keyboard-response","132","272795","0.0-107.0","59b941556495ef00019fbc80","665500ab8938657b03fbdba8","66579274e2ba9ae37d367759","602","stimuli/2001010.jpg","2","","prediction_trial","2","","true","","2","true","true","false","true","false","true","[2]","001","010","1","","","","","","",""
"","","","","","image-keyboard-response","133","273770","0.0-108.0","59b941556495ef00019fbc80","665500ab8938657b03fbdba8","66579274e2ba9ae37d367759","974","stimuli/20010102.jpg"," ","","feedback_trial","2","","","","","","","","","","","","","","","","","","","","",""
"","","","","","image-keyboard-response","134","274546","0.0-109.0","59b941556495ef00019fbc80","665500ab8938657b03fbdba8","66579274e2ba9ae37d367759","774","stimuli/0100100.jpg","0","","prediction_trial","0","","true","","0","false","true","false","true","false","true","[0]","100","100","1","","","","","","",""
"","","","","","image-keyboard-response","135","275109","0.0-110.0","59b941556495ef00019fbc80","665500ab8938657b03fbdba8","66579274e2ba9ae37d367759","561","stimuli/01001000.jpg"," ","","feedback_trial","0","","","","","","","","","","","","","","","","","","","","",""
"","","","","","image-keyboard-response","136","275942","0.0-111.0","59b941556495ef00019fbc80","665500ab8938657b03fbdba8","66579274e2ba9ae37d367759","832","stimuli/0011011.jpg","0","","prediction_trial","0","","true","","0","true","true","true","true","true","true","[0]","011","011","1","","","","","","",""
"","","","","","image-keyboard-response","137","276349","0.0-112.0","59b941556495ef00019fbc80","665500ab8938657b03fbdba8","66579274e2ba9ae37d367759","405","stimuli/00110110.jpg"," ","","feedback_trial","0","","","","","","","","","","","","","","","","","","","","",""
"","","","","","image-keyboard-response","138","277370","0.0-113.0","59b941556495ef00019fbc80","665500ab8938657b03fbdba8","66579274e2ba9ae37d367759","1019","stimuli/1100110.jpg","1","","prediction_trial","1","","true","","1","false","false","true","true","false","false","[1]","100","110","1","","","","","","",""
"","","","","","image-keyboard-response","139","277935","0.0-114.0","59b941556495ef00019fbc80","665500ab8938657b03fbdba8","66579274e2ba9ae37d367759","562","stimuli/11001101.jpg"," ","","feedback_trial","1","","","","","","","","","","","","","","","","","","","","",""
"","","","","","image-keyboard-response","140","279453","0.0-115.0","59b941556495ef00019fbc80","665500ab8938657b03fbdba8","66579274e2ba9ae37d367759","1517","stimuli/1010010.jpg","1","","prediction_trial","1","","true","","1","false","true","false","true","false","true","[1]","010","010","1","","","","","","",""
"","","","","","image-keyboard-response","141","279979","0.0-116.0","59b941556495ef00019fbc80","665500ab8938657b03fbdba8","66579274e2ba9ae37d367759","525","stimuli/10100101.jpg"," ","","feedback_trial","1","","","","","","","","","","","","","","","","","","","","",""
"","","","","","image-keyboard-response","142","281488","0.0-117.0","59b941556495ef00019fbc80","665500ab8938657b03fbdba8","66579274e2ba9ae37d367759","1507","stimuli/1010101.jpg","1","","prediction_trial","1","","true","","1","true","true","false","true","false","true","[1]","010","101","1","","","","","","",""
"","","","","","image-keyboard-response","143","281927","0.0-118.0","59b941556495ef00019fbc80","665500ab8938657b03fbdba8","66579274e2ba9ae37d367759","437","stimuli/10101011.jpg"," ","","feedback_trial","1","","","","","","","","","","","","","","","","","","","","",""
"","","","","","image-keyboard-response","144","283637","0.0-119.0","59b941556495ef00019fbc80","665500ab8938657b03fbdba8","66579274e2ba9ae37d367759","1708","stimuli/0111111.jpg","1","","prediction_trial","1","","true","","0","false","false","false","false","false","false","[0,1,2]","111","111","1","","","","","","",""
"","","","","","image-keyboard-response","145","284190","0.0-120.0","59b941556495ef00019fbc80","665500ab8938657b03fbdba8","66579274e2ba9ae37d367759","551","stimuli/01111111.jpg"," ","","feedback_trial","0","","","","","","","","","","","","","","","","","","","","",""
"","","","","","image-keyboard-response","146","285088","0.0-121.0","59b941556495ef00019fbc80","665500ab8938657b03fbdba8","66579274e2ba9ae37d367759","896","stimuli/2100010.jpg","2","","prediction_trial","2","","true","","2","true","true","true","true","true","true","[2]","100","010","1","","","","","","",""
"","","","","","image-keyboard-response","147","285481","0.0-122.0","59b941556495ef00019fbc80","665500ab8938657b03fbdba8","66579274e2ba9ae37d367759","392","stimuli/21000102.jpg"," ","","feedback_trial","2","","","","","","","","","","","","","","","","","","","","",""
"","","","","","image-keyboard-response","148","286509","0.0-123.0","59b941556495ef00019fbc80","665500ab8938657b03fbdba8","66579274e2ba9ae37d367759","1027","stimuli/0110000.jpg","0","","prediction_trial","0","","true","","0","true","true","false","false","false","false","[0,1]","110","000","1","","","","","","",""
"","","","","","image-keyboard-response","149","286986","0.0-124.0","59b941556495ef00019fbc80","665500ab8938657b03fbdba8","66579274e2ba9ae37d367759","475","stimuli/01100000.jpg"," ","","feedback_trial","0","","","","","","","","","","","","","","","","","","","","",""
"","","","","","image-keyboard-response","150","288205","0.0-125.0","59b941556495ef00019fbc80","665500ab8938657b03fbdba8","66579274e2ba9ae37d367759","1218","stimuli/0100000.jpg","0","","prediction_trial","0","","true","","0","true","true","false","true","false","true","[0]","100","000","1","","","","","","",""
"","","","","","image-keyboard-response","151","288652","0.0-126.0","59b941556495ef00019fbc80","665500ab8938657b03fbdba8","66579274e2ba9ae37d367759","445","stimuli/01000000.jpg"," ","","feedback_trial","0","","","","","","","","","","","","","","","","","","","","",""
"","","","","","image-keyboard-response","152","289499","0.0-127.0","59b941556495ef00019fbc80","665500ab8938657b03fbdba8","66579274e2ba9ae37d367759","845","stimuli/0001000.jpg","0","","prediction_trial","0","","true","","0","true","true","true","true","true","true","[0]","001","000","1","","","","","","",""
"","","","","","image-keyboard-response","153","289902","0.0-128.0","59b941556495ef00019fbc80","665500ab8938657b03fbdba8","66579274e2ba9ae37d367759","402","stimuli/00010000.jpg"," ","","feedback_trial","0","","","","","","","","","","","","","","","","","","","","",""
"","","","","","image-keyboard-response","154","290587","0.0-129.0","59b941556495ef00019fbc80","665500ab8938657b03fbdba8","66579274e2ba9ae37d367759","682","stimuli/2100100.jpg","2","","prediction_trial","2","","true","","2","true","true","true","true","true","true","[2]","100","100","1","","","","","","",""
"","","","","","image-keyboard-response","155","290992","0.0-130.0","59b941556495ef00019fbc80","665500ab8938657b03fbdba8","66579274e2ba9ae37d367759","404","stimuli/21001002.jpg"," ","","feedback_trial","2","","","","","","","","","","","","","","","","","","","","",""
"","","","","","image-keyboard-response","156","291652","0.0-131.0","59b941556495ef00019fbc80","665500ab8938657b03fbdba8","66579274e2ba9ae37d367759","660","stimuli/1101100.jpg","1","","prediction_trial","1","","true","","1","true","true","true","true","true","true","[1]","101","100","1","","","","","","",""
"","","","","","image-keyboard-response","157","292045","0.0-132.0","59b941556495ef00019fbc80","665500ab8938657b03fbdba8","66579274e2ba9ae37d367759","392","stimuli/11011001.jpg"," ","","feedback_trial","1","","","","","","","","","","","","","","","","","","","","",""
"","","","","","image-keyboard-response","158","293101","0.0-133.0","59b941556495ef00019fbc80","665500ab8938657b03fbdba8","66579274e2ba9ae37d367759","1054","stimuli/1010000.jpg","1","","prediction_trial","1","","true","","1","true","true","false","true","false","true","[1]","010","000","1","","","","","","",""
"","","","","","image-keyboard-response","159","293560","0.0-134.0","59b941556495ef00019fbc80","665500ab8938657b03fbdba8","66579274e2ba9ae37d367759","457","stimuli/10100001.jpg"," ","","feedback_trial","1","","","","","","","","","","","","","","","","","","","","",""
"","","","","","image-keyboard-response","160","294771","0.0-135.0","59b941556495ef00019fbc80","665500ab8938657b03fbdba8","66579274e2ba9ae37d367759","1210","stimuli/0110100.jpg","0","","prediction_trial","1","","false","","0","false","true","false","false","false","false","[1,0]","110","100","0","","","","","","",""
"","","","","","image-keyboard-response","161","295483","0.0-136.0","59b941556495ef00019fbc80","665500ab8938657b03fbdba8","66579274e2ba9ae37d367759","710","stimuli/01101001.jpg"," ","","feedback_trial","1","","","","","","","","","","","","","","","","","","","","",""
"","","","","","image-keyboard-response","162","296644","0.0-137.0","59b941556495ef00019fbc80","665500ab8938657b03fbdba8","66579274e2ba9ae37d367759","1159","stimuli/1001111.jpg","1","","prediction_trial","1","","true","","1","false","false","true","true","false","false","[1]","001","111","1","","","","","","",""
"","","","","","image-keyboard-response","163","297172","0.0-138.0","59b941556495ef00019fbc80","665500ab8938657b03fbdba8","66579274e2ba9ae37d367759","527","stimuli/10011111.jpg"," ","","feedback_trial","1","","","","","","","","","","","","","","","","","","","","",""
"","","","","","image-keyboard-response","164","297908","0.0-139.0","59b941556495ef00019fbc80","665500ab8938657b03fbdba8","66579274e2ba9ae37d367759","734","stimuli/0001011.jpg","0","","prediction_trial","0","","true","","0","true","true","true","true","true","true","[0]","001","011","1","","","","","","",""
"","","","","","image-keyboard-response","165","298325","0.0-140.0","59b941556495ef00019fbc80","665500ab8938657b03fbdba8","66579274e2ba9ae37d367759","416","stimuli/00010110.jpg"," ","","feedback_trial","0","","","","","","","","","","","","","","","","","","","","",""
"","","","","","image-keyboard-response","166","299526","0.0-141.0","59b941556495ef00019fbc80","665500ab8938657b03fbdba8","66579274e2ba9ae37d367759","1199","stimuli/0011111.jpg","0","","prediction_trial","0","","true","","0","false","false","true","true","false","false","[0]","011","111","1","","","","","","",""
"","","","","","image-keyboard-response","167","300039","0.0-142.0","59b941556495ef00019fbc80","665500ab8938657b03fbdba8","66579274e2ba9ae37d367759","512","stimuli/00111110.jpg"," ","","feedback_trial","0","","","","","","","","","","","","","","","","","","","","",""
"","","","","","image-keyboard-response","168","300664","0.0-143.0","59b941556495ef00019fbc80","665500ab8938657b03fbdba8","66579274e2ba9ae37d367759","623","stimuli/0000000.jpg","0","","prediction_trial","0","","true","","0","true","true","true","true","true","true","[0]","000","000","1","","","","","","",""
"","","","","","image-keyboard-response","169","301102","0.0-144.0","59b941556495ef00019fbc80","665500ab8938657b03fbdba8","66579274e2ba9ae37d367759","436","stimuli/00000000.jpg"," ","","feedback_trial","0","","","","","","","","","","","","","","","","","","","","",""
"","","","","","image-keyboard-response","170","302539","0.0-145.0","59b941556495ef00019fbc80","665500ab8938657b03fbdba8","66579274e2ba9ae37d367759","1436","stimuli/2011101.jpg","0","","prediction_trial","2","","false","","2","false","false","false","false","false","false","[2,1]","011","101","0","","","","","","",""
"","","","","","image-keyboard-response","171","303307","0.0-146.0","59b941556495ef00019fbc80","665500ab8938657b03fbdba8","66579274e2ba9ae37d367759","766","stimuli/20111012.jpg"," ","","feedback_trial","2","","","","","","","","","","","","","","","","","","","","",""
"","","","","","image-keyboard-response","172","304814","0.0-147.0","59b941556495ef00019fbc80","665500ab8938657b03fbdba8","66579274e2ba9ae37d367759","1505","stimuli/1010111.jpg","0","","prediction_trial","1","","false","","1","false","false","false","true","false","false","[1]","010","111","0","","","","","","",""
"","","","","","image-keyboard-response","173","305469","0.0-148.0","59b941556495ef00019fbc80","665500ab8938657b03fbdba8","66579274e2ba9ae37d367759","653","stimuli/10101111.jpg"," ","","feedback_trial","1","","","","","","","","","","","","","","","","","","","","",""
"","","","","","image-keyboard-response","174","306628","0.0-149.0","59b941556495ef00019fbc80","665500ab8938657b03fbdba8","66579274e2ba9ae37d367759","1158","stimuli/0111001.jpg","0","","prediction_trial","2","","false","","0","true","true","false","false","false","false","[2,1,0]","111","001","0","","","","","","",""
"","","","","","image-keyboard-response","175","307274","0.0-150.0","59b941556495ef00019fbc80","665500ab8938657b03fbdba8","66579274e2ba9ae37d367759","645","stimuli/01110012.jpg"," ","","feedback_trial","2","","","","","","","","","","","","","","","","","","","","",""
"","","","","","image-keyboard-response","176","308821","0.0-151.0","59b941556495ef00019fbc80","665500ab8938657b03fbdba8","66579274e2ba9ae37d367759","1546","stimuli/0011101.jpg","0","","prediction_trial","0","","true","","0","false","false","true","true","false","false","[0]","011","101","1","","","","","","",""
"","","","","","image-keyboard-response","177","309450","0.0-152.0","59b941556495ef00019fbc80","665500ab8938657b03fbdba8","66579274e2ba9ae37d367759","627","stimuli/00111010.jpg"," ","","feedback_trial","0","","","","","","","","","","","","","","","","","","","","",""
"","","","","","image-keyboard-response","178","310258","0.0-153.0","59b941556495ef00019fbc80","665500ab8938657b03fbdba8","66579274e2ba9ae37d367759","806","stimuli/2111110.jpg","2","","prediction_trial","0","","false","","2","true","true","false","false","false","false","[0,2,1]","111","110","0","","","","","","",""
"","","","","","image-keyboard-response","179","310912","0.0-154.0","59b941556495ef00019fbc80","665500ab8938657b03fbdba8","66579274e2ba9ae37d367759","653","stimuli/21111100.jpg"," ","","feedback_trial","0","","","","","","","","","","","","","","","","","","","","",""
"","","","","","image-keyboard-response","180","312615","0.0-155.0","59b941556495ef00019fbc80","665500ab8938657b03fbdba8","66579274e2ba9ae37d367759","1701","stimuli/1100010.jpg","1","","prediction_trial","1","","true","","1","false","true","true","true","false","true","[1]","100","010","1","","","","","","",""
"","","","","","image-keyboard-response","181","313197","0.0-156.0","59b941556495ef00019fbc80","665500ab8938657b03fbdba8","66579274e2ba9ae37d367759","580","stimuli/11000101.jpg"," ","","feedback_trial","1","","","","","","","","","","","","","","","","","","","","",""
"","","","","","image-keyboard-response","182","314327","0.0-157.0","59b941556495ef00019fbc80","665500ab8938657b03fbdba8","66579274e2ba9ae37d367759","1128","stimuli/2111010.jpg","1","","prediction_trial","1","","true","","2","true","true","false","false","false","false","[1,0,2]","111","010","1","","","","","","",""
"","","","","","image-keyboard-response","183","314939","0.0-158.0","59b941556495ef00019fbc80","665500ab8938657b03fbdba8","66579274e2ba9ae37d367759","611","stimuli/21110101.jpg"," ","","feedback_trial","1","","","","","","","","","","","","","","","","","","","","",""
"","","","","","image-keyboard-response","184","315770","0.0-159.0","59b941556495ef00019fbc80","665500ab8938657b03fbdba8","66579274e2ba9ae37d367759","830","stimuli/1101000.jpg","1","","prediction_trial","1","","true","","1","true","true","true","true","true","true","[1]","101","000","1","","","","","","",""
"","","","","","image-keyboard-response","185","316523","0.0-160.0","59b941556495ef00019fbc80","665500ab8938657b03fbdba8","66579274e2ba9ae37d367759","751","stimuli/11010001.jpg"," ","","feedback_trial","1","","","","","","","","","","","","","","","","","","","","",""
"","","","","","image-keyboard-response","186","317735","0.0-161.0","59b941556495ef00019fbc80","665500ab8938657b03fbdba8","66579274e2ba9ae37d367759","1211","stimuli/1011011.jpg","1","","prediction_trial","2","","false","","1","false","false","false","false","false","false","[2,1]","011","011","0","","","","","","",""
"","","","","","image-keyboard-response","187","318322","0.0-162.0","59b941556495ef00019fbc80","665500ab8938657b03fbdba8","66579274e2ba9ae37d367759","585","stimuli/10110112.jpg"," ","","feedback_trial","2","","","","","","","","","","","","","","","","","","","","",""
"","","","","","image-keyboard-response","188","318962","0.0-163.0","59b941556495ef00019fbc80","665500ab8938657b03fbdba8","66579274e2ba9ae37d367759","634","stimuli/2000010.jpg","2","","prediction_trial","2","","true","","2","true","true","true","true","true","true","[2]","000","010","1","","","","","","",""
"","","","","","image-keyboard-response","189","319392","0.0-164.0","59b941556495ef00019fbc80","665500ab8938657b03fbdba8","66579274e2ba9ae37d367759","428","stimuli/20000102.jpg"," ","","feedback_trial","2","","","","","","","","","","","","","","","","","","","","",""
"","","","","","image-keyboard-response","190","320244","0.0-165.0","59b941556495ef00019fbc80","665500ab8938657b03fbdba8","66579274e2ba9ae37d367759","851","stimuli/1111111.jpg","1","","prediction_trial","0","","false","","1","false","false","false","false","false","false","[1,2,0]","111","111","0","","","","","","",""
"","","","","","image-keyboard-response","191","320787","0.0-166.0","59b941556495ef00019fbc80","665500ab8938657b03fbdba8","66579274e2ba9ae37d367759","541","stimuli/11111110.jpg"," ","","feedback_trial","1","","","","","","","","","","","","","","","","","","","","",""
"","","","","","image-keyboard-response","192","321346","0.0-167.0","59b941556495ef00019fbc80","665500ab8938657b03fbdba8","66579274e2ba9ae37d367759","557","stimuli/2001000.jpg","2","","prediction_trial","2","","true","","2","true","true","false","true","false","true","[2]","001","000","1","","","","","","",""
"","","","","","image-keyboard-response","193","322044","0.0-168.0","59b941556495ef00019fbc80","665500ab8938657b03fbdba8","66579274e2ba9ae37d367759","697","stimuli/20010002.jpg"," ","","feedback_trial","2","","","","","","","","","","","","","","","","","","","","",""
"","","","","","image-keyboard-response","194","322842","0.0-169.0","59b941556495ef00019fbc80","665500ab8938657b03fbdba8","66579274e2ba9ae37d367759","797","stimuli/1110100.jpg","1","","prediction_trial","0","","false","","1","true","true","false","false","false","false","[1,0]","110","100","0","","","","","","",""
"","","","","","image-keyboard-response","195","323463","0.0-170.0","59b941556495ef00019fbc80","665500ab8938657b03fbdba8","66579274e2ba9ae37d367759","620","stimuli/11101000.jpg"," ","","feedback_trial","1","","","","","","","","","","","","","","","","","","","","",""
"","","","","","image-keyboard-response","196","324521","0.0-171.0","59b941556495ef00019fbc80","665500ab8938657b03fbdba8","66579274e2ba9ae37d367759","1057","stimuli/1001010.jpg","1","","prediction_trial","1","","true","","1","false","true","true","true","false","true","[1]","001","010","1","","","","","","",""
"","","","","","image-keyboard-response","197","325244","0.0-172.0","59b941556495ef00019fbc80","665500ab8938657b03fbdba8","66579274e2ba9ae37d367759","721","stimuli/10010101.jpg"," ","","feedback_trial","1","","","","","","","","","","","","","","","","","","","","",""
"","","","","","image-keyboard-response","198","325939","0.0-173.0","59b941556495ef00019fbc80","665500ab8938657b03fbdba8","66579274e2ba9ae37d367759","694","stimuli/1000001.jpg","1","","prediction_trial","1","","true","","1","true","true","true","true","true","true","[1]","000","001","1","","","","","","",""
"","","","","","image-keyboard-response","199","326373","0.0-174.0","59b941556495ef00019fbc80","665500ab8938657b03fbdba8","66579274e2ba9ae37d367759","431","stimuli/10000011.jpg"," ","","feedback_trial","1","","","","","","","","","","","","","","","","","","","","",""
"","","","","","image-keyboard-response","200","327160","0.0-175.0","59b941556495ef00019fbc80","665500ab8938657b03fbdba8","66579274e2ba9ae37d367759","785","stimuli/2111001.jpg","2","","prediction_trial","0","","false","","2","false","true","false","false","false","false","[0,1,2]","111","001","0","","","","","","",""
"","","","","","image-keyboard-response","201","327720","0.0-176.0","59b941556495ef00019fbc80","665500ab8938657b03fbdba8","66579274e2ba9ae37d367759","558","stimuli/21110010.jpg"," ","","feedback_trial","0","","","","","","","","","","","","","","","","","","","","",""
"","","","","","image-keyboard-response","202","328926","0.0-177.0","59b941556495ef00019fbc80","665500ab8938657b03fbdba8","66579274e2ba9ae37d367759","1204","stimuli/1000111.jpg","0","","prediction_trial","1","","false","","1","false","false","true","true","false","false","[1]","000","111","0","","","","","","",""
"","","","","","image-keyboard-response","203","329426","0.0-178.0","59b941556495ef00019fbc80","665500ab8938657b03fbdba8","66579274e2ba9ae37d367759","499","stimuli/10001111.jpg"," ","","feedback_trial","1","","","","","","","","","","","","","","","","","","","","",""
"","","","","","image-keyboard-response","204","329905","0.0-179.0","59b941556495ef00019fbc80","665500ab8938657b03fbdba8","66579274e2ba9ae37d367759","477","stimuli/0001101.jpg","1","","prediction_trial","0","","false","","0","false","false","true","true","false","false","[0]","001","101","0","","","","","","",""
"","","","","","image-keyboard-response","205","330593","0.0-180.0","59b941556495ef00019fbc80","665500ab8938657b03fbdba8","66579274e2ba9ae37d367759","687","stimuli/00011010.jpg"," ","","feedback_trial","0","","","","","","","","","","","","","","","","","","","","",""
"","","","","","image-keyboard-response","206","331167","0.0-181.0","59b941556495ef00019fbc80","665500ab8938657b03fbdba8","66579274e2ba9ae37d367759","572","stimuli/2100001.jpg","2","","prediction_trial","2","","true","","2","false","true","true","true","false","true","[2]","100","001","1","","","","","","",""
"","","","","","image-keyboard-response","207","332987","0.0-182.0","59b941556495ef00019fbc80","665500ab8938657b03fbdba8","66579274e2ba9ae37d367759","1817","stimuli/21000012.jpg"," ","","feedback_trial","2","","","","","","","","","","","","","","","","","","","","",""
"","","","","","image-keyboard-response","208","333996","0.0-183.0","59b941556495ef00019fbc80","665500ab8938657b03fbdba8","66579274e2ba9ae37d367759","1008","stimuli/1110110.jpg","1","","prediction_trial","0","","false","","1","false","false","false","false","false","false","[1,0]","110","110","0","","","","","","",""
"","","","","","image-keyboard-response","209","334628","0.0-184.0","59b941556495ef00019fbc80","665500ab8938657b03fbdba8","66579274e2ba9ae37d367759","631","stimuli/11101100.jpg"," ","","feedback_trial","1","","","","","","","","","","","","","","","","","","","","",""
"","","","","","image-keyboard-response","210","335328","0.0-185.0","59b941556495ef00019fbc80","665500ab8938657b03fbdba8","66579274e2ba9ae37d367759","699","stimuli/2110010.jpg","2","","prediction_trial","2","","true","","2","true","true","true","true","true","true","[2]","110","010","1","","","","","","",""
"","","","","","image-keyboard-response","211","335749","0.0-186.0","59b941556495ef00019fbc80","665500ab8938657b03fbdba8","66579274e2ba9ae37d367759","419","stimuli/21100102.jpg"," ","","feedback_trial","2","","","","","","","","","","","","","","","","","","","","",""
"","","","","","image-keyboard-response","212","336352","0.0-187.0","59b941556495ef00019fbc80","665500ab8938657b03fbdba8","66579274e2ba9ae37d367759","602","stimuli/1100100.jpg","1","","prediction_trial","1","","true","","1","true","true","true","true","true","true","[1]","100","100","1","","","","","","",""
"","","","","","image-keyboard-response","213","336784","0.0-188.0","59b941556495ef00019fbc80","665500ab8938657b03fbdba8","66579274e2ba9ae37d367759","430","stimuli/11001001.jpg"," ","","feedback_trial","1","","","","","","","","","","","","","","","","","","","","",""
"","","","","","image-keyboard-response","214","337835","0.0-189.0","59b941556495ef00019fbc80","665500ab8938657b03fbdba8","66579274e2ba9ae37d367759","1050","stimuli/1111101.jpg","1","","prediction_trial","0","","false","","1","true","true","false","false","false","false","[1,0,2]","111","101","0","","","","","","",""
"","","","","","image-keyboard-response","215","338402","0.0-190.0","59b941556495ef00019fbc80","665500ab8938657b03fbdba8","66579274e2ba9ae37d367759","565","stimuli/11111010.jpg"," ","","feedback_trial","1","","","","","","","","","","","","","","","","","","","","",""
"","","","","","image-keyboard-response","216","339398","0.0-191.0","59b941556495ef00019fbc80","665500ab8938657b03fbdba8","66579274e2ba9ae37d367759","995","stimuli/1000010.jpg","1","","prediction_trial","1","","true","","1","false","true","true","true","false","true","[1]","000","010","1","","","","","","",""
"","","","","","image-keyboard-response","217","339874","0.0-192.0","59b941556495ef00019fbc80","665500ab8938657b03fbdba8","66579274e2ba9ae37d367759","474","stimuli/10000101.jpg"," ","","feedback_trial","1","","","","","","","","","","","","","","","","","","","","",""
"","","","","","image-keyboard-response","218","340977","0.0-193.0","59b941556495ef00019fbc80","665500ab8938657b03fbdba8","66579274e2ba9ae37d367759","1101","stimuli/2101001.jpg","2","","prediction_trial","2","","true","","2","false","true","false","false","false","false","[2,0]","101","001","1","","","","","","",""
"","","","","","image-keyboard-response","219","341486","0.0-194.0","59b941556495ef00019fbc80","665500ab8938657b03fbdba8","66579274e2ba9ae37d367759","508","stimuli/21010012.jpg"," ","","feedback_trial","2","","","","","","","","","","","","","","","","","","","","",""
"","","","","","image-keyboard-response","220","342448","0.0-195.0","59b941556495ef00019fbc80","665500ab8938657b03fbdba8","66579274e2ba9ae37d367759","961","stimuli/1111000.jpg","1","","prediction_trial","0","","false","","1","true","true","false","false","false","false","[2,0,1]","111","000","0","","","","","","",""
"","","","","","image-keyboard-response","221","343010","0.0-196.0","59b941556495ef00019fbc80","665500ab8938657b03fbdba8","66579274e2ba9ae37d367759","561","stimuli/11110000.jpg"," ","","feedback_trial","2","","","","","","","","","","","","","","","","","","","","",""
"","","","","","image-keyboard-response","222","345712","0.0-197.0","59b941556495ef00019fbc80","665500ab8938657b03fbdba8","66579274e2ba9ae37d367759","2701","stimuli/0101011.jpg","2","","prediction_trial","0","","false","","0","true","true","false","false","false","false","[0,2]","101","011","0","","","","","","",""
"","","","","","image-keyboard-response","223","346270","0.0-198.0","59b941556495ef00019fbc80","665500ab8938657b03fbdba8","66579274e2ba9ae37d367759","556","stimuli/01010110.jpg"," ","","feedback_trial","0","","","","","","","","","","","","","","","","","","","","",""
"","","","","","image-keyboard-response","224","347211","0.0-199.0","59b941556495ef00019fbc80","665500ab8938657b03fbdba8","66579274e2ba9ae37d367759","940","stimuli/1111001.jpg","1","","prediction_trial","0","","false","","1","true","true","false","false","false","false","[2,0,1]","111","001","0","","","","","","",""
"","","","","","image-keyboard-response","225","348046","0.0-200.0","59b941556495ef00019fbc80","665500ab8938657b03fbdba8","66579274e2ba9ae37d367759","833","stimuli/11110010.jpg"," ","","feedback_trial","2","","","","","","","","","","","","","","","","","","","","",""
"","","","","","image-keyboard-response","226","349021","0.0-201.0","59b941556495ef00019fbc80","665500ab8938657b03fbdba8","66579274e2ba9ae37d367759","973","stimuli/1100000.jpg","1","","prediction_trial","1","","true","","1","true","true","true","true","true","true","[1]","100","000","1","","","","","","",""
"","","","","","image-keyboard-response","227","349490","0.0-202.0","59b941556495ef00019fbc80","665500ab8938657b03fbdba8","66579274e2ba9ae37d367759","468","stimuli/11000001.jpg"," ","","feedback_trial","1","","","","","","","","","","","","","","","","","","","","",""
"","","","","","image-keyboard-response","228","350761","0.0-203.0","59b941556495ef00019fbc80","665500ab8938657b03fbdba8","66579274e2ba9ae37d367759","1269","stimuli/2001101.jpg","0","","prediction_trial","2","","false","","2","false","false","false","true","false","false","[2]","001","101","0","","","","","","",""
"","","","","","image-keyboard-response","229","351329","0.0-204.0","59b941556495ef00019fbc80","665500ab8938657b03fbdba8","66579274e2ba9ae37d367759","566","stimuli/20011012.jpg"," ","","feedback_trial","2","","","","","","","","","","","","","","","","","","","","",""
"","","","","","image-keyboard-response","230","352326","0.0-205.0","59b941556495ef00019fbc80","665500ab8938657b03fbdba8","66579274e2ba9ae37d367759","996","stimuli/0111000.jpg","0","","prediction_trial","0","","true","","0","true","true","false","false","false","false","[1,2,0]","111","000","1","","","","","","",""
"","","","","","image-keyboard-response","231","352932","0.0-206.0","59b941556495ef00019fbc80","665500ab8938657b03fbdba8","66579274e2ba9ae37d367759","604","stimuli/01110000.jpg"," ","","feedback_trial","1","","","","","","","","","","","","","","","","","","","","",""
"","","","","","image-keyboard-response","232","353689","0.0-207.0","59b941556495ef00019fbc80","665500ab8938657b03fbdba8","66579274e2ba9ae37d367759","755","stimuli/2101000.jpg","2","","prediction_trial","2","","true","","2","true","true","false","false","false","false","[0,2]","101","000","1","","","","","","",""
"","","","","","image-keyboard-response","233","354363","0.0-208.0","59b941556495ef00019fbc80","665500ab8938657b03fbdba8","66579274e2ba9ae37d367759","673","stimuli/21010002.jpg"," ","","feedback_trial","0","","","","","","","","","","","","","","","","","","","","",""
"","","","","","image-keyboard-response","234","355719","0.0-209.0","59b941556495ef00019fbc80","665500ab8938657b03fbdba8","66579274e2ba9ae37d367759","1355","stimuli/1011111.jpg","1","","prediction_trial","2","","false","","1","false","false","false","false","false","false","[1,2]","011","111","0","","","","","","",""
"","","","","","image-keyboard-response","235","356544","0.0-210.0","59b941556495ef00019fbc80","665500ab8938657b03fbdba8","66579274e2ba9ae37d367759","823","stimuli/10111112.jpg"," ","","feedback_trial","1","","","","","","","","","","","","","","","","","","","","",""
"","","","","","image-keyboard-response","236","357715","0.0-211.0","59b941556495ef00019fbc80","665500ab8938657b03fbdba8","66579274e2ba9ae37d367759","1169","stimuli/0110001.jpg","0","","prediction_trial","0","","true","","0","true","true","false","false","false","false","[1,0]","110","001","1","","","","","","",""
"","","","","","image-keyboard-response","237","358285","0.0-212.0","59b941556495ef00019fbc80","665500ab8938657b03fbdba8","66579274e2ba9ae37d367759","568","stimuli/01100010.jpg"," ","","feedback_trial","1","","","","","","","","","","","","","","","","","","","","",""
"","","","","","image-keyboard-response","238","359477","0.0-213.0","59b941556495ef00019fbc80","665500ab8938657b03fbdba8","66579274e2ba9ae37d367759","1191","stimuli/1110011.jpg","2","","prediction_trial","0","","false","","1","false","false","false","false","false","false","[1,0]","110","011","0","","","","","","",""
"","","","","","image-keyboard-response","239","360029","0.0-214.0","59b941556495ef00019fbc80","665500ab8938657b03fbdba8","66579274e2ba9ae37d367759","550","stimuli/11100110.jpg"," ","","feedback_trial","1","","","","","","","","","","","","","","","","","","","","",""
"","","","","","image-keyboard-response","240","360571","0.0-215.0","59b941556495ef00019fbc80","665500ab8938657b03fbdba8","66579274e2ba9ae37d367759","540","stimuli/1100001.jpg","1","","prediction_trial","1","","true","","1","true","true","true","true","true","true","[1]","100","001","1","","","","","","",""
"","","","","","image-keyboard-response","241","361055","0.0-216.0","59b941556495ef00019fbc80","665500ab8938657b03fbdba8","66579274e2ba9ae37d367759","482","stimuli/11000011.jpg"," ","","feedback_trial","1","","","","","","","","","","","","","","","","","","","","",""
"","","","","","image-keyboard-response","242","361865","0.0-217.0","59b941556495ef00019fbc80","665500ab8938657b03fbdba8","66579274e2ba9ae37d367759","805","stimuli/2111000.jpg","2","","prediction_trial","1","","false","","2","true","true","false","false","false","false","[0,1,2]","111","000","0","","","","","","",""
"","","","","","image-keyboard-response","243","362471","0.0-218.0","59b941556495ef00019fbc80","665500ab8938657b03fbdba8","66579274e2ba9ae37d367759","604","stimuli/21110001.jpg"," ","","feedback_trial","0","","","","","","","","","","","","","","","","","","","","",""
"","","","","","image-keyboard-response","244","363463","0.0-219.0","59b941556495ef00019fbc80","665500ab8938657b03fbdba8","66579274e2ba9ae37d367759","991","stimuli/2111101.jpg","0","","prediction_trial","2","","false","","2","false","false","false","false","false","false","[1,0,2]","111","101","0","","","","","","",""
"","","","","","image-keyboard-response","245","364082","0.0-220.0","59b941556495ef00019fbc80","665500ab8938657b03fbdba8","66579274e2ba9ae37d367759","617","stimuli/21111012.jpg"," ","","feedback_trial","1","","","","","","","","","","","","","","","","","","","","",""
"","","","","","image-keyboard-response","246","364742","0.0-221.0","59b941556495ef00019fbc80","665500ab8938657b03fbdba8","66579274e2ba9ae37d367759","658","stimuli/1010011.jpg","2","","prediction_trial","1","","false","","1","false","false","false","true","false","false","[1]","010","011","0","","","","","","",""
"","","","","","image-keyboard-response","247","365467","0.0-222.0","59b941556495ef00019fbc80","665500ab8938657b03fbdba8","66579274e2ba9ae37d367759","724","stimuli/10100111.jpg"," ","","feedback_trial","1","","","","","","","","","","","","","","","","","","","","",""
"","","","","","image-keyboard-response","248","366454","0.0-223.0","59b941556495ef00019fbc80","665500ab8938657b03fbdba8","66579274e2ba9ae37d367759","984","stimuli/1111110.jpg","1","","prediction_trial","2","","false","","1","false","false","false","false","false","false","[0,2,1]","111","110","0","","","","","","",""
"","","","","","image-keyboard-response","249","366944","0.0-224.0","59b941556495ef00019fbc80","665500ab8938657b03fbdba8","66579274e2ba9ae37d367759","489","stimuli/11111102.jpg"," ","","feedback_trial","0","","","","","","","","","","","","","","","","","","","","",""
"","","","","","image-keyboard-response","250","367590","0.0-225.0","59b941556495ef00019fbc80","665500ab8938657b03fbdba8","66579274e2ba9ae37d367759","645","stimuli/2010101.jpg","0","","prediction_trial","2","","false","","2","false","false","true","true","false","false","[2]","010","101","0","","","","","","",""
"","","","","","image-keyboard-response","251","368283","0.0-226.0","59b941556495ef00019fbc80","665500ab8938657b03fbdba8","66579274e2ba9ae37d367759","691","stimuli/20101012.jpg"," ","","feedback_trial","2","","","","","","","","","","","","","","","","","","","","",""
"","","","","","image-keyboard-response","252","369540","0.0-227.0","59b941556495ef00019fbc80","665500ab8938657b03fbdba8","66579274e2ba9ae37d367759","1255","stimuli/2100111.jpg","1","","prediction_trial","2","","false","","2","false","false","true","true","false","false","[2]","100","111","0","","","","","","",""
"","","","","","image-keyboard-response","253","370021","0.0-228.0","59b941556495ef00019fbc80","665500ab8938657b03fbdba8","66579274e2ba9ae37d367759","479","stimuli/21001112.jpg"," ","","feedback_trial","2","","","","","","","","","","","","","","","","","","","","",""
"","","","","","image-keyboard-response","254","370835","0.0-229.0","59b941556495ef00019fbc80","665500ab8938657b03fbdba8","66579274e2ba9ae37d367759","813","stimuli/2110100.jpg","2","","prediction_trial","2","","true","","2","true","true","true","true","true","true","[2]","110","100","1","","","","","","",""
"","","","","","image-keyboard-response","255","371215","0.0-230.0","59b941556495ef00019fbc80","665500ab8938657b03fbdba8","66579274e2ba9ae37d367759","379","stimuli/21101002.jpg"," ","","feedback_trial","2","","","","","","","","","","","","","","","","","","","","",""
"","","","","","image-keyboard-response","256","371961","0.0-231.0","59b941556495ef00019fbc80","665500ab8938657b03fbdba8","66579274e2ba9ae37d367759","744","stimuli/1011100.jpg","1","","prediction_trial","1","","true","","1","true","true","false","false","false","false","[1,2]","011","100","1","","","","","","",""
"","","","","","image-keyboard-response","257","372390","0.0-232.0","59b941556495ef00019fbc80","665500ab8938657b03fbdba8","66579274e2ba9ae37d367759","427","stimuli/10111001.jpg"," ","","feedback_trial","1","","","","","","","","","","","","","","","","","","","","",""
"","","","","","image-keyboard-response","258","373155","0.0-233.0","59b941556495ef00019fbc80","665500ab8938657b03fbdba8","66579274e2ba9ae37d367759","762","stimuli/0001010.jpg","0","","prediction_trial","0","","true","","0","true","true","true","true","true","true","[0]","001","010","1","","","","","","",""
"","","","","","image-keyboard-response","259","373528","0.0-234.0","59b941556495ef00019fbc80","665500ab8938657b03fbdba8","66579274e2ba9ae37d367759","372","stimuli/00010100.jpg"," ","","feedback_trial","0","","","","","","","","","","","","","","","","","","","","",""
"","","","","","image-keyboard-response","260","375336","0.0-235.0","59b941556495ef00019fbc80","665500ab8938657b03fbdba8","66579274e2ba9ae37d367759","1801","stimuli/0101101.jpg","0","","prediction_trial","0","","true","","0","false","false","false","false","false","false","[2,0]","101","101","1","","","","","","",""
"","","","","","image-keyboard-response","261","375685","0.0-236.0","59b941556495ef00019fbc80","665500ab8938657b03fbdba8","66579274e2ba9ae37d367759","347","stimuli/01011010.jpg"," ","","feedback_trial","2","","","","","","","","","","","","","","","","","","","","",""
"","","","","","image-keyboard-response","262","377567","0.0-237.0","59b941556495ef00019fbc80","665500ab8938657b03fbdba8","66579274e2ba9ae37d367759","1881","stimuli/1001101.jpg","1","","prediction_trial","1","","true","","1","true","true","true","true","true","true","[1]","001","101","1","","","","","","",""
"","","","","","image-keyboard-response","263","378268","0.0-238.0","59b941556495ef00019fbc80","665500ab8938657b03fbdba8","66579274e2ba9ae37d367759","698","stimuli/10011011.jpg"," ","","feedback_trial","1","","","","","","","","","","","","","","","","","","","","",""
"","","","","","image-keyboard-response","264","379197","0.0-239.0","59b941556495ef00019fbc80","665500ab8938657b03fbdba8","66579274e2ba9ae37d367759","927","stimuli/1000101.jpg","1","","prediction_trial","1","","true","","1","true","true","true","true","true","true","[1]","000","101","1","","","","","","",""
"","","","","","image-keyboard-response","265","379639","0.0-240.0","59b941556495ef00019fbc80","665500ab8938657b03fbdba8","66579274e2ba9ae37d367759","440","stimuli/10001011.jpg"," ","","feedback_trial","1","","","","","","","","","","","","","","","","","","","","",""
"","","","","","image-keyboard-response","266","380497","0.0-241.0","59b941556495ef00019fbc80","665500ab8938657b03fbdba8","66579274e2ba9ae37d367759","856","stimuli/0001111.jpg","2","","prediction_trial","0","","false","","0","false","false","true","true","false","false","[0]","001","111","0","","","","","","",""
"","","","","","image-keyboard-response","267","381164","0.0-242.0","59b941556495ef00019fbc80","665500ab8938657b03fbdba8","66579274e2ba9ae37d367759","665","stimuli/00011110.jpg"," ","","feedback_trial","0","","","","","","","","","","","","","","","","","","","","",""
"","","","","","image-keyboard-response","268","382034","0.0-243.0","59b941556495ef00019fbc80","665500ab8938657b03fbdba8","66579274e2ba9ae37d367759","869","stimuli/1110111.jpg","2","","prediction_trial","0","","false","","1","false","false","false","false","false","false","[0,1]","110","111","0","","","","","","",""
"","","","","","image-keyboard-response","269","382520","0.0-244.0","59b941556495ef00019fbc80","665500ab8938657b03fbdba8","66579274e2ba9ae37d367759","485","stimuli/11101110.jpg"," ","","feedback_trial","0","","","","","","","","","","","","","","","","","","","","",""
"","","","","","image-keyboard-response","270","383591","0.0-245.0","59b941556495ef00019fbc80","665500ab8938657b03fbdba8","66579274e2ba9ae37d367759","1069","stimuli/1100011.jpg","1","","prediction_trial","1","","true","","1","false","false","true","true","false","false","[1]","100","011","1","","","","","","",""
"","","","","","image-keyboard-response","271","384253","0.0-246.0","59b941556495ef00019fbc80","665500ab8938657b03fbdba8","66579274e2ba9ae37d367759","660","stimuli/11000111.jpg"," ","","feedback_trial","1","","","","","","","","","","","","","","","","","","","","",""
"","","","","","image-keyboard-response","272","385223","0.0-247.0","59b941556495ef00019fbc80","665500ab8938657b03fbdba8","66579274e2ba9ae37d367759","969","stimuli/1001110.jpg","1","","prediction_trial","1","","true","","1","false","false","true","true","false","false","[1]","001","110","1","","","","","","",""
"","","","","","image-keyboard-response","273","385757","0.0-248.0","59b941556495ef00019fbc80","665500ab8938657b03fbdba8","66579274e2ba9ae37d367759","533","stimuli/10011101.jpg"," ","","feedback_trial","1","","","","","","","","","","","","","","","","","","","","",""
"","","","","","image-keyboard-response","274","386802","0.0-249.0","59b941556495ef00019fbc80","665500ab8938657b03fbdba8","66579274e2ba9ae37d367759","1043","stimuli/2000111.jpg","1","","prediction_trial","2","","false","","2","false","false","true","true","false","false","[2]","000","111","0","","","","","","",""
"","","","","","image-keyboard-response","275","387312","0.0-250.0","59b941556495ef00019fbc80","665500ab8938657b03fbdba8","66579274e2ba9ae37d367759","508","stimuli/20001112.jpg"," ","","feedback_trial","2","","","","","","","","","","","","","","","","","","","","",""
"","","","","","image-keyboard-response","276","388355","0.0-251.0","59b941556495ef00019fbc80","665500ab8938657b03fbdba8","66579274e2ba9ae37d367759","1042","stimuli/1110010.jpg","1","","prediction_trial","1","","true","","1","false","true","false","false","false","false","[1,0]","110","010","1","","","","","","",""
"","","","","","image-keyboard-response","277","388734","0.0-252.0","59b941556495ef00019fbc80","665500ab8938657b03fbdba8","66579274e2ba9ae37d367759","378","stimuli/11100101.jpg"," ","","feedback_trial","1","","","","","","","","","","","","","","","","","","","","",""
"","","","","","image-keyboard-response","278","389367","0.0-253.0","59b941556495ef00019fbc80","665500ab8938657b03fbdba8","66579274e2ba9ae37d367759","631","stimuli/2000000.jpg","2","","prediction_trial","2","","true","","2","true","true","true","true","true","true","[2]","000","000","1","","","","","","",""
"","","","","","image-keyboard-response","279","389708","0.0-254.0","59b941556495ef00019fbc80","665500ab8938657b03fbdba8","66579274e2ba9ae37d367759","339","stimuli/20000002.jpg"," ","","feedback_trial","2","","","","","","","","","","","","","","","","","","","","",""
"","","","","","image-keyboard-response","280","390762","0.0-255.0","59b941556495ef00019fbc80","665500ab8938657b03fbdba8","66579274e2ba9ae37d367759","1052","stimuli/2000011.jpg","2","","prediction_trial","2","","true","","2","false","false","true","true","false","false","[2]","000","011","1","","","","","","",""
"","","","","","image-keyboard-response","281","391232","0.0-256.0","59b941556495ef00019fbc80","665500ab8938657b03fbdba8","66579274e2ba9ae37d367759","469","stimuli/20000112.jpg"," ","","feedback_trial","2","","","","","","","","","","","","","","","","","","","","",""
"","","","","","image-keyboard-response","282","392153","0.0-257.0","59b941556495ef00019fbc80","665500ab8938657b03fbdba8","66579274e2ba9ae37d367759","920","stimuli/0000111.jpg","1","","prediction_trial","0","","false","","0","false","false","true","true","false","false","[0]","000","111","0","","","","","","",""
"","","","","","image-keyboard-response","283","392620","0.0-258.0","59b941556495ef00019fbc80","665500ab8938657b03fbdba8","66579274e2ba9ae37d367759","466","stimuli/00001110.jpg"," ","","feedback_trial","0","","","","","","","","","","","","","","","","","","","","",""
"","","","","","image-keyboard-response","284","393810","0.0-259.0","59b941556495ef00019fbc80","665500ab8938657b03fbdba8","66579274e2ba9ae37d367759","1188","stimuli/1101011.jpg","2","","prediction_trial","1","","false","","1","false","false","true","true","false","false","[1]","101","011","0","","","","","","",""
"","","","","","image-keyboard-response","285","394448","0.0-260.0","59b941556495ef00019fbc80","665500ab8938657b03fbdba8","66579274e2ba9ae37d367759","636","stimuli/11010111.jpg"," ","","feedback_trial","1","","","","","","","","","","","","","","","","","","","","",""
"","","","","","image-keyboard-response","286","395532","0.0-261.0","59b941556495ef00019fbc80","665500ab8938657b03fbdba8","66579274e2ba9ae37d367759","1083","stimuli/0011100.jpg","0","","prediction_trial","0","","true","","0","false","true","true","true","false","true","[0]","011","100","1","","","","","","",""
"","","","","","image-keyboard-response","287","396117","0.0-262.0","59b941556495ef00019fbc80","665500ab8938657b03fbdba8","66579274e2ba9ae37d367759","583","stimuli/00111000.jpg"," ","","feedback_trial","0","","","","","","","","","","","","","","","","","","","","",""
"","","","","","image-keyboard-response","288","397119","0.0-263.0","59b941556495ef00019fbc80","665500ab8938657b03fbdba8","66579274e2ba9ae37d367759","1001","stimuli/0010110.jpg","1","","prediction_trial","0","","false","","0","false","false","true","true","false","false","[0]","010","110","0","","","","","","",""
"","","","","","image-keyboard-response","289","397760","0.0-264.0","59b941556495ef00019fbc80","665500ab8938657b03fbdba8","66579274e2ba9ae37d367759","639","stimuli/00101100.jpg"," ","","feedback_trial","0","","","","","","","","","","","","","","","","","","","","",""
"","","","","","image-keyboard-response","290","398541","0.0-265.0","59b941556495ef00019fbc80","665500ab8938657b03fbdba8","66579274e2ba9ae37d367759","779","stimuli/2110001.jpg","2","","prediction_trial","2","","true","","2","false","true","true","true","false","true","[2]","110","001","1","","","","","","",""
"","","","","","image-keyboard-response","291","399140","0.0-266.0","59b941556495ef00019fbc80","665500ab8938657b03fbdba8","66579274e2ba9ae37d367759","597","stimuli/21100012.jpg"," ","","feedback_trial","2","","","","","","","","","","","","","","","","","","","","",""
"","","","","","image-keyboard-response","292","400305","0.0-267.0","59b941556495ef00019fbc80","665500ab8938657b03fbdba8","66579274e2ba9ae37d367759","1163","stimuli/1101010.jpg","1","","prediction_trial","1","","true","","1","false","true","true","true","false","true","[1]","101","010","1","","","","","","",""
"","","","","","image-keyboard-response","293","400834","0.0-268.0","59b941556495ef00019fbc80","665500ab8938657b03fbdba8","66579274e2ba9ae37d367759","528","stimuli/11010101.jpg"," ","","feedback_trial","1","","","","","","","","","","","","","","","","","","","","",""
"","","","","","image-keyboard-response","294","401773","0.0-269.0","59b941556495ef00019fbc80","665500ab8938657b03fbdba8","66579274e2ba9ae37d367759","937","stimuli/0000101.jpg","2","","prediction_trial","0","","false","","0","false","false","true","true","false","false","[0]","000","101","0","","","","","","",""
"","","","","","image-keyboard-response","295","402405","0.0-270.0","59b941556495ef00019fbc80","665500ab8938657b03fbdba8","66579274e2ba9ae37d367759","631","stimuli/00001010.jpg"," ","","feedback_trial","0","","","","","","","","","","","","","","","","","","","","",""
"","","","","","image-keyboard-response","296","403178","0.0-271.0","59b941556495ef00019fbc80","665500ab8938657b03fbdba8","66579274e2ba9ae37d367759","765","stimuli/1000011.jpg","2","","prediction_trial","1","","false","","1","false","false","true","true","false","false","[1]","000","011","0","","","","","","",""
"","","","","","image-keyboard-response","297","403882","0.0-272.0","59b941556495ef00019fbc80","665500ab8938657b03fbdba8","66579274e2ba9ae37d367759","702","stimuli/10000111.jpg"," ","","feedback_trial","1","","","","","","","","","","","","","","","","","","","","",""
"","","","","","image-keyboard-response","298","404558","0.0-273.0","59b941556495ef00019fbc80","665500ab8938657b03fbdba8","66579274e2ba9ae37d367759","674","stimuli/0010010.jpg","0","","prediction_trial","0","","true","","0","true","true","true","true","true","true","[0]","010","010","1","","","","","","",""
"","","","","","image-keyboard-response","299","404890","0.0-274.0","59b941556495ef00019fbc80","665500ab8938657b03fbdba8","66579274e2ba9ae37d367759","330","stimuli/00100100.jpg"," ","","feedback_trial","0","","","","","","","","","","","","","","","","","","","","",""
"","","","","","image-keyboard-response","300","406010","0.0-275.0","59b941556495ef00019fbc80","665500ab8938657b03fbdba8","66579274e2ba9ae37d367759","1118","stimuli/0101111.jpg","0","","prediction_trial","0","","true","","0","false","false","false","false","false","false","[2,0]","101","111","1","","","","","","",""
"","","","","","image-keyboard-response","301","406420","0.0-276.0","59b941556495ef00019fbc80","665500ab8938657b03fbdba8","66579274e2ba9ae37d367759","409","stimuli/01011110.jpg"," ","","feedback_trial","2","","","","","","","","","","","","","","","","","","","","",""
"","","","","","image-keyboard-response","302","407124","0.0-277.0","59b941556495ef00019fbc80","665500ab8938657b03fbdba8","66579274e2ba9ae37d367759","702","stimuli/0110010.jpg","0","","prediction_trial","1","","false","","0","true","true","false","false","false","false","[1,0]","110","010","0","","","","","","",""
"","","","","","image-keyboard-response","303","407623","0.0-278.0","59b941556495ef00019fbc80","665500ab8938657b03fbdba8","66579274e2ba9ae37d367759","497","stimuli/01100101.jpg"," ","","feedback_trial","1","","","","","","","","","","","","","","","","","","","","",""
"","","","","","image-keyboard-response","304","408690","0.0-279.0","59b941556495ef00019fbc80","665500ab8938657b03fbdba8","66579274e2ba9ae37d367759","1065","stimuli/2100011.jpg","2","","prediction_trial","2","","true","","2","false","false","true","true","false","false","[2]","100","011","1","","","","","","",""
"","","","","","image-keyboard-response","305","409113","0.0-280.0","59b941556495ef00019fbc80","665500ab8938657b03fbdba8","66579274e2ba9ae37d367759","420","stimuli/21000112.jpg"," ","","feedback_trial","2","","","","","","","","","","","","","","","","","","","","",""
"","","","","","image-keyboard-response","306","410610","0.0-281.0","59b941556495ef00019fbc80","665500ab8938657b03fbdba8","66579274e2ba9ae37d367759","1495","stimuli/2001011.jpg","2","","prediction_trial","2","","true","","2","false","false","false","true","false","false","[2]","001","011","1","","","","","","",""
"","","","","","image-keyboard-response","307","411131","0.0-282.0","59b941556495ef00019fbc80","665500ab8938657b03fbdba8","66579274e2ba9ae37d367759","520","stimuli/20010112.jpg"," ","","feedback_trial","2","","","","","","","","","","","","","","","","","","","","",""
"","","","","","image-keyboard-response","308","411822","0.0-283.0","59b941556495ef00019fbc80","665500ab8938657b03fbdba8","66579274e2ba9ae37d367759","689","stimuli/0010001.jpg","0","","prediction_trial","0","","true","","0","true","true","true","true","true","true","[0]","010","001","1","","","","","","",""
"","","","","","image-keyboard-response","309","412227","0.0-284.0","59b941556495ef00019fbc80","665500ab8938657b03fbdba8","66579274e2ba9ae37d367759","404","stimuli/00100010.jpg"," ","","feedback_trial","0","","","","","","","","","","","","","","","","","","","","",""
"","","","","","image-keyboard-response","310","412765","0.0-285.0","59b941556495ef00019fbc80","665500ab8938657b03fbdba8","66579274e2ba9ae37d367759","536","stimuli/0101001.jpg","0","","prediction_trial","2","","false","","0","true","true","false","false","false","false","[2,0]","101","001","0","","","","","","",""
"","","","","","image-keyboard-response","311","413388","0.0-286.0","59b941556495ef00019fbc80","665500ab8938657b03fbdba8","66579274e2ba9ae37d367759","622","stimuli/01010012.jpg"," ","","feedback_trial","2","","","","","","","","","","","","","","","","","","","","",""
"","","","","","image-keyboard-response","312","414215","0.0-287.0","59b941556495ef00019fbc80","665500ab8938657b03fbdba8","66579274e2ba9ae37d367759","825","stimuli/1101101.jpg","1","","prediction_trial","1","","true","","1","true","true","true","true","true","true","[1]","101","101","1","","","","","","",""
"","","","","","image-keyboard-response","313","414644","0.0-288.0","59b941556495ef00019fbc80","665500ab8938657b03fbdba8","66579274e2ba9ae37d367759","427","stimuli/11011011.jpg"," ","","feedback_trial","1","","","","","","","","","","","","","","","","","","","","",""
"","","","","","image-keyboard-response","314","415494","0.0-289.0","59b941556495ef00019fbc80","665500ab8938657b03fbdba8","66579274e2ba9ae37d367759","845","stimuli/2111111.jpg","2","","prediction_trial","1","","false","","2","false","false","false","false","false","false","[2,1,0]","111","111","0","","","","","","",""
"","","","","","image-keyboard-response","315","415990","0.0-290.0","59b941556495ef00019fbc80","665500ab8938657b03fbdba8","66579274e2ba9ae37d367759","494","stimuli/21111111.jpg"," ","","feedback_trial","2","","","","","","","","","","","","","","","","","","","","",""
"","","","","","image-keyboard-response","316","416743","0.0-291.0","59b941556495ef00019fbc80","665500ab8938657b03fbdba8","66579274e2ba9ae37d367759","751","stimuli/1101111.jpg","0","","prediction_trial","1","","false","","1","false","false","true","true","false","false","[1]","101","111","0","","","","","","",""
"","","","","","image-keyboard-response","317","417322","0.0-292.0","59b941556495ef00019fbc80","665500ab8938657b03fbdba8","66579274e2ba9ae37d367759","577","stimuli/11011111.jpg"," ","","feedback_trial","1","","","","","","","","","","","","","","","","","","","","",""
"","","","","","survey-html-form","318","437076","0.0-293.0","59b941556495ef00019fbc80","665500ab8938657b03fbdba8","66579274e2ba9ae37d367759","19752","","{""feedback"":""merely guessing"",""age"":""59"",""gender"":""Female"",""other_gender"":"""",""race"":""American Indian/Alaska Native"",""other_race"":"""",""ethnicity"":""Non-Hispanic""}","","exit_survey","","","","","","","","","","","","","","","","merely guessing","59","Non-Hispanic","Female","American Indian/Alaska Native","0.6041666666666666","0.6041666666666666"
