"success","timeout","failed_images","failed_audio","failed_video","trial_type","trial_index","time_elapsed","internal_node_id","prolific_id","prolific_study_id","prolific_session_id","rt","stimulus","response","view_history","trial","character_choice","stimulus_dict","accuracy","correct_response","ball_pos","ego_ball_visible","ego_can_infer","alter_ball_visible","alter_can_infer","collective_ball_visible","collective_can_infer","search_locations","alter_occluders","ego_occluders","accuracy_bool","feedback","age","ethnicity","gender","race","overall_accuracy","bonus"
"true","false","[]","[]","[]","preload","0","1452","0.0-0.0","559c3ae1fdf99b32b55f2d33","665500ab8938657b03fbdba8","6657925e5b6c4b9ca0995815","","","","","","","","","","","","","","","","","","","","","","","","","","",""
"true","","","","","fullscreen","1","7207","0.0-1.0","559c3ae1fdf99b32b55f2d33","665500ab8938657b03fbdba8","6657925e5b6c4b9ca0995815","","","","","","","","","","","","","","","","","","","","","","","","","","",""
"","","","","","html-button-response","2","37655","0.0-2.0","559c3ae1fdf99b32b55f2d33","665500ab8938657b03fbdba8","6657925e5b6c4b9ca0995815","30448","<p><b>Consent Form</b></p> <div style=""text-align:left;background-color:lightgrey; padding:20px; max-width:900px;""><p>Please consider this information carefully before deciding whether to participate in this research.</p> <p>The purpose of this research is to examine which factors influence social judgment and decision-making. You will be asked to make judgements about individuals and actions in social scenarios. We are simply interested in your judgement. The study will take less than 1 hour to complete, and you will receive less than $20 on Prolific. Your compensation and time commitment are specified in the study description. There are no anticipated risks associated with participating in this study. The effects of participating should be comparable to those you would ordinarily experience from viewing a computer monitor and using a mouse or keyboard for a similar amount of time. At the end of the study, we will provide an explanation of the questions that motivate this line of research and will describe the potential implications. </p><p> Your participation in this study is completely voluntary and you may refuse to participate or you may choose to withdraw at any time without penalty or loss of benefits to you which are otherwise entitled. Your participation in this study will remain confidential. No personally identifiable information will be associated with your data. Also, all analyses of the data will be averaged across all the participants, so your individual responses will never be specifically analyzed. </p><p> If you have questions or concerns about your participation or payment, or want to request a summary of research findings, please contact Dr. Jonathan Phillips at Jonathan.S.Phillips@dartmouth.edu. </p><p> Please save a copy of this form for your records. </p><p><b>Agreement: </b>The nature and purpose of this research have been sufficiently explained and I agree to participate in this study. I understand that I am free to withdraw at any time without incurring any penalty. Please consent by clicking the button below to continue. Otherwise, please exit the study at any time. </p>","0","","","","","","","","","","","","","","","","","","","","","","","",""
"","","","","","instructions","3","108559","0.0-3.0-0.0","559c3ae1fdf99b32b55f2d33","665500ab8938657b03fbdba8","6657925e5b6c4b9ca0995815","70903","","","[{""page_index"":0,""viewing_time"":2674},{""page_index"":1,""viewing_time"":2667},{""page_index"":2,""viewing_time"":3827},{""page_index"":3,""viewing_time"":6382},{""page_index"":4,""viewing_time"":6720},{""page_index"":5,""viewing_time"":4689},{""page_index"":6,""viewing_time"":3604},{""page_index"":7,""viewing_time"":5252},{""page_index"":8,""viewing_time"":3429},{""page_index"":9,""viewing_time"":3406},{""page_index"":10,""viewing_time"":10287},{""page_index"":11,""viewing_time"":9559},{""page_index"":12,""viewing_time"":7331},{""page_index"":13,""viewing_time"":1077}]","intro","","","","","","","","","","","","","","","","","","","","","",""
"","","","","","image-keyboard-response","4","110604","0.0-3.0-1.0","559c3ae1fdf99b32b55f2d33","665500ab8938657b03fbdba8","6657925e5b6c4b9ca0995815","2043","stimuli/1001011.jpg","1","","prediction_practice","1","{""filepath"":""stimuli/1001011.jpg"",""ball_pos"":1,""ego_ball_visible"":false,""ego_can_infer"":false,""alter_ball_visible"":true,""alter_can_infer"":true,""collective_ball_visible"":false,""collective_can_infer"":false,""search_locations"":[1],""alter_occluders"":""001"",""ego_occluders"":""011""}","true","","","","","","","","","","","","","","","","","","",""
"","","","","","image-keyboard-response","5","111918","0.0-3.0-2.0","559c3ae1fdf99b32b55f2d33","665500ab8938657b03fbdba8","6657925e5b6c4b9ca0995815","1313","stimuli/10010111.jpg"," ","","practrice_feedback","1","","","","","","","","","","","","","","","","","","","","",""
"","","","","","image-keyboard-response","6","113718","0.0-3.0-3.0","559c3ae1fdf99b32b55f2d33","665500ab8938657b03fbdba8","6657925e5b6c4b9ca0995815","1800","stimuli/0001100.jpg","0","","prediction_practice","0","{""filepath"":""stimuli/0001100.jpg"",""ball_pos"":0,""ego_ball_visible"":false,""ego_can_infer"":true,""alter_ball_visible"":true,""alter_can_infer"":true,""collective_ball_visible"":false,""collective_can_infer"":true,""search_locations"":[0],""alter_occluders"":""001"",""ego_occluders"":""100""}","true","","","","","","","","","","","","","","","","","","",""
"","","","","","image-keyboard-response","7","114375","0.0-3.0-4.0","559c3ae1fdf99b32b55f2d33","665500ab8938657b03fbdba8","6657925e5b6c4b9ca0995815","657","stimuli/00011000.jpg"," ","","practrice_feedback","0","","","","","","","","","","","","","","","","","","","","",""
"","","","","","image-keyboard-response","8","115690","0.0-3.0-5.0","559c3ae1fdf99b32b55f2d33","665500ab8938657b03fbdba8","6657925e5b6c4b9ca0995815","1315","stimuli/1101010.jpg","1","","prediction_practice","1","{""filepath"":""stimuli/1101010.jpg"",""ball_pos"":1,""ego_ball_visible"":false,""ego_can_infer"":true,""alter_ball_visible"":true,""alter_can_infer"":true,""collective_ball_visible"":false,""collective_can_infer"":true,""search_locations"":[1],""alter_occluders"":""101"",""ego_occluders"":""010""}","true","","","","","","","","","","","","","","","","","","",""
"","","","","","image-keyboard-response","9","116792","0.0-3.0-6.0","559c3ae1fdf99b32b55f2d33","665500ab8938657b03fbdba8","6657925e5b6c4b9ca0995815","1101","stimuli/11010101.jpg"," ","","practrice_feedback","1","","","","","","","","","","","","","","","","","","","","",""
"","","","","","image-keyboard-response","10","119401","0.0-3.0-7.0","559c3ae1fdf99b32b55f2d33","665500ab8938657b03fbdba8","6657925e5b6c4b9ca0995815","2609","stimuli/0010000.jpg","0","","prediction_practice","0","{""filepath"":""stimuli/0010000.jpg"",""ball_pos"":0,""ego_ball_visible"":true,""ego_can_infer"":true,""alter_ball_visible"":true,""alter_can_infer"":true,""collective_ball_visible"":true,""collective_can_infer"":true,""search_locations"":[0],""alter_occluders"":""010"",""ego_occluders"":""000""}","true","","","","","","","","","","","","","","","","","","",""
"","","","","","image-keyboard-response","11","120326","0.0-3.0-8.0","559c3ae1fdf99b32b55f2d33","665500ab8938657b03fbdba8","6657925e5b6c4b9ca0995815","924","stimuli/00100000.jpg"," ","","practrice_feedback","0","","","","","","","","","","","","","","","","","","","","",""
"","","","","","image-keyboard-response","12","121638","0.0-3.0-9.0","559c3ae1fdf99b32b55f2d33","665500ab8938657b03fbdba8","6657925e5b6c4b9ca0995815","1311","stimuli/1100011.jpg","1","","prediction_practice","1","{""filepath"":""stimuli/1100011.jpg"",""ball_pos"":1,""ego_ball_visible"":false,""ego_can_infer"":false,""alter_ball_visible"":true,""alter_can_infer"":true,""collective_ball_visible"":false,""collective_can_infer"":false,""search_locations"":[1],""alter_occluders"":""100"",""ego_occluders"":""011""}","true","","","","","","","","","","","","","","","","","","",""
"","","","","","image-keyboard-response","13","122608","0.0-3.0-10.0","559c3ae1fdf99b32b55f2d33","665500ab8938657b03fbdba8","6657925e5b6c4b9ca0995815","970","stimuli/11000111.jpg"," ","","practrice_feedback","1","","","","","","","","","","","","","","","","","","","","",""
"","","","","","image-keyboard-response","14","124980","0.0-3.0-11.0","559c3ae1fdf99b32b55f2d33","665500ab8938657b03fbdba8","6657925e5b6c4b9ca0995815","2371","stimuli/2101100.jpg","2","","prediction_practice","2","{""filepath"":""stimuli/2101100.jpg"",""ball_pos"":2,""ego_ball_visible"":true,""ego_can_infer"":true,""alter_ball_visible"":false,""alter_can_infer"":false,""collective_ball_visible"":false,""collective_can_infer"":false,""search_locations"":[0,2],""alter_occluders"":""101"",""ego_occluders"":""100""}","true","","","","","","","","","","","","","","","","","","",""
"","","","","","image-keyboard-response","15","125792","0.0-3.0-12.0","559c3ae1fdf99b32b55f2d33","665500ab8938657b03fbdba8","6657925e5b6c4b9ca0995815","812","stimuli/21011002.jpg"," ","","practrice_feedback","0","","","","","","","","","","","","","","","","","","","","",""
"","","","","","image-keyboard-response","16","128522","0.0-3.0-13.0","559c3ae1fdf99b32b55f2d33","665500ab8938657b03fbdba8","6657925e5b6c4b9ca0995815","2729","stimuli/1010101.jpg","1","","prediction_practice","1","{""filepath"":""stimuli/1010101.jpg"",""ball_pos"":1,""ego_ball_visible"":true,""ego_can_infer"":true,""alter_ball_visible"":false,""alter_can_infer"":true,""collective_ball_visible"":false,""collective_can_infer"":true,""search_locations"":[1],""alter_occluders"":""010"",""ego_occluders"":""101""}","true","","","","","","","","","","","","","","","","","","",""
"","","","","","image-keyboard-response","17","129188","0.0-3.0-14.0","559c3ae1fdf99b32b55f2d33","665500ab8938657b03fbdba8","6657925e5b6c4b9ca0995815","666","stimuli/10101011.jpg"," ","","practrice_feedback","1","","","","","","","","","","","","","","","","","","","","",""
"","","","","","image-keyboard-response","18","130273","0.0-3.0-15.0","559c3ae1fdf99b32b55f2d33","665500ab8938657b03fbdba8","6657925e5b6c4b9ca0995815","1084","stimuli/1010010.jpg","1","","prediction_practice","1","{""filepath"":""stimuli/1010010.jpg"",""ball_pos"":1,""ego_ball_visible"":false,""ego_can_infer"":true,""alter_ball_visible"":false,""alter_can_infer"":true,""collective_ball_visible"":false,""collective_can_infer"":true,""search_locations"":[1],""alter_occluders"":""010"",""ego_occluders"":""010""}","true","","","","","","","","","","","","","","","","","","",""
"","","","","","image-keyboard-response","19","130994","0.0-3.0-16.0","559c3ae1fdf99b32b55f2d33","665500ab8938657b03fbdba8","6657925e5b6c4b9ca0995815","720","stimuli/10100101.jpg"," ","","practrice_feedback","1","","","","","","","","","","","","","","","","","","","","",""
"","","","","","image-keyboard-response","20","132233","0.0-3.0-17.0","559c3ae1fdf99b32b55f2d33","665500ab8938657b03fbdba8","6657925e5b6c4b9ca0995815","1239","stimuli/1010000.jpg","1","","prediction_practice","1","{""filepath"":""stimuli/1010000.jpg"",""ball_pos"":1,""ego_ball_visible"":true,""ego_can_infer"":true,""alter_ball_visible"":false,""alter_can_infer"":true,""collective_ball_visible"":false,""collective_can_infer"":true,""search_locations"":[1],""alter_occluders"":""010"",""ego_occluders"":""000""}","true","","","","","","","","","","","","","","","","","","",""
"","","","","","image-keyboard-response","21","133021","0.0-3.0-18.0","559c3ae1fdf99b32b55f2d33","665500ab8938657b03fbdba8","6657925e5b6c4b9ca0995815","788","stimuli/10100001.jpg"," ","","practrice_feedback","1","","","","","","","","","","","","","","","","","","","","",""
"","","","","","image-keyboard-response","22","134271","0.0-3.0-19.0","559c3ae1fdf99b32b55f2d33","665500ab8938657b03fbdba8","6657925e5b6c4b9ca0995815","1250","stimuli/1000001.jpg","1","","prediction_practice","1","{""filepath"":""stimuli/1000001.jpg"",""ball_pos"":1,""ego_ball_visible"":true,""ego_can_infer"":true,""alter_ball_visible"":true,""alter_can_infer"":true,""collective_ball_visible"":true,""collective_can_infer"":true,""search_locations"":[1],""alter_occluders"":""000"",""ego_occluders"":""001""}","true","","","","","","","","","","","","","","","","","","",""
"","","","","","image-keyboard-response","23","134879","0.0-3.0-20.0","559c3ae1fdf99b32b55f2d33","665500ab8938657b03fbdba8","6657925e5b6c4b9ca0995815","608","stimuli/10000011.jpg"," ","","practrice_feedback","1","","","","","","","","","","","","","","","","","","","","",""
"","","","","","html-button-response","24","139257","0.0-3.0-21.0","559c3ae1fdf99b32b55f2d33","665500ab8938657b03fbdba8","6657925e5b6c4b9ca0995815","4377","Now that you've had some practice, you'll be tested with a couple of easy trials. If you correctly predict Sam's choice, you'll move on to complete the experiment!","0","","","","","","","","","","","","","","","","","","","","","","","",""
"","","","","","image-keyboard-response","25","141423","0.0-3.0-22.0-0.0","559c3ae1fdf99b32b55f2d33","665500ab8938657b03fbdba8","6657925e5b6c4b9ca0995815","2165","stimuli/0000011.jpg","arrowleft","","comprehension_quiz","","","true","arrowleft","","","","","","","","","","","","","","","","","",""
"","","","","","image-keyboard-response","26","142083","0.0-3.0-22.0-1.0","559c3ae1fdf99b32b55f2d33","665500ab8938657b03fbdba8","6657925e5b6c4b9ca0995815","660","stimuli/00000110.jpg"," ","","comprehension_quiz","","","true"," ","","","","","","","","","","","","","","","","","",""
"","","","","","image-keyboard-response","27","142853","0.0-3.0-22.0-2.0","559c3ae1fdf99b32b55f2d33","665500ab8938657b03fbdba8","6657925e5b6c4b9ca0995815","769","stimuli/1010010.jpg","arrowdown","","comprehension_quiz","","","true","arrowdown","","","","","","","","","","","","","","","","","",""
"","","","","","image-keyboard-response","28","143465","0.0-3.0-22.0-3.0","559c3ae1fdf99b32b55f2d33","665500ab8938657b03fbdba8","6657925e5b6c4b9ca0995815","612","stimuli/10100101.jpg"," ","","comprehension_quiz","","","true"," ","","","","","","","","","","","","","","","","","",""
"","","","","","html-button-response","29","145050","0.0-4.0","559c3ae1fdf99b32b55f2d33","665500ab8938657b03fbdba8","6657925e5b6c4b9ca0995815","1584","The experiment will now begin.","0","","","","","","","","","","","","","","","","","","","","","","","",""
"","","","","","image-keyboard-response","30","146592","0.0-5.0","559c3ae1fdf99b32b55f2d33","665500ab8938657b03fbdba8","6657925e5b6c4b9ca0995815","1541","stimuli/0111000.jpg","0","","prediction_trial","2","","false","","0","true","true","false","false","false","false","[2,1,0]","111","000","0","","","","","","",""
"","","","","","image-keyboard-response","31","149053","0.0-6.0","559c3ae1fdf99b32b55f2d33","665500ab8938657b03fbdba8","6657925e5b6c4b9ca0995815","2460","stimuli/01110002.jpg"," ","","feedback_trial","2","","","","","","","","","","","","","","","","","","","","",""
"","","","","","image-keyboard-response","32","150022","0.0-7.0","559c3ae1fdf99b32b55f2d33","665500ab8938657b03fbdba8","6657925e5b6c4b9ca0995815","969","stimuli/2111101.jpg","0","","prediction_trial","0","","true","","2","false","false","false","false","false","false","[1,0,2]","111","101","1","","","","","","",""
"","","","","","image-keyboard-response","33","150958","0.0-8.0","559c3ae1fdf99b32b55f2d33","665500ab8938657b03fbdba8","6657925e5b6c4b9ca0995815","936","stimuli/21111010.jpg"," ","","feedback_trial","1","","","","","","","","","","","","","","","","","","","","",""
"","","","","","image-keyboard-response","34","152153","0.0-9.0","559c3ae1fdf99b32b55f2d33","665500ab8938657b03fbdba8","6657925e5b6c4b9ca0995815","1194","stimuli/0001110.jpg","1","","prediction_trial","0","","false","","0","false","false","true","true","false","false","[0]","001","110","0","","","","","","",""
"","","","","","image-keyboard-response","35","153279","0.0-10.0","559c3ae1fdf99b32b55f2d33","665500ab8938657b03fbdba8","6657925e5b6c4b9ca0995815","1127","stimuli/00011100.jpg"," ","","feedback_trial","0","","","","","","","","","","","","","","","","","","","","",""
"","","","","","image-keyboard-response","36","154433","0.0-11.0","559c3ae1fdf99b32b55f2d33","665500ab8938657b03fbdba8","6657925e5b6c4b9ca0995815","1153","stimuli/1110011.jpg","1","","prediction_trial","0","","false","","1","false","false","false","false","false","false","[0,1]","110","011","0","","","","","","",""
"","","","","","image-keyboard-response","37","157117","0.0-12.0","559c3ae1fdf99b32b55f2d33","665500ab8938657b03fbdba8","6657925e5b6c4b9ca0995815","2684","stimuli/11100110.jpg"," ","","feedback_trial","0","","","","","","","","","","","","","","","","","","","","",""
"","","","","","image-keyboard-response","38","158464","0.0-13.0","559c3ae1fdf99b32b55f2d33","665500ab8938657b03fbdba8","6657925e5b6c4b9ca0995815","1346","stimuli/0101101.jpg","0","","prediction_trial","2","","false","","0","false","false","false","false","false","false","[0,2]","101","101","0","","","","","","",""
"","","","","","image-keyboard-response","39","160587","0.0-14.0","559c3ae1fdf99b32b55f2d33","665500ab8938657b03fbdba8","6657925e5b6c4b9ca0995815","2123","stimuli/01011012.jpg"," ","","feedback_trial","0","","","","","","","","","","","","","","","","","","","","",""
"","","","","","image-keyboard-response","40","163624","0.0-15.0","559c3ae1fdf99b32b55f2d33","665500ab8938657b03fbdba8","6657925e5b6c4b9ca0995815","3036","stimuli/1010111.jpg","1","","prediction_trial","1","","true","","1","false","false","false","true","false","false","[1]","010","111","1","","","","","","",""
"","","","","","image-keyboard-response","41","164225","0.0-16.0","559c3ae1fdf99b32b55f2d33","665500ab8938657b03fbdba8","6657925e5b6c4b9ca0995815","600","stimuli/10101111.jpg"," ","","feedback_trial","1","","","","","","","","","","","","","","","","","","","","",""
"","","","","","image-keyboard-response","42","165767","0.0-17.0","559c3ae1fdf99b32b55f2d33","665500ab8938657b03fbdba8","6657925e5b6c4b9ca0995815","1542","stimuli/0110010.jpg","0","","prediction_trial","0","","true","","0","true","true","false","false","false","false","[0,1]","110","010","1","","","","","","",""
"","","","","","image-keyboard-response","43","166329","0.0-18.0","559c3ae1fdf99b32b55f2d33","665500ab8938657b03fbdba8","6657925e5b6c4b9ca0995815","562","stimuli/01100100.jpg"," ","","feedback_trial","0","","","","","","","","","","","","","","","","","","","","",""
"","","","","","image-keyboard-response","44","167322","0.0-19.0","559c3ae1fdf99b32b55f2d33","665500ab8938657b03fbdba8","6657925e5b6c4b9ca0995815","993","stimuli/1000010.jpg","1","","prediction_trial","1","","true","","1","false","true","true","true","false","true","[1]","000","010","1","","","","","","",""
"","","","","","image-keyboard-response","45","167857","0.0-20.0","559c3ae1fdf99b32b55f2d33","665500ab8938657b03fbdba8","6657925e5b6c4b9ca0995815","534","stimuli/10000101.jpg"," ","","feedback_trial","1","","","","","","","","","","","","","","","","","","","","",""
"","","","","","image-keyboard-response","46","168652","0.0-21.0","559c3ae1fdf99b32b55f2d33","665500ab8938657b03fbdba8","6657925e5b6c4b9ca0995815","795","stimuli/1101001.jpg","1","","prediction_trial","1","","true","","1","true","true","true","true","true","true","[1]","101","001","1","","","","","","",""
"","","","","","image-keyboard-response","47","169108","0.0-22.0","559c3ae1fdf99b32b55f2d33","665500ab8938657b03fbdba8","6657925e5b6c4b9ca0995815","455","stimuli/11010011.jpg"," ","","feedback_trial","1","","","","","","","","","","","","","","","","","","","","",""
"","","","","","image-keyboard-response","48","169843","0.0-23.0","559c3ae1fdf99b32b55f2d33","665500ab8938657b03fbdba8","6657925e5b6c4b9ca0995815","735","stimuli/0110001.jpg","0","","prediction_trial","0","","true","","0","true","true","false","false","false","false","[0,1]","110","001","1","","","","","","",""
"","","","","","image-keyboard-response","49","170322","0.0-24.0","559c3ae1fdf99b32b55f2d33","665500ab8938657b03fbdba8","6657925e5b6c4b9ca0995815","479","stimuli/01100010.jpg"," ","","feedback_trial","0","","","","","","","","","","","","","","","","","","","","",""
"","","","","","image-keyboard-response","50","171061","0.0-25.0","559c3ae1fdf99b32b55f2d33","665500ab8938657b03fbdba8","6657925e5b6c4b9ca0995815","738","stimuli/1001001.jpg","1","","prediction_trial","1","","true","","1","true","true","true","true","true","true","[1]","001","001","1","","","","","","",""
"","","","","","image-keyboard-response","51","171482","0.0-26.0","559c3ae1fdf99b32b55f2d33","665500ab8938657b03fbdba8","6657925e5b6c4b9ca0995815","421","stimuli/10010011.jpg"," ","","feedback_trial","1","","","","","","","","","","","","","","","","","","","","",""
"","","","","","image-keyboard-response","52","172221","0.0-27.0","559c3ae1fdf99b32b55f2d33","665500ab8938657b03fbdba8","6657925e5b6c4b9ca0995815","738","stimuli/0010001.jpg","0","","prediction_trial","0","","true","","0","true","true","true","true","true","true","[0]","010","001","1","","","","","","",""
"","","","","","image-keyboard-response","53","172676","0.0-28.0","559c3ae1fdf99b32b55f2d33","665500ab8938657b03fbdba8","6657925e5b6c4b9ca0995815","455","stimuli/00100010.jpg"," ","","feedback_trial","0","","","","","","","","","","","","","","","","","","","","",""
"","","","","","image-keyboard-response","54","173405","0.0-29.0","559c3ae1fdf99b32b55f2d33","665500ab8938657b03fbdba8","6657925e5b6c4b9ca0995815","729","stimuli/0000000.jpg","0","","prediction_trial","0","","true","","0","true","true","true","true","true","true","[0]","000","000","1","","","","","","",""
"","","","","","image-keyboard-response","55","173782","0.0-30.0","559c3ae1fdf99b32b55f2d33","665500ab8938657b03fbdba8","6657925e5b6c4b9ca0995815","376","stimuli/00000000.jpg"," ","","feedback_trial","0","","","","","","","","","","","","","","","","","","","","",""
"","","","","","image-keyboard-response","56","174699","0.0-31.0","559c3ae1fdf99b32b55f2d33","665500ab8938657b03fbdba8","6657925e5b6c4b9ca0995815","917","stimuli/1110111.jpg","0","","prediction_trial","1","","false","","1","false","false","false","false","false","false","[1,0]","110","111","0","","","","","","",""
"","","","","","image-keyboard-response","57","176378","0.0-32.0","559c3ae1fdf99b32b55f2d33","665500ab8938657b03fbdba8","6657925e5b6c4b9ca0995815","1678","stimuli/11101111.jpg"," ","","feedback_trial","1","","","","","","","","","","","","","","","","","","","","",""
"","","","","","image-keyboard-response","58","177490","0.0-33.0","559c3ae1fdf99b32b55f2d33","665500ab8938657b03fbdba8","6657925e5b6c4b9ca0995815","1112","stimuli/2001011.jpg","2","","prediction_trial","2","","true","","2","false","false","false","true","false","false","[2]","001","011","1","","","","","","",""
"","","","","","image-keyboard-response","59","178308","0.0-34.0","559c3ae1fdf99b32b55f2d33","665500ab8938657b03fbdba8","6657925e5b6c4b9ca0995815","817","stimuli/20010112.jpg"," ","","feedback_trial","2","","","","","","","","","","","","","","","","","","","","",""
"","","","","","image-keyboard-response","60","181079","0.0-35.0","559c3ae1fdf99b32b55f2d33","665500ab8938657b03fbdba8","6657925e5b6c4b9ca0995815","2771","stimuli/1010110.jpg","1","","prediction_trial","1","","true","","1","false","false","false","true","false","false","[1]","010","110","1","","","","","","",""
"","","","","","image-keyboard-response","61","181590","0.0-36.0","559c3ae1fdf99b32b55f2d33","665500ab8938657b03fbdba8","6657925e5b6c4b9ca0995815","511","stimuli/10101101.jpg"," ","","feedback_trial","1","","","","","","","","","","","","","","","","","","","","",""
"","","","","","image-keyboard-response","62","183704","0.0-37.0","559c3ae1fdf99b32b55f2d33","665500ab8938657b03fbdba8","6657925e5b6c4b9ca0995815","2114","stimuli/1000111.jpg","2","","prediction_trial","1","","false","","1","false","false","true","true","false","false","[1]","000","111","0","","","","","","",""
"","","","","","image-keyboard-response","63","184476","0.0-38.0","559c3ae1fdf99b32b55f2d33","665500ab8938657b03fbdba8","6657925e5b6c4b9ca0995815","771","stimuli/10001111.jpg"," ","","feedback_trial","1","","","","","","","","","","","","","","","","","","","","",""
"","","","","","image-keyboard-response","64","187450","0.0-39.0","559c3ae1fdf99b32b55f2d33","665500ab8938657b03fbdba8","6657925e5b6c4b9ca0995815","2974","stimuli/2001101.jpg","0","","prediction_trial","2","","false","","2","false","false","false","true","false","false","[2]","001","101","0","","","","","","",""
"","","","","","image-keyboard-response","65","188202","0.0-40.0","559c3ae1fdf99b32b55f2d33","665500ab8938657b03fbdba8","6657925e5b6c4b9ca0995815","751","stimuli/20011012.jpg"," ","","feedback_trial","2","","","","","","","","","","","","","","","","","","","","",""
"","","","","","image-keyboard-response","66","189768","0.0-41.0","559c3ae1fdf99b32b55f2d33","665500ab8938657b03fbdba8","6657925e5b6c4b9ca0995815","1566","stimuli/1001101.jpg","1","","prediction_trial","1","","true","","1","true","true","true","true","true","true","[1]","001","101","1","","","","","","",""
"","","","","","image-keyboard-response","67","190211","0.0-42.0","559c3ae1fdf99b32b55f2d33","665500ab8938657b03fbdba8","6657925e5b6c4b9ca0995815","443","stimuli/10011011.jpg"," ","","feedback_trial","1","","","","","","","","","","","","","","","","","","","","",""
"","","","","","image-keyboard-response","68","191519","0.0-43.0","559c3ae1fdf99b32b55f2d33","665500ab8938657b03fbdba8","6657925e5b6c4b9ca0995815","1307","stimuli/2001100.jpg","2","","prediction_trial","2","","true","","2","true","true","false","true","false","true","[2]","001","100","1","","","","","","",""
"","","","","","image-keyboard-response","69","191987","0.0-44.0","559c3ae1fdf99b32b55f2d33","665500ab8938657b03fbdba8","6657925e5b6c4b9ca0995815","468","stimuli/20011002.jpg"," ","","feedback_trial","2","","","","","","","","","","","","","","","","","","","","",""
"","","","","","image-keyboard-response","70","193091","0.0-45.0","559c3ae1fdf99b32b55f2d33","665500ab8938657b03fbdba8","6657925e5b6c4b9ca0995815","1104","stimuli/2101001.jpg","2","","prediction_trial","0","","false","","2","false","true","false","false","false","false","[2,0]","101","001","0","","","","","","",""
"","","","","","image-keyboard-response","71","195045","0.0-46.0","559c3ae1fdf99b32b55f2d33","665500ab8938657b03fbdba8","6657925e5b6c4b9ca0995815","1953","stimuli/21010010.jpg"," ","","feedback_trial","2","","","","","","","","","","","","","","","","","","","","",""
"","","","","","image-keyboard-response","72","196845","0.0-47.0","559c3ae1fdf99b32b55f2d33","665500ab8938657b03fbdba8","6657925e5b6c4b9ca0995815","1800","stimuli/2011111.jpg","2","","prediction_trial","2","","true","","2","false","false","false","false","false","false","[1,2]","011","111","1","","","","","","",""
"","","","","","image-keyboard-response","73","197416","0.0-48.0","559c3ae1fdf99b32b55f2d33","665500ab8938657b03fbdba8","6657925e5b6c4b9ca0995815","571","stimuli/20111112.jpg"," ","","feedback_trial","1","","","","","","","","","","","","","","","","","","","","",""
"","","","","","image-keyboard-response","74","198569","0.0-49.0","559c3ae1fdf99b32b55f2d33","665500ab8938657b03fbdba8","6657925e5b6c4b9ca0995815","1153","stimuli/0001100.jpg","0","","prediction_trial","0","","true","","0","false","true","true","true","false","true","[0]","001","100","1","","","","","","",""
"","","","","","image-keyboard-response","75","199242","0.0-50.0","559c3ae1fdf99b32b55f2d33","665500ab8938657b03fbdba8","6657925e5b6c4b9ca0995815","672","stimuli/00011000.jpg"," ","","feedback_trial","0","","","","","","","","","","","","","","","","","","","","",""
"","","","","","image-keyboard-response","76","201644","0.0-51.0","559c3ae1fdf99b32b55f2d33","665500ab8938657b03fbdba8","6657925e5b6c4b9ca0995815","2402","stimuli/2000101.jpg","0","","prediction_trial","2","","false","","2","false","false","true","true","false","false","[2]","000","101","0","","","","","","",""
"","","","","","image-keyboard-response","77","202270","0.0-52.0","559c3ae1fdf99b32b55f2d33","665500ab8938657b03fbdba8","6657925e5b6c4b9ca0995815","625","stimuli/20001012.jpg"," ","","feedback_trial","2","","","","","","","","","","","","","","","","","","","","",""
"","","","","","image-keyboard-response","78","203713","0.0-53.0","559c3ae1fdf99b32b55f2d33","665500ab8938657b03fbdba8","6657925e5b6c4b9ca0995815","1442","stimuli/2001110.jpg","2","","prediction_trial","2","","true","","2","true","true","false","true","false","true","[2]","001","110","1","","","","","","",""
"","","","","","image-keyboard-response","79","204269","0.0-54.0","559c3ae1fdf99b32b55f2d33","665500ab8938657b03fbdba8","6657925e5b6c4b9ca0995815","555","stimuli/20011102.jpg"," ","","feedback_trial","2","","","","","","","","","","","","","","","","","","","","",""
"","","","","","image-keyboard-response","80","208131","0.0-55.0","559c3ae1fdf99b32b55f2d33","665500ab8938657b03fbdba8","6657925e5b6c4b9ca0995815","3862","stimuli/0100010.jpg","0","","prediction_trial","0","","true","","0","true","true","false","true","false","true","[0]","100","010","1","","","","","","",""
"","","","","","image-keyboard-response","81","208527","0.0-56.0","559c3ae1fdf99b32b55f2d33","665500ab8938657b03fbdba8","6657925e5b6c4b9ca0995815","396","stimuli/01000100.jpg"," ","","feedback_trial","0","","","","","","","","","","","","","","","","","","","","",""
"","","","","","image-keyboard-response","82","209797","0.0-57.0","559c3ae1fdf99b32b55f2d33","665500ab8938657b03fbdba8","6657925e5b6c4b9ca0995815","1269","stimuli/0110000.jpg","0","","prediction_trial","0","","true","","0","true","true","false","false","false","false","[0,1]","110","000","1","","","","","","",""
"","","","","","image-keyboard-response","83","210270","0.0-58.0","559c3ae1fdf99b32b55f2d33","665500ab8938657b03fbdba8","6657925e5b6c4b9ca0995815","473","stimuli/01100000.jpg"," ","","feedback_trial","0","","","","","","","","","","","","","","","","","","","","",""
"","","","","","image-keyboard-response","84","211225","0.0-59.0","559c3ae1fdf99b32b55f2d33","665500ab8938657b03fbdba8","6657925e5b6c4b9ca0995815","955","stimuli/2001001.jpg","2","","prediction_trial","2","","true","","2","false","true","false","true","false","true","[2]","001","001","1","","","","","","",""
"","","","","","image-keyboard-response","85","211658","0.0-60.0","559c3ae1fdf99b32b55f2d33","665500ab8938657b03fbdba8","6657925e5b6c4b9ca0995815","432","stimuli/20010012.jpg"," ","","feedback_trial","2","","","","","","","","","","","","","","","","","","","","",""
"","","","","","image-keyboard-response","86","212613","0.0-61.0","559c3ae1fdf99b32b55f2d33","665500ab8938657b03fbdba8","6657925e5b6c4b9ca0995815","955","stimuli/2000000.jpg","2","","prediction_trial","2","","true","","2","true","true","true","true","true","true","[2]","000","000","1","","","","","","",""
"","","","","","image-keyboard-response","87","212988","0.0-62.0","559c3ae1fdf99b32b55f2d33","665500ab8938657b03fbdba8","6657925e5b6c4b9ca0995815","374","stimuli/20000002.jpg"," ","","feedback_trial","2","","","","","","","","","","","","","","","","","","","","",""
"","","","","","image-keyboard-response","88","214414","0.0-63.0","559c3ae1fdf99b32b55f2d33","665500ab8938657b03fbdba8","6657925e5b6c4b9ca0995815","1426","stimuli/1011111.jpg","2","","prediction_trial","2","","true","","1","false","false","false","false","false","false","[2,1]","011","111","1","","","","","","",""
"","","","","","image-keyboard-response","89","215079","0.0-64.0","559c3ae1fdf99b32b55f2d33","665500ab8938657b03fbdba8","6657925e5b6c4b9ca0995815","665","stimuli/10111112.jpg"," ","","feedback_trial","2","","","","","","","","","","","","","","","","","","","","",""
"","","","","","image-keyboard-response","90","216301","0.0-65.0","559c3ae1fdf99b32b55f2d33","665500ab8938657b03fbdba8","6657925e5b6c4b9ca0995815","1222","stimuli/0010111.jpg","1","","prediction_trial","0","","false","","0","false","false","true","true","false","false","[0]","010","111","0","","","","","","",""
"","","","","","image-keyboard-response","91","216894","0.0-66.0","559c3ae1fdf99b32b55f2d33","665500ab8938657b03fbdba8","6657925e5b6c4b9ca0995815","593","stimuli/00101110.jpg"," ","","feedback_trial","0","","","","","","","","","","","","","","","","","","","","",""
"","","","","","image-keyboard-response","92","218660","0.0-67.0","559c3ae1fdf99b32b55f2d33","665500ab8938657b03fbdba8","6657925e5b6c4b9ca0995815","1765","stimuli/1101111.jpg","0","","prediction_trial","1","","false","","1","false","false","true","true","false","false","[1]","101","111","0","","","","","","",""
"","","","","","image-keyboard-response","93","219523","0.0-68.0","559c3ae1fdf99b32b55f2d33","665500ab8938657b03fbdba8","6657925e5b6c4b9ca0995815","863","stimuli/11011111.jpg"," ","","feedback_trial","1","","","","","","","","","","","","","","","","","","","","",""
"","","","","","image-keyboard-response","94","220279","0.0-69.0","559c3ae1fdf99b32b55f2d33","665500ab8938657b03fbdba8","6657925e5b6c4b9ca0995815","755","stimuli/2010100.jpg","2","","prediction_trial","2","","true","","2","true","true","true","true","true","true","[2]","010","100","1","","","","","","",""
"","","","","","image-keyboard-response","95","220639","0.0-70.0","559c3ae1fdf99b32b55f2d33","665500ab8938657b03fbdba8","6657925e5b6c4b9ca0995815","360","stimuli/20101002.jpg"," ","","feedback_trial","2","","","","","","","","","","","","","","","","","","","","",""
"","","","","","image-keyboard-response","96","221912","0.0-71.0","559c3ae1fdf99b32b55f2d33","665500ab8938657b03fbdba8","6657925e5b6c4b9ca0995815","1272","stimuli/0011111.jpg","2","","prediction_trial","0","","false","","0","false","false","true","true","false","false","[0]","011","111","0","","","","","","",""
"","","","","","image-keyboard-response","97","222968","0.0-72.0","559c3ae1fdf99b32b55f2d33","665500ab8938657b03fbdba8","6657925e5b6c4b9ca0995815","1056","stimuli/00111110.jpg"," ","","feedback_trial","0","","","","","","","","","","","","","","","","","","","","",""
"","","","","","image-keyboard-response","98","223758","0.0-73.0","559c3ae1fdf99b32b55f2d33","665500ab8938657b03fbdba8","6657925e5b6c4b9ca0995815","790","stimuli/0010000.jpg","0","","prediction_trial","0","","true","","0","true","true","true","true","true","true","[0]","010","000","1","","","","","","",""
"","","","","","image-keyboard-response","99","224269","0.0-74.0","559c3ae1fdf99b32b55f2d33","665500ab8938657b03fbdba8","6657925e5b6c4b9ca0995815","510","stimuli/00100000.jpg"," ","","feedback_trial","0","","","","","","","","","","","","","","","","","","","","",""
"","","","","","image-keyboard-response","100","224858","0.0-75.0","559c3ae1fdf99b32b55f2d33","665500ab8938657b03fbdba8","6657925e5b6c4b9ca0995815","589","stimuli/2101110.jpg","2","","prediction_trial","2","","true","","2","true","true","false","false","false","false","[0,2]","101","110","1","","","","","","",""
"","","","","","image-keyboard-response","101","225416","0.0-76.0","559c3ae1fdf99b32b55f2d33","665500ab8938657b03fbdba8","6657925e5b6c4b9ca0995815","558","stimuli/21011102.jpg"," ","","feedback_trial","0","","","","","","","","","","","","","","","","","","","","",""
"","","","","","image-keyboard-response","102","228854","0.0-77.0","559c3ae1fdf99b32b55f2d33","665500ab8938657b03fbdba8","6657925e5b6c4b9ca0995815","3437","stimuli/0001111.jpg","2","","prediction_trial","0","","false","","0","false","false","true","true","false","false","[0]","001","111","0","","","","","","",""
"","","","","","image-keyboard-response","103","229514","0.0-78.0","559c3ae1fdf99b32b55f2d33","665500ab8938657b03fbdba8","6657925e5b6c4b9ca0995815","660","stimuli/00011110.jpg"," ","","feedback_trial","0","","","","","","","","","","","","","","","","","","","","",""
"","","","","","image-keyboard-response","104","230657","0.0-79.0","559c3ae1fdf99b32b55f2d33","665500ab8938657b03fbdba8","6657925e5b6c4b9ca0995815","1142","stimuli/2111001.jpg","2","","prediction_trial","1","","false","","2","false","true","false","false","false","false","[2,0,1]","111","001","0","","","","","","",""
"","","","","","image-keyboard-response","105","231422","0.0-80.0","559c3ae1fdf99b32b55f2d33","665500ab8938657b03fbdba8","6657925e5b6c4b9ca0995815","765","stimuli/21110011.jpg"," ","","feedback_trial","2","","","","","","","","","","","","","","","","","","","","",""
"","","","","","image-keyboard-response","106","232221","0.0-81.0","559c3ae1fdf99b32b55f2d33","665500ab8938657b03fbdba8","6657925e5b6c4b9ca0995815","799","stimuli/0000010.jpg","0","","prediction_trial","0","","true","","0","true","true","true","true","true","true","[0]","000","010","1","","","","","","",""
"","","","","","image-keyboard-response","107","232651","0.0-82.0","559c3ae1fdf99b32b55f2d33","665500ab8938657b03fbdba8","6657925e5b6c4b9ca0995815","430","stimuli/00000100.jpg"," ","","feedback_trial","0","","","","","","","","","","","","","","","","","","","","",""
"","","","","","image-keyboard-response","108","235235","0.0-83.0","559c3ae1fdf99b32b55f2d33","665500ab8938657b03fbdba8","6657925e5b6c4b9ca0995815","2583","stimuli/2101011.jpg","2","","prediction_trial","0","","false","","2","false","false","false","false","false","false","[0,2]","101","011","0","","","","","","",""
"","","","","","image-keyboard-response","109","236903","0.0-84.0","559c3ae1fdf99b32b55f2d33","665500ab8938657b03fbdba8","6657925e5b6c4b9ca0995815","1668","stimuli/21010110.jpg"," ","","feedback_trial","0","","","","","","","","","","","","","","","","","","","","",""
"","","","","","image-keyboard-response","110","237705","0.0-85.0","559c3ae1fdf99b32b55f2d33","665500ab8938657b03fbdba8","6657925e5b6c4b9ca0995815","802","stimuli/1010001.jpg","1","","prediction_trial","1","","true","","1","true","true","false","true","false","true","[1]","010","001","1","","","","","","",""
"","","","","","image-keyboard-response","111","238176","0.0-86.0","559c3ae1fdf99b32b55f2d33","665500ab8938657b03fbdba8","6657925e5b6c4b9ca0995815","471","stimuli/10100011.jpg"," ","","feedback_trial","1","","","","","","","","","","","","","","","","","","","","",""
"","","","","","image-keyboard-response","112","239999","0.0-87.0","559c3ae1fdf99b32b55f2d33","665500ab8938657b03fbdba8","6657925e5b6c4b9ca0995815","1822","stimuli/1100111.jpg","0","","prediction_trial","1","","false","","1","false","false","true","true","false","false","[1]","100","111","0","","","","","","",""
"","","","","","image-keyboard-response","113","240645","0.0-88.0","559c3ae1fdf99b32b55f2d33","665500ab8938657b03fbdba8","6657925e5b6c4b9ca0995815","646","stimuli/11001111.jpg"," ","","feedback_trial","1","","","","","","","","","","","","","","","","","","","","",""
"","","","","","image-keyboard-response","114","241432","0.0-89.0","559c3ae1fdf99b32b55f2d33","665500ab8938657b03fbdba8","6657925e5b6c4b9ca0995815","787","stimuli/1011101.jpg","1","","prediction_trial","1","","true","","1","true","true","false","false","false","false","[2,1]","011","101","1","","","","","","",""
"","","","","","image-keyboard-response","115","241699","0.0-90.0","559c3ae1fdf99b32b55f2d33","665500ab8938657b03fbdba8","6657925e5b6c4b9ca0995815","266","stimuli/10111011.jpg"," ","","feedback_trial","2","","","","","","","","","","","","","","","","","","","","",""
"","","","","","image-keyboard-response","116","243075","0.0-91.0","559c3ae1fdf99b32b55f2d33","665500ab8938657b03fbdba8","6657925e5b6c4b9ca0995815","1376","stimuli/1001011.jpg","2","","prediction_trial","1","","false","","1","false","false","true","true","false","false","[1]","001","011","0","","","","","","",""
"","","","","","image-keyboard-response","117","243571","0.0-92.0","559c3ae1fdf99b32b55f2d33","665500ab8938657b03fbdba8","6657925e5b6c4b9ca0995815","495","stimuli/10010111.jpg"," ","","feedback_trial","1","","","","","","","","","","","","","","","","","","","","",""
"","","","","","image-keyboard-response","118","244635","0.0-93.0","559c3ae1fdf99b32b55f2d33","665500ab8938657b03fbdba8","6657925e5b6c4b9ca0995815","1063","stimuli/0100111.jpg","0","","prediction_trial","0","","true","","0","false","false","false","true","false","false","[0]","100","111","1","","","","","","",""
"","","","","","image-keyboard-response","119","245175","0.0-94.0","559c3ae1fdf99b32b55f2d33","665500ab8938657b03fbdba8","6657925e5b6c4b9ca0995815","539","stimuli/01001110.jpg"," ","","feedback_trial","0","","","","","","","","","","","","","","","","","","","","",""
"","","","","","image-keyboard-response","120","245785","0.0-95.0","559c3ae1fdf99b32b55f2d33","665500ab8938657b03fbdba8","6657925e5b6c4b9ca0995815","610","stimuli/1000001.jpg","1","","prediction_trial","1","","true","","1","true","true","true","true","true","true","[1]","000","001","1","","","","","","",""
"","","","","","image-keyboard-response","121","246239","0.0-96.0","559c3ae1fdf99b32b55f2d33","665500ab8938657b03fbdba8","6657925e5b6c4b9ca0995815","453","stimuli/10000011.jpg"," ","","feedback_trial","1","","","","","","","","","","","","","","","","","","","","",""
"","","","","","image-keyboard-response","122","247668","0.0-97.0","559c3ae1fdf99b32b55f2d33","665500ab8938657b03fbdba8","6657925e5b6c4b9ca0995815","1428","stimuli/1001111.jpg","2","","prediction_trial","1","","false","","1","false","false","true","true","false","false","[1]","001","111","0","","","","","","",""
"","","","","","image-keyboard-response","123","248435","0.0-98.0","559c3ae1fdf99b32b55f2d33","665500ab8938657b03fbdba8","6657925e5b6c4b9ca0995815","766","stimuli/10011111.jpg"," ","","feedback_trial","1","","","","","","","","","","","","","","","","","","","","",""
"","","","","","image-keyboard-response","124","249739","0.0-99.0","559c3ae1fdf99b32b55f2d33","665500ab8938657b03fbdba8","6657925e5b6c4b9ca0995815","1304","stimuli/2101101.jpg","0","","prediction_trial","2","","false","","2","false","false","false","false","false","false","[2,0]","101","101","0","","","","","","",""
"","","","","","image-keyboard-response","125","250329","0.0-100.0","559c3ae1fdf99b32b55f2d33","665500ab8938657b03fbdba8","6657925e5b6c4b9ca0995815","590","stimuli/21011012.jpg"," ","","feedback_trial","2","","","","","","","","","","","","","","","","","","","","",""
"","","","","","image-keyboard-response","126","252300","0.0-101.0","559c3ae1fdf99b32b55f2d33","665500ab8938657b03fbdba8","6657925e5b6c4b9ca0995815","1971","stimuli/2010111.jpg","1","","prediction_trial","2","","false","","2","false","false","true","true","false","false","[2]","010","111","0","","","","","","",""
"","","","","","image-keyboard-response","127","254895","0.0-102.0","559c3ae1fdf99b32b55f2d33","665500ab8938657b03fbdba8","6657925e5b6c4b9ca0995815","2594","stimuli/20101112.jpg"," ","","feedback_trial","2","","","","","","","","","","","","","","","","","","","","",""
"","","","","","image-keyboard-response","128","255805","0.0-103.0","559c3ae1fdf99b32b55f2d33","665500ab8938657b03fbdba8","6657925e5b6c4b9ca0995815","909","stimuli/0111100.jpg","0","","prediction_trial","0","","true","","0","false","true","false","false","false","false","[2,1,0]","111","100","1","","","","","","",""
"","","","","","image-keyboard-response","129","256269","0.0-104.0","559c3ae1fdf99b32b55f2d33","665500ab8938657b03fbdba8","6657925e5b6c4b9ca0995815","464","stimuli/01111000.jpg"," ","","feedback_trial","2","","","","","","","","","","","","","","","","","","","","",""
"","","","","","image-keyboard-response","130","257636","0.0-105.0","559c3ae1fdf99b32b55f2d33","665500ab8938657b03fbdba8","6657925e5b6c4b9ca0995815","1366","stimuli/1101010.jpg","1","","prediction_trial","1","","true","","1","false","true","true","true","false","true","[1]","101","010","1","","","","","","",""
"","","","","","image-keyboard-response","131","257957","0.0-106.0","559c3ae1fdf99b32b55f2d33","665500ab8938657b03fbdba8","6657925e5b6c4b9ca0995815","321","stimuli/11010101.jpg"," ","","feedback_trial","1","","","","","","","","","","","","","","","","","","","","",""
"","","","","","image-keyboard-response","132","259474","0.0-107.0","559c3ae1fdf99b32b55f2d33","665500ab8938657b03fbdba8","6657925e5b6c4b9ca0995815","1517","stimuli/1111001.jpg","1","","prediction_trial","0","","false","","1","true","true","false","false","false","false","[1,0,2]","111","001","0","","","","","","",""
"","","","","","image-keyboard-response","133","260071","0.0-108.0","559c3ae1fdf99b32b55f2d33","665500ab8938657b03fbdba8","6657925e5b6c4b9ca0995815","597","stimuli/11110010.jpg"," ","","feedback_trial","1","","","","","","","","","","","","","","","","","","","","",""
"","","","","","image-keyboard-response","134","262814","0.0-109.0","559c3ae1fdf99b32b55f2d33","665500ab8938657b03fbdba8","6657925e5b6c4b9ca0995815","2743","stimuli/2100111.jpg","0","","prediction_trial","2","","false","","2","false","false","true","true","false","false","[2]","100","111","0","","","","","","",""
"","","","","","image-keyboard-response","135","263507","0.0-110.0","559c3ae1fdf99b32b55f2d33","665500ab8938657b03fbdba8","6657925e5b6c4b9ca0995815","692","stimuli/21001112.jpg"," ","","feedback_trial","2","","","","","","","","","","","","","","","","","","","","",""
"","","","","","image-keyboard-response","136","264258","0.0-111.0","559c3ae1fdf99b32b55f2d33","665500ab8938657b03fbdba8","6657925e5b6c4b9ca0995815","751","stimuli/0001011.jpg","0","","prediction_trial","0","","true","","0","true","true","true","true","true","true","[0]","001","011","1","","","","","","",""
"","","","","","image-keyboard-response","137","264630","0.0-112.0","559c3ae1fdf99b32b55f2d33","665500ab8938657b03fbdba8","6657925e5b6c4b9ca0995815","371","stimuli/00010110.jpg"," ","","feedback_trial","0","","","","","","","","","","","","","","","","","","","","",""
"","","","","","image-keyboard-response","138","266827","0.0-113.0","559c3ae1fdf99b32b55f2d33","665500ab8938657b03fbdba8","6657925e5b6c4b9ca0995815","2197","stimuli/1000011.jpg","1","","prediction_trial","1","","true","","1","false","false","true","true","false","false","[1]","000","011","1","","","","","","",""
"","","","","","image-keyboard-response","139","267364","0.0-114.0","559c3ae1fdf99b32b55f2d33","665500ab8938657b03fbdba8","6657925e5b6c4b9ca0995815","536","stimuli/10000111.jpg"," ","","feedback_trial","1","","","","","","","","","","","","","","","","","","","","",""
"","","","","","image-keyboard-response","140","268772","0.0-115.0","559c3ae1fdf99b32b55f2d33","665500ab8938657b03fbdba8","6657925e5b6c4b9ca0995815","1407","stimuli/0101001.jpg","0","","prediction_trial","2","","false","","0","true","true","false","false","false","false","[2,0]","101","001","0","","","","","","",""
"","","","","","image-keyboard-response","141","269455","0.0-116.0","559c3ae1fdf99b32b55f2d33","665500ab8938657b03fbdba8","6657925e5b6c4b9ca0995815","682","stimuli/01010012.jpg"," ","","feedback_trial","2","","","","","","","","","","","","","","","","","","","","",""
"","","","","","image-keyboard-response","142","270461","0.0-117.0","559c3ae1fdf99b32b55f2d33","665500ab8938657b03fbdba8","6657925e5b6c4b9ca0995815","1005","stimuli/2000001.jpg","2","","prediction_trial","2","","true","","2","false","true","true","true","false","true","[2]","000","001","1","","","","","","",""
"","","","","","image-keyboard-response","143","270817","0.0-118.0","559c3ae1fdf99b32b55f2d33","665500ab8938657b03fbdba8","6657925e5b6c4b9ca0995815","356","stimuli/20000012.jpg"," ","","feedback_trial","2","","","","","","","","","","","","","","","","","","","","",""
"","","","","","image-keyboard-response","144","273605","0.0-119.0","559c3ae1fdf99b32b55f2d33","665500ab8938657b03fbdba8","6657925e5b6c4b9ca0995815","2788","stimuli/0101110.jpg","1","","prediction_trial","2","","false","","0","false","false","false","false","false","false","[2,0]","101","110","0","","","","","","",""
"","","","","","image-keyboard-response","145","274390","0.0-120.0","559c3ae1fdf99b32b55f2d33","665500ab8938657b03fbdba8","6657925e5b6c4b9ca0995815","784","stimuli/01011102.jpg"," ","","feedback_trial","2","","","","","","","","","","","","","","","","","","","","",""
"","","","","","image-keyboard-response","146","275291","0.0-121.0","559c3ae1fdf99b32b55f2d33","665500ab8938657b03fbdba8","6657925e5b6c4b9ca0995815","900","stimuli/2111110.jpg","2","","prediction_trial","1","","false","","2","true","true","false","false","false","false","[1,2,0]","111","110","0","","","","","","",""
"","","","","","image-keyboard-response","147","277467","0.0-122.0","559c3ae1fdf99b32b55f2d33","665500ab8938657b03fbdba8","6657925e5b6c4b9ca0995815","2176","stimuli/21111101.jpg"," ","","feedback_trial","1","","","","","","","","","","","","","","","","","","","","",""
"","","","","","image-keyboard-response","148","278127","0.0-123.0","559c3ae1fdf99b32b55f2d33","665500ab8938657b03fbdba8","6657925e5b6c4b9ca0995815","660","stimuli/2000110.jpg","2","","prediction_trial","2","","true","","2","true","true","true","true","true","true","[2]","000","110","1","","","","","","",""
"","","","","","image-keyboard-response","149","278509","0.0-124.0","559c3ae1fdf99b32b55f2d33","665500ab8938657b03fbdba8","6657925e5b6c4b9ca0995815","382","stimuli/20001102.jpg"," ","","feedback_trial","2","","","","","","","","","","","","","","","","","","","","",""
"","","","","","image-keyboard-response","150","279222","0.0-125.0","559c3ae1fdf99b32b55f2d33","665500ab8938657b03fbdba8","6657925e5b6c4b9ca0995815","712","stimuli/0000001.jpg","0","","prediction_trial","0","","true","","0","true","true","true","true","true","true","[0]","000","001","1","","","","","","",""
"","","","","","image-keyboard-response","151","279493","0.0-126.0","559c3ae1fdf99b32b55f2d33","665500ab8938657b03fbdba8","6657925e5b6c4b9ca0995815","271","stimuli/00000010.jpg"," ","","feedback_trial","0","","","","","","","","","","","","","","","","","","","","",""
"","","","","","image-keyboard-response","152","281102","0.0-127.0","559c3ae1fdf99b32b55f2d33","665500ab8938657b03fbdba8","6657925e5b6c4b9ca0995815","1609","stimuli/2111000.jpg","1","","prediction_trial","2","","false","","2","true","true","false","false","false","false","[0,1,2]","111","000","0","","","","","","",""
"","","","","","image-keyboard-response","153","281858","0.0-128.0","559c3ae1fdf99b32b55f2d33","665500ab8938657b03fbdba8","6657925e5b6c4b9ca0995815","755","stimuli/21110002.jpg"," ","","feedback_trial","0","","","","","","","","","","","","","","","","","","","","",""
"","","","","","image-keyboard-response","154","283219","0.0-129.0","559c3ae1fdf99b32b55f2d33","665500ab8938657b03fbdba8","6657925e5b6c4b9ca0995815","1360","stimuli/2011100.jpg","2","","prediction_trial","2","","true","","2","true","true","false","false","false","false","[2,1]","011","100","1","","","","","","",""
"","","","","","image-keyboard-response","155","283829","0.0-130.0","559c3ae1fdf99b32b55f2d33","665500ab8938657b03fbdba8","6657925e5b6c4b9ca0995815","610","stimuli/20111002.jpg"," ","","feedback_trial","2","","","","","","","","","","","","","","","","","","","","",""
"","","","","","image-keyboard-response","156","285569","0.0-131.0","559c3ae1fdf99b32b55f2d33","665500ab8938657b03fbdba8","6657925e5b6c4b9ca0995815","1739","stimuli/1111101.jpg","2","","prediction_trial","2","","true","","1","true","true","false","false","false","false","[1,2,0]","111","101","1","","","","","","",""
"","","","","","image-keyboard-response","157","286199","0.0-132.0","559c3ae1fdf99b32b55f2d33","665500ab8938657b03fbdba8","6657925e5b6c4b9ca0995815","629","stimuli/11111012.jpg"," ","","feedback_trial","1","","","","","","","","","","","","","","","","","","","","",""
"","","","","","image-keyboard-response","158","288699","0.0-133.0","559c3ae1fdf99b32b55f2d33","665500ab8938657b03fbdba8","6657925e5b6c4b9ca0995815","2500","stimuli/1100110.jpg","0","","prediction_trial","1","","false","","1","false","false","true","true","false","false","[1]","100","110","0","","","","","","",""
"","","","","","image-keyboard-response","159","289294","0.0-134.0","559c3ae1fdf99b32b55f2d33","665500ab8938657b03fbdba8","6657925e5b6c4b9ca0995815","594","stimuli/11001101.jpg"," ","","feedback_trial","1","","","","","","","","","","","","","","","","","","","","",""
"","","","","","image-keyboard-response","160","290256","0.0-135.0","559c3ae1fdf99b32b55f2d33","665500ab8938657b03fbdba8","6657925e5b6c4b9ca0995815","962","stimuli/1011011.jpg","2","","prediction_trial","2","","true","","1","false","false","false","false","false","false","[1,2]","011","011","1","","","","","","",""
"","","","","","image-keyboard-response","161","290807","0.0-136.0","559c3ae1fdf99b32b55f2d33","665500ab8938657b03fbdba8","6657925e5b6c4b9ca0995815","551","stimuli/10110112.jpg"," ","","feedback_trial","1","","","","","","","","","","","","","","","","","","","","",""
"","","","","","image-keyboard-response","162","292581","0.0-137.0","559c3ae1fdf99b32b55f2d33","665500ab8938657b03fbdba8","6657925e5b6c4b9ca0995815","1773","stimuli/0010101.jpg","2","","prediction_trial","0","","false","","0","false","false","true","true","false","false","[0]","010","101","0","","","","","","",""
"","","","","","image-keyboard-response","163","293114","0.0-138.0","559c3ae1fdf99b32b55f2d33","665500ab8938657b03fbdba8","6657925e5b6c4b9ca0995815","532","stimuli/00101010.jpg"," ","","feedback_trial","0","","","","","","","","","","","","","","","","","","","","",""
"","","","","","image-keyboard-response","164","294692","0.0-139.0","559c3ae1fdf99b32b55f2d33","665500ab8938657b03fbdba8","6657925e5b6c4b9ca0995815","1577","stimuli/0101100.jpg","2","","prediction_trial","2","","true","","0","false","true","false","false","false","false","[0,2]","101","100","1","","","","","","",""
"","","","","","image-keyboard-response","165","295304","0.0-140.0","559c3ae1fdf99b32b55f2d33","665500ab8938657b03fbdba8","6657925e5b6c4b9ca0995815","612","stimuli/01011002.jpg"," ","","feedback_trial","0","","","","","","","","","","","","","","","","","","","","",""
"","","","","","image-keyboard-response","166","296365","0.0-141.0","559c3ae1fdf99b32b55f2d33","665500ab8938657b03fbdba8","6657925e5b6c4b9ca0995815","1061","stimuli/0101010.jpg","0","","prediction_trial","0","","true","","0","true","true","false","false","false","false","[0,2]","101","010","1","","","","","","",""
"","","","","","image-keyboard-response","167","296901","0.0-142.0","559c3ae1fdf99b32b55f2d33","665500ab8938657b03fbdba8","6657925e5b6c4b9ca0995815","535","stimuli/01010100.jpg"," ","","feedback_trial","0","","","","","","","","","","","","","","","","","","","","",""
"","","","","","image-keyboard-response","168","297559","0.0-143.0","559c3ae1fdf99b32b55f2d33","665500ab8938657b03fbdba8","6657925e5b6c4b9ca0995815","658","stimuli/2010000.jpg","2","","prediction_trial","2","","true","","2","true","true","true","true","true","true","[2]","010","000","1","","","","","","",""
"","","","","","image-keyboard-response","169","298046","0.0-144.0","559c3ae1fdf99b32b55f2d33","665500ab8938657b03fbdba8","6657925e5b6c4b9ca0995815","487","stimuli/20100002.jpg"," ","","feedback_trial","2","","","","","","","","","","","","","","","","","","","","",""
"","","","","","image-keyboard-response","170","298640","0.0-145.0","559c3ae1fdf99b32b55f2d33","665500ab8938657b03fbdba8","6657925e5b6c4b9ca0995815","594","stimuli/2001000.jpg","2","","prediction_trial","2","","true","","2","true","true","false","true","false","true","[2]","001","000","1","","","","","","",""
"","","","","","image-keyboard-response","171","299154","0.0-146.0","559c3ae1fdf99b32b55f2d33","665500ab8938657b03fbdba8","6657925e5b6c4b9ca0995815","514","stimuli/20010002.jpg"," ","","feedback_trial","2","","","","","","","","","","","","","","","","","","","","",""
"","","","","","image-keyboard-response","172","299994","0.0-147.0","559c3ae1fdf99b32b55f2d33","665500ab8938657b03fbdba8","6657925e5b6c4b9ca0995815","839","stimuli/1000101.jpg","1","","prediction_trial","1","","true","","1","true","true","true","true","true","true","[1]","000","101","1","","","","","","",""
"","","","","","image-keyboard-response","173","300386","0.0-148.0","559c3ae1fdf99b32b55f2d33","665500ab8938657b03fbdba8","6657925e5b6c4b9ca0995815","392","stimuli/10001011.jpg"," ","","feedback_trial","1","","","","","","","","","","","","","","","","","","","","",""
"","","","","","image-keyboard-response","174","301812","0.0-149.0","559c3ae1fdf99b32b55f2d33","665500ab8938657b03fbdba8","6657925e5b6c4b9ca0995815","1426","stimuli/0101000.jpg","2","","prediction_trial","0","","false","","0","true","true","false","false","false","false","[2,0]","101","000","0","","","","","","",""
"","","","","","image-keyboard-response","175","302715","0.0-150.0","559c3ae1fdf99b32b55f2d33","665500ab8938657b03fbdba8","6657925e5b6c4b9ca0995815","903","stimuli/01010000.jpg"," ","","feedback_trial","2","","","","","","","","","","","","","","","","","","","","",""
"","","","","","image-keyboard-response","176","304298","0.0-151.0","559c3ae1fdf99b32b55f2d33","665500ab8938657b03fbdba8","6657925e5b6c4b9ca0995815","1583","stimuli/1111011.jpg","2","","prediction_trial","0","","false","","1","false","false","false","false","false","false","[1,0,2]","111","011","0","","","","","","",""
"","","","","","image-keyboard-response","177","305252","0.0-152.0","559c3ae1fdf99b32b55f2d33","665500ab8938657b03fbdba8","6657925e5b6c4b9ca0995815","951","stimuli/11110110.jpg"," ","","feedback_trial","1","","","","","","","","","","","","","","","","","","","","",""
"","","","","","image-keyboard-response","178","307906","0.0-153.0","559c3ae1fdf99b32b55f2d33","665500ab8938657b03fbdba8","6657925e5b6c4b9ca0995815","2653","stimuli/1011000.jpg","2","","prediction_trial","2","","true","","1","true","true","false","false","false","false","[2,1]","011","000","1","","","","","","",""
"","","","","","image-keyboard-response","179","308531","0.0-154.0","559c3ae1fdf99b32b55f2d33","665500ab8938657b03fbdba8","6657925e5b6c4b9ca0995815","625","stimuli/10110002.jpg"," ","","feedback_trial","2","","","","","","","","","","","","","","","","","","","","",""
"","","","","","image-keyboard-response","180","309349","0.0-155.0","559c3ae1fdf99b32b55f2d33","665500ab8938657b03fbdba8","6657925e5b6c4b9ca0995815","817","stimuli/0011010.jpg","0","","prediction_trial","0","","true","","0","true","true","true","true","true","true","[0]","011","010","1","","","","","","",""
"","","","","","image-keyboard-response","181","309728","0.0-156.0","559c3ae1fdf99b32b55f2d33","665500ab8938657b03fbdba8","6657925e5b6c4b9ca0995815","379","stimuli/00110100.jpg"," ","","feedback_trial","0","","","","","","","","","","","","","","","","","","","","",""
"","","","","","image-keyboard-response","182","310563","0.0-157.0","559c3ae1fdf99b32b55f2d33","665500ab8938657b03fbdba8","6657925e5b6c4b9ca0995815","835","stimuli/0011100.jpg","0","","prediction_trial","0","","true","","0","false","true","true","true","false","true","[0]","011","100","1","","","","","","",""
"","","","","","image-keyboard-response","183","310839","0.0-158.0","559c3ae1fdf99b32b55f2d33","665500ab8938657b03fbdba8","6657925e5b6c4b9ca0995815","275","stimuli/00111000.jpg"," ","","feedback_trial","0","","","","","","","","","","","","","","","","","","","","",""
"","","","","","image-keyboard-response","184","311479","0.0-159.0","559c3ae1fdf99b32b55f2d33","665500ab8938657b03fbdba8","6657925e5b6c4b9ca0995815","639","stimuli/2100010.jpg","2","","prediction_trial","2","","true","","2","true","true","true","true","true","true","[2]","100","010","1","","","","","","",""
"","","","","","image-keyboard-response","185","311762","0.0-160.0","559c3ae1fdf99b32b55f2d33","665500ab8938657b03fbdba8","6657925e5b6c4b9ca0995815","283","stimuli/21000102.jpg"," ","","feedback_trial","2","","","","","","","","","","","","","","","","","","","","",""
"","","","","","image-keyboard-response","186","312417","0.0-161.0","559c3ae1fdf99b32b55f2d33","665500ab8938657b03fbdba8","6657925e5b6c4b9ca0995815","654","stimuli/1001000.jpg","1","","prediction_trial","1","","true","","1","true","true","true","true","true","true","[1]","001","000","1","","","","","","",""
"","","","","","image-keyboard-response","187","312688","0.0-162.0","559c3ae1fdf99b32b55f2d33","665500ab8938657b03fbdba8","6657925e5b6c4b9ca0995815","271","stimuli/10010001.jpg"," ","","feedback_trial","1","","","","","","","","","","","","","","","","","","","","",""
"","","","","","image-keyboard-response","188","314817","0.0-163.0","559c3ae1fdf99b32b55f2d33","665500ab8938657b03fbdba8","6657925e5b6c4b9ca0995815","2128","stimuli/0011110.jpg","2","","prediction_trial","0","","false","","0","false","false","true","true","false","false","[0]","011","110","0","","","","","","",""
"","","","","","image-keyboard-response","189","315941","0.0-164.0","559c3ae1fdf99b32b55f2d33","665500ab8938657b03fbdba8","6657925e5b6c4b9ca0995815","1123","stimuli/00111100.jpg"," ","","feedback_trial","0","","","","","","","","","","","","","","","","","","","","",""
"","","","","","image-keyboard-response","190","317517","0.0-165.0","559c3ae1fdf99b32b55f2d33","665500ab8938657b03fbdba8","6657925e5b6c4b9ca0995815","1576","stimuli/2000011.jpg","1","","prediction_trial","2","","false","","2","false","false","true","true","false","false","[2]","000","011","0","","","","","","",""
"","","","","","image-keyboard-response","191","318213","0.0-166.0","559c3ae1fdf99b32b55f2d33","665500ab8938657b03fbdba8","6657925e5b6c4b9ca0995815","695","stimuli/20000112.jpg"," ","","feedback_trial","2","","","","","","","","","","","","","","","","","","","","",""
"","","","","","image-keyboard-response","192","318951","0.0-167.0","559c3ae1fdf99b32b55f2d33","665500ab8938657b03fbdba8","6657925e5b6c4b9ca0995815","738","stimuli/0011000.jpg","0","","prediction_trial","0","","true","","0","true","true","true","true","true","true","[0]","011","000","1","","","","","","",""
"","","","","","image-keyboard-response","193","319372","0.0-168.0","559c3ae1fdf99b32b55f2d33","665500ab8938657b03fbdba8","6657925e5b6c4b9ca0995815","421","stimuli/00110000.jpg"," ","","feedback_trial","0","","","","","","","","","","","","","","","","","","","","",""
"","","","","","image-keyboard-response","194","320066","0.0-169.0","559c3ae1fdf99b32b55f2d33","665500ab8938657b03fbdba8","6657925e5b6c4b9ca0995815","693","stimuli/0010010.jpg","0","","prediction_trial","0","","true","","0","true","true","true","true","true","true","[0]","010","010","1","","","","","","",""
"","","","","","image-keyboard-response","195","320363","0.0-170.0","559c3ae1fdf99b32b55f2d33","665500ab8938657b03fbdba8","6657925e5b6c4b9ca0995815","297","stimuli/00100100.jpg"," ","","feedback_trial","0","","","","","","","","","","","","","","","","","","","","",""
"","","","","","image-keyboard-response","196","322350","0.0-171.0","559c3ae1fdf99b32b55f2d33","665500ab8938657b03fbdba8","6657925e5b6c4b9ca0995815","1986","stimuli/0101111.jpg","1","","prediction_trial","0","","false","","0","false","false","false","false","false","false","[2,0]","101","111","0","","","","","","",""
"","","","","","image-keyboard-response","197","322898","0.0-172.0","559c3ae1fdf99b32b55f2d33","665500ab8938657b03fbdba8","6657925e5b6c4b9ca0995815","547","stimuli/01011110.jpg"," ","","feedback_trial","2","","","","","","","","","","","","","","","","","","","","",""
"","","","","","image-keyboard-response","198","324331","0.0-173.0","559c3ae1fdf99b32b55f2d33","665500ab8938657b03fbdba8","6657925e5b6c4b9ca0995815","1433","stimuli/1011010.jpg","2","","prediction_trial","1","","false","","1","false","true","false","false","false","false","[1,2]","011","010","0","","","","","","",""
"","","","","","image-keyboard-response","199","325157","0.0-174.0","559c3ae1fdf99b32b55f2d33","665500ab8938657b03fbdba8","6657925e5b6c4b9ca0995815","826","stimuli/10110101.jpg"," ","","feedback_trial","1","","","","","","","","","","","","","","","","","","","","",""
"","","","","","image-keyboard-response","200","327211","0.0-175.0","559c3ae1fdf99b32b55f2d33","665500ab8938657b03fbdba8","6657925e5b6c4b9ca0995815","2053","stimuli/0111110.jpg","0","","prediction_trial","1","","false","","0","false","false","false","false","false","false","[0,2,1]","111","110","0","","","","","","",""
"","","","","","image-keyboard-response","201","327986","0.0-176.0","559c3ae1fdf99b32b55f2d33","665500ab8938657b03fbdba8","6657925e5b6c4b9ca0995815","775","stimuli/01111101.jpg"," ","","feedback_trial","0","","","","","","","","","","","","","","","","","","","","",""
"","","","","","image-keyboard-response","202","329164","0.0-177.0","559c3ae1fdf99b32b55f2d33","665500ab8938657b03fbdba8","6657925e5b6c4b9ca0995815","1177","stimuli/1110001.jpg","1","","prediction_trial","1","","true","","1","true","true","false","false","false","false","[1,0]","110","001","1","","","","","","",""
"","","","","","image-keyboard-response","203","329699","0.0-178.0","559c3ae1fdf99b32b55f2d33","665500ab8938657b03fbdba8","6657925e5b6c4b9ca0995815","535","stimuli/11100011.jpg"," ","","feedback_trial","1","","","","","","","","","","","","","","","","","","","","",""
"","","","","","image-keyboard-response","204","331472","0.0-179.0","559c3ae1fdf99b32b55f2d33","665500ab8938657b03fbdba8","6657925e5b6c4b9ca0995815","1773","stimuli/0110101.jpg","1","","prediction_trial","0","","false","","0","false","false","false","false","false","false","[0,1]","110","101","0","","","","","","",""
"","","","","","image-keyboard-response","205","332016","0.0-180.0","559c3ae1fdf99b32b55f2d33","665500ab8938657b03fbdba8","6657925e5b6c4b9ca0995815","543","stimuli/01101010.jpg"," ","","feedback_trial","0","","","","","","","","","","","","","","","","","","","","",""
"","","","","","image-keyboard-response","206","332829","0.0-181.0","559c3ae1fdf99b32b55f2d33","665500ab8938657b03fbdba8","6657925e5b6c4b9ca0995815","813","stimuli/0100000.jpg","0","","prediction_trial","0","","true","","0","true","true","false","true","false","true","[0]","100","000","1","","","","","","",""
"","","","","","image-keyboard-response","207","333517","0.0-182.0","559c3ae1fdf99b32b55f2d33","665500ab8938657b03fbdba8","6657925e5b6c4b9ca0995815","687","stimuli/01000000.jpg"," ","","feedback_trial","0","","","","","","","","","","","","","","","","","","","","",""
"","","","","","image-keyboard-response","208","335491","0.0-183.0","559c3ae1fdf99b32b55f2d33","665500ab8938657b03fbdba8","6657925e5b6c4b9ca0995815","1974","stimuli/0100101.jpg","0","","prediction_trial","0","","true","","0","false","false","false","true","false","false","[0]","100","101","1","","","","","","",""
"","","","","","image-keyboard-response","209","336102","0.0-184.0","559c3ae1fdf99b32b55f2d33","665500ab8938657b03fbdba8","6657925e5b6c4b9ca0995815","610","stimuli/01001010.jpg"," ","","feedback_trial","0","","","","","","","","","","","","","","","","","","","","",""
"","","","","","image-keyboard-response","210","339747","0.0-185.0","559c3ae1fdf99b32b55f2d33","665500ab8938657b03fbdba8","6657925e5b6c4b9ca0995815","3645","stimuli/0111101.jpg","2","","prediction_trial","1","","false","","0","false","false","false","false","false","false","[1,0,2]","111","101","0","","","","","","",""
"","","","","","image-keyboard-response","211","340582","0.0-186.0","559c3ae1fdf99b32b55f2d33","665500ab8938657b03fbdba8","6657925e5b6c4b9ca0995815","835","stimuli/01111011.jpg"," ","","feedback_trial","1","","","","","","","","","","","","","","","","","","","","",""
"","","","","","image-keyboard-response","212","343466","0.0-187.0","559c3ae1fdf99b32b55f2d33","665500ab8938657b03fbdba8","6657925e5b6c4b9ca0995815","2883","stimuli/1001010.jpg","1","","prediction_trial","1","","true","","1","false","true","true","true","false","true","[1]","001","010","1","","","","","","",""
"","","","","","image-keyboard-response","213","344322","0.0-188.0","559c3ae1fdf99b32b55f2d33","665500ab8938657b03fbdba8","6657925e5b6c4b9ca0995815","856","stimuli/10010101.jpg"," ","","feedback_trial","1","","","","","","","","","","","","","","","","","","","","",""
"","","","","","image-keyboard-response","214","345512","0.0-189.0","559c3ae1fdf99b32b55f2d33","665500ab8938657b03fbdba8","6657925e5b6c4b9ca0995815","1189","stimuli/1110000.jpg","1","","prediction_trial","0","","false","","1","true","true","false","false","false","false","[0,1]","110","000","0","","","","","","",""
"","","","","","image-keyboard-response","215","346369","0.0-190.0","559c3ae1fdf99b32b55f2d33","665500ab8938657b03fbdba8","6657925e5b6c4b9ca0995815","857","stimuli/11100000.jpg"," ","","feedback_trial","0","","","","","","","","","","","","","","","","","","","","",""
"","","","","","image-keyboard-response","216","348093","0.0-191.0","559c3ae1fdf99b32b55f2d33","665500ab8938657b03fbdba8","6657925e5b6c4b9ca0995815","1724","stimuli/1111111.jpg","0","","prediction_trial","0","","true","","1","false","false","false","false","false","false","[2,1,0]","111","111","1","","","","","","",""
"","","","","","image-keyboard-response","217","348670","0.0-192.0","559c3ae1fdf99b32b55f2d33","665500ab8938657b03fbdba8","6657925e5b6c4b9ca0995815","574","stimuli/11111110.jpg"," ","","feedback_trial","2","","","","","","","","","","","","","","","","","","","","",""
"","","","","","image-keyboard-response","218","350003","0.0-193.0","559c3ae1fdf99b32b55f2d33","665500ab8938657b03fbdba8","6657925e5b6c4b9ca0995815","1333","stimuli/0100110.jpg","0","","prediction_trial","0","","true","","0","false","false","false","true","false","false","[0]","100","110","1","","","","","","",""
"","","","","","image-keyboard-response","219","350504","0.0-194.0","559c3ae1fdf99b32b55f2d33","665500ab8938657b03fbdba8","6657925e5b6c4b9ca0995815","500","stimuli/01001100.jpg"," ","","feedback_trial","0","","","","","","","","","","","","","","","","","","","","",""
"","","","","","image-keyboard-response","220","352069","0.0-195.0","559c3ae1fdf99b32b55f2d33","665500ab8938657b03fbdba8","6657925e5b6c4b9ca0995815","1565","stimuli/2100101.jpg","0","","prediction_trial","2","","false","","2","false","false","true","true","false","false","[2]","100","101","0","","","","","","",""
"","","","","","image-keyboard-response","221","352626","0.0-196.0","559c3ae1fdf99b32b55f2d33","665500ab8938657b03fbdba8","6657925e5b6c4b9ca0995815","556","stimuli/21001012.jpg"," ","","feedback_trial","2","","","","","","","","","","","","","","","","","","","","",""
"","","","","","image-keyboard-response","222","353766","0.0-197.0","559c3ae1fdf99b32b55f2d33","665500ab8938657b03fbdba8","6657925e5b6c4b9ca0995815","1139","stimuli/1111110.jpg","0","","prediction_trial","0","","true","","1","false","false","false","false","false","false","[0,1,2]","111","110","1","","","","","","",""
"","","","","","image-keyboard-response","223","354216","0.0-198.0","559c3ae1fdf99b32b55f2d33","665500ab8938657b03fbdba8","6657925e5b6c4b9ca0995815","450","stimuli/11111100.jpg"," ","","feedback_trial","0","","","","","","","","","","","","","","","","","","","","",""
"","","","","","image-keyboard-response","224","354953","0.0-199.0","559c3ae1fdf99b32b55f2d33","665500ab8938657b03fbdba8","6657925e5b6c4b9ca0995815","736","stimuli/1101100.jpg","1","","prediction_trial","1","","true","","1","true","true","true","true","true","true","[1]","101","100","1","","","","","","",""
"","","","","","image-keyboard-response","225","355365","0.0-200.0","559c3ae1fdf99b32b55f2d33","665500ab8938657b03fbdba8","6657925e5b6c4b9ca0995815","412","stimuli/11011001.jpg"," ","","feedback_trial","1","","","","","","","","","","","","","","","","","","","","",""
"","","","","","image-keyboard-response","226","356236","0.0-201.0","559c3ae1fdf99b32b55f2d33","665500ab8938657b03fbdba8","6657925e5b6c4b9ca0995815","870","stimuli/0110100.jpg","0","","prediction_trial","0","","true","","0","false","true","false","false","false","false","[1,0]","110","100","1","","","","","","",""
"","","","","","image-keyboard-response","227","356658","0.0-202.0","559c3ae1fdf99b32b55f2d33","665500ab8938657b03fbdba8","6657925e5b6c4b9ca0995815","422","stimuli/01101000.jpg"," ","","feedback_trial","1","","","","","","","","","","","","","","","","","","","","",""
"","","","","","image-keyboard-response","228","357588","0.0-203.0","559c3ae1fdf99b32b55f2d33","665500ab8938657b03fbdba8","6657925e5b6c4b9ca0995815","929","stimuli/0000100.jpg","0","","prediction_trial","0","","true","","0","false","true","true","true","false","true","[0]","000","100","1","","","","","","",""
"","","","","","image-keyboard-response","229","357960","0.0-204.0","559c3ae1fdf99b32b55f2d33","665500ab8938657b03fbdba8","6657925e5b6c4b9ca0995815","372","stimuli/00001000.jpg"," ","","feedback_trial","0","","","","","","","","","","","","","","","","","","","","",""
"","","","","","image-keyboard-response","230","359873","0.0-205.0","559c3ae1fdf99b32b55f2d33","665500ab8938657b03fbdba8","6657925e5b6c4b9ca0995815","1913","stimuli/0011101.jpg","2","","prediction_trial","0","","false","","0","false","false","true","true","false","false","[0]","011","101","0","","","","","","",""
"","","","","","image-keyboard-response","231","360440","0.0-206.0","559c3ae1fdf99b32b55f2d33","665500ab8938657b03fbdba8","6657925e5b6c4b9ca0995815","567","stimuli/00111010.jpg"," ","","feedback_trial","0","","","","","","","","","","","","","","","","","","","","",""
"","","","","","image-keyboard-response","232","361991","0.0-207.0","559c3ae1fdf99b32b55f2d33","665500ab8938657b03fbdba8","6657925e5b6c4b9ca0995815","1550","stimuli/2110111.jpg","0","","prediction_trial","2","","false","","2","false","false","true","true","false","false","[2]","110","111","0","","","","","","",""
"","","","","","image-keyboard-response","233","362798","0.0-208.0","559c3ae1fdf99b32b55f2d33","665500ab8938657b03fbdba8","6657925e5b6c4b9ca0995815","807","stimuli/21101112.jpg"," ","","feedback_trial","2","","","","","","","","","","","","","","","","","","","","",""
"","","","","","image-keyboard-response","234","363620","0.0-209.0","559c3ae1fdf99b32b55f2d33","665500ab8938657b03fbdba8","6657925e5b6c4b9ca0995815","821","stimuli/0001010.jpg","0","","prediction_trial","0","","true","","0","true","true","true","true","true","true","[0]","001","010","1","","","","","","",""
"","","","","","image-keyboard-response","235","363955","0.0-210.0","559c3ae1fdf99b32b55f2d33","665500ab8938657b03fbdba8","6657925e5b6c4b9ca0995815","334","stimuli/00010100.jpg"," ","","feedback_trial","0","","","","","","","","","","","","","","","","","","","","",""
"","","","","","image-keyboard-response","236","365840","0.0-211.0","559c3ae1fdf99b32b55f2d33","665500ab8938657b03fbdba8","6657925e5b6c4b9ca0995815","1884","stimuli/1010101.jpg","1","","prediction_trial","1","","true","","1","true","true","false","true","false","true","[1]","010","101","1","","","","","","",""
"","","","","","image-keyboard-response","237","366137","0.0-212.0","559c3ae1fdf99b32b55f2d33","665500ab8938657b03fbdba8","6657925e5b6c4b9ca0995815","297","stimuli/10101011.jpg"," ","","feedback_trial","1","","","","","","","","","","","","","","","","","","","","",""
"","","","","","image-keyboard-response","238","367361","0.0-213.0","559c3ae1fdf99b32b55f2d33","665500ab8938657b03fbdba8","6657925e5b6c4b9ca0995815","1224","stimuli/0111111.jpg","0","","prediction_trial","1","","false","","0","false","false","false","false","false","false","[1,0,2]","111","111","0","","","","","","",""
"","","","","","image-keyboard-response","239","367845","0.0-214.0","559c3ae1fdf99b32b55f2d33","665500ab8938657b03fbdba8","6657925e5b6c4b9ca0995815","483","stimuli/01111111.jpg"," ","","feedback_trial","1","","","","","","","","","","","","","","","","","","","","",""
"","","","","","image-keyboard-response","240","370136","0.0-215.0","559c3ae1fdf99b32b55f2d33","665500ab8938657b03fbdba8","6657925e5b6c4b9ca0995815","2290","stimuli/1100010.jpg","1","","prediction_trial","1","","true","","1","false","true","true","true","false","true","[1]","100","010","1","","","","","","",""
"","","","","","image-keyboard-response","241","370428","0.0-216.0","559c3ae1fdf99b32b55f2d33","665500ab8938657b03fbdba8","6657925e5b6c4b9ca0995815","292","stimuli/11000101.jpg"," ","","feedback_trial","1","","","","","","","","","","","","","","","","","","","","",""
"","","","","","image-keyboard-response","242","371237","0.0-217.0","559c3ae1fdf99b32b55f2d33","665500ab8938657b03fbdba8","6657925e5b6c4b9ca0995815","809","stimuli/2100110.jpg","2","","prediction_trial","2","","true","","2","true","true","true","true","true","true","[2]","100","110","1","","","","","","",""
"","","","","","image-keyboard-response","243","371575","0.0-218.0","559c3ae1fdf99b32b55f2d33","665500ab8938657b03fbdba8","6657925e5b6c4b9ca0995815","337","stimuli/21001102.jpg"," ","","feedback_trial","2","","","","","","","","","","","","","","","","","","","","",""
"","","","","","image-keyboard-response","244","372465","0.0-219.0","559c3ae1fdf99b32b55f2d33","665500ab8938657b03fbdba8","6657925e5b6c4b9ca0995815","890","stimuli/1010010.jpg","1","","prediction_trial","1","","true","","1","false","true","false","true","false","true","[1]","010","010","1","","","","","","",""
"","","","","","image-keyboard-response","245","372753","0.0-220.0","559c3ae1fdf99b32b55f2d33","665500ab8938657b03fbdba8","6657925e5b6c4b9ca0995815","287","stimuli/10100101.jpg"," ","","feedback_trial","1","","","","","","","","","","","","","","","","","","","","",""
"","","","","","image-keyboard-response","246","373566","0.0-221.0","559c3ae1fdf99b32b55f2d33","665500ab8938657b03fbdba8","6657925e5b6c4b9ca0995815","813","stimuli/2011110.jpg","2","","prediction_trial","1","","false","","2","true","true","false","false","false","false","[2,1]","011","110","0","","","","","","",""
"","","","","","image-keyboard-response","247","373997","0.0-222.0","559c3ae1fdf99b32b55f2d33","665500ab8938657b03fbdba8","6657925e5b6c4b9ca0995815","431","stimuli/20111101.jpg"," ","","feedback_trial","2","","","","","","","","","","","","","","","","","","","","",""
"","","","","","image-keyboard-response","248","375079","0.0-223.0","559c3ae1fdf99b32b55f2d33","665500ab8938657b03fbdba8","6657925e5b6c4b9ca0995815","1082","stimuli/0110111.jpg","0","","prediction_trial","0","","true","","0","false","false","false","false","false","false","[1,0]","110","111","1","","","","","","",""
"","","","","","image-keyboard-response","249","375465","0.0-224.0","559c3ae1fdf99b32b55f2d33","665500ab8938657b03fbdba8","6657925e5b6c4b9ca0995815","386","stimuli/01101110.jpg"," ","","feedback_trial","1","","","","","","","","","","","","","","","","","","","","",""
"","","","","","image-keyboard-response","250","376480","0.0-225.0","559c3ae1fdf99b32b55f2d33","665500ab8938657b03fbdba8","6657925e5b6c4b9ca0995815","1014","stimuli/0010100.jpg","0","","prediction_trial","0","","true","","0","false","true","true","true","false","true","[0]","010","100","1","","","","","","",""
"","","","","","image-keyboard-response","251","376772","0.0-226.0","559c3ae1fdf99b32b55f2d33","665500ab8938657b03fbdba8","6657925e5b6c4b9ca0995815","292","stimuli/00101000.jpg"," ","","feedback_trial","0","","","","","","","","","","","","","","","","","","","","",""
"","","","","","image-keyboard-response","252","377764","0.0-227.0","559c3ae1fdf99b32b55f2d33","665500ab8938657b03fbdba8","6657925e5b6c4b9ca0995815","991","stimuli/1111000.jpg","1","","prediction_trial","2","","false","","1","true","true","false","false","false","false","[1,2,0]","111","000","0","","","","","","",""
"","","","","","image-keyboard-response","253","378233","0.0-228.0","559c3ae1fdf99b32b55f2d33","665500ab8938657b03fbdba8","6657925e5b6c4b9ca0995815","469","stimuli/11110002.jpg"," ","","feedback_trial","1","","","","","","","","","","","","","","","","","","","","",""
"","","","","","image-keyboard-response","254","380614","0.0-229.0","559c3ae1fdf99b32b55f2d33","665500ab8938657b03fbdba8","6657925e5b6c4b9ca0995815","2380","stimuli/2010101.jpg","2","","prediction_trial","2","","true","","2","false","false","true","true","false","false","[2]","010","101","1","","","","","","",""
"","","","","","image-keyboard-response","255","381071","0.0-230.0","559c3ae1fdf99b32b55f2d33","665500ab8938657b03fbdba8","6657925e5b6c4b9ca0995815","457","stimuli/20101012.jpg"," ","","feedback_trial","2","","","","","","","","","","","","","","","","","","","","",""
"","","","","","image-keyboard-response","256","382295","0.0-231.0","559c3ae1fdf99b32b55f2d33","665500ab8938657b03fbdba8","6657925e5b6c4b9ca0995815","1223","stimuli/0110011.jpg","0","","prediction_trial","1","","false","","0","true","true","false","false","false","false","[0,1]","110","011","0","","","","","","",""
"","","","","","image-keyboard-response","257","382852","0.0-232.0","559c3ae1fdf99b32b55f2d33","665500ab8938657b03fbdba8","6657925e5b6c4b9ca0995815","557","stimuli/01100111.jpg"," ","","feedback_trial","0","","","","","","","","","","","","","","","","","","","","",""
"","","","","","image-keyboard-response","258","384123","0.0-233.0","559c3ae1fdf99b32b55f2d33","665500ab8938657b03fbdba8","6657925e5b6c4b9ca0995815","1270","stimuli/2101111.jpg","0","","prediction_trial","2","","false","","2","false","false","false","false","false","false","[0,2]","101","111","0","","","","","","",""
"","","","","","image-keyboard-response","259","384668","0.0-234.0","559c3ae1fdf99b32b55f2d33","665500ab8938657b03fbdba8","6657925e5b6c4b9ca0995815","545","stimuli/21011112.jpg"," ","","feedback_trial","0","","","","","","","","","","","","","","","","","","","","",""
"","","","","","image-keyboard-response","260","386230","0.0-235.0","559c3ae1fdf99b32b55f2d33","665500ab8938657b03fbdba8","6657925e5b6c4b9ca0995815","1561","stimuli/1110101.jpg","0","","prediction_trial","0","","true","","1","true","true","false","false","false","false","[1,0]","110","101","1","","","","","","",""
"","","","","","image-keyboard-response","261","386660","0.0-236.0","559c3ae1fdf99b32b55f2d33","665500ab8938657b03fbdba8","6657925e5b6c4b9ca0995815","430","stimuli/11101010.jpg"," ","","feedback_trial","1","","","","","","","","","","","","","","","","","","","","",""
"","","","","","image-keyboard-response","262","387626","0.0-237.0","559c3ae1fdf99b32b55f2d33","665500ab8938657b03fbdba8","6657925e5b6c4b9ca0995815","966","stimuli/1000000.jpg","1","","prediction_trial","1","","true","","1","true","true","true","true","true","true","[1]","000","000","1","","","","","","",""
"","","","","","image-keyboard-response","263","388018","0.0-238.0","559c3ae1fdf99b32b55f2d33","665500ab8938657b03fbdba8","6657925e5b6c4b9ca0995815","391","stimuli/10000001.jpg"," ","","feedback_trial","1","","","","","","","","","","","","","","","","","","","","",""
"","","","","","image-keyboard-response","264","388891","0.0-239.0","559c3ae1fdf99b32b55f2d33","665500ab8938657b03fbdba8","6657925e5b6c4b9ca0995815","872","stimuli/1100100.jpg","1","","prediction_trial","1","","true","","1","true","true","true","true","true","true","[1]","100","100","1","","","","","","",""
"","","","","","image-keyboard-response","265","389231","0.0-240.0","559c3ae1fdf99b32b55f2d33","665500ab8938657b03fbdba8","6657925e5b6c4b9ca0995815","340","stimuli/11001001.jpg"," ","","feedback_trial","1","","","","","","","","","","","","","","","","","","","","",""
"","","","","","image-keyboard-response","266","390197","0.0-241.0","559c3ae1fdf99b32b55f2d33","665500ab8938657b03fbdba8","6657925e5b6c4b9ca0995815","966","stimuli/2011011.jpg","2","","prediction_trial","1","","false","","2","false","false","false","false","false","false","[2,1]","011","011","0","","","","","","",""
"","","","","","image-keyboard-response","267","390683","0.0-242.0","559c3ae1fdf99b32b55f2d33","665500ab8938657b03fbdba8","6657925e5b6c4b9ca0995815","485","stimuli/20110111.jpg"," ","","feedback_trial","2","","","","","","","","","","","","","","","","","","","","",""
"","","","","","image-keyboard-response","268","392013","0.0-243.0","559c3ae1fdf99b32b55f2d33","665500ab8938657b03fbdba8","6657925e5b6c4b9ca0995815","1329","stimuli/2110101.jpg","0","","prediction_trial","2","","false","","2","false","false","true","true","false","false","[2]","110","101","0","","","","","","",""
"","","","","","image-keyboard-response","269","392421","0.0-244.0","559c3ae1fdf99b32b55f2d33","665500ab8938657b03fbdba8","6657925e5b6c4b9ca0995815","408","stimuli/21101012.jpg"," ","","feedback_trial","2","","","","","","","","","","","","","","","","","","","","",""
"","","","","","image-keyboard-response","270","393418","0.0-245.0","559c3ae1fdf99b32b55f2d33","665500ab8938657b03fbdba8","6657925e5b6c4b9ca0995815","997","stimuli/2100100.jpg","2","","prediction_trial","2","","true","","2","true","true","true","true","true","true","[2]","100","100","1","","","","","","",""
"","","","","","image-keyboard-response","271","393837","0.0-246.0","559c3ae1fdf99b32b55f2d33","665500ab8938657b03fbdba8","6657925e5b6c4b9ca0995815","418","stimuli/21001002.jpg"," ","","feedback_trial","2","","","","","","","","","","","","","","","","","","","","",""
"","","","","","image-keyboard-response","272","394915","0.0-247.0","559c3ae1fdf99b32b55f2d33","665500ab8938657b03fbdba8","6657925e5b6c4b9ca0995815","1078","stimuli/0000110.jpg","0","","prediction_trial","0","","true","","0","false","false","true","true","false","false","[0]","000","110","1","","","","","","",""
"","","","","","image-keyboard-response","273","395352","0.0-248.0","559c3ae1fdf99b32b55f2d33","665500ab8938657b03fbdba8","6657925e5b6c4b9ca0995815","436","stimuli/00001100.jpg"," ","","feedback_trial","0","","","","","","","","","","","","","","","","","","","","",""
"","","","","","image-keyboard-response","274","396516","0.0-249.0","559c3ae1fdf99b32b55f2d33","665500ab8938657b03fbdba8","6657925e5b6c4b9ca0995815","1164","stimuli/0000101.jpg","0","","prediction_trial","0","","true","","0","false","false","true","true","false","false","[0]","000","101","1","","","","","","",""
"","","","","","image-keyboard-response","275","396901","0.0-250.0","559c3ae1fdf99b32b55f2d33","665500ab8938657b03fbdba8","6657925e5b6c4b9ca0995815","384","stimuli/00001010.jpg"," ","","feedback_trial","0","","","","","","","","","","","","","","","","","","","","",""
"","","","","","image-keyboard-response","276","398011","0.0-251.0","559c3ae1fdf99b32b55f2d33","665500ab8938657b03fbdba8","6657925e5b6c4b9ca0995815","1109","stimuli/0010110.jpg","0","","prediction_trial","0","","true","","0","false","false","true","true","false","false","[0]","010","110","1","","","","","","",""
"","","","","","image-keyboard-response","277","398475","0.0-252.0","559c3ae1fdf99b32b55f2d33","665500ab8938657b03fbdba8","6657925e5b6c4b9ca0995815","463","stimuli/00101100.jpg"," ","","feedback_trial","0","","","","","","","","","","","","","","","","","","","","",""
"","","","","","image-keyboard-response","278","401463","0.0-253.0","559c3ae1fdf99b32b55f2d33","665500ab8938657b03fbdba8","6657925e5b6c4b9ca0995815","2988","stimuli/2100011.jpg","1","","prediction_trial","2","","false","","2","false","false","true","true","false","false","[2]","100","011","0","","","","","","",""
"","","","","","image-keyboard-response","279","402024","0.0-254.0","559c3ae1fdf99b32b55f2d33","665500ab8938657b03fbdba8","6657925e5b6c4b9ca0995815","560","stimuli/21000112.jpg"," ","","feedback_trial","2","","","","","","","","","","","","","","","","","","","","",""
"","","","","","image-keyboard-response","280","403849","0.0-255.0","559c3ae1fdf99b32b55f2d33","665500ab8938657b03fbdba8","6657925e5b6c4b9ca0995815","1825","stimuli/2000111.jpg","0","","prediction_trial","2","","false","","2","false","false","true","true","false","false","[2]","000","111","0","","","","","","",""
"","","","","","image-keyboard-response","281","404311","0.0-256.0","559c3ae1fdf99b32b55f2d33","665500ab8938657b03fbdba8","6657925e5b6c4b9ca0995815","462","stimuli/20001112.jpg"," ","","feedback_trial","2","","","","","","","","","","","","","","","","","","","","",""
"","","","","","image-keyboard-response","282","405175","0.0-257.0","559c3ae1fdf99b32b55f2d33","665500ab8938657b03fbdba8","6657925e5b6c4b9ca0995815","864","stimuli/2011010.jpg","2","","prediction_trial","1","","false","","2","true","true","false","false","false","false","[1,2]","011","010","0","","","","","","",""
"","","","","","image-keyboard-response","283","405871","0.0-258.0","559c3ae1fdf99b32b55f2d33","665500ab8938657b03fbdba8","6657925e5b6c4b9ca0995815","696","stimuli/20110101.jpg"," ","","feedback_trial","1","","","","","","","","","","","","","","","","","","","","",""
"","","","","","image-keyboard-response","284","407143","0.0-259.0","559c3ae1fdf99b32b55f2d33","665500ab8938657b03fbdba8","6657925e5b6c4b9ca0995815","1271","stimuli/2101000.jpg","2","","prediction_trial","2","","true","","2","true","true","false","false","false","false","[2,0]","101","000","1","","","","","","",""
"","","","","","image-keyboard-response","285","407562","0.0-260.0","559c3ae1fdf99b32b55f2d33","665500ab8938657b03fbdba8","6657925e5b6c4b9ca0995815","418","stimuli/21010002.jpg"," ","","feedback_trial","2","","","","","","","","","","","","","","","","","","","","",""
"","","","","","image-keyboard-response","286","408432","0.0-261.0","559c3ae1fdf99b32b55f2d33","665500ab8938657b03fbdba8","6657925e5b6c4b9ca0995815","870","stimuli/1100101.jpg","1","","prediction_trial","1","","true","","1","true","true","true","true","true","true","[1]","100","101","1","","","","","","",""
"","","","","","image-keyboard-response","287","408736","0.0-262.0","559c3ae1fdf99b32b55f2d33","665500ab8938657b03fbdba8","6657925e5b6c4b9ca0995815","303","stimuli/11001011.jpg"," ","","feedback_trial","1","","","","","","","","","","","","","","","","","","","","",""
"","","","","","image-keyboard-response","288","409758","0.0-263.0","559c3ae1fdf99b32b55f2d33","665500ab8938657b03fbdba8","6657925e5b6c4b9ca0995815","1022","stimuli/0110110.jpg","0","","prediction_trial","0","","true","","0","false","false","false","false","false","false","[0,1]","110","110","1","","","","","","",""
"","","","","","image-keyboard-response","289","410087","0.0-264.0","559c3ae1fdf99b32b55f2d33","665500ab8938657b03fbdba8","6657925e5b6c4b9ca0995815","328","stimuli/01101100.jpg"," ","","feedback_trial","0","","","","","","","","","","","","","","","","","","","","",""
"","","","","","image-keyboard-response","290","410836","0.0-265.0","559c3ae1fdf99b32b55f2d33","665500ab8938657b03fbdba8","6657925e5b6c4b9ca0995815","749","stimuli/0011011.jpg","0","","prediction_trial","0","","true","","0","true","true","true","true","true","true","[0]","011","011","1","","","","","","",""
"","","","","","image-keyboard-response","291","411044","0.0-266.0","559c3ae1fdf99b32b55f2d33","665500ab8938657b03fbdba8","6657925e5b6c4b9ca0995815","207","stimuli/00110110.jpg"," ","","feedback_trial","0","","","","","","","","","","","","","","","","","","","","",""
"","","","","","image-keyboard-response","292","411748","0.0-267.0","559c3ae1fdf99b32b55f2d33","665500ab8938657b03fbdba8","6657925e5b6c4b9ca0995815","704","stimuli/0010011.jpg","0","","prediction_trial","0","","true","","0","true","true","true","true","true","true","[0]","010","011","1","","","","","","",""
"","","","","","image-keyboard-response","293","411934","0.0-268.0","559c3ae1fdf99b32b55f2d33","665500ab8938657b03fbdba8","6657925e5b6c4b9ca0995815","185","stimuli/00100110.jpg"," ","","feedback_trial","0","","","","","","","","","","","","","","","","","","","","",""
"","","","","","image-keyboard-response","294","413334","0.0-269.0","559c3ae1fdf99b32b55f2d33","665500ab8938657b03fbdba8","6657925e5b6c4b9ca0995815","1399","stimuli/0000111.jpg","1","","prediction_trial","0","","false","","0","false","false","true","true","false","false","[0]","000","111","0","","","","","","",""
"","","","","","image-keyboard-response","295","413689","0.0-270.0","559c3ae1fdf99b32b55f2d33","665500ab8938657b03fbdba8","6657925e5b6c4b9ca0995815","355","stimuli/00001110.jpg"," ","","feedback_trial","0","","","","","","","","","","","","","","","","","","","","",""
"","","","","","image-keyboard-response","296","414955","0.0-271.0","559c3ae1fdf99b32b55f2d33","665500ab8938657b03fbdba8","6657925e5b6c4b9ca0995815","1265","stimuli/2100001.jpg","2","","prediction_trial","2","","true","","2","false","true","true","true","false","true","[2]","100","001","1","","","","","","",""
"","","","","","image-keyboard-response","297","415296","0.0-272.0","559c3ae1fdf99b32b55f2d33","665500ab8938657b03fbdba8","6657925e5b6c4b9ca0995815","338","stimuli/21000012.jpg"," ","","feedback_trial","2","","","","","","","","","","","","","","","","","","","","",""
"","","","","","image-keyboard-response","298","416349","0.0-273.0","559c3ae1fdf99b32b55f2d33","665500ab8938657b03fbdba8","6657925e5b6c4b9ca0995815","1053","stimuli/1011110.jpg","0","","prediction_trial","2","","false","","1","false","false","false","false","false","false","[1,2]","011","110","0","","","","","","",""
"","","","","","image-keyboard-response","299","417189","0.0-274.0","559c3ae1fdf99b32b55f2d33","665500ab8938657b03fbdba8","6657925e5b6c4b9ca0995815","840","stimuli/10111102.jpg"," ","","feedback_trial","1","","","","","","","","","","","","","","","","","","","","",""
"","","","","","image-keyboard-response","300","417989","0.0-275.0","559c3ae1fdf99b32b55f2d33","665500ab8938657b03fbdba8","6657925e5b6c4b9ca0995815","799","stimuli/2001010.jpg","2","","prediction_trial","2","","true","","2","true","true","false","true","false","true","[2]","001","010","1","","","","","","",""
"","","","","","image-keyboard-response","301","418499","0.0-276.0","559c3ae1fdf99b32b55f2d33","665500ab8938657b03fbdba8","6657925e5b6c4b9ca0995815","509","stimuli/20010102.jpg"," ","","feedback_trial","2","","","","","","","","","","","","","","","","","","","","",""
"","","","","","image-keyboard-response","302","419200","0.0-277.0","559c3ae1fdf99b32b55f2d33","665500ab8938657b03fbdba8","6657925e5b6c4b9ca0995815","701","stimuli/1100000.jpg","1","","prediction_trial","1","","true","","1","true","true","true","true","true","true","[1]","100","000","1","","","","","","",""
"","","","","","image-keyboard-response","303","419401","0.0-278.0","559c3ae1fdf99b32b55f2d33","665500ab8938657b03fbdba8","6657925e5b6c4b9ca0995815","201","stimuli/11000001.jpg"," ","","feedback_trial","1","","","","","","","","","","","","","","","","","","","","",""
"","","","","","image-keyboard-response","304","421010","0.0-279.0","559c3ae1fdf99b32b55f2d33","665500ab8938657b03fbdba8","6657925e5b6c4b9ca0995815","1608","stimuli/2001111.jpg","0","","prediction_trial","2","","false","","2","false","false","false","true","false","false","[2]","001","111","0","","","","","","",""
"","","","","","image-keyboard-response","305","421561","0.0-280.0","559c3ae1fdf99b32b55f2d33","665500ab8938657b03fbdba8","6657925e5b6c4b9ca0995815","551","stimuli/20011112.jpg"," ","","feedback_trial","2","","","","","","","","","","","","","","","","","","","","",""
"","","","","","image-keyboard-response","306","422292","0.0-281.0","559c3ae1fdf99b32b55f2d33","665500ab8938657b03fbdba8","6657925e5b6c4b9ca0995815","730","stimuli/2010110.jpg","2","","prediction_trial","2","","true","","2","true","true","true","true","true","true","[2]","010","110","1","","","","","","",""
"","","","","","image-keyboard-response","307","422612","0.0-282.0","559c3ae1fdf99b32b55f2d33","665500ab8938657b03fbdba8","6657925e5b6c4b9ca0995815","318","stimuli/20101102.jpg"," ","","feedback_trial","2","","","","","","","","","","","","","","","","","","","","",""
"","","","","","image-keyboard-response","308","423322","0.0-283.0","559c3ae1fdf99b32b55f2d33","665500ab8938657b03fbdba8","6657925e5b6c4b9ca0995815","710","stimuli/2000100.jpg","2","","prediction_trial","2","","true","","2","true","true","true","true","true","true","[2]","000","100","1","","","","","","",""
"","","","","","image-keyboard-response","309","423584","0.0-284.0","559c3ae1fdf99b32b55f2d33","665500ab8938657b03fbdba8","6657925e5b6c4b9ca0995815","262","stimuli/20001002.jpg"," ","","feedback_trial","2","","","","","","","","","","","","","","","","","","","","",""
"","","","","","image-keyboard-response","310","425060","0.0-285.0","559c3ae1fdf99b32b55f2d33","665500ab8938657b03fbdba8","6657925e5b6c4b9ca0995815","1475","stimuli/1011100.jpg","2","","prediction_trial","2","","true","","1","true","true","false","false","false","false","[2,1]","011","100","1","","","","","","",""
"","","","","","image-keyboard-response","311","425484","0.0-286.0","559c3ae1fdf99b32b55f2d33","665500ab8938657b03fbdba8","6657925e5b6c4b9ca0995815","423","stimuli/10111002.jpg"," ","","feedback_trial","2","","","","","","","","","","","","","","","","","","","","",""
"","","","","","image-keyboard-response","312","426289","0.0-287.0","559c3ae1fdf99b32b55f2d33","665500ab8938657b03fbdba8","6657925e5b6c4b9ca0995815","805","stimuli/2000010.jpg","2","","prediction_trial","2","","true","","2","true","true","true","true","true","true","[2]","000","010","1","","","","","","",""
"","","","","","image-keyboard-response","313","426653","0.0-288.0","559c3ae1fdf99b32b55f2d33","665500ab8938657b03fbdba8","6657925e5b6c4b9ca0995815","364","stimuli/20000102.jpg"," ","","feedback_trial","2","","","","","","","","","","","","","","","","","","","","",""
"","","","","","image-keyboard-response","314","427755","0.0-289.0","559c3ae1fdf99b32b55f2d33","665500ab8938657b03fbdba8","6657925e5b6c4b9ca0995815","1101","stimuli/2111111.jpg","0","","prediction_trial","1","","false","","2","false","false","false","false","false","false","[2,1,0]","111","111","0","","","","","","",""
"","","","","","image-keyboard-response","315","428419","0.0-290.0","559c3ae1fdf99b32b55f2d33","665500ab8938657b03fbdba8","6657925e5b6c4b9ca0995815","664","stimuli/21111111.jpg"," ","","feedback_trial","2","","","","","","","","","","","","","","","","","","","","",""
"","","","","","image-keyboard-response","316","429056","0.0-291.0","559c3ae1fdf99b32b55f2d33","665500ab8938657b03fbdba8","6657925e5b6c4b9ca0995815","636","stimuli/0100011.jpg","0","","prediction_trial","0","","true","","0","true","true","false","true","false","true","[0]","100","011","1","","","","","","",""
"","","","","","image-keyboard-response","317","429519","0.0-292.0","559c3ae1fdf99b32b55f2d33","665500ab8938657b03fbdba8","6657925e5b6c4b9ca0995815","463","stimuli/01000110.jpg"," ","","feedback_trial","0","","","","","","","","","","","","","","","","","","","","",""
"","","","","","survey-html-form","318","470200","0.0-293.0","559c3ae1fdf99b32b55f2d33","665500ab8938657b03fbdba8","6657925e5b6c4b9ca0995815","40680","","{""feedback"":""I think it was kind of random what they selected when they couldn't know for sure,  so I kind of just followed my intuition and guessed."",""age"":""37"",""gender"":""Male"",""other_gender"":"""",""race"":""White"",""other_race"":"""",""ethnicity"":""Non-Hispanic""}","","exit_survey","","","","","","","","","","","","","","","","I think it was kind of random what they selected when they couldn't know for sure,  so I kind of just followed my intuition and guessed.","37","Non-Hispanic","Male","White","0.6180555555555556","0.6180555555555556"
