"success","timeout","failed_images","failed_audio","failed_video","trial_type","trial_index","time_elapsed","internal_node_id","prolific_id","prolific_study_id","prolific_session_id","rt","stimulus","response","view_history","trial","character_choice","stimulus_dict","accuracy","correct_response","ball_pos","ego_ball_visible","ego_can_infer","alter_ball_visible","alter_can_infer","collective_ball_visible","collective_can_infer","search_locations","alter_occluders","ego_occluders","accuracy_bool","feedback","age","ethnicity","gender","race","overall_accuracy","bonus"
"true","false","[]","[]","[]","preload","0","217310","0.0-0.0","5ef319f3058d7f0178266918","665500ab8938657b03fbdba8","665792b01efae8fa89b2570c","","","","","","","","","","","","","","","","","","","","","","","","","","",""
"true","","","","","fullscreen","1","221528","0.0-1.0","5ef319f3058d7f0178266918","665500ab8938657b03fbdba8","665792b01efae8fa89b2570c","","","","","","","","","","","","","","","","","","","","","","","","","","",""
"","","","","","html-button-response","2","228655","0.0-2.0","5ef319f3058d7f0178266918","665500ab8938657b03fbdba8","665792b01efae8fa89b2570c","7124","<p><b>Consent Form</b></p> <div style=""text-align:left;background-color:lightgrey; padding:20px; max-width:900px;""><p>Please consider this information carefully before deciding whether to participate in this research.</p> <p>The purpose of this research is to examine which factors influence social judgment and decision-making. You will be asked to make judgements about individuals and actions in social scenarios. We are simply interested in your judgement. The study will take less than 1 hour to complete, and you will receive less than $20 on Prolific. Your compensation and time commitment are specified in the study description. There are no anticipated risks associated with participating in this study. The effects of participating should be comparable to those you would ordinarily experience from viewing a computer monitor and using a mouse or keyboard for a similar amount of time. At the end of the study, we will provide an explanation of the questions that motivate this line of research and will describe the potential implications. </p><p> Your participation in this study is completely voluntary and you may refuse to participate or you may choose to withdraw at any time without penalty or loss of benefits to you which are otherwise entitled. Your participation in this study will remain confidential. No personally identifiable information will be associated with your data. Also, all analyses of the data will be averaged across all the participants, so your individual responses will never be specifically analyzed. </p><p> If you have questions or concerns about your participation or payment, or want to request a summary of research findings, please contact Dr. Jonathan Phillips at Jonathan.S.Phillips@dartmouth.edu. </p><p> Please save a copy of this form for your records. </p><p><b>Agreement: </b>The nature and purpose of this research have been sufficiently explained and I agree to participate in this study. I understand that I am free to withdraw at any time without incurring any penalty. Please consent by clicking the button below to continue. Otherwise, please exit the study at any time. </p>","0","","","","","","","","","","","","","","","","","","","","","","","",""
"","","","","","instructions","3","291047","0.0-3.0-0.0","5ef319f3058d7f0178266918","665500ab8938657b03fbdba8","665792b01efae8fa89b2570c","62391","","","[{""page_index"":0,""viewing_time"":1646},{""page_index"":1,""viewing_time"":3536},{""page_index"":2,""viewing_time"":3512},{""page_index"":3,""viewing_time"":6152},{""page_index"":4,""viewing_time"":4864},{""page_index"":5,""viewing_time"":4616},{""page_index"":6,""viewing_time"":6527},{""page_index"":7,""viewing_time"":2913},{""page_index"":8,""viewing_time"":3992},{""page_index"":9,""viewing_time"":1536},{""page_index"":10,""viewing_time"":13048},{""page_index"":11,""viewing_time"":5360},{""page_index"":12,""viewing_time"":3497},{""page_index"":13,""viewing_time"":1191}]","intro","","","","","","","","","","","","","","","","","","","","","",""
"","","","","","image-keyboard-response","4","294201","0.0-3.0-1.0","5ef319f3058d7f0178266918","665500ab8938657b03fbdba8","665792b01efae8fa89b2570c","3150","stimuli/2000100.jpg","2","","prediction_practice","2","{""filepath"":""stimuli/2000100.jpg"",""ball_pos"":2,""ego_ball_visible"":true,""ego_can_infer"":true,""alter_ball_visible"":true,""alter_can_infer"":true,""collective_ball_visible"":true,""collective_can_infer"":true,""search_locations"":[2],""alter_occluders"":""000"",""ego_occluders"":""100""}","true","","","","","","","","","","","","","","","","","","",""
"","","","","","image-keyboard-response","5","297274","0.0-3.0-2.0","5ef319f3058d7f0178266918","665500ab8938657b03fbdba8","665792b01efae8fa89b2570c","3069","stimuli/20001002.jpg"," ","","practrice_feedback","2","","","","","","","","","","","","","","","","","","","","",""
"","","","","","image-keyboard-response","6","300896","0.0-3.0-3.0","5ef319f3058d7f0178266918","665500ab8938657b03fbdba8","665792b01efae8fa89b2570c","3617","stimuli/0100110.jpg","0","","prediction_practice","0","{""filepath"":""stimuli/0100110.jpg"",""ball_pos"":0,""ego_ball_visible"":false,""ego_can_infer"":false,""alter_ball_visible"":false,""alter_can_infer"":true,""collective_ball_visible"":false,""collective_can_infer"":false,""search_locations"":[0],""alter_occluders"":""100"",""ego_occluders"":""110""}","true","","","","","","","","","","","","","","","","","","",""
"","","","","","image-keyboard-response","7","302693","0.0-3.0-4.0","5ef319f3058d7f0178266918","665500ab8938657b03fbdba8","665792b01efae8fa89b2570c","1794","stimuli/01001100.jpg"," ","","practrice_feedback","0","","","","","","","","","","","","","","","","","","","","",""
"","","","","","image-keyboard-response","8","304735","0.0-3.0-5.0","5ef319f3058d7f0178266918","665500ab8938657b03fbdba8","665792b01efae8fa89b2570c","2038","stimuli/0110011.jpg","0","","prediction_practice","0","{""filepath"":""stimuli/0110011.jpg"",""ball_pos"":0,""ego_ball_visible"":true,""ego_can_infer"":true,""alter_ball_visible"":false,""alter_can_infer"":false,""collective_ball_visible"":false,""collective_can_infer"":false,""search_locations"":[0,1],""alter_occluders"":""110"",""ego_occluders"":""011""}","true","","","","","","","","","","","","","","","","","","",""
"","","","","","image-keyboard-response","9","305135","0.0-3.0-6.0","5ef319f3058d7f0178266918","665500ab8938657b03fbdba8","665792b01efae8fa89b2570c","398","stimuli/01100110.jpg"," ","","practrice_feedback","0","","","","","","","","","","","","","","","","","","","","",""
"","","","","","image-keyboard-response","10","306989","0.0-3.0-7.0","5ef319f3058d7f0178266918","665500ab8938657b03fbdba8","665792b01efae8fa89b2570c","1851","stimuli/1100100.jpg","1","","prediction_practice","1","{""filepath"":""stimuli/1100100.jpg"",""ball_pos"":1,""ego_ball_visible"":true,""ego_can_infer"":true,""alter_ball_visible"":true,""alter_can_infer"":true,""collective_ball_visible"":true,""collective_can_infer"":true,""search_locations"":[1],""alter_occluders"":""100"",""ego_occluders"":""100""}","true","","","","","","","","","","","","","","","","","","",""
"","","","","","image-keyboard-response","11","307821","0.0-3.0-8.0","5ef319f3058d7f0178266918","665500ab8938657b03fbdba8","665792b01efae8fa89b2570c","830","stimuli/11001001.jpg"," ","","practrice_feedback","1","","","","","","","","","","","","","","","","","","","","",""
"","","","","","image-keyboard-response","12","309873","0.0-3.0-9.0","5ef319f3058d7f0178266918","665500ab8938657b03fbdba8","665792b01efae8fa89b2570c","2051","stimuli/0000101.jpg","2","","prediction_practice","0","{""filepath"":""stimuli/0000101.jpg"",""ball_pos"":0,""ego_ball_visible"":false,""ego_can_infer"":false,""alter_ball_visible"":true,""alter_can_infer"":true,""collective_ball_visible"":false,""collective_can_infer"":false,""search_locations"":[0],""alter_occluders"":""000"",""ego_occluders"":""101""}","false","","","","","","","","","","","","","","","","","","",""
"","","","","","image-keyboard-response","13","311566","0.0-3.0-10.0","5ef319f3058d7f0178266918","665500ab8938657b03fbdba8","665792b01efae8fa89b2570c","1692","stimuli/00001010.jpg"," ","","practrice_feedback","0","","","","","","","","","","","","","","","","","","","","",""
"","","","","","image-keyboard-response","14","313612","0.0-3.0-11.0","5ef319f3058d7f0178266918","665500ab8938657b03fbdba8","665792b01efae8fa89b2570c","2043","stimuli/0101110.jpg","1","","prediction_practice","2","{""filepath"":""stimuli/0101110.jpg"",""ball_pos"":0,""ego_ball_visible"":false,""ego_can_infer"":false,""alter_ball_visible"":false,""alter_can_infer"":false,""collective_ball_visible"":false,""collective_can_infer"":false,""search_locations"":[2,0],""alter_occluders"":""101"",""ego_occluders"":""110""}","false","","","","","","","","","","","","","","","","","","",""
"","","","","","image-keyboard-response","15","314420","0.0-3.0-12.0","5ef319f3058d7f0178266918","665500ab8938657b03fbdba8","665792b01efae8fa89b2570c","805","stimuli/01011102.jpg"," ","","practrice_feedback","2","","","","","","","","","","","","","","","","","","","","",""
"","","","","","image-keyboard-response","16","315887","0.0-3.0-13.0","5ef319f3058d7f0178266918","665500ab8938657b03fbdba8","665792b01efae8fa89b2570c","1448","stimuli/0010011.jpg","0","","prediction_practice","0","{""filepath"":""stimuli/0010011.jpg"",""ball_pos"":0,""ego_ball_visible"":true,""ego_can_infer"":true,""alter_ball_visible"":true,""alter_can_infer"":true,""collective_ball_visible"":true,""collective_can_infer"":true,""search_locations"":[0],""alter_occluders"":""010"",""ego_occluders"":""011""}","true","","","","","","","","","","","","","","","","","","",""
"","","","","","image-keyboard-response","17","316667","0.0-3.0-14.0","5ef319f3058d7f0178266918","665500ab8938657b03fbdba8","665792b01efae8fa89b2570c","777","stimuli/00100110.jpg"," ","","practrice_feedback","0","","","","","","","","","","","","","","","","","","","","",""
"","","","","","image-keyboard-response","18","318636","0.0-3.0-15.0","5ef319f3058d7f0178266918","665500ab8938657b03fbdba8","665792b01efae8fa89b2570c","1966","stimuli/0010010.jpg","0","","prediction_practice","0","{""filepath"":""stimuli/0010010.jpg"",""ball_pos"":0,""ego_ball_visible"":true,""ego_can_infer"":true,""alter_ball_visible"":true,""alter_can_infer"":true,""collective_ball_visible"":true,""collective_can_infer"":true,""search_locations"":[0],""alter_occluders"":""010"",""ego_occluders"":""010""}","true","","","","","","","","","","","","","","","","","","",""
"","","","","","image-keyboard-response","19","319116","0.0-3.0-16.0","5ef319f3058d7f0178266918","665500ab8938657b03fbdba8","665792b01efae8fa89b2570c","477","stimuli/00100100.jpg"," ","","practrice_feedback","0","","","","","","","","","","","","","","","","","","","","",""
"","","","","","image-keyboard-response","20","320277","0.0-3.0-17.0","5ef319f3058d7f0178266918","665500ab8938657b03fbdba8","665792b01efae8fa89b2570c","1157","stimuli/2111100.jpg","2","","prediction_practice","1","{""filepath"":""stimuli/2111100.jpg"",""ball_pos"":2,""ego_ball_visible"":true,""ego_can_infer"":true,""alter_ball_visible"":false,""alter_can_infer"":false,""collective_ball_visible"":false,""collective_can_infer"":false,""search_locations"":[2,0,1],""alter_occluders"":""111"",""ego_occluders"":""100""}","false","","","","","","","","","","","","","","","","","","",""
"","","","","","image-keyboard-response","21","320826","0.0-3.0-18.0","5ef319f3058d7f0178266918","665500ab8938657b03fbdba8","665792b01efae8fa89b2570c","547","stimuli/21111001.jpg"," ","","practrice_feedback","2","","","","","","","","","","","","","","","","","","","","",""
"","","","","","image-keyboard-response","22","322443","0.0-3.0-19.0","5ef319f3058d7f0178266918","665500ab8938657b03fbdba8","665792b01efae8fa89b2570c","1614","stimuli/2011101.jpg","2","","prediction_practice","1","{""filepath"":""stimuli/2011101.jpg"",""ball_pos"":2,""ego_ball_visible"":false,""ego_can_infer"":false,""alter_ball_visible"":false,""alter_can_infer"":false,""collective_ball_visible"":false,""collective_can_infer"":false,""search_locations"":[2,1],""alter_occluders"":""011"",""ego_occluders"":""101""}","false","","","","","","","","","","","","","","","","","","",""
"","","","","","image-keyboard-response","23","323464","0.0-3.0-20.0","5ef319f3058d7f0178266918","665500ab8938657b03fbdba8","665792b01efae8fa89b2570c","1017","stimuli/20111011.jpg"," ","","practrice_feedback","2","","","","","","","","","","","","","","","","","","","","",""
"","","","","","html-button-response","24","327004","0.0-3.0-21.0","5ef319f3058d7f0178266918","665500ab8938657b03fbdba8","665792b01efae8fa89b2570c","3539","Now that you've had some practice, you'll be tested with a couple of easy trials. If you correctly predict Sam's choice, you'll move on to complete the experiment!","0","","","","","","","","","","","","","","","","","","","","","","","",""
"","","","","","image-keyboard-response","25","328570","0.0-3.0-22.0-0.0","5ef319f3058d7f0178266918","665500ab8938657b03fbdba8","665792b01efae8fa89b2570c","1562","stimuli/0000011.jpg","arrowleft","","comprehension_quiz","","","true","arrowleft","","","","","","","","","","","","","","","","","",""
"","","","","","image-keyboard-response","26","329014","0.0-3.0-22.0-1.0","5ef319f3058d7f0178266918","665500ab8938657b03fbdba8","665792b01efae8fa89b2570c","438","stimuli/00000110.jpg"," ","","comprehension_quiz","","","true"," ","","","","","","","","","","","","","","","","","",""
"","","","","","image-keyboard-response","27","330142","0.0-3.0-22.0-2.0","5ef319f3058d7f0178266918","665500ab8938657b03fbdba8","665792b01efae8fa89b2570c","1125","stimuli/1010010.jpg","arrowdown","","comprehension_quiz","","","true","arrowdown","","","","","","","","","","","","","","","","","",""
"","","","","","image-keyboard-response","28","330541","0.0-3.0-22.0-3.0","5ef319f3058d7f0178266918","665500ab8938657b03fbdba8","665792b01efae8fa89b2570c","397","stimuli/10100101.jpg"," ","","comprehension_quiz","","","true"," ","","","","","","","","","","","","","","","","","",""
"","","","","","html-button-response","29","332846","0.0-4.0","5ef319f3058d7f0178266918","665500ab8938657b03fbdba8","665792b01efae8fa89b2570c","2300","The experiment will now begin.","0","","","","","","","","","","","","","","","","","","","","","","","",""
"","","","","","image-keyboard-response","30","334566","0.0-5.0","5ef319f3058d7f0178266918","665500ab8938657b03fbdba8","665792b01efae8fa89b2570c","1718","stimuli/0110101.jpg","2","","prediction_trial","1","","false","","0","false","false","false","false","false","false","[0,1]","110","101","0","","","","","","",""
"","","","","","image-keyboard-response","31","335668","0.0-6.0","5ef319f3058d7f0178266918","665500ab8938657b03fbdba8","665792b01efae8fa89b2570c","1098","stimuli/01101011.jpg"," ","","feedback_trial","0","","","","","","","","","","","","","","","","","","","","",""
"","","","","","image-keyboard-response","32","336956","0.0-7.0","5ef319f3058d7f0178266918","665500ab8938657b03fbdba8","665792b01efae8fa89b2570c","1285","stimuli/1000101.jpg","1","","prediction_trial","1","","true","","1","true","true","true","true","true","true","[1]","000","101","1","","","","","","",""
"","","","","","image-keyboard-response","33","337408","0.0-8.0","5ef319f3058d7f0178266918","665500ab8938657b03fbdba8","665792b01efae8fa89b2570c","448","stimuli/10001011.jpg"," ","","feedback_trial","1","","","","","","","","","","","","","","","","","","","","",""
"","","","","","image-keyboard-response","34","338486","0.0-9.0","5ef319f3058d7f0178266918","665500ab8938657b03fbdba8","665792b01efae8fa89b2570c","1075","stimuli/1110101.jpg","0","","prediction_trial","0","","true","","1","true","true","false","false","false","false","[0,1]","110","101","1","","","","","","",""
"","","","","","image-keyboard-response","35","338870","0.0-10.0","5ef319f3058d7f0178266918","665500ab8938657b03fbdba8","665792b01efae8fa89b2570c","381","stimuli/11101010.jpg"," ","","feedback_trial","0","","","","","","","","","","","","","","","","","","","","",""
"","","","","","image-keyboard-response","36","339925","0.0-11.0","5ef319f3058d7f0178266918","665500ab8938657b03fbdba8","665792b01efae8fa89b2570c","1052","stimuli/1001000.jpg","1","","prediction_trial","1","","true","","1","true","true","true","true","true","true","[1]","001","000","1","","","","","","",""
"","","","","","image-keyboard-response","37","340486","0.0-12.0","5ef319f3058d7f0178266918","665500ab8938657b03fbdba8","665792b01efae8fa89b2570c","557","stimuli/10010001.jpg"," ","","feedback_trial","1","","","","","","","","","","","","","","","","","","","","",""
"","","","","","image-keyboard-response","38","341501","0.0-13.0","5ef319f3058d7f0178266918","665500ab8938657b03fbdba8","665792b01efae8fa89b2570c","1013","stimuli/0101011.jpg","0","","prediction_trial","2","","false","","0","true","true","false","false","false","false","[2,0]","101","011","0","","","","","","",""
"","","","","","image-keyboard-response","39","341867","0.0-14.0","5ef319f3058d7f0178266918","665500ab8938657b03fbdba8","665792b01efae8fa89b2570c","362","stimuli/01010112.jpg"," ","","feedback_trial","2","","","","","","","","","","","","","","","","","","","","",""
"","","","","","image-keyboard-response","40","342884","0.0-15.0","5ef319f3058d7f0178266918","665500ab8938657b03fbdba8","665792b01efae8fa89b2570c","994","stimuli/0101000.jpg","0","","prediction_trial","2","","false","","0","true","true","false","false","false","false","[2,0]","101","000","0","","","","","","",""
"","","","","","image-keyboard-response","41","343295","0.0-16.0","5ef319f3058d7f0178266918","665500ab8938657b03fbdba8","665792b01efae8fa89b2570c","410","stimuli/01010002.jpg"," ","","feedback_trial","2","","","","","","","","","","","","","","","","","","","","",""
"","","","","","image-keyboard-response","42","344782","0.0-17.0","5ef319f3058d7f0178266918","665500ab8938657b03fbdba8","665792b01efae8fa89b2570c","1483","stimuli/2111011.jpg","1","","prediction_trial","2","","false","","2","false","false","false","false","false","false","[0,2,1]","111","011","0","","","","","","",""
"","","","","","image-keyboard-response","43","345220","0.0-18.0","5ef319f3058d7f0178266918","665500ab8938657b03fbdba8","665792b01efae8fa89b2570c","436","stimuli/21110112.jpg"," ","","feedback_trial","0","","","","","","","","","","","","","","","","","","","","",""
"","","","","","image-keyboard-response","44","346367","0.0-19.0","5ef319f3058d7f0178266918","665500ab8938657b03fbdba8","665792b01efae8fa89b2570c","1145","stimuli/2000110.jpg","2","","prediction_trial","2","","true","","2","true","true","true","true","true","true","[2]","000","110","1","","","","","","",""
"","","","","","image-keyboard-response","45","346788","0.0-20.0","5ef319f3058d7f0178266918","665500ab8938657b03fbdba8","665792b01efae8fa89b2570c","418","stimuli/20001102.jpg"," ","","feedback_trial","2","","","","","","","","","","","","","","","","","","","","",""
"","","","","","image-keyboard-response","46","347736","0.0-21.0","5ef319f3058d7f0178266918","665500ab8938657b03fbdba8","665792b01efae8fa89b2570c","945","stimuli/1011001.jpg","1","","prediction_trial","1","","true","","1","true","true","false","false","false","false","[1,2]","011","001","1","","","","","","",""
"","","","","","image-keyboard-response","47","348205","0.0-22.0","5ef319f3058d7f0178266918","665500ab8938657b03fbdba8","665792b01efae8fa89b2570c","465","stimuli/10110011.jpg"," ","","feedback_trial","1","","","","","","","","","","","","","","","","","","","","",""
"","","","","","image-keyboard-response","48","349608","0.0-23.0","5ef319f3058d7f0178266918","665500ab8938657b03fbdba8","665792b01efae8fa89b2570c","1401","stimuli/0100011.jpg","0","","prediction_trial","0","","true","","0","true","true","false","true","false","true","[0]","100","011","1","","","","","","",""
"","","","","","image-keyboard-response","49","350010","0.0-24.0","5ef319f3058d7f0178266918","665500ab8938657b03fbdba8","665792b01efae8fa89b2570c","398","stimuli/01000110.jpg"," ","","feedback_trial","0","","","","","","","","","","","","","","","","","","","","",""
"","","","","","image-keyboard-response","50","351692","0.0-25.0","5ef319f3058d7f0178266918","665500ab8938657b03fbdba8","665792b01efae8fa89b2570c","1678","stimuli/2111111.jpg","0","","prediction_trial","0","","true","","2","false","false","false","false","false","false","[1,2,0]","111","111","1","","","","","","",""
"","","","","","image-keyboard-response","51","352602","0.0-26.0","5ef319f3058d7f0178266918","665500ab8938657b03fbdba8","665792b01efae8fa89b2570c","907","stimuli/21111110.jpg"," ","","feedback_trial","1","","","","","","","","","","","","","","","","","","","","",""
"","","","","","image-keyboard-response","52","353744","0.0-27.0","5ef319f3058d7f0178266918","665500ab8938657b03fbdba8","665792b01efae8fa89b2570c","1139","stimuli/0011111.jpg","1","","prediction_trial","0","","false","","0","false","false","true","true","false","false","[0]","011","111","0","","","","","","",""
"","","","","","image-keyboard-response","53","354377","0.0-28.0","5ef319f3058d7f0178266918","665500ab8938657b03fbdba8","665792b01efae8fa89b2570c","630","stimuli/00111110.jpg"," ","","feedback_trial","0","","","","","","","","","","","","","","","","","","","","",""
"","","","","","image-keyboard-response","54","355294","0.0-29.0","5ef319f3058d7f0178266918","665500ab8938657b03fbdba8","665792b01efae8fa89b2570c","915","stimuli/2010000.jpg","2","","prediction_trial","2","","true","","2","true","true","true","true","true","true","[2]","010","000","1","","","","","","",""
"","","","","","image-keyboard-response","55","355778","0.0-30.0","5ef319f3058d7f0178266918","665500ab8938657b03fbdba8","665792b01efae8fa89b2570c","481","stimuli/20100002.jpg"," ","","feedback_trial","2","","","","","","","","","","","","","","","","","","","","",""
"","","","","","image-keyboard-response","56","356843","0.0-31.0","5ef319f3058d7f0178266918","665500ab8938657b03fbdba8","665792b01efae8fa89b2570c","1063","stimuli/1101011.jpg","1","","prediction_trial","1","","true","","1","false","false","true","true","false","false","[1]","101","011","1","","","","","","",""
"","","","","","image-keyboard-response","57","357314","0.0-32.0","5ef319f3058d7f0178266918","665500ab8938657b03fbdba8","665792b01efae8fa89b2570c","470","stimuli/11010111.jpg"," ","","feedback_trial","1","","","","","","","","","","","","","","","","","","","","",""
"","","","","","image-keyboard-response","58","358422","0.0-33.0","5ef319f3058d7f0178266918","665500ab8938657b03fbdba8","665792b01efae8fa89b2570c","1105","stimuli/0000100.jpg","0","","prediction_trial","0","","true","","0","false","true","true","true","false","true","[0]","000","100","1","","","","","","",""
"","","","","","image-keyboard-response","59","358787","0.0-34.0","5ef319f3058d7f0178266918","665500ab8938657b03fbdba8","665792b01efae8fa89b2570c","362","stimuli/00001000.jpg"," ","","feedback_trial","0","","","","","","","","","","","","","","","","","","","","",""
"","","","","","image-keyboard-response","60","359795","0.0-35.0","5ef319f3058d7f0178266918","665500ab8938657b03fbdba8","665792b01efae8fa89b2570c","1006","stimuli/1101010.jpg","1","","prediction_trial","1","","true","","1","false","true","true","true","false","true","[1]","101","010","1","","","","","","",""
"","","","","","image-keyboard-response","61","360238","0.0-36.0","5ef319f3058d7f0178266918","665500ab8938657b03fbdba8","665792b01efae8fa89b2570c","441","stimuli/11010101.jpg"," ","","feedback_trial","1","","","","","","","","","","","","","","","","","","","","",""
"","","","","","image-keyboard-response","62","361103","0.0-37.0","5ef319f3058d7f0178266918","665500ab8938657b03fbdba8","665792b01efae8fa89b2570c","844","stimuli/1110000.jpg","0","","prediction_trial","0","","true","","1","true","true","false","false","false","false","[1,0]","110","000","1","","","","","","",""
"","","","","","image-keyboard-response","63","364572","0.0-38.0","5ef319f3058d7f0178266918","665500ab8938657b03fbdba8","665792b01efae8fa89b2570c","3467","stimuli/11100000.jpg"," ","","feedback_trial","1","","","","","","","","","","","","","","","","","","","","",""
"","","","","","image-keyboard-response","64","365891","0.0-39.0","5ef319f3058d7f0178266918","665500ab8938657b03fbdba8","665792b01efae8fa89b2570c","1315","stimuli/2000011.jpg","1","","prediction_trial","2","","false","","2","false","false","true","true","false","false","[2]","000","011","0","","","","","","",""
"","","","","","image-keyboard-response","65","367201","0.0-40.0","5ef319f3058d7f0178266918","665500ab8938657b03fbdba8","665792b01efae8fa89b2570c","1307","stimuli/20000112.jpg"," ","","feedback_trial","2","","","","","","","","","","","","","","","","","","","","",""
"","","","","","image-keyboard-response","66","368443","0.0-41.0","5ef319f3058d7f0178266918","665500ab8938657b03fbdba8","665792b01efae8fa89b2570c","1239","stimuli/2011001.jpg","2","","prediction_trial","1","","false","","2","false","true","false","false","false","false","[1,2]","011","001","0","","","","","","",""
"","","","","","image-keyboard-response","67","370712","0.0-42.0","5ef319f3058d7f0178266918","665500ab8938657b03fbdba8","665792b01efae8fa89b2570c","2266","stimuli/20110011.jpg"," ","","feedback_trial","1","","","","","","","","","","","","","","","","","","","","",""
"","","","","","image-keyboard-response","68","371717","0.0-43.0","5ef319f3058d7f0178266918","665500ab8938657b03fbdba8","665792b01efae8fa89b2570c","1003","stimuli/2001000.jpg","2","","prediction_trial","2","","true","","2","true","true","false","true","false","true","[2]","001","000","1","","","","","","",""
"","","","","","image-keyboard-response","69","372216","0.0-44.0","5ef319f3058d7f0178266918","665500ab8938657b03fbdba8","665792b01efae8fa89b2570c","495","stimuli/20010002.jpg"," ","","feedback_trial","2","","","","","","","","","","","","","","","","","","","","",""
"","","","","","image-keyboard-response","70","373479","0.0-45.0","5ef319f3058d7f0178266918","665500ab8938657b03fbdba8","665792b01efae8fa89b2570c","1260","stimuli/1000100.jpg","1","","prediction_trial","1","","true","","1","true","true","true","true","true","true","[1]","000","100","1","","","","","","",""
"","","","","","image-keyboard-response","71","374381","0.0-46.0","5ef319f3058d7f0178266918","665500ab8938657b03fbdba8","665792b01efae8fa89b2570c","899","stimuli/10001001.jpg"," ","","feedback_trial","1","","","","","","","","","","","","","","","","","","","","",""
"","","","","","image-keyboard-response","72","376198","0.0-47.0","5ef319f3058d7f0178266918","665500ab8938657b03fbdba8","665792b01efae8fa89b2570c","1814","stimuli/1011010.jpg","1","","prediction_trial","1","","true","","1","false","true","false","false","false","false","[1,2]","011","010","1","","","","","","",""
"","","","","","image-keyboard-response","73","377097","0.0-48.0","5ef319f3058d7f0178266918","665500ab8938657b03fbdba8","665792b01efae8fa89b2570c","896","stimuli/10110101.jpg"," ","","feedback_trial","1","","","","","","","","","","","","","","","","","","","","",""
"","","","","","image-keyboard-response","74","378203","0.0-49.0","5ef319f3058d7f0178266918","665500ab8938657b03fbdba8","665792b01efae8fa89b2570c","1104","stimuli/2100100.jpg","2","","prediction_trial","2","","true","","2","true","true","true","true","true","true","[2]","100","100","1","","","","","","",""
"","","","","","image-keyboard-response","75","378677","0.0-50.0","5ef319f3058d7f0178266918","665500ab8938657b03fbdba8","665792b01efae8fa89b2570c","471","stimuli/21001002.jpg"," ","","feedback_trial","2","","","","","","","","","","","","","","","","","","","","",""
"","","","","","image-keyboard-response","76","380832","0.0-51.0","5ef319f3058d7f0178266918","665500ab8938657b03fbdba8","665792b01efae8fa89b2570c","2154","stimuli/1001111.jpg","2","","prediction_trial","1","","false","","1","false","false","true","true","false","false","[1]","001","111","0","","","","","","",""
"","","","","","image-keyboard-response","77","381922","0.0-52.0","5ef319f3058d7f0178266918","665500ab8938657b03fbdba8","665792b01efae8fa89b2570c","1087","stimuli/10011111.jpg"," ","","feedback_trial","1","","","","","","","","","","","","","","","","","","","","",""
"","","","","","image-keyboard-response","78","383401","0.0-53.0","5ef319f3058d7f0178266918","665500ab8938657b03fbdba8","665792b01efae8fa89b2570c","1476","stimuli/2111000.jpg","2","","prediction_trial","1","","false","","2","true","true","false","false","false","false","[0,2,1]","111","000","0","","","","","","",""
"","","","","","image-keyboard-response","79","384484","0.0-54.0","5ef319f3058d7f0178266918","665500ab8938657b03fbdba8","665792b01efae8fa89b2570c","1079","stimuli/21110001.jpg"," ","","feedback_trial","0","","","","","","","","","","","","","","","","","","","","",""
"","","","","","image-keyboard-response","80","385367","0.0-55.0","5ef319f3058d7f0178266918","665500ab8938657b03fbdba8","665792b01efae8fa89b2570c","881","stimuli/0000000.jpg","0","","prediction_trial","0","","true","","0","true","true","true","true","true","true","[0]","000","000","1","","","","","","",""
"","","","","","image-keyboard-response","81","385742","0.0-56.0","5ef319f3058d7f0178266918","665500ab8938657b03fbdba8","665792b01efae8fa89b2570c","372","stimuli/00000000.jpg"," ","","feedback_trial","0","","","","","","","","","","","","","","","","","","","","",""
"","","","","","image-keyboard-response","82","386580","0.0-57.0","5ef319f3058d7f0178266918","665500ab8938657b03fbdba8","665792b01efae8fa89b2570c","837","stimuli/2111100.jpg","2","","prediction_trial","1","","false","","2","true","true","false","false","false","false","[2,0,1]","111","100","0","","","","","","",""
"","","","","","image-keyboard-response","83","387176","0.0-58.0","5ef319f3058d7f0178266918","665500ab8938657b03fbdba8","665792b01efae8fa89b2570c","593","stimuli/21111001.jpg"," ","","feedback_trial","2","","","","","","","","","","","","","","","","","","","","",""
"","","","","","image-keyboard-response","84","388863","0.0-59.0","5ef319f3058d7f0178266918","665500ab8938657b03fbdba8","665792b01efae8fa89b2570c","1669","stimuli/2110110.jpg","2","","prediction_trial","2","","true","","2","true","true","true","true","true","true","[2]","110","110","1","","","","","","",""
"","","","","","image-keyboard-response","85","389679","0.0-60.0","5ef319f3058d7f0178266918","665500ab8938657b03fbdba8","665792b01efae8fa89b2570c","813","stimuli/21101102.jpg"," ","","feedback_trial","2","","","","","","","","","","","","","","","","","","","","",""
"","","","","","image-keyboard-response","86","391040","0.0-61.0","5ef319f3058d7f0178266918","665500ab8938657b03fbdba8","665792b01efae8fa89b2570c","1358","stimuli/0101110.jpg","0","","prediction_trial","2","","false","","0","false","false","false","false","false","false","[2,0]","101","110","0","","","","","","",""
"","","","","","image-keyboard-response","87","391951","0.0-62.0","5ef319f3058d7f0178266918","665500ab8938657b03fbdba8","665792b01efae8fa89b2570c","907","stimuli/01011102.jpg"," ","","feedback_trial","2","","","","","","","","","","","","","","","","","","","","",""
"","","","","","image-keyboard-response","88","393705","0.0-63.0","5ef319f3058d7f0178266918","665500ab8938657b03fbdba8","665792b01efae8fa89b2570c","1751","stimuli/1001101.jpg","1","","prediction_trial","1","","true","","1","true","true","true","true","true","true","[1]","001","101","1","","","","","","",""
"","","","","","image-keyboard-response","89","394514","0.0-64.0","5ef319f3058d7f0178266918","665500ab8938657b03fbdba8","665792b01efae8fa89b2570c","806","stimuli/10011011.jpg"," ","","feedback_trial","1","","","","","","","","","","","","","","","","","","","","",""
"","","","","","image-keyboard-response","90","396615","0.0-65.0","5ef319f3058d7f0178266918","665500ab8938657b03fbdba8","665792b01efae8fa89b2570c","2099","stimuli/0101100.jpg","0","","prediction_trial","2","","false","","0","false","true","false","false","false","false","[0,2]","101","100","0","","","","","","",""
"","","","","","image-keyboard-response","91","397908","0.0-66.0","5ef319f3058d7f0178266918","665500ab8938657b03fbdba8","665792b01efae8fa89b2570c","1289","stimuli/01011002.jpg"," ","","feedback_trial","0","","","","","","","","","","","","","","","","","","","","",""
"","","","","","image-keyboard-response","92","399860","0.0-67.0","5ef319f3058d7f0178266918","665500ab8938657b03fbdba8","665792b01efae8fa89b2570c","1948","stimuli/0101010.jpg","1","","prediction_trial","0","","false","","0","true","true","false","false","false","false","[0,2]","101","010","0","","","","","","",""
"","","","","","image-keyboard-response","93","401465","0.0-68.0","5ef319f3058d7f0178266918","665500ab8938657b03fbdba8","665792b01efae8fa89b2570c","1602","stimuli/01010100.jpg"," ","","feedback_trial","0","","","","","","","","","","","","","","","","","","","","",""
"","","","","","image-keyboard-response","94","402781","0.0-69.0","5ef319f3058d7f0178266918","665500ab8938657b03fbdba8","665792b01efae8fa89b2570c","1314","stimuli/0010100.jpg","0","","prediction_trial","0","","true","","0","false","true","true","true","false","true","[0]","010","100","1","","","","","","",""
"","","","","","image-keyboard-response","95","403646","0.0-70.0","5ef319f3058d7f0178266918","665500ab8938657b03fbdba8","665792b01efae8fa89b2570c","863","stimuli/00101000.jpg"," ","","feedback_trial","0","","","","","","","","","","","","","","","","","","","","",""
"","","","","","image-keyboard-response","96","404657","0.0-71.0","5ef319f3058d7f0178266918","665500ab8938657b03fbdba8","665792b01efae8fa89b2570c","1009","stimuli/1101000.jpg","1","","prediction_trial","1","","true","","1","true","true","true","true","true","true","[1]","101","000","1","","","","","","",""
"","","","","","image-keyboard-response","97","405064","0.0-72.0","5ef319f3058d7f0178266918","665500ab8938657b03fbdba8","665792b01efae8fa89b2570c","404","stimuli/11010001.jpg"," ","","feedback_trial","1","","","","","","","","","","","","","","","","","","","","",""
"","","","","","image-keyboard-response","98","407864","0.0-73.0","5ef319f3058d7f0178266918","665500ab8938657b03fbdba8","665792b01efae8fa89b2570c","2797","stimuli/1100010.jpg","0","","prediction_trial","1","","false","","1","false","true","true","true","false","true","[1]","100","010","0","","","","","","",""
"","","","","","image-keyboard-response","99","408913","0.0-74.0","5ef319f3058d7f0178266918","665500ab8938657b03fbdba8","665792b01efae8fa89b2570c","1047","stimuli/11000101.jpg"," ","","feedback_trial","1","","","","","","","","","","","","","","","","","","","","",""
"","","","","","image-keyboard-response","100","410509","0.0-75.0","5ef319f3058d7f0178266918","665500ab8938657b03fbdba8","665792b01efae8fa89b2570c","1594","stimuli/0111100.jpg","2","","prediction_trial","0","","false","","0","false","true","false","false","false","false","[0,1,2]","111","100","0","","","","","","",""
"","","","","","image-keyboard-response","101","411349","0.0-76.0","5ef319f3058d7f0178266918","665500ab8938657b03fbdba8","665792b01efae8fa89b2570c","837","stimuli/01111000.jpg"," ","","feedback_trial","0","","","","","","","","","","","","","","","","","","","","",""
"","","","","","image-keyboard-response","102","412320","0.0-77.0","5ef319f3058d7f0178266918","665500ab8938657b03fbdba8","665792b01efae8fa89b2570c","968","stimuli/1011011.jpg","1","","prediction_trial","1","","true","","1","false","false","false","false","false","false","[2,1]","011","011","1","","","","","","",""
"","","","","","image-keyboard-response","103","412950","0.0-78.0","5ef319f3058d7f0178266918","665500ab8938657b03fbdba8","665792b01efae8fa89b2570c","627","stimuli/10110111.jpg"," ","","feedback_trial","2","","","","","","","","","","","","","","","","","","","","",""
"","","","","","image-keyboard-response","104","413869","0.0-79.0","5ef319f3058d7f0178266918","665500ab8938657b03fbdba8","665792b01efae8fa89b2570c","918","stimuli/2000000.jpg","2","","prediction_trial","2","","true","","2","true","true","true","true","true","true","[2]","000","000","1","","","","","","",""
"","","","","","image-keyboard-response","105","414360","0.0-80.0","5ef319f3058d7f0178266918","665500ab8938657b03fbdba8","665792b01efae8fa89b2570c","487","stimuli/20000002.jpg"," ","","feedback_trial","2","","","","","","","","","","","","","","","","","","","","",""
"","","","","","image-keyboard-response","106","415403","0.0-81.0","5ef319f3058d7f0178266918","665500ab8938657b03fbdba8","665792b01efae8fa89b2570c","1022","stimuli/1111001.jpg","0","","prediction_trial","2","","false","","1","true","true","false","false","false","false","[2,0,1]","111","001","0","","","","","","",""
"","","","","","image-keyboard-response","107","416633","0.0-82.0","5ef319f3058d7f0178266918","665500ab8938657b03fbdba8","665792b01efae8fa89b2570c","1225","stimuli/11110012.jpg"," ","","feedback_trial","2","","","","","","","","","","","","","","","","","","","","",""
"","","","","","image-keyboard-response","108","417605","0.0-83.0","5ef319f3058d7f0178266918","665500ab8938657b03fbdba8","665792b01efae8fa89b2570c","970","stimuli/1001100.jpg","1","","prediction_trial","1","","true","","1","true","true","true","true","true","true","[1]","001","100","1","","","","","","",""
"","","","","","image-keyboard-response","109","418023","0.0-84.0","5ef319f3058d7f0178266918","665500ab8938657b03fbdba8","665792b01efae8fa89b2570c","415","stimuli/10011001.jpg"," ","","feedback_trial","1","","","","","","","","","","","","","","","","","","","","",""
"","","","","","image-keyboard-response","110","419184","0.0-85.0","5ef319f3058d7f0178266918","665500ab8938657b03fbdba8","665792b01efae8fa89b2570c","1159","stimuli/1111111.jpg","2","","prediction_trial","2","","true","","1","false","false","false","false","false","false","[1,0,2]","111","111","1","","","","","","",""
"","","","","","image-keyboard-response","111","419704","0.0-86.0","5ef319f3058d7f0178266918","665500ab8938657b03fbdba8","665792b01efae8fa89b2570c","517","stimuli/11111112.jpg"," ","","feedback_trial","1","","","","","","","","","","","","","","","","","","","","",""
"","","","","","image-keyboard-response","112","420603","0.0-87.0","5ef319f3058d7f0178266918","665500ab8938657b03fbdba8","665792b01efae8fa89b2570c","897","stimuli/0011010.jpg","0","","prediction_trial","0","","true","","0","true","true","true","true","true","true","[0]","011","010","1","","","","","","",""
"","","","","","image-keyboard-response","113","421063","0.0-88.0","5ef319f3058d7f0178266918","665500ab8938657b03fbdba8","665792b01efae8fa89b2570c","456","stimuli/00110100.jpg"," ","","feedback_trial","0","","","","","","","","","","","","","","","","","","","","",""
"","","","","","image-keyboard-response","114","422652","0.0-89.0","5ef319f3058d7f0178266918","665500ab8938657b03fbdba8","665792b01efae8fa89b2570c","1586","stimuli/2000001.jpg","1","","prediction_trial","2","","false","","2","false","true","true","true","false","true","[2]","000","001","0","","","","","","",""
"","","","","","image-keyboard-response","115","423358","0.0-90.0","5ef319f3058d7f0178266918","665500ab8938657b03fbdba8","665792b01efae8fa89b2570c","703","stimuli/20000012.jpg"," ","","feedback_trial","2","","","","","","","","","","","","","","","","","","","","",""
"","","","","","image-keyboard-response","116","424466","0.0-91.0","5ef319f3058d7f0178266918","665500ab8938657b03fbdba8","665792b01efae8fa89b2570c","1106","stimuli/1001110.jpg","0","","prediction_trial","1","","false","","1","false","false","true","true","false","false","[1]","001","110","0","","","","","","",""
"","","","","","image-keyboard-response","117","424920","0.0-92.0","5ef319f3058d7f0178266918","665500ab8938657b03fbdba8","665792b01efae8fa89b2570c","450","stimuli/10011101.jpg"," ","","feedback_trial","1","","","","","","","","","","","","","","","","","","","","",""
"","","","","","image-keyboard-response","118","426303","0.0-93.0","5ef319f3058d7f0178266918","665500ab8938657b03fbdba8","665792b01efae8fa89b2570c","1380","stimuli/0100010.jpg","1","","prediction_trial","0","","false","","0","true","true","false","true","false","true","[0]","100","010","0","","","","","","",""
"","","","","","image-keyboard-response","119","426808","0.0-94.0","5ef319f3058d7f0178266918","665500ab8938657b03fbdba8","665792b01efae8fa89b2570c","502","stimuli/01000100.jpg"," ","","feedback_trial","0","","","","","","","","","","","","","","","","","","","","",""
"","","","","","image-keyboard-response","120","427855","0.0-95.0","5ef319f3058d7f0178266918","665500ab8938657b03fbdba8","665792b01efae8fa89b2570c","1044","stimuli/0110011.jpg","0","","prediction_trial","0","","true","","0","true","true","false","false","false","false","[0,1]","110","011","1","","","","","","",""
"","","","","","image-keyboard-response","121","428359","0.0-96.0","5ef319f3058d7f0178266918","665500ab8938657b03fbdba8","665792b01efae8fa89b2570c","501","stimuli/01100110.jpg"," ","","feedback_trial","0","","","","","","","","","","","","","","","","","","","","",""
"","","","","","image-keyboard-response","122","429267","0.0-97.0","5ef319f3058d7f0178266918","665500ab8938657b03fbdba8","665792b01efae8fa89b2570c","906","stimuli/1100111.jpg","0","","prediction_trial","1","","false","","1","false","false","true","true","false","false","[1]","100","111","0","","","","","","",""
"","","","","","image-keyboard-response","123","429728","0.0-98.0","5ef319f3058d7f0178266918","665500ab8938657b03fbdba8","665792b01efae8fa89b2570c","458","stimuli/11001111.jpg"," ","","feedback_trial","1","","","","","","","","","","","","","","","","","","","","",""
"","","","","","image-keyboard-response","124","431039","0.0-99.0","5ef319f3058d7f0178266918","665500ab8938657b03fbdba8","665792b01efae8fa89b2570c","1309","stimuli/2101010.jpg","1","","prediction_trial","2","","false","","2","true","true","false","false","false","false","[0,2]","101","010","0","","","","","","",""
"","","","","","image-keyboard-response","125","431568","0.0-100.0","5ef319f3058d7f0178266918","665500ab8938657b03fbdba8","665792b01efae8fa89b2570c","526","stimuli/21010102.jpg"," ","","feedback_trial","0","","","","","","","","","","","","","","","","","","","","",""
"","","","","","image-keyboard-response","126","432739","0.0-101.0","5ef319f3058d7f0178266918","665500ab8938657b03fbdba8","665792b01efae8fa89b2570c","1169","stimuli/2011000.jpg","2","","prediction_trial","1","","false","","2","true","true","false","false","false","false","[2,1]","011","000","0","","","","","","",""
"","","","","","image-keyboard-response","127","433174","0.0-102.0","5ef319f3058d7f0178266918","665500ab8938657b03fbdba8","665792b01efae8fa89b2570c","432","stimuli/20110001.jpg"," ","","feedback_trial","2","","","","","","","","","","","","","","","","","","","","",""
"","","","","","image-keyboard-response","128","434187","0.0-103.0","5ef319f3058d7f0178266918","665500ab8938657b03fbdba8","665792b01efae8fa89b2570c","1010","stimuli/1010111.jpg","0","","prediction_trial","1","","false","","1","false","false","false","true","false","false","[1]","010","111","0","","","","","","",""
"","","","","","image-keyboard-response","129","434576","0.0-104.0","5ef319f3058d7f0178266918","665500ab8938657b03fbdba8","665792b01efae8fa89b2570c","386","stimuli/10101111.jpg"," ","","feedback_trial","1","","","","","","","","","","","","","","","","","","","","",""
"","","","","","image-keyboard-response","130","435751","0.0-105.0","5ef319f3058d7f0178266918","665500ab8938657b03fbdba8","665792b01efae8fa89b2570c","1173","stimuli/2011101.jpg","1","","prediction_trial","2","","false","","2","false","false","false","false","false","false","[2,1]","011","101","0","","","","","","",""
"","","","","","image-keyboard-response","131","436255","0.0-106.0","5ef319f3058d7f0178266918","665500ab8938657b03fbdba8","665792b01efae8fa89b2570c","499","stimuli/20111012.jpg"," ","","feedback_trial","2","","","","","","","","","","","","","","","","","","","","",""
"","","","","","image-keyboard-response","132","437445","0.0-107.0","5ef319f3058d7f0178266918","665500ab8938657b03fbdba8","665792b01efae8fa89b2570c","1188","stimuli/1010100.jpg","1","","prediction_trial","1","","true","","1","true","true","false","true","false","true","[1]","010","100","1","","","","","","",""
"","","","","","image-keyboard-response","133","437948","0.0-108.0","5ef319f3058d7f0178266918","665500ab8938657b03fbdba8","665792b01efae8fa89b2570c","500","stimuli/10101001.jpg"," ","","feedback_trial","1","","","","","","","","","","","","","","","","","","","","",""
"","","","","","image-keyboard-response","134","439070","0.0-109.0","5ef319f3058d7f0178266918","665500ab8938657b03fbdba8","665792b01efae8fa89b2570c","1119","stimuli/2010100.jpg","2","","prediction_trial","2","","true","","2","true","true","true","true","true","true","[2]","010","100","1","","","","","","",""
"","","","","","image-keyboard-response","135","439585","0.0-110.0","5ef319f3058d7f0178266918","665500ab8938657b03fbdba8","665792b01efae8fa89b2570c","511","stimuli/20101002.jpg"," ","","feedback_trial","2","","","","","","","","","","","","","","","","","","","","",""
"","","","","","image-keyboard-response","136","440763","0.0-111.0","5ef319f3058d7f0178266918","665500ab8938657b03fbdba8","665792b01efae8fa89b2570c","1175","stimuli/0010000.jpg","0","","prediction_trial","0","","true","","0","true","true","true","true","true","true","[0]","010","000","1","","","","","","",""
"","","","","","image-keyboard-response","137","441172","0.0-112.0","5ef319f3058d7f0178266918","665500ab8938657b03fbdba8","665792b01efae8fa89b2570c","407","stimuli/00100000.jpg"," ","","feedback_trial","0","","","","","","","","","","","","","","","","","","","","",""
"","","","","","image-keyboard-response","138","443059","0.0-113.0","5ef319f3058d7f0178266918","665500ab8938657b03fbdba8","665792b01efae8fa89b2570c","1884","stimuli/0011001.jpg","2","","prediction_trial","0","","false","","0","true","true","true","true","true","true","[0]","011","001","0","","","","","","",""
"","","","","","image-keyboard-response","139","443537","0.0-114.0","5ef319f3058d7f0178266918","665500ab8938657b03fbdba8","665792b01efae8fa89b2570c","475","stimuli/00110010.jpg"," ","","feedback_trial","0","","","","","","","","","","","","","","","","","","","","",""
"","","","","","image-keyboard-response","140","444366","0.0-115.0","5ef319f3058d7f0178266918","665500ab8938657b03fbdba8","665792b01efae8fa89b2570c","826","stimuli/2010010.jpg","1","","prediction_trial","2","","false","","2","true","true","true","true","true","true","[2]","010","010","0","","","","","","",""
"","","","","","image-keyboard-response","141","444784","0.0-116.0","5ef319f3058d7f0178266918","665500ab8938657b03fbdba8","665792b01efae8fa89b2570c","415","stimuli/20100102.jpg"," ","","feedback_trial","2","","","","","","","","","","","","","","","","","","","","",""
"","","","","","image-keyboard-response","142","445470","0.0-117.0","5ef319f3058d7f0178266918","665500ab8938657b03fbdba8","665792b01efae8fa89b2570c","683","stimuli/1000010.jpg","0","","prediction_trial","1","","false","","1","false","true","true","true","false","true","[1]","000","010","0","","","","","","",""
"","","","","","image-keyboard-response","143","445861","0.0-118.0","5ef319f3058d7f0178266918","665500ab8938657b03fbdba8","665792b01efae8fa89b2570c","388","stimuli/10000101.jpg"," ","","feedback_trial","1","","","","","","","","","","","","","","","","","","","","",""
"","","","","","image-keyboard-response","144","446615","0.0-119.0","5ef319f3058d7f0178266918","665500ab8938657b03fbdba8","665792b01efae8fa89b2570c","751","stimuli/2100010.jpg","1","","prediction_trial","2","","false","","2","true","true","true","true","true","true","[2]","100","010","0","","","","","","",""
"","","","","","image-keyboard-response","145","447622","0.0-120.0","5ef319f3058d7f0178266918","665500ab8938657b03fbdba8","665792b01efae8fa89b2570c","1004","stimuli/21000102.jpg"," ","","feedback_trial","2","","","","","","","","","","","","","","","","","","","","",""
"","","","","","image-keyboard-response","146","448622","0.0-121.0","5ef319f3058d7f0178266918","665500ab8938657b03fbdba8","665792b01efae8fa89b2570c","998","stimuli/2001100.jpg","1","","prediction_trial","2","","false","","2","true","true","false","true","false","true","[2]","001","100","0","","","","","","",""
"","","","","","image-keyboard-response","147","449084","0.0-122.0","5ef319f3058d7f0178266918","665500ab8938657b03fbdba8","665792b01efae8fa89b2570c","459","stimuli/20011002.jpg"," ","","feedback_trial","2","","","","","","","","","","","","","","","","","","","","",""
"","","","","","image-keyboard-response","148","450090","0.0-123.0","5ef319f3058d7f0178266918","665500ab8938657b03fbdba8","665792b01efae8fa89b2570c","1003","stimuli/0100101.jpg","2","","prediction_trial","0","","false","","0","false","false","false","true","false","false","[0]","100","101","0","","","","","","",""
"","","","","","image-keyboard-response","149","450503","0.0-124.0","5ef319f3058d7f0178266918","665500ab8938657b03fbdba8","665792b01efae8fa89b2570c","411","stimuli/01001010.jpg"," ","","feedback_trial","0","","","","","","","","","","","","","","","","","","","","",""
"","","","","","image-keyboard-response","150","451482","0.0-125.0","5ef319f3058d7f0178266918","665500ab8938657b03fbdba8","665792b01efae8fa89b2570c","976","stimuli/1110100.jpg","1","","prediction_trial","1","","true","","1","true","true","false","false","false","false","[0,1]","110","100","1","","","","","","",""
"","","","","","image-keyboard-response","151","452539","0.0-126.0","5ef319f3058d7f0178266918","665500ab8938657b03fbdba8","665792b01efae8fa89b2570c","1053","stimuli/11101001.jpg"," ","","feedback_trial","0","","","","","","","","","","","","","","","","","","","","",""
"","","","","","image-keyboard-response","152","453432","0.0-127.0","5ef319f3058d7f0178266918","665500ab8938657b03fbdba8","665792b01efae8fa89b2570c","891","stimuli/1100101.jpg","1","","prediction_trial","1","","true","","1","true","true","true","true","true","true","[1]","100","101","1","","","","","","",""
"","","","","","image-keyboard-response","153","453823","0.0-128.0","5ef319f3058d7f0178266918","665500ab8938657b03fbdba8","665792b01efae8fa89b2570c","390","stimuli/11001011.jpg"," ","","feedback_trial","1","","","","","","","","","","","","","","","","","","","","",""
"","","","","","image-keyboard-response","154","454910","0.0-129.0","5ef319f3058d7f0178266918","665500ab8938657b03fbdba8","665792b01efae8fa89b2570c","1085","stimuli/1111010.jpg","1","","prediction_trial","2","","false","","1","false","true","false","false","false","false","[1,0,2]","111","010","0","","","","","","",""
"","","","","","image-keyboard-response","155","455311","0.0-130.0","5ef319f3058d7f0178266918","665500ab8938657b03fbdba8","665792b01efae8fa89b2570c","398","stimuli/11110102.jpg"," ","","feedback_trial","1","","","","","","","","","","","","","","","","","","","","",""
"","","","","","image-keyboard-response","156","456033","0.0-131.0","5ef319f3058d7f0178266918","665500ab8938657b03fbdba8","665792b01efae8fa89b2570c","720","stimuli/2001111.jpg","0","","prediction_trial","2","","false","","2","false","false","false","true","false","false","[2]","001","111","0","","","","","","",""
"","","","","","image-keyboard-response","157","456414","0.0-132.0","5ef319f3058d7f0178266918","665500ab8938657b03fbdba8","665792b01efae8fa89b2570c","377","stimuli/20011112.jpg"," ","","feedback_trial","2","","","","","","","","","","","","","","","","","","","","",""
"","","","","","image-keyboard-response","158","457714","0.0-133.0","5ef319f3058d7f0178266918","665500ab8938657b03fbdba8","665792b01efae8fa89b2570c","1297","stimuli/0000011.jpg","0","","prediction_trial","0","","true","","0","true","true","true","true","true","true","[0]","000","011","1","","","","","","",""
"","","","","","image-keyboard-response","159","458356","0.0-134.0","5ef319f3058d7f0178266918","665500ab8938657b03fbdba8","665792b01efae8fa89b2570c","640","stimuli/00000110.jpg"," ","","feedback_trial","0","","","","","","","","","","","","","","","","","","","","",""
"","","","","","image-keyboard-response","160","459455","0.0-135.0","5ef319f3058d7f0178266918","665500ab8938657b03fbdba8","665792b01efae8fa89b2570c","1096","stimuli/2011100.jpg","1","","prediction_trial","2","","false","","2","true","true","false","false","false","false","[2,1]","011","100","0","","","","","","",""
"","","","","","image-keyboard-response","161","459899","0.0-136.0","5ef319f3058d7f0178266918","665500ab8938657b03fbdba8","665792b01efae8fa89b2570c","440","stimuli/20111002.jpg"," ","","feedback_trial","2","","","","","","","","","","","","","","","","","","","","",""
"","","","","","image-keyboard-response","162","460999","0.0-137.0","5ef319f3058d7f0178266918","665500ab8938657b03fbdba8","665792b01efae8fa89b2570c","1097","stimuli/2101100.jpg","2","","prediction_trial","0","","false","","2","true","true","false","false","false","false","[2,0]","101","100","0","","","","","","",""
"","","","","","image-keyboard-response","163","461384","0.0-138.0","5ef319f3058d7f0178266918","665500ab8938657b03fbdba8","665792b01efae8fa89b2570c","382","stimuli/21011000.jpg"," ","","feedback_trial","2","","","","","","","","","","","","","","","","","","","","",""
"","","","","","image-keyboard-response","164","462597","0.0-139.0","5ef319f3058d7f0178266918","665500ab8938657b03fbdba8","665792b01efae8fa89b2570c","1210","stimuli/2010011.jpg","0","","prediction_trial","2","","false","","2","false","false","true","true","false","false","[2]","010","011","0","","","","","","",""
"","","","","","image-keyboard-response","165","463000","0.0-140.0","5ef319f3058d7f0178266918","665500ab8938657b03fbdba8","665792b01efae8fa89b2570c","400","stimuli/20100112.jpg"," ","","feedback_trial","2","","","","","","","","","","","","","","","","","","","","",""
"","","","","","image-keyboard-response","166","464083","0.0-141.0","5ef319f3058d7f0178266918","665500ab8938657b03fbdba8","665792b01efae8fa89b2570c","1080","stimuli/2110100.jpg","2","","prediction_trial","2","","true","","2","true","true","true","true","true","true","[2]","110","100","1","","","","","","",""
"","","","","","image-keyboard-response","167","465317","0.0-142.0","5ef319f3058d7f0178266918","665500ab8938657b03fbdba8","665792b01efae8fa89b2570c","1231","stimuli/21101002.jpg"," ","","feedback_trial","2","","","","","","","","","","","","","","","","","","","","",""
"","","","","","image-keyboard-response","168","466249","0.0-143.0","5ef319f3058d7f0178266918","665500ab8938657b03fbdba8","665792b01efae8fa89b2570c","930","stimuli/0110110.jpg","1","","prediction_trial","1","","true","","0","false","false","false","false","false","false","[0,1]","110","110","1","","","","","","",""
"","","","","","image-keyboard-response","169","466696","0.0-144.0","5ef319f3058d7f0178266918","665500ab8938657b03fbdba8","665792b01efae8fa89b2570c","443","stimuli/01101101.jpg"," ","","feedback_trial","0","","","","","","","","","","","","","","","","","","","","",""
"","","","","","image-keyboard-response","170","467693","0.0-145.0","5ef319f3058d7f0178266918","665500ab8938657b03fbdba8","665792b01efae8fa89b2570c","994","stimuli/0111001.jpg","0","","prediction_trial","1","","false","","0","true","true","false","false","false","false","[0,2,1]","111","001","0","","","","","","",""
"","","","","","image-keyboard-response","171","468119","0.0-146.0","5ef319f3058d7f0178266918","665500ab8938657b03fbdba8","665792b01efae8fa89b2570c","423","stimuli/01110011.jpg"," ","","feedback_trial","0","","","","","","","","","","","","","","","","","","","","",""
"","","","","","image-keyboard-response","172","469024","0.0-147.0","5ef319f3058d7f0178266918","665500ab8938657b03fbdba8","665792b01efae8fa89b2570c","901","stimuli/1110010.jpg","1","","prediction_trial","0","","false","","1","false","true","false","false","false","false","[0,1]","110","010","0","","","","","","",""
"","","","","","image-keyboard-response","173","469517","0.0-148.0","5ef319f3058d7f0178266918","665500ab8938657b03fbdba8","665792b01efae8fa89b2570c","490","stimuli/11100100.jpg"," ","","feedback_trial","0","","","","","","","","","","","","","","","","","","","","",""
"","","","","","image-keyboard-response","174","471826","0.0-149.0","5ef319f3058d7f0178266918","665500ab8938657b03fbdba8","665792b01efae8fa89b2570c","2307","stimuli/1000011.jpg","1","","prediction_trial","1","","true","","1","false","false","true","true","false","false","[1]","000","011","1","","","","","","",""
"","","","","","image-keyboard-response","175","472562","0.0-150.0","5ef319f3058d7f0178266918","665500ab8938657b03fbdba8","665792b01efae8fa89b2570c","733","stimuli/10000111.jpg"," ","","feedback_trial","1","","","","","","","","","","","","","","","","","","","","",""
"","","","","","image-keyboard-response","176","473514","0.0-151.0","5ef319f3058d7f0178266918","665500ab8938657b03fbdba8","665792b01efae8fa89b2570c","950","stimuli/1000110.jpg","1","","prediction_trial","1","","true","","1","false","false","true","true","false","false","[1]","000","110","1","","","","","","",""
"","","","","","image-keyboard-response","177","473988","0.0-152.0","5ef319f3058d7f0178266918","665500ab8938657b03fbdba8","665792b01efae8fa89b2570c","473","stimuli/10001101.jpg"," ","","feedback_trial","1","","","","","","","","","","","","","","","","","","","","",""
"","","","","","image-keyboard-response","178","474774","0.0-153.0","5ef319f3058d7f0178266918","665500ab8938657b03fbdba8","665792b01efae8fa89b2570c","784","stimuli/0000010.jpg","0","","prediction_trial","0","","true","","0","true","true","true","true","true","true","[0]","000","010","1","","","","","","",""
"","","","","","image-keyboard-response","179","475177","0.0-154.0","5ef319f3058d7f0178266918","665500ab8938657b03fbdba8","665792b01efae8fa89b2570c","400","stimuli/00000100.jpg"," ","","feedback_trial","0","","","","","","","","","","","","","","","","","","","","",""
"","","","","","image-keyboard-response","180","476119","0.0-155.0","5ef319f3058d7f0178266918","665500ab8938657b03fbdba8","665792b01efae8fa89b2570c","938","stimuli/2110010.jpg","2","","prediction_trial","2","","true","","2","true","true","true","true","true","true","[2]","110","010","1","","","","","","",""
"","","","","","image-keyboard-response","181","476568","0.0-156.0","5ef319f3058d7f0178266918","665500ab8938657b03fbdba8","665792b01efae8fa89b2570c","445","stimuli/21100102.jpg"," ","","feedback_trial","2","","","","","","","","","","","","","","","","","","","","",""
"","","","","","image-keyboard-response","182","477563","0.0-157.0","5ef319f3058d7f0178266918","665500ab8938657b03fbdba8","665792b01efae8fa89b2570c","993","stimuli/0000101.jpg","2","","prediction_trial","0","","false","","0","false","false","true","true","false","false","[0]","000","101","0","","","","","","",""
"","","","","","image-keyboard-response","183","478336","0.0-158.0","5ef319f3058d7f0178266918","665500ab8938657b03fbdba8","665792b01efae8fa89b2570c","771","stimuli/00001010.jpg"," ","","feedback_trial","0","","","","","","","","","","","","","","","","","","","","",""
"","","","","","image-keyboard-response","184","479424","0.0-159.0","5ef319f3058d7f0178266918","665500ab8938657b03fbdba8","665792b01efae8fa89b2570c","1085","stimuli/2111110.jpg","1","","prediction_trial","2","","false","","2","true","true","false","false","false","false","[2,0,1]","111","110","0","","","","","","",""
"","","","","","image-keyboard-response","185","479899","0.0-160.0","5ef319f3058d7f0178266918","665500ab8938657b03fbdba8","665792b01efae8fa89b2570c","472","stimuli/21111102.jpg"," ","","feedback_trial","2","","","","","","","","","","","","","","","","","","","","",""
"","","","","","image-keyboard-response","186","480811","0.0-161.0","5ef319f3058d7f0178266918","665500ab8938657b03fbdba8","665792b01efae8fa89b2570c","910","stimuli/2000101.jpg","0","","prediction_trial","2","","false","","2","false","false","true","true","false","false","[2]","000","101","0","","","","","","",""
"","","","","","image-keyboard-response","187","481277","0.0-162.0","5ef319f3058d7f0178266918","665500ab8938657b03fbdba8","665792b01efae8fa89b2570c","462","stimuli/20001012.jpg"," ","","feedback_trial","2","","","","","","","","","","","","","","","","","","","","",""
"","","","","","image-keyboard-response","188","482451","0.0-163.0","5ef319f3058d7f0178266918","665500ab8938657b03fbdba8","665792b01efae8fa89b2570c","1171","stimuli/2000010.jpg","2","","prediction_trial","2","","true","","2","true","true","true","true","true","true","[2]","000","010","1","","","","","","",""
"","","","","","image-keyboard-response","189","482929","0.0-164.0","5ef319f3058d7f0178266918","665500ab8938657b03fbdba8","665792b01efae8fa89b2570c","474","stimuli/20000102.jpg"," ","","feedback_trial","2","","","","","","","","","","","","","","","","","","","","",""
"","","","","","image-keyboard-response","190","483914","0.0-165.0","5ef319f3058d7f0178266918","665500ab8938657b03fbdba8","665792b01efae8fa89b2570c","983","stimuli/0110100.jpg","1","","prediction_trial","1","","true","","0","false","true","false","false","false","false","[0,1]","110","100","1","","","","","","",""
"","","","","","image-keyboard-response","191","484384","0.0-166.0","5ef319f3058d7f0178266918","665500ab8938657b03fbdba8","665792b01efae8fa89b2570c","467","stimuli/01101001.jpg"," ","","feedback_trial","0","","","","","","","","","","","","","","","","","","","","",""
"","","","","","image-keyboard-response","192","485499","0.0-167.0","5ef319f3058d7f0178266918","665500ab8938657b03fbdba8","665792b01efae8fa89b2570c","1112","stimuli/0111000.jpg","0","","prediction_trial","2","","false","","0","true","true","false","false","false","false","[0,2,1]","111","000","0","","","","","","",""
"","","","","","image-keyboard-response","193","485913","0.0-168.0","5ef319f3058d7f0178266918","665500ab8938657b03fbdba8","665792b01efae8fa89b2570c","411","stimuli/01110002.jpg"," ","","feedback_trial","0","","","","","","","","","","","","","","","","","","","","",""
"","","","","","image-keyboard-response","194","486945","0.0-169.0","5ef319f3058d7f0178266918","665500ab8938657b03fbdba8","665792b01efae8fa89b2570c","1012","stimuli/2110011.jpg","2","","prediction_trial","2","","true","","2","false","false","true","true","false","false","[2]","110","011","1","","","","","","",""
"","","","","","image-keyboard-response","195","487328","0.0-170.0","5ef319f3058d7f0178266918","665500ab8938657b03fbdba8","665792b01efae8fa89b2570c","380","stimuli/21100112.jpg"," ","","feedback_trial","2","","","","","","","","","","","","","","","","","","","","",""
"","","","","","image-keyboard-response","196","488453","0.0-171.0","5ef319f3058d7f0178266918","665500ab8938657b03fbdba8","665792b01efae8fa89b2570c","1122","stimuli/2101110.jpg","2","","prediction_trial","0","","false","","2","true","true","false","false","false","false","[0,2]","101","110","0","","","","","","",""
"","","","","","image-keyboard-response","197","488865","0.0-172.0","5ef319f3058d7f0178266918","665500ab8938657b03fbdba8","665792b01efae8fa89b2570c","410","stimuli/21011100.jpg"," ","","feedback_trial","0","","","","","","","","","","","","","","","","","","","","",""
"","","","","","image-keyboard-response","198","489754","0.0-173.0","5ef319f3058d7f0178266918","665500ab8938657b03fbdba8","665792b01efae8fa89b2570c","886","stimuli/1110111.jpg","1","","prediction_trial","0","","false","","1","false","false","false","false","false","false","[0,1]","110","111","0","","","","","","",""
"","","","","","image-keyboard-response","199","490333","0.0-174.0","5ef319f3058d7f0178266918","665500ab8938657b03fbdba8","665792b01efae8fa89b2570c","576","stimuli/11101110.jpg"," ","","feedback_trial","0","","","","","","","","","","","","","","","","","","","","",""
"","","","","","image-keyboard-response","200","491125","0.0-175.0","5ef319f3058d7f0178266918","665500ab8938657b03fbdba8","665792b01efae8fa89b2570c","789","stimuli/0110010.jpg","0","","prediction_trial","0","","true","","0","true","true","false","false","false","false","[0,1]","110","010","1","","","","","","",""
"","","","","","image-keyboard-response","201","491522","0.0-176.0","5ef319f3058d7f0178266918","665500ab8938657b03fbdba8","665792b01efae8fa89b2570c","394","stimuli/01100100.jpg"," ","","feedback_trial","0","","","","","","","","","","","","","","","","","","","","",""
"","","","","","image-keyboard-response","202","492474","0.0-177.0","5ef319f3058d7f0178266918","665500ab8938657b03fbdba8","665792b01efae8fa89b2570c","949","stimuli/2001011.jpg","0","","prediction_trial","2","","false","","2","false","false","false","true","false","false","[2]","001","011","0","","","","","","",""
"","","","","","image-keyboard-response","203","492855","0.0-178.0","5ef319f3058d7f0178266918","665500ab8938657b03fbdba8","665792b01efae8fa89b2570c","378","stimuli/20010112.jpg"," ","","feedback_trial","2","","","","","","","","","","","","","","","","","","","","",""
"","","","","","image-keyboard-response","204","493837","0.0-179.0","5ef319f3058d7f0178266918","665500ab8938657b03fbdba8","665792b01efae8fa89b2570c","981","stimuli/1111110.jpg","1","","prediction_trial","1","","true","","1","false","false","false","false","false","false","[2,1,0]","111","110","1","","","","","","",""
"","","","","","image-keyboard-response","205","494253","0.0-180.0","5ef319f3058d7f0178266918","665500ab8938657b03fbdba8","665792b01efae8fa89b2570c","412","stimuli/11111101.jpg"," ","","feedback_trial","2","","","","","","","","","","","","","","","","","","","","",""
"","","","","","image-keyboard-response","206","495145","0.0-181.0","5ef319f3058d7f0178266918","665500ab8938657b03fbdba8","665792b01efae8fa89b2570c","890","stimuli/0100100.jpg","0","","prediction_trial","0","","true","","0","false","true","false","true","false","true","[0]","100","100","1","","","","","","",""
"","","","","","image-keyboard-response","207","495523","0.0-182.0","5ef319f3058d7f0178266918","665500ab8938657b03fbdba8","665792b01efae8fa89b2570c","374","stimuli/01001000.jpg"," ","","feedback_trial","0","","","","","","","","","","","","","","","","","","","","",""
"","","","","","image-keyboard-response","208","496416","0.0-183.0","5ef319f3058d7f0178266918","665500ab8938657b03fbdba8","665792b01efae8fa89b2570c","891","stimuli/0000110.jpg","1","","prediction_trial","0","","false","","0","false","false","true","true","false","false","[0]","000","110","0","","","","","","",""
"","","","","","image-keyboard-response","209","496868","0.0-184.0","5ef319f3058d7f0178266918","665500ab8938657b03fbdba8","665792b01efae8fa89b2570c","448","stimuli/00001100.jpg"," ","","feedback_trial","0","","","","","","","","","","","","","","","","","","","","",""
"","","","","","image-keyboard-response","210","497734","0.0-185.0","5ef319f3058d7f0178266918","665500ab8938657b03fbdba8","665792b01efae8fa89b2570c","864","stimuli/2011011.jpg","0","","prediction_trial","1","","false","","2","false","false","false","false","false","false","[2,1]","011","011","0","","","","","","",""
"","","","","","image-keyboard-response","211","498108","0.0-186.0","5ef319f3058d7f0178266918","665500ab8938657b03fbdba8","665792b01efae8fa89b2570c","371","stimuli/20110111.jpg"," ","","feedback_trial","2","","","","","","","","","","","","","","","","","","","","",""
"","","","","","image-keyboard-response","212","499050","0.0-187.0","5ef319f3058d7f0178266918","665500ab8938657b03fbdba8","665792b01efae8fa89b2570c","939","stimuli/0100001.jpg","1","","prediction_trial","0","","false","","0","true","true","false","true","false","true","[0]","100","001","0","","","","","","",""
"","","","","","image-keyboard-response","213","499501","0.0-188.0","5ef319f3058d7f0178266918","665500ab8938657b03fbdba8","665792b01efae8fa89b2570c","448","stimuli/01000010.jpg"," ","","feedback_trial","0","","","","","","","","","","","","","","","","","","","","",""
"","","","","","image-keyboard-response","214","500532","0.0-189.0","5ef319f3058d7f0178266918","665500ab8938657b03fbdba8","665792b01efae8fa89b2570c","1029","stimuli/2101101.jpg","2","","prediction_trial","2","","true","","2","false","false","false","false","false","false","[0,2]","101","101","1","","","","","","",""
"","","","","","image-keyboard-response","215","500983","0.0-190.0","5ef319f3058d7f0178266918","665500ab8938657b03fbdba8","665792b01efae8fa89b2570c","447","stimuli/21011012.jpg"," ","","feedback_trial","0","","","","","","","","","","","","","","","","","","","","",""
"","","","","","image-keyboard-response","216","502365","0.0-191.0","5ef319f3058d7f0178266918","665500ab8938657b03fbdba8","665792b01efae8fa89b2570c","1360","stimuli/1010110.jpg","0","","prediction_trial","1","","false","","1","false","false","false","true","false","false","[1]","010","110","0","","","","","","",""
"","","","","","image-keyboard-response","217","502733","0.0-192.0","5ef319f3058d7f0178266918","665500ab8938657b03fbdba8","665792b01efae8fa89b2570c","365","stimuli/10101101.jpg"," ","","feedback_trial","1","","","","","","","","","","","","","","","","","","","","",""
"","","","","","image-keyboard-response","218","503722","0.0-193.0","5ef319f3058d7f0178266918","665500ab8938657b03fbdba8","665792b01efae8fa89b2570c","986","stimuli/1101001.jpg","1","","prediction_trial","1","","true","","1","true","true","true","true","true","true","[1]","101","001","1","","","","","","",""
"","","","","","image-keyboard-response","219","504147","0.0-194.0","5ef319f3058d7f0178266918","665500ab8938657b03fbdba8","665792b01efae8fa89b2570c","422","stimuli/11010011.jpg"," ","","feedback_trial","1","","","","","","","","","","","","","","","","","","","","",""
"","","","","","image-keyboard-response","220","505127","0.0-195.0","5ef319f3058d7f0178266918","665500ab8938657b03fbdba8","665792b01efae8fa89b2570c","978","stimuli/0110000.jpg","0","","prediction_trial","1","","false","","0","true","true","false","false","false","false","[1,0]","110","000","0","","","","","","",""
"","","","","","image-keyboard-response","221","505523","0.0-196.0","5ef319f3058d7f0178266918","665500ab8938657b03fbdba8","665792b01efae8fa89b2570c","392","stimuli/01100001.jpg"," ","","feedback_trial","1","","","","","","","","","","","","","","","","","","","","",""
"","","","","","image-keyboard-response","222","506268","0.0-197.0","5ef319f3058d7f0178266918","665500ab8938657b03fbdba8","665792b01efae8fa89b2570c","743","stimuli/1010000.jpg","1","","prediction_trial","1","","true","","1","true","true","false","true","false","true","[1]","010","000","1","","","","","","",""
"","","","","","image-keyboard-response","223","506721","0.0-198.0","5ef319f3058d7f0178266918","665500ab8938657b03fbdba8","665792b01efae8fa89b2570c","451","stimuli/10100001.jpg"," ","","feedback_trial","1","","","","","","","","","","","","","","","","","","","","",""
"","","","","","image-keyboard-response","224","507789","0.0-199.0","5ef319f3058d7f0178266918","665500ab8938657b03fbdba8","665792b01efae8fa89b2570c","1065","stimuli/2011110.jpg","1","","prediction_trial","2","","false","","2","true","true","false","false","false","false","[1,2]","011","110","0","","","","","","",""
"","","","","","image-keyboard-response","225","508195","0.0-200.0","5ef319f3058d7f0178266918","665500ab8938657b03fbdba8","665792b01efae8fa89b2570c","403","stimuli/20111102.jpg"," ","","feedback_trial","1","","","","","","","","","","","","","","","","","","","","",""
"","","","","","image-keyboard-response","226","509000","0.0-201.0","5ef319f3058d7f0178266918","665500ab8938657b03fbdba8","665792b01efae8fa89b2570c","803","stimuli/2100110.jpg","0","","prediction_trial","2","","false","","2","true","true","true","true","true","true","[2]","100","110","0","","","","","","",""
"","","","","","image-keyboard-response","227","509473","0.0-202.0","5ef319f3058d7f0178266918","665500ab8938657b03fbdba8","665792b01efae8fa89b2570c","468","stimuli/21001102.jpg"," ","","feedback_trial","2","","","","","","","","","","","","","","","","","","","","",""
"","","","","","image-keyboard-response","228","510385","0.0-203.0","5ef319f3058d7f0178266918","665500ab8938657b03fbdba8","665792b01efae8fa89b2570c","909","stimuli/1011111.jpg","0","","prediction_trial","2","","false","","1","false","false","false","false","false","false","[2,1]","011","111","0","","","","","","",""
"","","","","","image-keyboard-response","229","510782","0.0-204.0","5ef319f3058d7f0178266918","665500ab8938657b03fbdba8","665792b01efae8fa89b2570c","393","stimuli/10111112.jpg"," ","","feedback_trial","2","","","","","","","","","","","","","","","","","","","","",""
"","","","","","image-keyboard-response","230","511917","0.0-205.0","5ef319f3058d7f0178266918","665500ab8938657b03fbdba8","665792b01efae8fa89b2570c","1133","stimuli/2111010.jpg","2","","prediction_trial","2","","true","","2","true","true","false","false","false","false","[0,1,2]","111","010","1","","","","","","",""
"","","","","","image-keyboard-response","231","512349","0.0-206.0","5ef319f3058d7f0178266918","665500ab8938657b03fbdba8","665792b01efae8fa89b2570c","429","stimuli/21110102.jpg"," ","","feedback_trial","0","","","","","","","","","","","","","","","","","","","","",""
"","","","","","image-keyboard-response","232","513330","0.0-207.0","5ef319f3058d7f0178266918","665500ab8938657b03fbdba8","665792b01efae8fa89b2570c","980","stimuli/2010101.jpg","2","","prediction_trial","2","","true","","2","false","false","true","true","false","false","[2]","010","101","1","","","","","","",""
"","","","","","image-keyboard-response","233","513792","0.0-208.0","5ef319f3058d7f0178266918","665500ab8938657b03fbdba8","665792b01efae8fa89b2570c","460","stimuli/20101012.jpg"," ","","feedback_trial","2","","","","","","","","","","","","","","","","","","","","",""
"","","","","","image-keyboard-response","234","514752","0.0-209.0","5ef319f3058d7f0178266918","665500ab8938657b03fbdba8","665792b01efae8fa89b2570c","957","stimuli/1000000.jpg","1","","prediction_trial","1","","true","","1","true","true","true","true","true","true","[1]","000","000","1","","","","","","",""
"","","","","","image-keyboard-response","235","515166","0.0-210.0","5ef319f3058d7f0178266918","665500ab8938657b03fbdba8","665792b01efae8fa89b2570c","411","stimuli/10000001.jpg"," ","","feedback_trial","1","","","","","","","","","","","","","","","","","","","","",""
"","","","","","image-keyboard-response","236","516091","0.0-211.0","5ef319f3058d7f0178266918","665500ab8938657b03fbdba8","665792b01efae8fa89b2570c","922","stimuli/0111101.jpg","2","","prediction_trial","2","","true","","0","false","false","false","false","false","false","[1,2,0]","111","101","1","","","","","","",""
"","","","","","image-keyboard-response","237","516537","0.0-212.0","5ef319f3058d7f0178266918","665500ab8938657b03fbdba8","665792b01efae8fa89b2570c","444","stimuli/01111012.jpg"," ","","feedback_trial","1","","","","","","","","","","","","","","","","","","","","",""
"","","","","","image-keyboard-response","238","517513","0.0-213.0","5ef319f3058d7f0178266918","665500ab8938657b03fbdba8","665792b01efae8fa89b2570c","954","stimuli/0100110.jpg","0","","prediction_trial","0","","true","","0","false","false","false","true","false","false","[0]","100","110","1","","","","","","",""
"","","","","","image-keyboard-response","239","517952","0.0-214.0","5ef319f3058d7f0178266918","665500ab8938657b03fbdba8","665792b01efae8fa89b2570c","436","stimuli/01001100.jpg"," ","","feedback_trial","0","","","","","","","","","","","","","","","","","","","","",""
"","","","","","image-keyboard-response","240","518959","0.0-215.0","5ef319f3058d7f0178266918","665500ab8938657b03fbdba8","665792b01efae8fa89b2570c","1004","stimuli/1010001.jpg","1","","prediction_trial","1","","true","","1","true","true","false","true","false","true","[1]","010","001","1","","","","","","",""
"","","","","","image-keyboard-response","241","519357","0.0-216.0","5ef319f3058d7f0178266918","665500ab8938657b03fbdba8","665792b01efae8fa89b2570c","395","stimuli/10100011.jpg"," ","","feedback_trial","1","","","","","","","","","","","","","","","","","","","","",""
"","","","","","image-keyboard-response","242","520279","0.0-217.0","5ef319f3058d7f0178266918","665500ab8938657b03fbdba8","665792b01efae8fa89b2570c","920","stimuli/1100001.jpg","1","","prediction_trial","1","","true","","1","true","true","true","true","true","true","[1]","100","001","1","","","","","","",""
"","","","","","image-keyboard-response","243","520662","0.0-218.0","5ef319f3058d7f0178266918","665500ab8938657b03fbdba8","665792b01efae8fa89b2570c","380","stimuli/11000011.jpg"," ","","feedback_trial","1","","","","","","","","","","","","","","","","","","","","",""
"","","","","","image-keyboard-response","244","521493","0.0-219.0","5ef319f3058d7f0178266918","665500ab8938657b03fbdba8","665792b01efae8fa89b2570c","828","stimuli/2100101.jpg","0","","prediction_trial","2","","false","","2","false","false","true","true","false","false","[2]","100","101","0","","","","","","",""
"","","","","","image-keyboard-response","245","521859","0.0-220.0","5ef319f3058d7f0178266918","665500ab8938657b03fbdba8","665792b01efae8fa89b2570c","364","stimuli/21001012.jpg"," ","","feedback_trial","2","","","","","","","","","","","","","","","","","","","","",""
"","","","","","image-keyboard-response","246","522777","0.0-221.0","5ef319f3058d7f0178266918","665500ab8938657b03fbdba8","665792b01efae8fa89b2570c","915","stimuli/1101110.jpg","0","","prediction_trial","1","","false","","1","false","false","true","true","false","false","[1]","101","110","0","","","","","","",""
"","","","","","image-keyboard-response","247","523116","0.0-222.0","5ef319f3058d7f0178266918","665500ab8938657b03fbdba8","665792b01efae8fa89b2570c","338","stimuli/11011101.jpg"," ","","feedback_trial","1","","","","","","","","","","","","","","","","","","","","",""
"","","","","","image-keyboard-response","248","524045","0.0-223.0","5ef319f3058d7f0178266918","665500ab8938657b03fbdba8","665792b01efae8fa89b2570c","926","stimuli/1011100.jpg","0","","prediction_trial","2","","false","","1","true","true","false","false","false","false","[2,1]","011","100","0","","","","","","",""
"","","","","","image-keyboard-response","249","524345","0.0-224.0","5ef319f3058d7f0178266918","665500ab8938657b03fbdba8","665792b01efae8fa89b2570c","297","stimuli/10111002.jpg"," ","","feedback_trial","2","","","","","","","","","","","","","","","","","","","","",""
"","","","","","image-keyboard-response","250","525073","0.0-225.0","5ef319f3058d7f0178266918","665500ab8938657b03fbdba8","665792b01efae8fa89b2570c","726","stimuli/1101100.jpg","1","","prediction_trial","1","","true","","1","true","true","true","true","true","true","[1]","101","100","1","","","","","","",""
"","","","","","image-keyboard-response","251","525446","0.0-226.0","5ef319f3058d7f0178266918","665500ab8938657b03fbdba8","665792b01efae8fa89b2570c","369","stimuli/11011001.jpg"," ","","feedback_trial","1","","","","","","","","","","","","","","","","","","","","",""
"","","","","","image-keyboard-response","252","526352","0.0-227.0","5ef319f3058d7f0178266918","665500ab8938657b03fbdba8","665792b01efae8fa89b2570c","904","stimuli/0010110.jpg","1","","prediction_trial","0","","false","","0","false","false","true","true","false","false","[0]","010","110","0","","","","","","",""
"","","","","","image-keyboard-response","253","526681","0.0-228.0","5ef319f3058d7f0178266918","665500ab8938657b03fbdba8","665792b01efae8fa89b2570c","325","stimuli/00101100.jpg"," ","","feedback_trial","0","","","","","","","","","","","","","","","","","","","","",""
"","","","","","image-keyboard-response","254","527453","0.0-229.0","5ef319f3058d7f0178266918","665500ab8938657b03fbdba8","665792b01efae8fa89b2570c","770","stimuli/0101001.jpg","2","","prediction_trial","2","","true","","0","true","true","false","false","false","false","[0,2]","101","001","1","","","","","","",""
"","","","","","image-keyboard-response","255","527846","0.0-230.0","5ef319f3058d7f0178266918","665500ab8938657b03fbdba8","665792b01efae8fa89b2570c","390","stimuli/01010012.jpg"," ","","feedback_trial","0","","","","","","","","","","","","","","","","","","","","",""
"","","","","","image-keyboard-response","256","529102","0.0-231.0","5ef319f3058d7f0178266918","665500ab8938657b03fbdba8","665792b01efae8fa89b2570c","1253","stimuli/2010111.jpg","0","","prediction_trial","2","","false","","2","false","false","true","true","false","false","[2]","010","111","0","","","","","","",""
"","","","","","image-keyboard-response","257","529549","0.0-232.0","5ef319f3058d7f0178266918","665500ab8938657b03fbdba8","665792b01efae8fa89b2570c","445","stimuli/20101112.jpg"," ","","feedback_trial","2","","","","","","","","","","","","","","","","","","","","",""
"","","","","","image-keyboard-response","258","530336","0.0-233.0","5ef319f3058d7f0178266918","665500ab8938657b03fbdba8","665792b01efae8fa89b2570c","784","stimuli/2001001.jpg","1","","prediction_trial","2","","false","","2","false","true","false","true","false","true","[2]","001","001","0","","","","","","",""
"","","","","","image-keyboard-response","259","530729","0.0-234.0","5ef319f3058d7f0178266918","665500ab8938657b03fbdba8","665792b01efae8fa89b2570c","390","stimuli/20010012.jpg"," ","","feedback_trial","2","","","","","","","","","","","","","","","","","","","","",""
"","","","","","image-keyboard-response","260","531462","0.0-235.0","5ef319f3058d7f0178266918","665500ab8938657b03fbdba8","665792b01efae8fa89b2570c","712","stimuli/0001000.jpg","0","","prediction_trial","0","","true","","0","true","true","true","true","true","true","[0]","001","000","1","","","","","","",""
"","","","","","image-keyboard-response","261","531782","0.0-236.0","5ef319f3058d7f0178266918","665500ab8938657b03fbdba8","665792b01efae8fa89b2570c","316","stimuli/00010000.jpg"," ","","feedback_trial","0","","","","","","","","","","","","","","","","","","","","",""
"","","","","","image-keyboard-response","262","535666","0.0-237.0","5ef319f3058d7f0178266918","665500ab8938657b03fbdba8","665792b01efae8fa89b2570c","3882","stimuli/2100011.jpg","0","","prediction_trial","2","","false","","2","false","false","true","true","false","false","[2]","100","011","0","","","","","","",""
"","","","","","image-keyboard-response","263","537874","0.0-238.0","5ef319f3058d7f0178266918","665500ab8938657b03fbdba8","665792b01efae8fa89b2570c","2206","stimuli/21000112.jpg"," ","","feedback_trial","2","","","","","","","","","","","","","","","","","","","","",""
"","","","","","image-keyboard-response","264","538496","0.0-239.0","5ef319f3058d7f0178266918","665500ab8938657b03fbdba8","665792b01efae8fa89b2570c","619","stimuli/0110001.jpg","2","","prediction_trial","1","","false","","0","true","true","false","false","false","false","[0,1]","110","001","0","","","","","","",""
"","","","","","image-keyboard-response","265","538687","0.0-240.0","5ef319f3058d7f0178266918","665500ab8938657b03fbdba8","665792b01efae8fa89b2570c","187","stimuli/01100011.jpg"," ","","feedback_trial","0","","","","","","","","","","","","","","","","","","","","",""
"","","","","","image-keyboard-response","266","539016","0.0-241.0","5ef319f3058d7f0178266918","665500ab8938657b03fbdba8","665792b01efae8fa89b2570c","326","stimuli/1111000.jpg","0","","prediction_trial","0","","true","","1","true","true","false","false","false","false","[1,0,2]","111","000","1","","","","","","",""
"","","","","","image-keyboard-response","267","539220","0.0-242.0","5ef319f3058d7f0178266918","665500ab8938657b03fbdba8","665792b01efae8fa89b2570c","201","stimuli/11110000.jpg"," ","","feedback_trial","1","","","","","","","","","","","","","","","","","","","","",""
"","","","","","image-keyboard-response","268","540287","0.0-243.0","5ef319f3058d7f0178266918","665500ab8938657b03fbdba8","665792b01efae8fa89b2570c","1064","stimuli/0010111.jpg","1","","prediction_trial","0","","false","","0","false","false","true","true","false","false","[0]","010","111","0","","","","","","",""
"","","","","","image-keyboard-response","269","540430","0.0-244.0","5ef319f3058d7f0178266918","665500ab8938657b03fbdba8","665792b01efae8fa89b2570c","140","stimuli/00101110.jpg"," ","","feedback_trial","0","","","","","","","","","","","","","","","","","","","","",""
"","","","","","image-keyboard-response","270","540825","0.0-245.0","5ef319f3058d7f0178266918","665500ab8938657b03fbdba8","665792b01efae8fa89b2570c","392","stimuli/2011010.jpg","0","","prediction_trial","2","","false","","2","true","true","false","false","false","false","[2,1]","011","010","0","","","","","","",""
"","","","","","image-keyboard-response","271","541133","0.0-246.0","5ef319f3058d7f0178266918","665500ab8938657b03fbdba8","665792b01efae8fa89b2570c","305","stimuli/20110102.jpg"," ","","feedback_trial","2","","","","","","","","","","","","","","","","","","","","",""
"","","","","","image-keyboard-response","272","541507","0.0-247.0","5ef319f3058d7f0178266918","665500ab8938657b03fbdba8","665792b01efae8fa89b2570c","371","stimuli/2101001.jpg","1","","prediction_trial","2","","false","","2","false","true","false","false","false","false","[0,2]","101","001","0","","","","","","",""
"","","","","","image-keyboard-response","273","541740","0.0-248.0","5ef319f3058d7f0178266918","665500ab8938657b03fbdba8","665792b01efae8fa89b2570c","230","stimuli/21010012.jpg"," ","","feedback_trial","0","","","","","","","","","","","","","","","","","","","","",""
"","","","","","image-keyboard-response","274","542043","0.0-249.0","5ef319f3058d7f0178266918","665500ab8938657b03fbdba8","665792b01efae8fa89b2570c","301","stimuli/0010010.jpg","0","","prediction_trial","0","","true","","0","true","true","true","true","true","true","[0]","010","010","1","","","","","","",""
"","","","","","image-keyboard-response","275","542506","0.0-250.0","5ef319f3058d7f0178266918","665500ab8938657b03fbdba8","665792b01efae8fa89b2570c","459","stimuli/00100100.jpg"," ","","feedback_trial","0","","","","","","","","","","","","","","","","","","","","",""
"","","","","","image-keyboard-response","276","542845","0.0-251.0","5ef319f3058d7f0178266918","665500ab8938657b03fbdba8","665792b01efae8fa89b2570c","337","stimuli/1101101.jpg","0","","prediction_trial","1","","false","","1","true","true","true","true","true","true","[1]","101","101","0","","","","","","",""
"","","","","","image-keyboard-response","277","543218","0.0-252.0","5ef319f3058d7f0178266918","665500ab8938657b03fbdba8","665792b01efae8fa89b2570c","369","stimuli/11011011.jpg"," ","","feedback_trial","1","","","","","","","","","","","","","","","","","","","","",""
"","","","","","image-keyboard-response","278","543546","0.0-253.0","5ef319f3058d7f0178266918","665500ab8938657b03fbdba8","665792b01efae8fa89b2570c","325","stimuli/1100011.jpg","1","","prediction_trial","1","","true","","1","false","false","true","true","false","false","[1]","100","011","1","","","","","","",""
"","","","","","image-keyboard-response","279","544047","0.0-254.0","5ef319f3058d7f0178266918","665500ab8938657b03fbdba8","665792b01efae8fa89b2570c","498","stimuli/11000111.jpg"," ","","feedback_trial","1","","","","","","","","","","","","","","","","","","","","",""
"","","","","","image-keyboard-response","280","544691","0.0-255.0","5ef319f3058d7f0178266918","665500ab8938657b03fbdba8","665792b01efae8fa89b2570c","641","stimuli/2001010.jpg","1","","prediction_trial","2","","false","","2","true","true","false","true","false","true","[2]","001","010","0","","","","","","",""
"","","","","","image-keyboard-response","281","545055","0.0-256.0","5ef319f3058d7f0178266918","665500ab8938657b03fbdba8","665792b01efae8fa89b2570c","361","stimuli/20010102.jpg"," ","","feedback_trial","2","","","","","","","","","","","","","","","","","","","","",""
"","","","","","image-keyboard-response","282","546000","0.0-257.0","5ef319f3058d7f0178266918","665500ab8938657b03fbdba8","665792b01efae8fa89b2570c","922","stimuli/0100111.jpg","0","","prediction_trial","0","","true","","0","false","false","false","true","false","false","[0]","100","111","1","","","","","","",""
"","","","","","image-keyboard-response","283","546269","0.0-258.0","5ef319f3058d7f0178266918","665500ab8938657b03fbdba8","665792b01efae8fa89b2570c","266","stimuli/01001110.jpg"," ","","feedback_trial","0","","","","","","","","","","","","","","","","","","","","",""
"","","","","","image-keyboard-response","284","546658","0.0-259.0","5ef319f3058d7f0178266918","665500ab8938657b03fbdba8","665792b01efae8fa89b2570c","387","stimuli/1110011.jpg","1","","prediction_trial","1","","true","","1","false","false","false","false","false","false","[1,0]","110","011","1","","","","","","",""
"","","","","","image-keyboard-response","285","546991","0.0-260.0","5ef319f3058d7f0178266918","665500ab8938657b03fbdba8","665792b01efae8fa89b2570c","330","stimuli/11100111.jpg"," ","","feedback_trial","1","","","","","","","","","","","","","","","","","","","","",""
"","","","","","image-keyboard-response","286","547499","0.0-261.0","5ef319f3058d7f0178266918","665500ab8938657b03fbdba8","665792b01efae8fa89b2570c","505","stimuli/2110001.jpg","2","","prediction_trial","2","","true","","2","false","true","true","true","false","true","[2]","110","001","1","","","","","","",""
"","","","","","image-keyboard-response","287","547720","0.0-262.0","5ef319f3058d7f0178266918","665500ab8938657b03fbdba8","665792b01efae8fa89b2570c","218","stimuli/21100012.jpg"," ","","feedback_trial","2","","","","","","","","","","","","","","","","","","","","",""
"","","","","","image-keyboard-response","288","548227","0.0-263.0","5ef319f3058d7f0178266918","665500ab8938657b03fbdba8","665792b01efae8fa89b2570c","505","stimuli/2111001.jpg","2","","prediction_trial","0","","false","","2","false","true","false","false","false","false","[1,0,2]","111","001","0","","","","","","",""
"","","","","","image-keyboard-response","289","548350","0.0-264.0","5ef319f3058d7f0178266918","665500ab8938657b03fbdba8","665792b01efae8fa89b2570c","120","stimuli/21110010.jpg"," ","","feedback_trial","1","","","","","","","","","","","","","","","","","","","","",""
"","","","","","image-keyboard-response","290","549540","0.0-265.0","5ef319f3058d7f0178266918","665500ab8938657b03fbdba8","665792b01efae8fa89b2570c","1188","stimuli/1100000.jpg","1","","prediction_trial","1","","true","","1","true","true","true","true","true","true","[1]","100","000","1","","","","","","",""
"","","","","","image-keyboard-response","291","549660","0.0-266.0","5ef319f3058d7f0178266918","665500ab8938657b03fbdba8","665792b01efae8fa89b2570c","116","stimuli/11000001.jpg"," ","","feedback_trial","1","","","","","","","","","","","","","","","","","","","","",""
"","","","","","image-keyboard-response","292","550351","0.0-267.0","5ef319f3058d7f0178266918","665500ab8938657b03fbdba8","665792b01efae8fa89b2570c","689","stimuli/1011000.jpg","1","","prediction_trial","1","","true","","1","true","true","false","false","false","false","[1,2]","011","000","1","","","","","","",""
"","","","","","image-keyboard-response","293","550476","0.0-268.0","5ef319f3058d7f0178266918","665500ab8938657b03fbdba8","665792b01efae8fa89b2570c","122","stimuli/10110001.jpg"," ","","feedback_trial","1","","","","","","","","","","","","","","","","","","","","",""
"","","","","","image-keyboard-response","294","551361","0.0-269.0","5ef319f3058d7f0178266918","665500ab8938657b03fbdba8","665792b01efae8fa89b2570c","883","stimuli/2100001.jpg","2","","prediction_trial","2","","true","","2","false","true","true","true","false","true","[2]","100","001","1","","","","","","",""
"","","","","","image-keyboard-response","295","551513","0.0-270.0","5ef319f3058d7f0178266918","665500ab8938657b03fbdba8","665792b01efae8fa89b2570c","149","stimuli/21000012.jpg"," ","","feedback_trial","2","","","","","","","","","","","","","","","","","","","","",""
"","","","","","image-keyboard-response","296","552167","0.0-271.0","5ef319f3058d7f0178266918","665500ab8938657b03fbdba8","665792b01efae8fa89b2570c","651","stimuli/2101011.jpg","0","","prediction_trial","0","","true","","2","false","false","false","false","false","false","[2,0]","101","011","1","","","","","","",""
"","","","","","image-keyboard-response","297","552313","0.0-272.0","5ef319f3058d7f0178266918","665500ab8938657b03fbdba8","665792b01efae8fa89b2570c","144","stimuli/21010110.jpg"," ","","feedback_trial","2","","","","","","","","","","","","","","","","","","","","",""
"","","","","","image-keyboard-response","298","552879","0.0-273.0","5ef319f3058d7f0178266918","665500ab8938657b03fbdba8","665792b01efae8fa89b2570c","563","stimuli/2101111.jpg","1","","prediction_trial","2","","false","","2","false","false","false","false","false","false","[0,2]","101","111","0","","","","","","",""
"","","","","","image-keyboard-response","299","553014","0.0-274.0","5ef319f3058d7f0178266918","665500ab8938657b03fbdba8","665792b01efae8fa89b2570c","131","stimuli/21011112.jpg"," ","","feedback_trial","0","","","","","","","","","","","","","","","","","","","","",""
"","","","","","image-keyboard-response","300","553736","0.0-275.0","5ef319f3058d7f0178266918","665500ab8938657b03fbdba8","665792b01efae8fa89b2570c","719","stimuli/1110001.jpg","1","","prediction_trial","0","","false","","1","true","true","false","false","false","false","[0,1]","110","001","0","","","","","","",""
"","","","","","image-keyboard-response","301","553896","0.0-276.0","5ef319f3058d7f0178266918","665500ab8938657b03fbdba8","665792b01efae8fa89b2570c","158","stimuli/11100010.jpg"," ","","feedback_trial","0","","","","","","","","","","","","","","","","","","","","",""
"","","","","","image-keyboard-response","302","554575","0.0-277.0","5ef319f3058d7f0178266918","665500ab8938657b03fbdba8","665792b01efae8fa89b2570c","676","stimuli/0111010.jpg","0","","prediction_trial","0","","true","","0","true","true","false","false","false","false","[0,2,1]","111","010","1","","","","","","",""
"","","","","","image-keyboard-response","303","554716","0.0-278.0","5ef319f3058d7f0178266918","665500ab8938657b03fbdba8","665792b01efae8fa89b2570c","137","stimuli/01110100.jpg"," ","","feedback_trial","0","","","","","","","","","","","","","","","","","","","","",""
"","","","","","image-keyboard-response","304","555412","0.0-279.0","5ef319f3058d7f0178266918","665500ab8938657b03fbdba8","665792b01efae8fa89b2570c","693","stimuli/1001001.jpg","1","","prediction_trial","1","","true","","1","true","true","true","true","true","true","[1]","001","001","1","","","","","","",""
"","","","","","image-keyboard-response","305","555571","0.0-280.0","5ef319f3058d7f0178266918","665500ab8938657b03fbdba8","665792b01efae8fa89b2570c","155","stimuli/10010011.jpg"," ","","feedback_trial","1","","","","","","","","","","","","","","","","","","","","",""
"","","","","","image-keyboard-response","306","556320","0.0-281.0","5ef319f3058d7f0178266918","665500ab8938657b03fbdba8","665792b01efae8fa89b2570c","746","stimuli/1111011.jpg","1","","prediction_trial","2","","false","","1","false","false","false","false","false","false","[1,2,0]","111","011","0","","","","","","",""
"","","","","","image-keyboard-response","307","556445","0.0-282.0","5ef319f3058d7f0178266918","665500ab8938657b03fbdba8","665792b01efae8fa89b2570c","123","stimuli/11110112.jpg"," ","","feedback_trial","1","","","","","","","","","","","","","","","","","","","","",""
"","","","","","image-keyboard-response","308","558033","0.0-283.0","5ef319f3058d7f0178266918","665500ab8938657b03fbdba8","665792b01efae8fa89b2570c","1584","stimuli/2011111.jpg","0","","prediction_trial","1","","false","","2","false","false","false","false","false","false","[1,2]","011","111","0","","","","","","",""
"","","","","","image-keyboard-response","309","558161","0.0-284.0","5ef319f3058d7f0178266918","665500ab8938657b03fbdba8","665792b01efae8fa89b2570c","125","stimuli/20111111.jpg"," ","","feedback_trial","1","","","","","","","","","","","","","","","","","","","","",""
"","","","","","image-keyboard-response","310","558892","0.0-285.0","5ef319f3058d7f0178266918","665500ab8938657b03fbdba8","665792b01efae8fa89b2570c","729","stimuli/2100000.jpg","2","","prediction_trial","2","","true","","2","true","true","true","true","true","true","[2]","100","000","1","","","","","","",""
"","","","","","image-keyboard-response","311","559051","0.0-286.0","5ef319f3058d7f0178266918","665500ab8938657b03fbdba8","665792b01efae8fa89b2570c","157","stimuli/21000002.jpg"," ","","feedback_trial","2","","","","","","","","","","","","","","","","","","","","",""
"","","","","","image-keyboard-response","312","560725","0.0-287.0","5ef319f3058d7f0178266918","665500ab8938657b03fbdba8","665792b01efae8fa89b2570c","1672","stimuli/0011011.jpg","0","","prediction_trial","0","","true","","0","true","true","true","true","true","true","[0]","011","011","1","","","","","","",""
"","","","","","image-keyboard-response","313","560817","0.0-288.0","5ef319f3058d7f0178266918","665500ab8938657b03fbdba8","665792b01efae8fa89b2570c","89","stimuli/00110110.jpg"," ","","feedback_trial","0","","","","","","","","","","","","","","","","","","","","",""
"","","","","","image-keyboard-response","314","561703","0.0-289.0","5ef319f3058d7f0178266918","665500ab8938657b03fbdba8","665792b01efae8fa89b2570c","884","stimuli/2001110.jpg","2","","prediction_trial","2","","true","","2","true","true","false","true","false","true","[2]","001","110","1","","","","","","",""
"","","","","","image-keyboard-response","315","561869","0.0-290.0","5ef319f3058d7f0178266918","665500ab8938657b03fbdba8","665792b01efae8fa89b2570c","163","stimuli/20011102.jpg"," ","","feedback_trial","2","","","","","","","","","","","","","","","","","","","","",""
"","","","","","image-keyboard-response","316","562795","0.0-291.0","5ef319f3058d7f0178266918","665500ab8938657b03fbdba8","665792b01efae8fa89b2570c","922","stimuli/2100111.jpg","1","","prediction_trial","2","","false","","2","false","false","true","true","false","false","[2]","100","111","0","","","","","","",""
"","","","","","image-keyboard-response","317","562959","0.0-292.0","5ef319f3058d7f0178266918","665500ab8938657b03fbdba8","665792b01efae8fa89b2570c","161","stimuli/21001112.jpg"," ","","feedback_trial","2","","","","","","","","","","","","","","","","","","","","",""
"","","","","","survey-html-form","318","604783","0.0-293.0","5ef319f3058d7f0178266918","665500ab8938657b03fbdba8","665792b01efae8fa89b2570c","41819","","{""feedback"":""try to understand the game."",""age"":""49"",""gender"":""Male"",""other_gender"":"""",""race"":""White"",""other_race"":"""",""ethnicity"":""Non-Hispanic""}","","exit_survey","","","","","","","","","","","","","","","","try to understand the game.","49","Non-Hispanic","Male","White","0.5069444444444444","0.5069444444444444"
