"success","timeout","failed_images","failed_audio","failed_video","trial_type","trial_index","time_elapsed","internal_node_id","prolific_id","prolific_study_id","prolific_session_id","rt","stimulus","response","view_history","trial","character_choice","stimulus_dict","accuracy","correct_response","ball_pos","ego_ball_visible","ego_can_infer","alter_ball_visible","alter_can_infer","collective_ball_visible","collective_can_infer","search_locations","alter_occluders","ego_occluders","accuracy_bool","feedback","age","ethnicity","gender","race","overall_accuracy","bonus"
"true","false","[]","[]","[]","preload","0","70405","0.0-0.0","5c720c7278263500015665f9","665500ab8938657b03fbdba8","66577ffeb651b453ebb039e7","","","","","","","","","","","","","","","","","","","","","","","","","","",""
"true","","","","","fullscreen","1","103336","0.0-1.0","5c720c7278263500015665f9","665500ab8938657b03fbdba8","66577ffeb651b453ebb039e7","","","","","","","","","","","","","","","","","","","","","","","","","","",""
"","","","","","html-button-response","2","111254","0.0-2.0","5c720c7278263500015665f9","665500ab8938657b03fbdba8","66577ffeb651b453ebb039e7","7914","<p><b>Consent Form</b></p> <div style=""text-align:left;background-color:lightgrey; padding:20px; max-width:900px;""><p>Please consider this information carefully before deciding whether to participate in this research.</p> <p>The purpose of this research is to examine which factors influence social judgment and decision-making. You will be asked to make judgements about individuals and actions in social scenarios. We are simply interested in your judgement. The study will take less than 1 hour to complete, and you will receive less than $20 on Prolific. Your compensation and time commitment are specified in the study description. There are no anticipated risks associated with participating in this study. The effects of participating should be comparable to those you would ordinarily experience from viewing a computer monitor and using a mouse or keyboard for a similar amount of time. At the end of the study, we will provide an explanation of the questions that motivate this line of research and will describe the potential implications. </p><p> Your participation in this study is completely voluntary and you may refuse to participate or you may choose to withdraw at any time without penalty or loss of benefits to you which are otherwise entitled. Your participation in this study will remain confidential. No personally identifiable information will be associated with your data. Also, all analyses of the data will be averaged across all the participants, so your individual responses will never be specifically analyzed. </p><p> If you have questions or concerns about your participation or payment, or want to request a summary of research findings, please contact Dr. Jonathan Phillips at Jonathan.S.Phillips@dartmouth.edu. </p><p> Please save a copy of this form for your records. </p><p><b>Agreement: </b>The nature and purpose of this research have been sufficiently explained and I agree to participate in this study. I understand that I am free to withdraw at any time without incurring any penalty. Please consent by clicking the button below to continue. Otherwise, please exit the study at any time. </p>","0","","","","","","","","","","","","","","","","","","","","","","","",""
"","","","","","instructions","3","379557","0.0-3.0-0.0","5c720c7278263500015665f9","665500ab8938657b03fbdba8","66577ffeb651b453ebb039e7","268300","","","[{""page_index"":0,""viewing_time"":1357},{""page_index"":1,""viewing_time"":17943},{""page_index"":2,""viewing_time"":18478},{""page_index"":3,""viewing_time"":51204},{""page_index"":4,""viewing_time"":9475},{""page_index"":5,""viewing_time"":16119},{""page_index"":6,""viewing_time"":10997},{""page_index"":7,""viewing_time"":26049},{""page_index"":8,""viewing_time"":12805},{""page_index"":9,""viewing_time"":8876},{""page_index"":10,""viewing_time"":18696},{""page_index"":11,""viewing_time"":61371},{""page_index"":12,""viewing_time"":13238},{""page_index"":13,""viewing_time"":1688}]","intro","","","","","","","","","","","","","","","","","","","","","",""
"","","","","","image-keyboard-response","4","382284","0.0-3.0-1.0","5c720c7278263500015665f9","665500ab8938657b03fbdba8","66577ffeb651b453ebb039e7","2713","stimuli/2010110.jpg","2","","prediction_practice","2","{""filepath"":""stimuli/2010110.jpg"",""ball_pos"":2,""ego_ball_visible"":true,""ego_can_infer"":true,""alter_ball_visible"":true,""alter_can_infer"":true,""collective_ball_visible"":true,""collective_can_infer"":true,""search_locations"":[2],""alter_occluders"":""010"",""ego_occluders"":""110""}","true","","","","","","","","","","","","","","","","","","",""
"","","","","","image-keyboard-response","5","385999","0.0-3.0-2.0","5c720c7278263500015665f9","665500ab8938657b03fbdba8","66577ffeb651b453ebb039e7","3702","stimuli/20101102.jpg"," ","","practrice_feedback","2","","","","","","","","","","","","","","","","","","","","",""
"","","","","","image-keyboard-response","6","388902","0.0-3.0-3.0","5c720c7278263500015665f9","665500ab8938657b03fbdba8","66577ffeb651b453ebb039e7","2895","stimuli/0011111.jpg","0","","prediction_practice","0","{""filepath"":""stimuli/0011111.jpg"",""ball_pos"":0,""ego_ball_visible"":false,""ego_can_infer"":false,""alter_ball_visible"":true,""alter_can_infer"":true,""collective_ball_visible"":false,""collective_can_infer"":false,""search_locations"":[0],""alter_occluders"":""011"",""ego_occluders"":""111""}","true","","","","","","","","","","","","","","","","","","",""
"","","","","","image-keyboard-response","7","392700","0.0-3.0-4.0","5c720c7278263500015665f9","665500ab8938657b03fbdba8","66577ffeb651b453ebb039e7","3790","stimuli/00111110.jpg"," ","","practrice_feedback","0","","","","","","","","","","","","","","","","","","","","",""
"","","","","","image-keyboard-response","8","394117","0.0-3.0-5.0","5c720c7278263500015665f9","665500ab8938657b03fbdba8","66577ffeb651b453ebb039e7","1406","stimuli/2111001.jpg","2","","prediction_practice","2","{""filepath"":""stimuli/2111001.jpg"",""ball_pos"":2,""ego_ball_visible"":false,""ego_can_infer"":true,""alter_ball_visible"":false,""alter_can_infer"":false,""collective_ball_visible"":false,""collective_can_infer"":false,""search_locations"":[2,0,1],""alter_occluders"":""111"",""ego_occluders"":""001""}","true","","","","","","","","","","","","","","","","","","",""
"","","","","","image-keyboard-response","9","395708","0.0-3.0-6.0","5c720c7278263500015665f9","665500ab8938657b03fbdba8","66577ffeb651b453ebb039e7","1583","stimuli/21110012.jpg"," ","","practrice_feedback","2","","","","","","","","","","","","","","","","","","","","",""
"","","","","","image-keyboard-response","10","399774","0.0-3.0-7.0","5c720c7278263500015665f9","665500ab8938657b03fbdba8","66577ffeb651b453ebb039e7","4056","stimuli/2001111.jpg","2","","prediction_practice","2","{""filepath"":""stimuli/2001111.jpg"",""ball_pos"":2,""ego_ball_visible"":false,""ego_can_infer"":false,""alter_ball_visible"":false,""alter_can_infer"":true,""collective_ball_visible"":false,""collective_can_infer"":false,""search_locations"":[2],""alter_occluders"":""001"",""ego_occluders"":""111""}","true","","","","","","","","","","","","","","","","","","",""
"","","","","","image-keyboard-response","11","401387","0.0-3.0-8.0","5c720c7278263500015665f9","665500ab8938657b03fbdba8","66577ffeb651b453ebb039e7","1608","stimuli/20011112.jpg"," ","","practrice_feedback","2","","","","","","","","","","","","","","","","","","","","",""
"","","","","","image-keyboard-response","12","403498","0.0-3.0-9.0","5c720c7278263500015665f9","665500ab8938657b03fbdba8","66577ffeb651b453ebb039e7","2107","stimuli/1011101.jpg","1","","prediction_practice","2","{""filepath"":""stimuli/1011101.jpg"",""ball_pos"":1,""ego_ball_visible"":true,""ego_can_infer"":true,""alter_ball_visible"":false,""alter_can_infer"":false,""collective_ball_visible"":false,""collective_can_infer"":false,""search_locations"":[1,2],""alter_occluders"":""011"",""ego_occluders"":""101""}","false","","","","","","","","","","","","","","","","","","",""
"","","","","","image-keyboard-response","13","408068","0.0-3.0-10.0","5c720c7278263500015665f9","665500ab8938657b03fbdba8","66577ffeb651b453ebb039e7","4563","stimuli/10111012.jpg"," ","","practrice_feedback","1","","","","","","","","","","","","","","","","","","","","",""
"","","","","","image-keyboard-response","14","409861","0.0-3.0-11.0","5c720c7278263500015665f9","665500ab8938657b03fbdba8","66577ffeb651b453ebb039e7","1786","stimuli/0110011.jpg","0","","prediction_practice","0","{""filepath"":""stimuli/0110011.jpg"",""ball_pos"":0,""ego_ball_visible"":true,""ego_can_infer"":true,""alter_ball_visible"":false,""alter_can_infer"":false,""collective_ball_visible"":false,""collective_can_infer"":false,""search_locations"":[1,0],""alter_occluders"":""110"",""ego_occluders"":""011""}","true","","","","","","","","","","","","","","","","","","",""
"","","","","","image-keyboard-response","15","411196","0.0-3.0-12.0","5c720c7278263500015665f9","665500ab8938657b03fbdba8","66577ffeb651b453ebb039e7","1325","stimuli/01100110.jpg"," ","","practrice_feedback","1","","","","","","","","","","","","","","","","","","","","",""
"","","","","","image-keyboard-response","16","412002","0.0-3.0-13.0","5c720c7278263500015665f9","665500ab8938657b03fbdba8","66577ffeb651b453ebb039e7","797","stimuli/2001001.jpg","2","","prediction_practice","2","{""filepath"":""stimuli/2001001.jpg"",""ball_pos"":2,""ego_ball_visible"":false,""ego_can_infer"":true,""alter_ball_visible"":false,""alter_can_infer"":true,""collective_ball_visible"":false,""collective_can_infer"":true,""search_locations"":[2],""alter_occluders"":""001"",""ego_occluders"":""001""}","true","","","","","","","","","","","","","","","","","","",""
"","","","","","image-keyboard-response","17","412754","0.0-3.0-14.0","5c720c7278263500015665f9","665500ab8938657b03fbdba8","66577ffeb651b453ebb039e7","747","stimuli/20010012.jpg"," ","","practrice_feedback","2","","","","","","","","","","","","","","","","","","","","",""
"","","","","","image-keyboard-response","18","413971","0.0-3.0-15.0","5c720c7278263500015665f9","665500ab8938657b03fbdba8","66577ffeb651b453ebb039e7","1210","stimuli/1010000.jpg","1","","prediction_practice","1","{""filepath"":""stimuli/1010000.jpg"",""ball_pos"":1,""ego_ball_visible"":true,""ego_can_infer"":true,""alter_ball_visible"":false,""alter_can_infer"":true,""collective_ball_visible"":false,""collective_can_infer"":true,""search_locations"":[1],""alter_occluders"":""010"",""ego_occluders"":""000""}","true","","","","","","","","","","","","","","","","","","",""
"","","","","","image-keyboard-response","19","415820","0.0-3.0-16.0","5c720c7278263500015665f9","665500ab8938657b03fbdba8","66577ffeb651b453ebb039e7","1843","stimuli/10100001.jpg"," ","","practrice_feedback","1","","","","","","","","","","","","","","","","","","","","",""
"","","","","","image-keyboard-response","20","416827","0.0-3.0-17.0","5c720c7278263500015665f9","665500ab8938657b03fbdba8","66577ffeb651b453ebb039e7","998","stimuli/2111000.jpg","2","","prediction_practice","1","{""filepath"":""stimuli/2111000.jpg"",""ball_pos"":2,""ego_ball_visible"":true,""ego_can_infer"":true,""alter_ball_visible"":false,""alter_can_infer"":false,""collective_ball_visible"":false,""collective_can_infer"":false,""search_locations"":[0,2,1],""alter_occluders"":""111"",""ego_occluders"":""000""}","false","","","","","","","","","","","","","","","","","","",""
"","","","","","image-keyboard-response","21","419268","0.0-3.0-18.0","5c720c7278263500015665f9","665500ab8938657b03fbdba8","66577ffeb651b453ebb039e7","2432","stimuli/21110001.jpg"," ","","practrice_feedback","0","","","","","","","","","","","","","","","","","","","","",""
"","","","","","image-keyboard-response","22","420478","0.0-3.0-19.0","5c720c7278263500015665f9","665500ab8938657b03fbdba8","66577ffeb651b453ebb039e7","1201","stimuli/1111101.jpg","1","","prediction_practice","2","{""filepath"":""stimuli/1111101.jpg"",""ball_pos"":1,""ego_ball_visible"":true,""ego_can_infer"":true,""alter_ball_visible"":false,""alter_can_infer"":false,""collective_ball_visible"":false,""collective_can_infer"":false,""search_locations"":[0,1,2],""alter_occluders"":""111"",""ego_occluders"":""101""}","false","","","","","","","","","","","","","","","","","","",""
"","","","","","image-keyboard-response","23","423428","0.0-3.0-20.0","5c720c7278263500015665f9","665500ab8938657b03fbdba8","66577ffeb651b453ebb039e7","2942","stimuli/11111012.jpg"," ","","practrice_feedback","0","","","","","","","","","","","","","","","","","","","","",""
"","","","","","html-button-response","24","438465","0.0-3.0-21.0","5c720c7278263500015665f9","665500ab8938657b03fbdba8","66577ffeb651b453ebb039e7","15034","Now that you've had some practice, you'll be tested with a couple of easy trials. If you correctly predict Sam's choice, you'll move on to complete the experiment!","0","","","","","","","","","","","","","","","","","","","","","","","",""
"","","","","","image-keyboard-response","25","440428","0.0-3.0-22.0-0.0","5c720c7278263500015665f9","665500ab8938657b03fbdba8","66577ffeb651b453ebb039e7","1958","stimuli/0000011.jpg","arrowleft","","comprehension_quiz","","","true","arrowleft","","","","","","","","","","","","","","","","","",""
"","","","","","image-keyboard-response","26","441883","0.0-3.0-22.0-1.0","5c720c7278263500015665f9","665500ab8938657b03fbdba8","66577ffeb651b453ebb039e7","1441","stimuli/00000110.jpg"," ","","comprehension_quiz","","","true"," ","","","","","","","","","","","","","","","","","",""
"","","","","","image-keyboard-response","27","443170","0.0-3.0-22.0-2.0","5c720c7278263500015665f9","665500ab8938657b03fbdba8","66577ffeb651b453ebb039e7","1279","stimuli/1010010.jpg","arrowdown","","comprehension_quiz","","","true","arrowdown","","","","","","","","","","","","","","","","","",""
"","","","","","image-keyboard-response","28","443978","0.0-3.0-22.0-3.0","5c720c7278263500015665f9","665500ab8938657b03fbdba8","66577ffeb651b453ebb039e7","803","stimuli/10100101.jpg"," ","","comprehension_quiz","","","true"," ","","","","","","","","","","","","","","","","","",""
"","","","","","html-button-response","29","447472","0.0-4.0","5c720c7278263500015665f9","665500ab8938657b03fbdba8","66577ffeb651b453ebb039e7","3487","The experiment will now begin.","0","","","","","","","","","","","","","","","","","","","","","","","",""
"","","","","","image-keyboard-response","30","449118","0.0-5.0","5c720c7278263500015665f9","665500ab8938657b03fbdba8","66577ffeb651b453ebb039e7","1640","stimuli/1100001.jpg","1","","prediction_trial","1","","true","","1","true","true","true","true","true","true","[1]","100","001","1","","","","","","",""
"","","","","","image-keyboard-response","31","450411","0.0-6.0","5c720c7278263500015665f9","665500ab8938657b03fbdba8","66577ffeb651b453ebb039e7","1283","stimuli/11000011.jpg"," ","","feedback_trial","1","","","","","","","","","","","","","","","","","","","","",""
"","","","","","image-keyboard-response","32","453531","0.0-7.0","5c720c7278263500015665f9","665500ab8938657b03fbdba8","66577ffeb651b453ebb039e7","3115","stimuli/1110011.jpg","1","","prediction_trial","1","","true","","1","false","false","false","false","false","false","[1,0]","110","011","1","","","","","","",""
"","","","","","image-keyboard-response","33","454614","0.0-8.0","5c720c7278263500015665f9","665500ab8938657b03fbdba8","66577ffeb651b453ebb039e7","1074","stimuli/11100111.jpg"," ","","feedback_trial","1","","","","","","","","","","","","","","","","","","","","",""
"","","","","","image-keyboard-response","34","456251","0.0-9.0","5c720c7278263500015665f9","665500ab8938657b03fbdba8","66577ffeb651b453ebb039e7","1625","stimuli/2010111.jpg","1","","prediction_trial","2","","false","","2","false","false","true","true","false","false","[2]","010","111","0","","","","","","",""
"","","","","","image-keyboard-response","35","457486","0.0-10.0","5c720c7278263500015665f9","665500ab8938657b03fbdba8","66577ffeb651b453ebb039e7","1225","stimuli/20101112.jpg"," ","","feedback_trial","2","","","","","","","","","","","","","","","","","","","","",""
"","","","","","image-keyboard-response","36","458484","0.0-11.0","5c720c7278263500015665f9","665500ab8938657b03fbdba8","66577ffeb651b453ebb039e7","989","stimuli/2100100.jpg","2","","prediction_trial","2","","true","","2","true","true","true","true","true","true","[2]","100","100","1","","","","","","",""
"","","","","","image-keyboard-response","37","459278","0.0-12.0","5c720c7278263500015665f9","665500ab8938657b03fbdba8","66577ffeb651b453ebb039e7","785","stimuli/21001002.jpg"," ","","feedback_trial","2","","","","","","","","","","","","","","","","","","","","",""
"","","","","","image-keyboard-response","38","460875","0.0-13.0","5c720c7278263500015665f9","665500ab8938657b03fbdba8","66577ffeb651b453ebb039e7","1588","stimuli/1111110.jpg","0","","prediction_trial","1","","false","","1","false","false","false","false","false","false","[2,0,1]","111","110","0","","","","","","",""
"","","","","","image-keyboard-response","39","461620","0.0-14.0","5c720c7278263500015665f9","665500ab8938657b03fbdba8","66577ffeb651b453ebb039e7","736","stimuli/11111101.jpg"," ","","feedback_trial","2","","","","","","","","","","","","","","","","","","","","",""
"","","","","","image-keyboard-response","40","462547","0.0-15.0","5c720c7278263500015665f9","665500ab8938657b03fbdba8","66577ffeb651b453ebb039e7","919","stimuli/1100100.jpg","1","","prediction_trial","1","","true","","1","true","true","true","true","true","true","[1]","100","100","1","","","","","","",""
"","","","","","image-keyboard-response","41","463188","0.0-16.0","5c720c7278263500015665f9","665500ab8938657b03fbdba8","66577ffeb651b453ebb039e7","630","stimuli/11001001.jpg"," ","","feedback_trial","1","","","","","","","","","","","","","","","","","","","","",""
"","","","","","image-keyboard-response","42","464259","0.0-17.0","5c720c7278263500015665f9","665500ab8938657b03fbdba8","66577ffeb651b453ebb039e7","1062","stimuli/1010101.jpg","1","","prediction_trial","1","","true","","1","true","true","false","true","false","true","[1]","010","101","1","","","","","","",""
"","","","","","image-keyboard-response","43","465059","0.0-18.0","5c720c7278263500015665f9","665500ab8938657b03fbdba8","66577ffeb651b453ebb039e7","791","stimuli/10101011.jpg"," ","","feedback_trial","1","","","","","","","","","","","","","","","","","","","","",""
"","","","","","image-keyboard-response","44","465899","0.0-19.0","5c720c7278263500015665f9","665500ab8938657b03fbdba8","66577ffeb651b453ebb039e7","830","stimuli/0101000.jpg","0","","prediction_trial","2","","false","","0","true","true","false","false","false","false","[2,0]","101","000","0","","","","","","",""
"","","","","","image-keyboard-response","45","467156","0.0-20.0","5c720c7278263500015665f9","665500ab8938657b03fbdba8","66577ffeb651b453ebb039e7","1249","stimuli/01010002.jpg"," ","","feedback_trial","2","","","","","","","","","","","","","","","","","","","","",""
"","","","","","image-keyboard-response","46","470102","0.0-21.0","5c720c7278263500015665f9","665500ab8938657b03fbdba8","66577ffeb651b453ebb039e7","2937","stimuli/0110011.jpg","0","","prediction_trial","0","","true","","0","true","true","false","false","false","false","[1,0]","110","011","1","","","","","","",""
"","","","","","image-keyboard-response","47","470842","0.0-22.0","5c720c7278263500015665f9","665500ab8938657b03fbdba8","66577ffeb651b453ebb039e7","732","stimuli/01100110.jpg"," ","","feedback_trial","1","","","","","","","","","","","","","","","","","","","","",""
"","","","","","image-keyboard-response","48","471770","0.0-23.0","5c720c7278263500015665f9","665500ab8938657b03fbdba8","66577ffeb651b453ebb039e7","920","stimuli/1000000.jpg","1","","prediction_trial","1","","true","","1","true","true","true","true","true","true","[1]","000","000","1","","","","","","",""
"","","","","","image-keyboard-response","49","472539","0.0-24.0","5c720c7278263500015665f9","665500ab8938657b03fbdba8","66577ffeb651b453ebb039e7","760","stimuli/10000001.jpg"," ","","feedback_trial","1","","","","","","","","","","","","","","","","","","","","",""
"","","","","","image-keyboard-response","50","474109","0.0-25.0","5c720c7278263500015665f9","665500ab8938657b03fbdba8","66577ffeb651b453ebb039e7","1561","stimuli/2001000.jpg","2","","prediction_trial","2","","true","","2","true","true","false","true","false","true","[2]","001","000","1","","","","","","",""
"","","","","","image-keyboard-response","51","474658","0.0-26.0","5c720c7278263500015665f9","665500ab8938657b03fbdba8","66577ffeb651b453ebb039e7","541","stimuli/20010002.jpg"," ","","feedback_trial","2","","","","","","","","","","","","","","","","","","","","",""
"","","","","","image-keyboard-response","52","476603","0.0-27.0","5c720c7278263500015665f9","665500ab8938657b03fbdba8","66577ffeb651b453ebb039e7","1935","stimuli/0101111.jpg","2","","prediction_trial","0","","false","","0","false","false","false","false","false","false","[2,0]","101","111","0","","","","","","",""
"","","","","","image-keyboard-response","53","477403","0.0-28.0","5c720c7278263500015665f9","665500ab8938657b03fbdba8","66577ffeb651b453ebb039e7","791","stimuli/01011110.jpg"," ","","feedback_trial","2","","","","","","","","","","","","","","","","","","","","",""
"","","","","","image-keyboard-response","54","478443","0.0-29.0","5c720c7278263500015665f9","665500ab8938657b03fbdba8","66577ffeb651b453ebb039e7","1031","stimuli/0010100.jpg","0","","prediction_trial","0","","true","","0","false","true","true","true","false","true","[0]","010","100","1","","","","","","",""
"","","","","","image-keyboard-response","55","479083","0.0-30.0","5c720c7278263500015665f9","665500ab8938657b03fbdba8","66577ffeb651b453ebb039e7","632","stimuli/00101000.jpg"," ","","feedback_trial","0","","","","","","","","","","","","","","","","","","","","",""
"","","","","","image-keyboard-response","56","480398","0.0-31.0","5c720c7278263500015665f9","665500ab8938657b03fbdba8","66577ffeb651b453ebb039e7","1305","stimuli/0101100.jpg","0","","prediction_trial","0","","true","","0","false","true","false","false","false","false","[2,0]","101","100","1","","","","","","",""
"","","","","","image-keyboard-response","57","481091","0.0-32.0","5c720c7278263500015665f9","665500ab8938657b03fbdba8","66577ffeb651b453ebb039e7","685","stimuli/01011000.jpg"," ","","feedback_trial","2","","","","","","","","","","","","","","","","","","","","",""
"","","","","","image-keyboard-response","58","482258","0.0-33.0","5c720c7278263500015665f9","665500ab8938657b03fbdba8","66577ffeb651b453ebb039e7","1159","stimuli/0110010.jpg","0","","prediction_trial","0","","true","","0","true","true","false","false","false","false","[1,0]","110","010","1","","","","","","",""
"","","","","","image-keyboard-response","59","482818","0.0-34.0","5c720c7278263500015665f9","665500ab8938657b03fbdba8","66577ffeb651b453ebb039e7","555","stimuli/01100100.jpg"," ","","feedback_trial","1","","","","","","","","","","","","","","","","","","","","",""
"","","","","","image-keyboard-response","60","483865","0.0-35.0","5c720c7278263500015665f9","665500ab8938657b03fbdba8","66577ffeb651b453ebb039e7","1051","stimuli/2101000.jpg","2","","prediction_trial","0","","false","","2","true","true","false","false","false","false","[0,2]","101","000","0","","","","","","",""
"","","","","","image-keyboard-response","61","484451","0.0-36.0","5c720c7278263500015665f9","665500ab8938657b03fbdba8","66577ffeb651b453ebb039e7","578","stimuli/21010000.jpg"," ","","feedback_trial","0","","","","","","","","","","","","","","","","","","","","",""
"","","","","","image-keyboard-response","62","485888","0.0-37.0","5c720c7278263500015665f9","665500ab8938657b03fbdba8","66577ffeb651b453ebb039e7","1429","stimuli/0000111.jpg","1","","prediction_trial","0","","false","","0","false","false","true","true","false","false","[0]","000","111","0","","","","","","",""
"","","","","","image-keyboard-response","63","486705","0.0-38.0","5c720c7278263500015665f9","665500ab8938657b03fbdba8","66577ffeb651b453ebb039e7","808","stimuli/00001110.jpg"," ","","feedback_trial","0","","","","","","","","","","","","","","","","","","","","",""
"","","","","","image-keyboard-response","64","487657","0.0-39.0","5c720c7278263500015665f9","665500ab8938657b03fbdba8","66577ffeb651b453ebb039e7","943","stimuli/2101001.jpg","2","","prediction_trial","0","","false","","2","false","true","false","false","false","false","[2,0]","101","001","0","","","","","","",""
"","","","","","image-keyboard-response","65","488936","0.0-40.0","5c720c7278263500015665f9","665500ab8938657b03fbdba8","66577ffeb651b453ebb039e7","1270","stimuli/21010010.jpg"," ","","feedback_trial","2","","","","","","","","","","","","","","","","","","","","",""
"","","","","","image-keyboard-response","66","492906","0.0-41.0","5c720c7278263500015665f9","665500ab8938657b03fbdba8","66577ffeb651b453ebb039e7","3961","stimuli/2111001.jpg","0","","prediction_trial","2","","false","","2","false","true","false","false","false","false","[2,0,1]","111","001","0","","","","","","",""
"","","","","","image-keyboard-response","67","493825","0.0-42.0","5c720c7278263500015665f9","665500ab8938657b03fbdba8","66577ffeb651b453ebb039e7","906","stimuli/21110012.jpg"," ","","feedback_trial","2","","","","","","","","","","","","","","","","","","","","",""
"","","","","","image-keyboard-response","68","496577","0.0-43.0","5c720c7278263500015665f9","665500ab8938657b03fbdba8","66577ffeb651b453ebb039e7","2739","stimuli/2001111.jpg","0","","prediction_trial","2","","false","","2","false","false","false","true","false","false","[2]","001","111","0","","","","","","",""
"","","","","","image-keyboard-response","69","497308","0.0-44.0","5c720c7278263500015665f9","665500ab8938657b03fbdba8","66577ffeb651b453ebb039e7","721","stimuli/20011112.jpg"," ","","feedback_trial","2","","","","","","","","","","","","","","","","","","","","",""
"","","","","","image-keyboard-response","70","498576","0.0-45.0","5c720c7278263500015665f9","665500ab8938657b03fbdba8","66577ffeb651b453ebb039e7","1258","stimuli/0101010.jpg","0","","prediction_trial","2","","false","","0","true","true","false","false","false","false","[0,2]","101","010","0","","","","","","",""
"","","","","","image-keyboard-response","71","499561","0.0-46.0","5c720c7278263500015665f9","665500ab8938657b03fbdba8","66577ffeb651b453ebb039e7","979","stimuli/01010102.jpg"," ","","feedback_trial","0","","","","","","","","","","","","","","","","","","","","",""
"","","","","","image-keyboard-response","72","500993","0.0-47.0","5c720c7278263500015665f9","665500ab8938657b03fbdba8","66577ffeb651b453ebb039e7","1423","stimuli/2000101.jpg","2","","prediction_trial","2","","true","","2","false","false","true","true","false","false","[2]","000","101","1","","","","","","",""
"","","","","","image-keyboard-response","73","501688","0.0-48.0","5c720c7278263500015665f9","665500ab8938657b03fbdba8","66577ffeb651b453ebb039e7","683","stimuli/20001012.jpg"," ","","feedback_trial","2","","","","","","","","","","","","","","","","","","","","",""
"","","","","","image-keyboard-response","74","502793","0.0-49.0","5c720c7278263500015665f9","665500ab8938657b03fbdba8","66577ffeb651b453ebb039e7","1096","stimuli/2011001.jpg","2","","prediction_trial","1","","false","","2","false","true","false","false","false","false","[1,2]","011","001","0","","","","","","",""
"","","","","","image-keyboard-response","75","503382","0.0-50.0","5c720c7278263500015665f9","665500ab8938657b03fbdba8","66577ffeb651b453ebb039e7","574","stimuli/20110011.jpg"," ","","feedback_trial","1","","","","","","","","","","","","","","","","","","","","",""
"","","","","","image-keyboard-response","76","504609","0.0-51.0","5c720c7278263500015665f9","665500ab8938657b03fbdba8","66577ffeb651b453ebb039e7","1218","stimuli/2110011.jpg","0","","prediction_trial","2","","false","","2","false","false","true","true","false","false","[2]","110","011","0","","","","","","",""
"","","","","","image-keyboard-response","77","505297","0.0-52.0","5c720c7278263500015665f9","665500ab8938657b03fbdba8","66577ffeb651b453ebb039e7","681","stimuli/21100112.jpg"," ","","feedback_trial","2","","","","","","","","","","","","","","","","","","","","",""
"","","","","","image-keyboard-response","78","506361","0.0-53.0","5c720c7278263500015665f9","665500ab8938657b03fbdba8","66577ffeb651b453ebb039e7","1056","stimuli/0111001.jpg","0","","prediction_trial","2","","false","","0","true","true","false","false","false","false","[1,2,0]","111","001","0","","","","","","",""
"","","","","","image-keyboard-response","79","507057","0.0-54.0","5c720c7278263500015665f9","665500ab8938657b03fbdba8","66577ffeb651b453ebb039e7","688","stimuli/01110012.jpg"," ","","feedback_trial","1","","","","","","","","","","","","","","","","","","","","",""
"","","","","","image-keyboard-response","80","507936","0.0-55.0","5c720c7278263500015665f9","665500ab8938657b03fbdba8","66577ffeb651b453ebb039e7","870","stimuli/2001011.jpg","2","","prediction_trial","2","","true","","2","false","false","false","true","false","false","[2]","001","011","1","","","","","","",""
"","","","","","image-keyboard-response","81","508688","0.0-56.0","5c720c7278263500015665f9","665500ab8938657b03fbdba8","66577ffeb651b453ebb039e7","744","stimuli/20010112.jpg"," ","","feedback_trial","2","","","","","","","","","","","","","","","","","","","","",""
"","","","","","image-keyboard-response","82","510353","0.0-57.0","5c720c7278263500015665f9","665500ab8938657b03fbdba8","66577ffeb651b453ebb039e7","1660","stimuli/0100110.jpg","1","","prediction_trial","0","","false","","0","false","false","false","true","false","false","[0]","100","110","0","","","","","","",""
"","","","","","image-keyboard-response","83","511034","0.0-58.0","5c720c7278263500015665f9","665500ab8938657b03fbdba8","66577ffeb651b453ebb039e7","671","stimuli/01001100.jpg"," ","","feedback_trial","0","","","","","","","","","","","","","","","","","","","","",""
"","","","","","image-keyboard-response","84","512041","0.0-59.0","5c720c7278263500015665f9","665500ab8938657b03fbdba8","66577ffeb651b453ebb039e7","999","stimuli/0100001.jpg","0","","prediction_trial","0","","true","","0","true","true","false","true","false","true","[0]","100","001","1","","","","","","",""
"","","","","","image-keyboard-response","85","512888","0.0-60.0","5c720c7278263500015665f9","665500ab8938657b03fbdba8","66577ffeb651b453ebb039e7","842","stimuli/01000010.jpg"," ","","feedback_trial","0","","","","","","","","","","","","","","","","","","","","",""
"","","","","","image-keyboard-response","86","514771","0.0-61.0","5c720c7278263500015665f9","665500ab8938657b03fbdba8","66577ffeb651b453ebb039e7","1875","stimuli/2000111.jpg","1","","prediction_trial","2","","false","","2","false","false","true","true","false","false","[2]","000","111","0","","","","","","",""
"","","","","","image-keyboard-response","87","515386","0.0-62.0","5c720c7278263500015665f9","665500ab8938657b03fbdba8","66577ffeb651b453ebb039e7","606","stimuli/20001112.jpg"," ","","feedback_trial","2","","","","","","","","","","","","","","","","","","","","",""
"","","","","","image-keyboard-response","88","516432","0.0-63.0","5c720c7278263500015665f9","665500ab8938657b03fbdba8","66577ffeb651b453ebb039e7","1038","stimuli/1111010.jpg","1","","prediction_trial","1","","true","","1","false","true","false","false","false","false","[2,0,1]","111","010","1","","","","","","",""
"","","","","","image-keyboard-response","89","517328","0.0-64.0","5c720c7278263500015665f9","665500ab8938657b03fbdba8","66577ffeb651b453ebb039e7","891","stimuli/11110101.jpg"," ","","feedback_trial","2","","","","","","","","","","","","","","","","","","","","",""
"","","","","","image-keyboard-response","90","519544","0.0-65.0","5c720c7278263500015665f9","665500ab8938657b03fbdba8","66577ffeb651b453ebb039e7","2209","stimuli/2001101.jpg","0","","prediction_trial","2","","false","","2","false","false","false","true","false","false","[2]","001","101","0","","","","","","",""
"","","","","","image-keyboard-response","91","520137","0.0-66.0","5c720c7278263500015665f9","665500ab8938657b03fbdba8","66577ffeb651b453ebb039e7","588","stimuli/20011012.jpg"," ","","feedback_trial","2","","","","","","","","","","","","","","","","","","","","",""
"","","","","","image-keyboard-response","92","521104","0.0-67.0","5c720c7278263500015665f9","665500ab8938657b03fbdba8","66577ffeb651b453ebb039e7","959","stimuli/1111100.jpg","1","","prediction_trial","2","","false","","1","true","true","false","false","false","false","[0,2,1]","111","100","0","","","","","","",""
"","","","","","image-keyboard-response","93","521777","0.0-68.0","5c720c7278263500015665f9","665500ab8938657b03fbdba8","66577ffeb651b453ebb039e7","661","stimuli/11111002.jpg"," ","","feedback_trial","0","","","","","","","","","","","","","","","","","","","","",""
"","","","","","image-keyboard-response","94","522593","0.0-69.0","5c720c7278263500015665f9","665500ab8938657b03fbdba8","66577ffeb651b453ebb039e7","805","stimuli/1000100.jpg","1","","prediction_trial","1","","true","","1","true","true","true","true","true","true","[1]","000","100","1","","","","","","",""
"","","","","","image-keyboard-response","95","523080","0.0-70.0","5c720c7278263500015665f9","665500ab8938657b03fbdba8","66577ffeb651b453ebb039e7","475","stimuli/10001001.jpg"," ","","feedback_trial","1","","","","","","","","","","","","","","","","","","","","",""
"","","","","","image-keyboard-response","96","523816","0.0-71.0","5c720c7278263500015665f9","665500ab8938657b03fbdba8","66577ffeb651b453ebb039e7","724","stimuli/1011001.jpg","1","","prediction_trial","2","","false","","1","true","true","false","false","false","false","[2,1]","011","001","0","","","","","","",""
"","","","","","image-keyboard-response","97","524425","0.0-72.0","5c720c7278263500015665f9","665500ab8938657b03fbdba8","66577ffeb651b453ebb039e7","599","stimuli/10110012.jpg"," ","","feedback_trial","2","","","","","","","","","","","","","","","","","","","","",""
"","","","","","image-keyboard-response","98","525006","0.0-73.0","5c720c7278263500015665f9","665500ab8938657b03fbdba8","66577ffeb651b453ebb039e7","567","stimuli/2111000.jpg","2","","prediction_trial","1","","false","","2","true","true","false","false","false","false","[0,2,1]","111","000","0","","","","","","",""
"","","","","","image-keyboard-response","99","525704","0.0-74.0","5c720c7278263500015665f9","665500ab8938657b03fbdba8","66577ffeb651b453ebb039e7","687","stimuli/21110001.jpg"," ","","feedback_trial","0","","","","","","","","","","","","","","","","","","","","",""
"","","","","","image-keyboard-response","100","526219","0.0-75.0","5c720c7278263500015665f9","665500ab8938657b03fbdba8","66577ffeb651b453ebb039e7","508","stimuli/2001001.jpg","0","","prediction_trial","2","","false","","2","false","true","false","true","false","true","[2]","001","001","0","","","","","","",""
"","","","","","image-keyboard-response","101","526937","0.0-76.0","5c720c7278263500015665f9","665500ab8938657b03fbdba8","66577ffeb651b453ebb039e7","710","stimuli/20010012.jpg"," ","","feedback_trial","2","","","","","","","","","","","","","","","","","","","","",""
"","","","","","image-keyboard-response","102","528627","0.0-77.0","5c720c7278263500015665f9","665500ab8938657b03fbdba8","66577ffeb651b453ebb039e7","1681","stimuli/1111101.jpg","1","","prediction_trial","0","","false","","1","true","true","false","false","false","false","[0,1,2]","111","101","0","","","","","","",""
"","","","","","image-keyboard-response","103","529225","0.0-78.0","5c720c7278263500015665f9","665500ab8938657b03fbdba8","66577ffeb651b453ebb039e7","589","stimuli/11111010.jpg"," ","","feedback_trial","0","","","","","","","","","","","","","","","","","","","","",""
"","","","","","image-keyboard-response","104","530201","0.0-79.0","5c720c7278263500015665f9","665500ab8938657b03fbdba8","66577ffeb651b453ebb039e7","967","stimuli/2011010.jpg","2","","prediction_trial","1","","false","","2","true","true","false","false","false","false","[1,2]","011","010","0","","","","","","",""
"","","","","","image-keyboard-response","105","530944","0.0-80.0","5c720c7278263500015665f9","665500ab8938657b03fbdba8","66577ffeb651b453ebb039e7","735","stimuli/20110101.jpg"," ","","feedback_trial","1","","","","","","","","","","","","","","","","","","","","",""
"","","","","","image-keyboard-response","106","532584","0.0-81.0","5c720c7278263500015665f9","665500ab8938657b03fbdba8","66577ffeb651b453ebb039e7","1634","stimuli/1110000.jpg","1","","prediction_trial","1","","true","","1","true","true","false","false","false","false","[1,0]","110","000","1","","","","","","",""
"","","","","","image-keyboard-response","107","533466","0.0-82.0","5c720c7278263500015665f9","665500ab8938657b03fbdba8","66577ffeb651b453ebb039e7","874","stimuli/11100001.jpg"," ","","feedback_trial","1","","","","","","","","","","","","","","","","","","","","",""
"","","","","","image-keyboard-response","108","534256","0.0-83.0","5c720c7278263500015665f9","665500ab8938657b03fbdba8","66577ffeb651b453ebb039e7","782","stimuli/2001010.jpg","2","","prediction_trial","2","","true","","2","true","true","false","true","false","true","[2]","001","010","1","","","","","","",""
"","","","","","image-keyboard-response","109","535139","0.0-84.0","5c720c7278263500015665f9","665500ab8938657b03fbdba8","66577ffeb651b453ebb039e7","874","stimuli/20010102.jpg"," ","","feedback_trial","2","","","","","","","","","","","","","","","","","","","","",""
"","","","","","image-keyboard-response","110","537616","0.0-85.0","5c720c7278263500015665f9","665500ab8938657b03fbdba8","66577ffeb651b453ebb039e7","2468","stimuli/0110001.jpg","0","","prediction_trial","1","","false","","0","true","true","false","false","false","false","[0,1]","110","001","0","","","","","","",""
"","","","","","image-keyboard-response","111","538289","0.0-86.0","5c720c7278263500015665f9","665500ab8938657b03fbdba8","66577ffeb651b453ebb039e7","662","stimuli/01100011.jpg"," ","","feedback_trial","0","","","","","","","","","","","","","","","","","","","","",""
"","","","","","image-keyboard-response","112","541081","0.0-87.0","5c720c7278263500015665f9","665500ab8938657b03fbdba8","66577ffeb651b453ebb039e7","2780","stimuli/0001110.jpg","1","","prediction_trial","0","","false","","0","false","false","true","true","false","false","[0]","001","110","0","","","","","","",""
"","","","","","image-keyboard-response","113","541882","0.0-88.0","5c720c7278263500015665f9","665500ab8938657b03fbdba8","66577ffeb651b453ebb039e7","790","stimuli/00011100.jpg"," ","","feedback_trial","0","","","","","","","","","","","","","","","","","","","","",""
"","","","","","image-keyboard-response","114","543768","0.0-89.0","5c720c7278263500015665f9","665500ab8938657b03fbdba8","66577ffeb651b453ebb039e7","1873","stimuli/0001111.jpg","0","","prediction_trial","0","","true","","0","false","false","true","true","false","false","[0]","001","111","1","","","","","","",""
"","","","","","image-keyboard-response","115","544644","0.0-90.0","5c720c7278263500015665f9","665500ab8938657b03fbdba8","66577ffeb651b453ebb039e7","852","stimuli/00011110.jpg"," ","","feedback_trial","0","","","","","","","","","","","","","","","","","","","","",""
"","","","","","image-keyboard-response","116","545984","0.0-91.0","5c720c7278263500015665f9","665500ab8938657b03fbdba8","66577ffeb651b453ebb039e7","1327","stimuli/2111111.jpg","0","","prediction_trial","2","","false","","2","false","false","false","false","false","false","[0,2,1]","111","111","0","","","","","","",""
"","","","","","image-keyboard-response","117","546690","0.0-92.0","5c720c7278263500015665f9","665500ab8938657b03fbdba8","66577ffeb651b453ebb039e7","693","stimuli/21111112.jpg"," ","","feedback_trial","0","","","","","","","","","","","","","","","","","","","","",""
"","","","","","image-keyboard-response","118","547795","0.0-93.0","5c720c7278263500015665f9","665500ab8938657b03fbdba8","66577ffeb651b453ebb039e7","1098","stimuli/1010010.jpg","1","","prediction_trial","1","","true","","1","false","true","false","true","false","true","[1]","010","010","1","","","","","","",""
"","","","","","image-keyboard-response","119","548501","0.0-94.0","5c720c7278263500015665f9","665500ab8938657b03fbdba8","66577ffeb651b453ebb039e7","697","stimuli/10100101.jpg"," ","","feedback_trial","1","","","","","","","","","","","","","","","","","","","","",""
"","","","","","image-keyboard-response","120","549691","0.0-95.0","5c720c7278263500015665f9","665500ab8938657b03fbdba8","66577ffeb651b453ebb039e7","1180","stimuli/1010110.jpg","1","","prediction_trial","1","","true","","1","false","false","false","true","false","false","[1]","010","110","1","","","","","","",""
"","","","","","image-keyboard-response","121","550357","0.0-96.0","5c720c7278263500015665f9","665500ab8938657b03fbdba8","66577ffeb651b453ebb039e7","660","stimuli/10101101.jpg"," ","","feedback_trial","1","","","","","","","","","","","","","","","","","","","","",""
"","","","","","image-keyboard-response","122","551787","0.0-97.0","5c720c7278263500015665f9","665500ab8938657b03fbdba8","66577ffeb651b453ebb039e7","1344","stimuli/0000110.jpg","0","","prediction_trial","0","","true","","0","false","false","true","true","false","false","[0]","000","110","1","","","","","","",""
"","","","","","image-keyboard-response","123","552364","0.0-98.0","5c720c7278263500015665f9","665500ab8938657b03fbdba8","66577ffeb651b453ebb039e7","568","stimuli/00001100.jpg"," ","","feedback_trial","0","","","","","","","","","","","","","","","","","","","","",""
"","","","","","image-keyboard-response","124","553434","0.0-99.0","5c720c7278263500015665f9","665500ab8938657b03fbdba8","66577ffeb651b453ebb039e7","1062","stimuli/2001100.jpg","2","","prediction_trial","2","","true","","2","true","true","false","true","false","true","[2]","001","100","1","","","","","","",""
"","","","","","image-keyboard-response","125","553990","0.0-100.0","5c720c7278263500015665f9","665500ab8938657b03fbdba8","66577ffeb651b453ebb039e7","550","stimuli/20011002.jpg"," ","","feedback_trial","2","","","","","","","","","","","","","","","","","","","","",""
"","","","","","image-keyboard-response","126","554949","0.0-101.0","5c720c7278263500015665f9","665500ab8938657b03fbdba8","66577ffeb651b453ebb039e7","949","stimuli/2010001.jpg","2","","prediction_trial","2","","true","","2","false","true","true","true","false","true","[2]","010","001","1","","","","","","",""
"","","","","","image-keyboard-response","127","555499","0.0-102.0","5c720c7278263500015665f9","665500ab8938657b03fbdba8","66577ffeb651b453ebb039e7","539","stimuli/20100012.jpg"," ","","feedback_trial","2","","","","","","","","","","","","","","","","","","","","",""
"","","","","","image-keyboard-response","128","556494","0.0-103.0","5c720c7278263500015665f9","665500ab8938657b03fbdba8","66577ffeb651b453ebb039e7","985","stimuli/2100001.jpg","2","","prediction_trial","2","","true","","2","false","true","true","true","false","true","[2]","100","001","1","","","","","","",""
"","","","","","image-keyboard-response","129","556997","0.0-104.0","5c720c7278263500015665f9","665500ab8938657b03fbdba8","66577ffeb651b453ebb039e7","492","stimuli/21000012.jpg"," ","","feedback_trial","2","","","","","","","","","","","","","","","","","","","","",""
"","","","","","image-keyboard-response","130","557698","0.0-105.0","5c720c7278263500015665f9","665500ab8938657b03fbdba8","66577ffeb651b453ebb039e7","694","stimuli/1111001.jpg","1","","prediction_trial","1","","true","","1","true","true","false","false","false","false","[2,1,0]","111","001","1","","","","","","",""
"","","","","","image-keyboard-response","131","558259","0.0-106.0","5c720c7278263500015665f9","665500ab8938657b03fbdba8","66577ffeb651b453ebb039e7","555","stimuli/11110011.jpg"," ","","feedback_trial","2","","","","","","","","","","","","","","","","","","","","",""
"","","","","","image-keyboard-response","132","559091","0.0-107.0","5c720c7278263500015665f9","665500ab8938657b03fbdba8","66577ffeb651b453ebb039e7","823","stimuli/1010011.jpg","1","","prediction_trial","1","","true","","1","false","false","false","true","false","false","[1]","010","011","1","","","","","","",""
"","","","","","image-keyboard-response","133","559611","0.0-108.0","5c720c7278263500015665f9","665500ab8938657b03fbdba8","66577ffeb651b453ebb039e7","512","stimuli/10100111.jpg"," ","","feedback_trial","1","","","","","","","","","","","","","","","","","","","","",""
"","","","","","image-keyboard-response","134","560291","0.0-109.0","5c720c7278263500015665f9","665500ab8938657b03fbdba8","66577ffeb651b453ebb039e7","672","stimuli/1100101.jpg","1","","prediction_trial","1","","true","","1","true","true","true","true","true","true","[1]","100","101","1","","","","","","",""
"","","","","","image-keyboard-response","135","560940","0.0-110.0","5c720c7278263500015665f9","665500ab8938657b03fbdba8","66577ffeb651b453ebb039e7","640","stimuli/11001011.jpg"," ","","feedback_trial","1","","","","","","","","","","","","","","","","","","","","",""
"","","","","","image-keyboard-response","136","561730","0.0-111.0","5c720c7278263500015665f9","665500ab8938657b03fbdba8","66577ffeb651b453ebb039e7","782","stimuli/2010100.jpg","2","","prediction_trial","2","","true","","2","true","true","true","true","true","true","[2]","010","100","1","","","","","","",""
"","","","","","image-keyboard-response","137","562323","0.0-112.0","5c720c7278263500015665f9","665500ab8938657b03fbdba8","66577ffeb651b453ebb039e7","587","stimuli/20101002.jpg"," ","","feedback_trial","2","","","","","","","","","","","","","","","","","","","","",""
"","","","","","image-keyboard-response","138","563324","0.0-113.0","5c720c7278263500015665f9","665500ab8938657b03fbdba8","66577ffeb651b453ebb039e7","990","stimuli/2011100.jpg","2","","prediction_trial","2","","true","","2","true","true","false","false","false","false","[2,1]","011","100","1","","","","","","",""
"","","","","","image-keyboard-response","139","564031","0.0-114.0","5c720c7278263500015665f9","665500ab8938657b03fbdba8","66577ffeb651b453ebb039e7","693","stimuli/20111002.jpg"," ","","feedback_trial","2","","","","","","","","","","","","","","","","","","","","",""
"","","","","","image-keyboard-response","140","564899","0.0-115.0","5c720c7278263500015665f9","665500ab8938657b03fbdba8","66577ffeb651b453ebb039e7","859","stimuli/1011101.jpg","1","","prediction_trial","1","","true","","1","true","true","false","false","false","false","[1,2]","011","101","1","","","","","","",""
"","","","","","image-keyboard-response","141","565467","0.0-116.0","5c720c7278263500015665f9","665500ab8938657b03fbdba8","66577ffeb651b453ebb039e7","557","stimuli/10111011.jpg"," ","","feedback_trial","1","","","","","","","","","","","","","","","","","","","","",""
"","","","","","image-keyboard-response","142","566299","0.0-117.0","5c720c7278263500015665f9","665500ab8938657b03fbdba8","66577ffeb651b453ebb039e7","820","stimuli/0100111.jpg","0","","prediction_trial","0","","true","","0","false","false","false","true","false","false","[0]","100","111","1","","","","","","",""
"","","","","","image-keyboard-response","143","567091","0.0-118.0","5c720c7278263500015665f9","665500ab8938657b03fbdba8","66577ffeb651b453ebb039e7","783","stimuli/01001110.jpg"," ","","feedback_trial","0","","","","","","","","","","","","","","","","","","","","",""
"","","","","","image-keyboard-response","144","567852","0.0-119.0","5c720c7278263500015665f9","665500ab8938657b03fbdba8","66577ffeb651b453ebb039e7","753","stimuli/0110000.jpg","0","","prediction_trial","0","","true","","0","true","true","false","false","false","false","[1,0]","110","000","1","","","","","","",""
"","","","","","image-keyboard-response","145","568628","0.0-120.0","5c720c7278263500015665f9","665500ab8938657b03fbdba8","66577ffeb651b453ebb039e7","763","stimuli/01100000.jpg"," ","","feedback_trial","1","","","","","","","","","","","","","","","","","","","","",""
"","","","","","image-keyboard-response","146","569396","0.0-121.0","5c720c7278263500015665f9","665500ab8938657b03fbdba8","66577ffeb651b453ebb039e7","758","stimuli/1011111.jpg","1","","prediction_trial","1","","true","","1","false","false","false","false","false","false","[2,1]","011","111","1","","","","","","",""
"","","","","","image-keyboard-response","147","569946","0.0-122.0","5c720c7278263500015665f9","665500ab8938657b03fbdba8","66577ffeb651b453ebb039e7","542","stimuli/10111111.jpg"," ","","feedback_trial","2","","","","","","","","","","","","","","","","","","","","",""
"","","","","","image-keyboard-response","148","570595","0.0-123.0","5c720c7278263500015665f9","665500ab8938657b03fbdba8","66577ffeb651b453ebb039e7","643","stimuli/1110100.jpg","1","","prediction_trial","1","","true","","1","true","true","false","false","false","false","[0,1]","110","100","1","","","","","","",""
"","","","","","image-keyboard-response","149","571127","0.0-124.0","5c720c7278263500015665f9","665500ab8938657b03fbdba8","66577ffeb651b453ebb039e7","521","stimuli/11101001.jpg"," ","","feedback_trial","0","","","","","","","","","","","","","","","","","","","","",""
"","","","","","image-keyboard-response","150","572636","0.0-125.0","5c720c7278263500015665f9","665500ab8938657b03fbdba8","66577ffeb651b453ebb039e7","1500","stimuli/1100011.jpg","2","","prediction_trial","1","","false","","1","false","false","true","true","false","false","[1]","100","011","0","","","","","","",""
"","","","","","image-keyboard-response","151","573722","0.0-126.0","5c720c7278263500015665f9","665500ab8938657b03fbdba8","66577ffeb651b453ebb039e7","1078","stimuli/11000111.jpg"," ","","feedback_trial","1","","","","","","","","","","","","","","","","","","","","",""
"","","","","","image-keyboard-response","152","574507","0.0-127.0","5c720c7278263500015665f9","665500ab8938657b03fbdba8","66577ffeb651b453ebb039e7","779","stimuli/0001010.jpg","0","","prediction_trial","0","","true","","0","true","true","true","true","true","true","[0]","001","010","1","","","","","","",""
"","","","","","image-keyboard-response","153","575011","0.0-128.0","5c720c7278263500015665f9","665500ab8938657b03fbdba8","66577ffeb651b453ebb039e7","494","stimuli/00010100.jpg"," ","","feedback_trial","0","","","","","","","","","","","","","","","","","","","","",""
"","","","","","image-keyboard-response","154","575627","0.0-129.0","5c720c7278263500015665f9","665500ab8938657b03fbdba8","66577ffeb651b453ebb039e7","608","stimuli/2110110.jpg","2","","prediction_trial","2","","true","","2","true","true","true","true","true","true","[2]","110","110","1","","","","","","",""
"","","","","","image-keyboard-response","155","576099","0.0-130.0","5c720c7278263500015665f9","665500ab8938657b03fbdba8","66577ffeb651b453ebb039e7","461","stimuli/21101102.jpg"," ","","feedback_trial","2","","","","","","","","","","","","","","","","","","","","",""
"","","","","","image-keyboard-response","156","576763","0.0-131.0","5c720c7278263500015665f9","665500ab8938657b03fbdba8","66577ffeb651b453ebb039e7","659","stimuli/1101100.jpg","1","","prediction_trial","1","","true","","1","true","true","true","true","true","true","[1]","101","100","1","","","","","","",""
"","","","","","image-keyboard-response","157","577262","0.0-132.0","5c720c7278263500015665f9","665500ab8938657b03fbdba8","66577ffeb651b453ebb039e7","490","stimuli/11011001.jpg"," ","","feedback_trial","1","","","","","","","","","","","","","","","","","","","","",""
"","","","","","image-keyboard-response","158","578171","0.0-133.0","5c720c7278263500015665f9","665500ab8938657b03fbdba8","66577ffeb651b453ebb039e7","901","stimuli/2011011.jpg","1","","prediction_trial","1","","true","","2","false","false","false","false","false","false","[2,1]","011","011","1","","","","","","",""
"","","","","","image-keyboard-response","159","578698","0.0-134.0","5c720c7278263500015665f9","665500ab8938657b03fbdba8","66577ffeb651b453ebb039e7","520","stimuli/20110111.jpg"," ","","feedback_trial","2","","","","","","","","","","","","","","","","","","","","",""
"","","","","","image-keyboard-response","160","579738","0.0-135.0","5c720c7278263500015665f9","665500ab8938657b03fbdba8","66577ffeb651b453ebb039e7","1035","stimuli/1100111.jpg","0","","prediction_trial","1","","false","","1","false","false","true","true","false","false","[1]","100","111","0","","","","","","",""
"","","","","","image-keyboard-response","161","580931","0.0-136.0","5c720c7278263500015665f9","665500ab8938657b03fbdba8","66577ffeb651b453ebb039e7","1180","stimuli/11001111.jpg"," ","","feedback_trial","1","","","","","","","","","","","","","","","","","","","","",""
"","","","","","image-keyboard-response","162","581746","0.0-137.0","5c720c7278263500015665f9","665500ab8938657b03fbdba8","66577ffeb651b453ebb039e7","807","stimuli/2100110.jpg","2","","prediction_trial","2","","true","","2","true","true","true","true","true","true","[2]","100","110","1","","","","","","",""
"","","","","","image-keyboard-response","163","582387","0.0-138.0","5c720c7278263500015665f9","665500ab8938657b03fbdba8","66577ffeb651b453ebb039e7","634","stimuli/21001102.jpg"," ","","feedback_trial","2","","","","","","","","","","","","","","","","","","","","",""
"","","","","","image-keyboard-response","164","583370","0.0-139.0","5c720c7278263500015665f9","665500ab8938657b03fbdba8","66577ffeb651b453ebb039e7","975","stimuli/2111101.jpg","0","","prediction_trial","1","","false","","2","false","false","false","false","false","false","[2,1,0]","111","101","0","","","","","","",""
"","","","","","image-keyboard-response","165","584397","0.0-140.0","5c720c7278263500015665f9","665500ab8938657b03fbdba8","66577ffeb651b453ebb039e7","1021","stimuli/21111011.jpg"," ","","feedback_trial","2","","","","","","","","","","","","","","","","","","","","",""
"","","","","","image-keyboard-response","166","585380","0.0-141.0","5c720c7278263500015665f9","665500ab8938657b03fbdba8","66577ffeb651b453ebb039e7","975","stimuli/2000001.jpg","2","","prediction_trial","2","","true","","2","false","true","true","true","false","true","[2]","000","001","1","","","","","","",""
"","","","","","image-keyboard-response","167","586003","0.0-142.0","5c720c7278263500015665f9","665500ab8938657b03fbdba8","66577ffeb651b453ebb039e7","614","stimuli/20000012.jpg"," ","","feedback_trial","2","","","","","","","","","","","","","","","","","","","","",""
"","","","","","image-keyboard-response","168","586938","0.0-143.0","5c720c7278263500015665f9","665500ab8938657b03fbdba8","66577ffeb651b453ebb039e7","927","stimuli/1001100.jpg","1","","prediction_trial","1","","true","","1","true","true","true","true","true","true","[1]","001","100","1","","","","","","",""
"","","","","","image-keyboard-response","169","587819","0.0-144.0","5c720c7278263500015665f9","665500ab8938657b03fbdba8","66577ffeb651b453ebb039e7","873","stimuli/10011001.jpg"," ","","feedback_trial","1","","","","","","","","","","","","","","","","","","","","",""
"","","","","","image-keyboard-response","170","589114","0.0-145.0","5c720c7278263500015665f9","665500ab8938657b03fbdba8","66577ffeb651b453ebb039e7","1287","stimuli/2111100.jpg","2","","prediction_trial","2","","true","","2","true","true","false","false","false","false","[2,1,0]","111","100","1","","","","","","",""
"","","","","","image-keyboard-response","171","589763","0.0-146.0","5c720c7278263500015665f9","665500ab8938657b03fbdba8","66577ffeb651b453ebb039e7","641","stimuli/21111002.jpg"," ","","feedback_trial","2","","","","","","","","","","","","","","","","","","","","",""
"","","","","","image-keyboard-response","172","591364","0.0-147.0","5c720c7278263500015665f9","665500ab8938657b03fbdba8","66577ffeb651b453ebb039e7","1591","stimuli/1101110.jpg","0","","prediction_trial","1","","false","","1","false","false","true","true","false","false","[1]","101","110","0","","","","","","",""
"","","","","","image-keyboard-response","173","592108","0.0-148.0","5c720c7278263500015665f9","665500ab8938657b03fbdba8","66577ffeb651b453ebb039e7","735","stimuli/11011101.jpg"," ","","feedback_trial","1","","","","","","","","","","","","","","","","","","","","",""
"","","","","","image-keyboard-response","174","593195","0.0-149.0","5c720c7278263500015665f9","665500ab8938657b03fbdba8","66577ffeb651b453ebb039e7","1078","stimuli/1111111.jpg","2","","prediction_trial","0","","false","","1","false","false","false","false","false","false","[0,1,2]","111","111","0","","","","","","",""
"","","","","","image-keyboard-response","175","593818","0.0-150.0","5c720c7278263500015665f9","665500ab8938657b03fbdba8","66577ffeb651b453ebb039e7","615","stimuli/11111110.jpg"," ","","feedback_trial","0","","","","","","","","","","","","","","","","","","","","",""
"","","","","","image-keyboard-response","176","594738","0.0-151.0","5c720c7278263500015665f9","665500ab8938657b03fbdba8","66577ffeb651b453ebb039e7","915","stimuli/1110111.jpg","1","","prediction_trial","0","","false","","1","false","false","false","false","false","false","[1,0]","110","111","0","","","","","","",""
"","","","","","image-keyboard-response","177","595395","0.0-152.0","5c720c7278263500015665f9","665500ab8938657b03fbdba8","66577ffeb651b453ebb039e7","650","stimuli/11101110.jpg"," ","","feedback_trial","1","","","","","","","","","","","","","","","","","","","","",""
"","","","","","image-keyboard-response","178","596267","0.0-153.0","5c720c7278263500015665f9","665500ab8938657b03fbdba8","66577ffeb651b453ebb039e7","866","stimuli/1010000.jpg","1","","prediction_trial","1","","true","","1","true","true","false","true","false","true","[1]","010","000","1","","","","","","",""
"","","","","","image-keyboard-response","179","597082","0.0-154.0","5c720c7278263500015665f9","665500ab8938657b03fbdba8","66577ffeb651b453ebb039e7","807","stimuli/10100001.jpg"," ","","feedback_trial","1","","","","","","","","","","","","","","","","","","","","",""
"","","","","","image-keyboard-response","180","598765","0.0-155.0","5c720c7278263500015665f9","665500ab8938657b03fbdba8","66577ffeb651b453ebb039e7","1676","stimuli/1110110.jpg","1","","prediction_trial","0","","false","","1","false","false","false","false","false","false","[1,0]","110","110","0","","","","","","",""
"","","","","","image-keyboard-response","181","599453","0.0-156.0","5c720c7278263500015665f9","665500ab8938657b03fbdba8","66577ffeb651b453ebb039e7","679","stimuli/11101100.jpg"," ","","feedback_trial","1","","","","","","","","","","","","","","","","","","","","",""
"","","","","","image-keyboard-response","182","600387","0.0-157.0","5c720c7278263500015665f9","665500ab8938657b03fbdba8","66577ffeb651b453ebb039e7","924","stimuli/2010000.jpg","2","","prediction_trial","2","","true","","2","true","true","true","true","true","true","[2]","010","000","1","","","","","","",""
"","","","","","image-keyboard-response","183","601122","0.0-158.0","5c720c7278263500015665f9","665500ab8938657b03fbdba8","66577ffeb651b453ebb039e7","727","stimuli/20100002.jpg"," ","","feedback_trial","2","","","","","","","","","","","","","","","","","","","","",""
"","","","","","image-keyboard-response","184","602203","0.0-159.0","5c720c7278263500015665f9","665500ab8938657b03fbdba8","66577ffeb651b453ebb039e7","1075","stimuli/0100100.jpg","0","","prediction_trial","0","","true","","0","false","true","false","true","false","true","[0]","100","100","1","","","","","","",""
"","","","","","image-keyboard-response","185","602972","0.0-160.0","5c720c7278263500015665f9","665500ab8938657b03fbdba8","66577ffeb651b453ebb039e7","757","stimuli/01001000.jpg"," ","","feedback_trial","0","","","","","","","","","","","","","","","","","","","","",""
"","","","","","image-keyboard-response","186","604292","0.0-161.0","5c720c7278263500015665f9","665500ab8938657b03fbdba8","66577ffeb651b453ebb039e7","1308","stimuli/0110110.jpg","0","","prediction_trial","0","","true","","0","false","false","false","false","false","false","[0,1]","110","110","1","","","","","","",""
"","","","","","image-keyboard-response","187","604946","0.0-162.0","5c720c7278263500015665f9","665500ab8938657b03fbdba8","66577ffeb651b453ebb039e7","646","stimuli/01101100.jpg"," ","","feedback_trial","0","","","","","","","","","","","","","","","","","","","","",""
"","","","","","image-keyboard-response","188","605811","0.0-163.0","5c720c7278263500015665f9","665500ab8938657b03fbdba8","66577ffeb651b453ebb039e7","859","stimuli/1111011.jpg","1","","prediction_trial","1","","true","","1","false","false","false","false","false","false","[2,1,0]","111","011","1","","","","","","",""
"","","","","","image-keyboard-response","189","606556","0.0-164.0","5c720c7278263500015665f9","665500ab8938657b03fbdba8","66577ffeb651b453ebb039e7","737","stimuli/11110111.jpg"," ","","feedback_trial","2","","","","","","","","","","","","","","","","","","","","",""
"","","","","","image-keyboard-response","190","607404","0.0-165.0","5c720c7278263500015665f9","665500ab8938657b03fbdba8","66577ffeb651b453ebb039e7","839","stimuli/0000010.jpg","0","","prediction_trial","0","","true","","0","true","true","true","true","true","true","[0]","000","010","1","","","","","","",""
"","","","","","image-keyboard-response","191","608020","0.0-166.0","5c720c7278263500015665f9","665500ab8938657b03fbdba8","66577ffeb651b453ebb039e7","605","stimuli/00000100.jpg"," ","","feedback_trial","0","","","","","","","","","","","","","","","","","","","","",""
"","","","","","image-keyboard-response","192","608960","0.0-167.0","5c720c7278263500015665f9","665500ab8938657b03fbdba8","66577ffeb651b453ebb039e7","931","stimuli/2001110.jpg","2","","prediction_trial","2","","true","","2","true","true","false","true","false","true","[2]","001","110","1","","","","","","",""
"","","","","","image-keyboard-response","193","609811","0.0-168.0","5c720c7278263500015665f9","665500ab8938657b03fbdba8","66577ffeb651b453ebb039e7","840","stimuli/20011102.jpg"," ","","feedback_trial","2","","","","","","","","","","","","","","","","","","","","",""
"","","","","","image-keyboard-response","194","610852","0.0-169.0","5c720c7278263500015665f9","665500ab8938657b03fbdba8","66577ffeb651b453ebb039e7","983","stimuli/2110111.jpg","0","","prediction_trial","2","","false","","2","false","false","true","true","false","false","[2]","110","111","0","","","","","","",""
"","","","","","image-keyboard-response","195","611507","0.0-170.0","5c720c7278263500015665f9","665500ab8938657b03fbdba8","66577ffeb651b453ebb039e7","646","stimuli/21101112.jpg"," ","","feedback_trial","2","","","","","","","","","","","","","","","","","","","","",""
"","","","","","image-keyboard-response","196","612659","0.0-171.0","5c720c7278263500015665f9","665500ab8938657b03fbdba8","66577ffeb651b453ebb039e7","1144","stimuli/0100011.jpg","0","","prediction_trial","0","","true","","0","true","true","false","true","false","true","[0]","100","011","1","","","","","","",""
"","","","","","image-keyboard-response","197","613322","0.0-172.0","5c720c7278263500015665f9","665500ab8938657b03fbdba8","66577ffeb651b453ebb039e7","653","stimuli/01000110.jpg"," ","","feedback_trial","0","","","","","","","","","","","","","","","","","","","","",""
"","","","","","image-keyboard-response","198","615644","0.0-173.0","5c720c7278263500015665f9","665500ab8938657b03fbdba8","66577ffeb651b453ebb039e7","2312","stimuli/2100101.jpg","2","","prediction_trial","2","","true","","2","false","false","true","true","false","false","[2]","100","101","1","","","","","","",""
"","","","","","image-keyboard-response","199","616428","0.0-174.0","5c720c7278263500015665f9","665500ab8938657b03fbdba8","66577ffeb651b453ebb039e7","775","stimuli/21001012.jpg"," ","","feedback_trial","2","","","","","","","","","","","","","","","","","","","","",""
"","","","","","image-keyboard-response","200","617203","0.0-175.0","5c720c7278263500015665f9","665500ab8938657b03fbdba8","66577ffeb651b453ebb039e7","766","stimuli/0000001.jpg","0","","prediction_trial","0","","true","","0","true","true","true","true","true","true","[0]","000","001","1","","","","","","",""
"","","","","","image-keyboard-response","201","617820","0.0-176.0","5c720c7278263500015665f9","665500ab8938657b03fbdba8","66577ffeb651b453ebb039e7","607","stimuli/00000010.jpg"," ","","feedback_trial","0","","","","","","","","","","","","","","","","","","","","",""
"","","","","","image-keyboard-response","202","620013","0.0-177.0","5c720c7278263500015665f9","665500ab8938657b03fbdba8","66577ffeb651b453ebb039e7","2183","stimuli/1101011.jpg","2","","prediction_trial","1","","false","","1","false","false","true","true","false","false","[1]","101","011","0","","","","","","",""
"","","","","","image-keyboard-response","203","620730","0.0-178.0","5c720c7278263500015665f9","665500ab8938657b03fbdba8","66577ffeb651b453ebb039e7","710","stimuli/11010111.jpg"," ","","feedback_trial","1","","","","","","","","","","","","","","","","","","","","",""
"","","","","","image-keyboard-response","204","623123","0.0-179.0","5c720c7278263500015665f9","665500ab8938657b03fbdba8","66577ffeb651b453ebb039e7","2387","stimuli/2010011.jpg","2","","prediction_trial","2","","true","","2","false","false","true","true","false","false","[2]","010","011","1","","","","","","",""
"","","","","","image-keyboard-response","205","623778","0.0-180.0","5c720c7278263500015665f9","665500ab8938657b03fbdba8","66577ffeb651b453ebb039e7","647","stimuli/20100112.jpg"," ","","feedback_trial","2","","","","","","","","","","","","","","","","","","","","",""
"","","","","","image-keyboard-response","206","624500","0.0-181.0","5c720c7278263500015665f9","665500ab8938657b03fbdba8","66577ffeb651b453ebb039e7","716","stimuli/0000011.jpg","0","","prediction_trial","0","","true","","0","true","true","true","true","true","true","[0]","000","011","1","","","","","","",""
"","","","","","image-keyboard-response","207","625035","0.0-182.0","5c720c7278263500015665f9","665500ab8938657b03fbdba8","66577ffeb651b453ebb039e7","526","stimuli/00000110.jpg"," ","","feedback_trial","0","","","","","","","","","","","","","","","","","","","","",""
"","","","","","image-keyboard-response","208","626140","0.0-183.0","5c720c7278263500015665f9","665500ab8938657b03fbdba8","66577ffeb651b453ebb039e7","1099","stimuli/1000110.jpg","0","","prediction_trial","1","","false","","1","false","false","true","true","false","false","[1]","000","110","0","","","","","","",""
"","","","","","image-keyboard-response","209","626747","0.0-184.0","5c720c7278263500015665f9","665500ab8938657b03fbdba8","66577ffeb651b453ebb039e7","599","stimuli/10001101.jpg"," ","","feedback_trial","1","","","","","","","","","","","","","","","","","","","","",""
"","","","","","image-keyboard-response","210","627518","0.0-185.0","5c720c7278263500015665f9","665500ab8938657b03fbdba8","66577ffeb651b453ebb039e7","762","stimuli/2010010.jpg","2","","prediction_trial","2","","true","","2","true","true","true","true","true","true","[2]","010","010","1","","","","","","",""
"","","","","","image-keyboard-response","211","628108","0.0-186.0","5c720c7278263500015665f9","665500ab8938657b03fbdba8","66577ffeb651b453ebb039e7","581","stimuli/20100102.jpg"," ","","feedback_trial","2","","","","","","","","","","","","","","","","","","","","",""
"","","","","","image-keyboard-response","212","628819","0.0-187.0","5c720c7278263500015665f9","665500ab8938657b03fbdba8","66577ffeb651b453ebb039e7","702","stimuli/0011000.jpg","0","","prediction_trial","0","","true","","0","true","true","true","true","true","true","[0]","011","000","1","","","","","","",""
"","","","","","image-keyboard-response","213","629350","0.0-188.0","5c720c7278263500015665f9","665500ab8938657b03fbdba8","66577ffeb651b453ebb039e7","522","stimuli/00110000.jpg"," ","","feedback_trial","0","","","","","","","","","","","","","","","","","","","","",""
"","","","","","image-keyboard-response","214","631021","0.0-189.0","5c720c7278263500015665f9","665500ab8938657b03fbdba8","66577ffeb651b453ebb039e7","1661","stimuli/1101010.jpg","1","","prediction_trial","1","","true","","1","false","true","true","true","false","true","[1]","101","010","1","","","","","","",""
"","","","","","image-keyboard-response","215","631699","0.0-190.0","5c720c7278263500015665f9","665500ab8938657b03fbdba8","66577ffeb651b453ebb039e7","621","stimuli/11010101.jpg"," ","","feedback_trial","1","","","","","","","","","","","","","","","","","","","","",""
"","","","","","image-keyboard-response","216","632659","0.0-191.0","5c720c7278263500015665f9","665500ab8938657b03fbdba8","66577ffeb651b453ebb039e7","954","stimuli/0100000.jpg","0","","prediction_trial","0","","true","","0","true","true","false","true","false","true","[0]","100","000","1","","","","","","",""
"","","","","","image-keyboard-response","217","633291","0.0-192.0","5c720c7278263500015665f9","665500ab8938657b03fbdba8","66577ffeb651b453ebb039e7","626","stimuli/01000000.jpg"," ","","feedback_trial","0","","","","","","","","","","","","","","","","","","","","",""
"","","","","","image-keyboard-response","218","634266","0.0-193.0","5c720c7278263500015665f9","665500ab8938657b03fbdba8","66577ffeb651b453ebb039e7","967","stimuli/0001000.jpg","0","","prediction_trial","0","","true","","0","true","true","true","true","true","true","[0]","001","000","1","","","","","","",""
"","","","","","image-keyboard-response","219","634850","0.0-194.0","5c720c7278263500015665f9","665500ab8938657b03fbdba8","66577ffeb651b453ebb039e7","577","stimuli/00010000.jpg"," ","","feedback_trial","0","","","","","","","","","","","","","","","","","","","","",""
"","","","","","image-keyboard-response","220","636213","0.0-195.0","5c720c7278263500015665f9","665500ab8938657b03fbdba8","66577ffeb651b453ebb039e7","1355","stimuli/2011111.jpg","0","","prediction_trial","1","","false","","2","false","false","false","false","false","false","[2,1]","011","111","0","","","","","","",""
"","","","","","image-keyboard-response","221","636730","0.0-196.0","5c720c7278263500015665f9","665500ab8938657b03fbdba8","66577ffeb651b453ebb039e7","510","stimuli/20111111.jpg"," ","","feedback_trial","2","","","","","","","","","","","","","","","","","","","","",""
"","","","","","image-keyboard-response","222","637676","0.0-197.0","5c720c7278263500015665f9","665500ab8938657b03fbdba8","66577ffeb651b453ebb039e7","937","stimuli/1101111.jpg","1","","prediction_trial","1","","true","","1","false","false","true","true","false","false","[1]","101","111","1","","","","","","",""
"","","","","","image-keyboard-response","223","638244","0.0-198.0","5c720c7278263500015665f9","665500ab8938657b03fbdba8","66577ffeb651b453ebb039e7","560","stimuli/11011111.jpg"," ","","feedback_trial","1","","","","","","","","","","","","","","","","","","","","",""
"","","","","","image-keyboard-response","224","639211","0.0-199.0","5c720c7278263500015665f9","665500ab8938657b03fbdba8","66577ffeb651b453ebb039e7","959","stimuli/0111110.jpg","1","","prediction_trial","1","","true","","0","false","false","false","false","false","false","[0,2,1]","111","110","1","","","","","","",""
"","","","","","image-keyboard-response","225","639907","0.0-200.0","5c720c7278263500015665f9","665500ab8938657b03fbdba8","66577ffeb651b453ebb039e7","689","stimuli/01111101.jpg"," ","","feedback_trial","0","","","","","","","","","","","","","","","","","","","","",""
"","","","","","image-keyboard-response","226","640956","0.0-201.0","5c720c7278263500015665f9","665500ab8938657b03fbdba8","66577ffeb651b453ebb039e7","1039","stimuli/2000000.jpg","2","","prediction_trial","2","","true","","2","true","true","true","true","true","true","[2]","000","000","1","","","","","","",""
"","","","","","image-keyboard-response","227","641919","0.0-202.0","5c720c7278263500015665f9","665500ab8938657b03fbdba8","66577ffeb651b453ebb039e7","952","stimuli/20000002.jpg"," ","","feedback_trial","2","","","","","","","","","","","","","","","","","","","","",""
"","","","","","image-keyboard-response","228","642739","0.0-203.0","5c720c7278263500015665f9","665500ab8938657b03fbdba8","66577ffeb651b453ebb039e7","810","stimuli/1011000.jpg","1","","prediction_trial","2","","false","","1","true","true","false","false","false","false","[2,1]","011","000","0","","","","","","",""
"","","","","","image-keyboard-response","229","643356","0.0-204.0","5c720c7278263500015665f9","665500ab8938657b03fbdba8","66577ffeb651b453ebb039e7","608","stimuli/10110002.jpg"," ","","feedback_trial","2","","","","","","","","","","","","","","","","","","","","",""
"","","","","","image-keyboard-response","230","644018","0.0-205.0","5c720c7278263500015665f9","665500ab8938657b03fbdba8","66577ffeb651b453ebb039e7","654","stimuli/0111011.jpg","0","","prediction_trial","1","","false","","0","true","true","false","false","false","false","[1,2,0]","111","011","0","","","","","","",""
"","","","","","image-keyboard-response","231","644618","0.0-206.0","5c720c7278263500015665f9","665500ab8938657b03fbdba8","66577ffeb651b453ebb039e7","595","stimuli/01110111.jpg"," ","","feedback_trial","1","","","","","","","","","","","","","","","","","","","","",""
"","","","","","image-keyboard-response","232","647211","0.0-207.0","5c720c7278263500015665f9","665500ab8938657b03fbdba8","66577ffeb651b453ebb039e7","2586","stimuli/2101011.jpg","1","","prediction_trial","2","","false","","2","false","false","false","false","false","false","[2,0]","101","011","0","","","","","","",""
"","","","","","image-keyboard-response","233","647819","0.0-208.0","5c720c7278263500015665f9","665500ab8938657b03fbdba8","66577ffeb651b453ebb039e7","602","stimuli/21010112.jpg"," ","","feedback_trial","2","","","","","","","","","","","","","","","","","","","","",""
"","","","","","image-keyboard-response","234","649549","0.0-209.0","5c720c7278263500015665f9","665500ab8938657b03fbdba8","66577ffeb651b453ebb039e7","1721","stimuli/1000011.jpg","2","","prediction_trial","1","","false","","1","false","false","true","true","false","false","[1]","000","011","0","","","","","","",""
"","","","","","image-keyboard-response","235","650259","0.0-210.0","5c720c7278263500015665f9","665500ab8938657b03fbdba8","66577ffeb651b453ebb039e7","700","stimuli/10000111.jpg"," ","","feedback_trial","1","","","","","","","","","","","","","","","","","","","","",""
"","","","","","image-keyboard-response","236","651372","0.0-211.0","5c720c7278263500015665f9","665500ab8938657b03fbdba8","66577ffeb651b453ebb039e7","1104","stimuli/0000101.jpg","2","","prediction_trial","0","","false","","0","false","false","true","true","false","false","[0]","000","101","0","","","","","","",""
"","","","","","image-keyboard-response","237","651884","0.0-212.0","5c720c7278263500015665f9","665500ab8938657b03fbdba8","66577ffeb651b453ebb039e7","502","stimuli/00001010.jpg"," ","","feedback_trial","0","","","","","","","","","","","","","","","","","","","","",""
"","","","","","image-keyboard-response","238","652832","0.0-213.0","5c720c7278263500015665f9","665500ab8938657b03fbdba8","66577ffeb651b453ebb039e7","938","stimuli/0001100.jpg","0","","prediction_trial","0","","true","","0","false","true","true","true","false","true","[0]","001","100","1","","","","","","",""
"","","","","","image-keyboard-response","239","653618","0.0-214.0","5c720c7278263500015665f9","665500ab8938657b03fbdba8","66577ffeb651b453ebb039e7","775","stimuli/00011000.jpg"," ","","feedback_trial","0","","","","","","","","","","","","","","","","","","","","",""
"","","","","","image-keyboard-response","240","654419","0.0-215.0","5c720c7278263500015665f9","665500ab8938657b03fbdba8","66577ffeb651b453ebb039e7","795","stimuli/2011101.jpg","0","","prediction_trial","2","","false","","2","false","false","false","false","false","false","[1,2]","011","101","0","","","","","","",""
"","","","","","image-keyboard-response","241","654964","0.0-216.0","5c720c7278263500015665f9","665500ab8938657b03fbdba8","66577ffeb651b453ebb039e7","535","stimuli/20111012.jpg"," ","","feedback_trial","1","","","","","","","","","","","","","","","","","","","","",""
"","","","","","image-keyboard-response","242","655715","0.0-217.0","5c720c7278263500015665f9","665500ab8938657b03fbdba8","66577ffeb651b453ebb039e7","742","stimuli/2101100.jpg","2","","prediction_trial","0","","false","","2","true","true","false","false","false","false","[0,2]","101","100","0","","","","","","",""
"","","","","","image-keyboard-response","243","656388","0.0-218.0","5c720c7278263500015665f9","665500ab8938657b03fbdba8","66577ffeb651b453ebb039e7","663","stimuli/21011000.jpg"," ","","feedback_trial","0","","","","","","","","","","","","","","","","","","","","",""
"","","","","","image-keyboard-response","244","657266","0.0-219.0","5c720c7278263500015665f9","665500ab8938657b03fbdba8","66577ffeb651b453ebb039e7","871","stimuli/2110000.jpg","2","","prediction_trial","2","","true","","2","true","true","true","true","true","true","[2]","110","000","1","","","","","","",""
"","","","","","image-keyboard-response","245","658034","0.0-220.0","5c720c7278263500015665f9","665500ab8938657b03fbdba8","66577ffeb651b453ebb039e7","763","stimuli/21100002.jpg"," ","","feedback_trial","2","","","","","","","","","","","","","","","","","","","","",""
"","","","","","image-keyboard-response","246","660002","0.0-221.0","5c720c7278263500015665f9","665500ab8938657b03fbdba8","66577ffeb651b453ebb039e7","1960","stimuli/0111101.jpg","2","","prediction_trial","2","","true","","0","false","false","false","false","false","false","[1,0,2]","111","101","1","","","","","","",""
"","","","","","image-keyboard-response","247","660602","0.0-222.0","5c720c7278263500015665f9","665500ab8938657b03fbdba8","66577ffeb651b453ebb039e7","595","stimuli/01111012.jpg"," ","","feedback_trial","1","","","","","","","","","","","","","","","","","","","","",""
"","","","","","image-keyboard-response","248","661898","0.0-223.0","5c720c7278263500015665f9","665500ab8938657b03fbdba8","66577ffeb651b453ebb039e7","1290","stimuli/2100111.jpg","2","","prediction_trial","2","","true","","2","false","false","true","true","false","false","[2]","100","111","1","","","","","","",""
"","","","","","image-keyboard-response","249","662660","0.0-224.0","5c720c7278263500015665f9","665500ab8938657b03fbdba8","66577ffeb651b453ebb039e7","756","stimuli/21001112.jpg"," ","","feedback_trial","2","","","","","","","","","","","","","","","","","","","","",""
"","","","","","image-keyboard-response","250","663462","0.0-225.0","5c720c7278263500015665f9","665500ab8938657b03fbdba8","66577ffeb651b453ebb039e7","794","stimuli/0011101.jpg","0","","prediction_trial","0","","true","","0","false","false","true","true","false","false","[0]","011","101","1","","","","","","",""
"","","","","","image-keyboard-response","251","664155","0.0-226.0","5c720c7278263500015665f9","665500ab8938657b03fbdba8","66577ffeb651b453ebb039e7","685","stimuli/00111010.jpg"," ","","feedback_trial","0","","","","","","","","","","","","","","","","","","","","",""
"","","","","","image-keyboard-response","252","664812","0.0-227.0","5c720c7278263500015665f9","665500ab8938657b03fbdba8","66577ffeb651b453ebb039e7","648","stimuli/0010001.jpg","0","","prediction_trial","0","","true","","0","true","true","true","true","true","true","[0]","010","001","1","","","","","","",""
"","","","","","image-keyboard-response","253","665364","0.0-228.0","5c720c7278263500015665f9","665500ab8938657b03fbdba8","66577ffeb651b453ebb039e7","544","stimuli/00100010.jpg"," ","","feedback_trial","0","","","","","","","","","","","","","","","","","","","","",""
"","","","","","image-keyboard-response","254","666163","0.0-229.0","5c720c7278263500015665f9","665500ab8938657b03fbdba8","66577ffeb651b453ebb039e7","791","stimuli/0011111.jpg","0","","prediction_trial","0","","true","","0","false","false","true","true","false","false","[0]","011","111","1","","","","","","",""
"","","","","","image-keyboard-response","255","666739","0.0-230.0","5c720c7278263500015665f9","665500ab8938657b03fbdba8","66577ffeb651b453ebb039e7","568","stimuli/00111110.jpg"," ","","feedback_trial","0","","","","","","","","","","","","","","","","","","","","",""
"","","","","","image-keyboard-response","256","667763","0.0-231.0","5c720c7278263500015665f9","665500ab8938657b03fbdba8","66577ffeb651b453ebb039e7","1016","stimuli/1110001.jpg","1","","prediction_trial","1","","true","","1","true","true","false","false","false","false","[0,1]","110","001","1","","","","","","",""
"","","","","","image-keyboard-response","257","668339","0.0-232.0","5c720c7278263500015665f9","665500ab8938657b03fbdba8","66577ffeb651b453ebb039e7","567","stimuli/11100011.jpg"," ","","feedback_trial","0","","","","","","","","","","","","","","","","","","","","",""
"","","","","","image-keyboard-response","258","669059","0.0-233.0","5c720c7278263500015665f9","665500ab8938657b03fbdba8","66577ffeb651b453ebb039e7","712","stimuli/0011001.jpg","0","","prediction_trial","0","","true","","0","true","true","true","true","true","true","[0]","011","001","1","","","","","","",""
"","","","","","image-keyboard-response","259","669618","0.0-234.0","5c720c7278263500015665f9","665500ab8938657b03fbdba8","66577ffeb651b453ebb039e7","555","stimuli/00110010.jpg"," ","","feedback_trial","0","","","","","","","","","","","","","","","","","","","","",""
"","","","","","image-keyboard-response","260","670574","0.0-235.0","5c720c7278263500015665f9","665500ab8938657b03fbdba8","66577ffeb651b453ebb039e7","948","stimuli/2010101.jpg","0","","prediction_trial","2","","false","","2","false","false","true","true","false","false","[2]","010","101","0","","","","","","",""
"","","","","","image-keyboard-response","261","671107","0.0-236.0","5c720c7278263500015665f9","665500ab8938657b03fbdba8","66577ffeb651b453ebb039e7","522","stimuli/20101012.jpg"," ","","feedback_trial","2","","","","","","","","","","","","","","","","","","","","",""
"","","","","","image-keyboard-response","262","671999","0.0-237.0","5c720c7278263500015665f9","665500ab8938657b03fbdba8","66577ffeb651b453ebb039e7","885","stimuli/0110100.jpg","2","","prediction_trial","1","","false","","0","false","true","false","false","false","false","[0,1]","110","100","0","","","","","","",""
"","","","","","image-keyboard-response","263","672740","0.0-238.0","5c720c7278263500015665f9","665500ab8938657b03fbdba8","66577ffeb651b453ebb039e7","729","stimuli/01101001.jpg"," ","","feedback_trial","0","","","","","","","","","","","","","","","","","","","","",""
"","","","","","image-keyboard-response","264","674252","0.0-239.0","5c720c7278263500015665f9","665500ab8938657b03fbdba8","66577ffeb651b453ebb039e7","1503","stimuli/0010101.jpg","2","","prediction_trial","0","","false","","0","false","false","true","true","false","false","[0]","010","101","0","","","","","","",""
"","","","","","image-keyboard-response","265","674843","0.0-240.0","5c720c7278263500015665f9","665500ab8938657b03fbdba8","66577ffeb651b453ebb039e7","586","stimuli/00101010.jpg"," ","","feedback_trial","0","","","","","","","","","","","","","","","","","","","","",""
"","","","","","image-keyboard-response","266","676234","0.0-241.0","5c720c7278263500015665f9","665500ab8938657b03fbdba8","66577ffeb651b453ebb039e7","1382","stimuli/1011010.jpg","1","","prediction_trial","1","","true","","1","false","true","false","false","false","false","[2,1]","011","010","1","","","","","","",""
"","","","","","image-keyboard-response","267","676915","0.0-242.0","5c720c7278263500015665f9","665500ab8938657b03fbdba8","66577ffeb651b453ebb039e7","675","stimuli/10110101.jpg"," ","","feedback_trial","2","","","","","","","","","","","","","","","","","","","","",""
"","","","","","image-keyboard-response","268","677523","0.0-243.0","5c720c7278263500015665f9","665500ab8938657b03fbdba8","66577ffeb651b453ebb039e7","602","stimuli/1000001.jpg","1","","prediction_trial","1","","true","","1","true","true","true","true","true","true","[1]","000","001","1","","","","","","",""
"","","","","","image-keyboard-response","269","678179","0.0-244.0","5c720c7278263500015665f9","665500ab8938657b03fbdba8","66577ffeb651b453ebb039e7","650","stimuli/10000011.jpg"," ","","feedback_trial","1","","","","","","","","","","","","","","","","","","","","",""
"","","","","","image-keyboard-response","270","678963","0.0-245.0","5c720c7278263500015665f9","665500ab8938657b03fbdba8","66577ffeb651b453ebb039e7","778","stimuli/0111000.jpg","0","","prediction_trial","2","","false","","0","true","true","false","false","false","false","[1,0,2]","111","000","0","","","","","","",""
"","","","","","image-keyboard-response","271","680203","0.0-246.0","5c720c7278263500015665f9","665500ab8938657b03fbdba8","66577ffeb651b453ebb039e7","1235","stimuli/01110002.jpg"," ","","feedback_trial","1","","","","","","","","","","","","","","","","","","","","",""
"","","","","","image-keyboard-response","272","680874","0.0-247.0","5c720c7278263500015665f9","665500ab8938657b03fbdba8","66577ffeb651b453ebb039e7","666","stimuli/0001011.jpg","0","","prediction_trial","0","","true","","0","true","true","true","true","true","true","[0]","001","011","1","","","","","","",""
"","","","","","image-keyboard-response","273","681632","0.0-248.0","5c720c7278263500015665f9","665500ab8938657b03fbdba8","66577ffeb651b453ebb039e7","752","stimuli/00010110.jpg"," ","","feedback_trial","0","","","","","","","","","","","","","","","","","","","","",""
"","","","","","image-keyboard-response","274","682613","0.0-249.0","5c720c7278263500015665f9","665500ab8938657b03fbdba8","66577ffeb651b453ebb039e7","970","stimuli/1001000.jpg","1","","prediction_trial","1","","true","","1","true","true","true","true","true","true","[1]","001","000","1","","","","","","",""
"","","","","","image-keyboard-response","275","683396","0.0-250.0","5c720c7278263500015665f9","665500ab8938657b03fbdba8","66577ffeb651b453ebb039e7","776","stimuli/10010001.jpg"," ","","feedback_trial","1","","","","","","","","","","","","","","","","","","","","",""
"","","","","","image-keyboard-response","276","684260","0.0-251.0","5c720c7278263500015665f9","665500ab8938657b03fbdba8","66577ffeb651b453ebb039e7","855","stimuli/2110100.jpg","2","","prediction_trial","2","","true","","2","true","true","true","true","true","true","[2]","110","100","1","","","","","","",""
"","","","","","image-keyboard-response","277","684884","0.0-252.0","5c720c7278263500015665f9","665500ab8938657b03fbdba8","66577ffeb651b453ebb039e7","618","stimuli/21101002.jpg"," ","","feedback_trial","2","","","","","","","","","","","","","","","","","","","","",""
"","","","","","image-keyboard-response","278","685878","0.0-253.0","5c720c7278263500015665f9","665500ab8938657b03fbdba8","66577ffeb651b453ebb039e7","985","stimuli/0000100.jpg","0","","prediction_trial","0","","true","","0","false","true","true","true","false","true","[0]","000","100","1","","","","","","",""
"","","","","","image-keyboard-response","279","686347","0.0-254.0","5c720c7278263500015665f9","665500ab8938657b03fbdba8","66577ffeb651b453ebb039e7","460","stimuli/00001000.jpg"," ","","feedback_trial","0","","","","","","","","","","","","","","","","","","","","",""
"","","","","","image-keyboard-response","280","687475","0.0-255.0","5c720c7278263500015665f9","665500ab8938657b03fbdba8","66577ffeb651b453ebb039e7","1120","stimuli/0101011.jpg","0","","prediction_trial","2","","false","","0","true","true","false","false","false","false","[2,0]","101","011","0","","","","","","",""
"","","","","","image-keyboard-response","281","688580","0.0-256.0","5c720c7278263500015665f9","665500ab8938657b03fbdba8","66577ffeb651b453ebb039e7","1096","stimuli/01010112.jpg"," ","","feedback_trial","2","","","","","","","","","","","","","","","","","","","","",""
"","","","","","image-keyboard-response","282","690123","0.0-257.0","5c720c7278263500015665f9","665500ab8938657b03fbdba8","66577ffeb651b453ebb039e7","1536","stimuli/0101101.jpg","0","","prediction_trial","0","","true","","0","false","false","false","false","false","false","[0,2]","101","101","1","","","","","","",""
"","","","","","image-keyboard-response","283","690710","0.0-258.0","5c720c7278263500015665f9","665500ab8938657b03fbdba8","66577ffeb651b453ebb039e7","577","stimuli/01011010.jpg"," ","","feedback_trial","0","","","","","","","","","","","","","","","","","","","","",""
"","","","","","image-keyboard-response","284","691363","0.0-259.0","5c720c7278263500015665f9","665500ab8938657b03fbdba8","66577ffeb651b453ebb039e7","645","stimuli/1000111.jpg","2","","prediction_trial","1","","false","","1","false","false","true","true","false","false","[1]","000","111","0","","","","","","",""
"","","","","","image-keyboard-response","285","691972","0.0-260.0","5c720c7278263500015665f9","665500ab8938657b03fbdba8","66577ffeb651b453ebb039e7","599","stimuli/10001111.jpg"," ","","feedback_trial","1","","","","","","","","","","","","","","","","","","","","",""
"","","","","","image-keyboard-response","286","692763","0.0-261.0","5c720c7278263500015665f9","665500ab8938657b03fbdba8","66577ffeb651b453ebb039e7","781","stimuli/1100010.jpg","1","","prediction_trial","1","","true","","1","false","true","true","true","false","true","[1]","100","010","1","","","","","","",""
"","","","","","image-keyboard-response","287","693307","0.0-262.0","5c720c7278263500015665f9","665500ab8938657b03fbdba8","66577ffeb651b453ebb039e7","535","stimuli/11000101.jpg"," ","","feedback_trial","1","","","","","","","","","","","","","","","","","","","","",""
"","","","","","image-keyboard-response","288","694235","0.0-263.0","5c720c7278263500015665f9","665500ab8938657b03fbdba8","66577ffeb651b453ebb039e7","919","stimuli/2110001.jpg","2","","prediction_trial","2","","true","","2","false","true","true","true","false","true","[2]","110","001","1","","","","","","",""
"","","","","","image-keyboard-response","289","695197","0.0-264.0","5c720c7278263500015665f9","665500ab8938657b03fbdba8","66577ffeb651b453ebb039e7","957","stimuli/21100012.jpg"," ","","feedback_trial","2","","","","","","","","","","","","","","","","","","","","",""
"","","","","","image-keyboard-response","290","696533","0.0-265.0","5c720c7278263500015665f9","665500ab8938657b03fbdba8","66577ffeb651b453ebb039e7","1325","stimuli/0111010.jpg","0","","prediction_trial","2","","false","","0","true","true","false","false","false","false","[0,2,1]","111","010","0","","","","","","",""
"","","","","","image-keyboard-response","291","697764","0.0-266.0","5c720c7278263500015665f9","665500ab8938657b03fbdba8","66577ffeb651b453ebb039e7","1223","stimuli/01110102.jpg"," ","","feedback_trial","0","","","","","","","","","","","","","","","","","","","","",""
"","","","","","image-keyboard-response","292","698958","0.0-267.0","5c720c7278263500015665f9","665500ab8938657b03fbdba8","66577ffeb651b453ebb039e7","1184","stimuli/1011110.jpg","0","","prediction_trial","1","","false","","1","false","false","false","false","false","false","[1,2]","011","110","0","","","","","","",""
"","","","","","image-keyboard-response","293","699526","0.0-268.0","5c720c7278263500015665f9","665500ab8938657b03fbdba8","66577ffeb651b453ebb039e7","557","stimuli/10111101.jpg"," ","","feedback_trial","1","","","","","","","","","","","","","","","","","","","","",""
"","","","","","image-keyboard-response","294","700356","0.0-269.0","5c720c7278263500015665f9","665500ab8938657b03fbdba8","66577ffeb651b453ebb039e7","820","stimuli/2110101.jpg","2","","prediction_trial","2","","true","","2","false","false","true","true","false","false","[2]","110","101","1","","","","","","",""
"","","","","","image-keyboard-response","295","700917","0.0-270.0","5c720c7278263500015665f9","665500ab8938657b03fbdba8","66577ffeb651b453ebb039e7","554","stimuli/21101012.jpg"," ","","feedback_trial","2","","","","","","","","","","","","","","","","","","","","",""
"","","","","","image-keyboard-response","296","701779","0.0-271.0","5c720c7278263500015665f9","665500ab8938657b03fbdba8","66577ffeb651b453ebb039e7","856","stimuli/1100000.jpg","1","","prediction_trial","1","","true","","1","true","true","true","true","true","true","[1]","100","000","1","","","","","","",""
"","","","","","image-keyboard-response","297","702539","0.0-272.0","5c720c7278263500015665f9","665500ab8938657b03fbdba8","66577ffeb651b453ebb039e7","751","stimuli/11000001.jpg"," ","","feedback_trial","1","","","","","","","","","","","","","","","","","","","","",""
"","","","","","image-keyboard-response","298","703499","0.0-273.0","5c720c7278263500015665f9","665500ab8938657b03fbdba8","66577ffeb651b453ebb039e7","955","stimuli/1001110.jpg","1","","prediction_trial","1","","true","","1","false","false","true","true","false","false","[1]","001","110","1","","","","","","",""
"","","","","","image-keyboard-response","299","704116","0.0-274.0","5c720c7278263500015665f9","665500ab8938657b03fbdba8","66577ffeb651b453ebb039e7","609","stimuli/10011101.jpg"," ","","feedback_trial","1","","","","","","","","","","","","","","","","","","","","",""
"","","","","","image-keyboard-response","300","705091","0.0-275.0","5c720c7278263500015665f9","665500ab8938657b03fbdba8","66577ffeb651b453ebb039e7","967","stimuli/0000000.jpg","0","","prediction_trial","0","","true","","0","true","true","true","true","true","true","[0]","000","000","1","","","","","","",""
"","","","","","image-keyboard-response","301","705892","0.0-276.0","5c720c7278263500015665f9","665500ab8938657b03fbdba8","66577ffeb651b453ebb039e7","793","stimuli/00000000.jpg"," ","","feedback_trial","0","","","","","","","","","","","","","","","","","","","","",""
"","","","","","image-keyboard-response","302","707004","0.0-277.0","5c720c7278263500015665f9","665500ab8938657b03fbdba8","66577ffeb651b453ebb039e7","1086","stimuli/1001101.jpg","1","","prediction_trial","1","","true","","1","true","true","true","true","true","true","[1]","001","101","1","","","","","","",""
"","","","","","image-keyboard-response","303","707637","0.0-278.0","5c720c7278263500015665f9","665500ab8938657b03fbdba8","66577ffeb651b453ebb039e7","627","stimuli/10011011.jpg"," ","","feedback_trial","1","","","","","","","","","","","","","","","","","","","","",""
"","","","","","image-keyboard-response","304","708523","0.0-279.0","5c720c7278263500015665f9","665500ab8938657b03fbdba8","66577ffeb651b453ebb039e7","879","stimuli/0101110.jpg","1","","prediction_trial","0","","false","","0","false","false","false","false","false","false","[2,0]","101","110","0","","","","","","",""
"","","","","","image-keyboard-response","305","709083","0.0-280.0","5c720c7278263500015665f9","665500ab8938657b03fbdba8","66577ffeb651b453ebb039e7","551","stimuli/01011100.jpg"," ","","feedback_trial","2","","","","","","","","","","","","","","","","","","","","",""
"","","","","","image-keyboard-response","306","709762","0.0-281.0","5c720c7278263500015665f9","665500ab8938657b03fbdba8","66577ffeb651b453ebb039e7","671","stimuli/2111010.jpg","2","","prediction_trial","2","","true","","2","true","true","false","false","false","false","[1,2,0]","111","010","1","","","","","","",""
"","","","","","image-keyboard-response","307","710331","0.0-282.0","5c720c7278263500015665f9","665500ab8938657b03fbdba8","66577ffeb651b453ebb039e7","563","stimuli/21110102.jpg"," ","","feedback_trial","1","","","","","","","","","","","","","","","","","","","","",""
"","","","","","image-keyboard-response","308","711396","0.0-283.0","5c720c7278263500015665f9","665500ab8938657b03fbdba8","66577ffeb651b453ebb039e7","1055","stimuli/1010111.jpg","0","","prediction_trial","1","","false","","1","false","false","false","true","false","false","[1]","010","111","0","","","","","","",""
"","","","","","image-keyboard-response","309","711963","0.0-284.0","5c720c7278263500015665f9","665500ab8938657b03fbdba8","66577ffeb651b453ebb039e7","558","stimuli/10101111.jpg"," ","","feedback_trial","1","","","","","","","","","","","","","","","","","","","","",""
"","","","","","image-keyboard-response","310","713026","0.0-285.0","5c720c7278263500015665f9","665500ab8938657b03fbdba8","66577ffeb651b453ebb039e7","1058","stimuli/0110111.jpg","2","","prediction_trial","0","","false","","0","false","false","false","false","false","false","[0,1]","110","111","0","","","","","","",""
"","","","","","image-keyboard-response","311","713811","0.0-286.0","5c720c7278263500015665f9","665500ab8938657b03fbdba8","66577ffeb651b453ebb039e7","779","stimuli/01101110.jpg"," ","","feedback_trial","0","","","","","","","","","","","","","","","","","","","","",""
"","","","","","image-keyboard-response","312","715077","0.0-287.0","5c720c7278263500015665f9","665500ab8938657b03fbdba8","66577ffeb651b453ebb039e7","1259","stimuli/2000011.jpg","1","","prediction_trial","2","","false","","2","false","false","true","true","false","false","[2]","000","011","0","","","","","","",""
"","","","","","image-keyboard-response","313","715588","0.0-288.0","5c720c7278263500015665f9","665500ab8938657b03fbdba8","66577ffeb651b453ebb039e7","500","stimuli/20000112.jpg"," ","","feedback_trial","2","","","","","","","","","","","","","","","","","","","","",""
"","","","","","image-keyboard-response","314","716654","0.0-289.0","5c720c7278263500015665f9","665500ab8938657b03fbdba8","66577ffeb651b453ebb039e7","1058","stimuli/2110010.jpg","2","","prediction_trial","2","","true","","2","true","true","true","true","true","true","[2]","110","010","1","","","","","","",""
"","","","","","image-keyboard-response","315","717500","0.0-290.0","5c720c7278263500015665f9","665500ab8938657b03fbdba8","66577ffeb651b453ebb039e7","837","stimuli/21100102.jpg"," ","","feedback_trial","2","","","","","","","","","","","","","","","","","","","","",""
"","","","","","image-keyboard-response","316","718314","0.0-291.0","5c720c7278263500015665f9","665500ab8938657b03fbdba8","66577ffeb651b453ebb039e7","807","stimuli/1000101.jpg","1","","prediction_trial","1","","true","","1","true","true","true","true","true","true","[1]","000","101","1","","","","","","",""
"","","","","","image-keyboard-response","317","718836","0.0-292.0","5c720c7278263500015665f9","665500ab8938657b03fbdba8","66577ffeb651b453ebb039e7","516","stimuli/10001011.jpg"," ","","feedback_trial","1","","","","","","","","","","","","","","","","","","","","",""
"","","","","","survey-html-form","318","832348","0.0-293.0","5c720c7278263500015665f9","665500ab8938657b03fbdba8","66577ffeb651b453ebb039e7","113505","","{""feedback"":""The factor was mainly my best guess as to which basket appeared, to Sam, to be the easiest choice or guess where the ball was located. "",""age"":""41"",""gender"":""Male"",""other_gender"":"""",""race"":""White"",""other_race"":"""",""ethnicity"":""Hispanic""}","","exit_survey","","","","","","","","","","","","","","","","The factor was mainly my best guess as to which basket appeared, to Sam, to be the easiest choice or guess where the ball was located. ","41","Hispanic","Male","White","0.6180555555555556","0.6180555555555556"
