"success","timeout","failed_images","failed_audio","failed_video","trial_type","trial_index","time_elapsed","internal_node_id","prolific_id","prolific_study_id","prolific_session_id","rt","stimulus","response","view_history","trial","character_choice","stimulus_dict","accuracy","correct_response","ball_pos","ego_ball_visible","ego_can_infer","alter_ball_visible","alter_can_infer","collective_ball_visible","collective_can_infer","search_locations","alter_occluders","ego_occluders","accuracy_bool","feedback","age","ethnicity","gender","race","overall_accuracy","bonus"
"true","false","[]","[]","[]","preload","0","10042","0.0-0.0","574eab79c18847000e071119","665500ab8938657b03fbdba8","665792eabd7671fa41307595","","","","","","","","","","","","","","","","","","","","","","","","","","",""
"true","","","","","fullscreen","1","16622","0.0-1.0","574eab79c18847000e071119","665500ab8938657b03fbdba8","665792eabd7671fa41307595","","","","","","","","","","","","","","","","","","","","","","","","","","",""
"","","","","","html-button-response","2","20813","0.0-2.0","574eab79c18847000e071119","665500ab8938657b03fbdba8","665792eabd7671fa41307595","4188","<p><b>Consent Form</b></p> <div style=""text-align:left;background-color:lightgrey; padding:20px; max-width:900px;""><p>Please consider this information carefully before deciding whether to participate in this research.</p> <p>The purpose of this research is to examine which factors influence social judgment and decision-making. You will be asked to make judgements about individuals and actions in social scenarios. We are simply interested in your judgement. The study will take less than 1 hour to complete, and you will receive less than $20 on Prolific. Your compensation and time commitment are specified in the study description. There are no anticipated risks associated with participating in this study. The effects of participating should be comparable to those you would ordinarily experience from viewing a computer monitor and using a mouse or keyboard for a similar amount of time. At the end of the study, we will provide an explanation of the questions that motivate this line of research and will describe the potential implications. </p><p> Your participation in this study is completely voluntary and you may refuse to participate or you may choose to withdraw at any time without penalty or loss of benefits to you which are otherwise entitled. Your participation in this study will remain confidential. No personally identifiable information will be associated with your data. Also, all analyses of the data will be averaged across all the participants, so your individual responses will never be specifically analyzed. </p><p> If you have questions or concerns about your participation or payment, or want to request a summary of research findings, please contact Dr. Jonathan Phillips at Jonathan.S.Phillips@dartmouth.edu. </p><p> Please save a copy of this form for your records. </p><p><b>Agreement: </b>The nature and purpose of this research have been sufficiently explained and I agree to participate in this study. I understand that I am free to withdraw at any time without incurring any penalty. Please consent by clicking the button below to continue. Otherwise, please exit the study at any time. </p>","0","","","","","","","","","","","","","","","","","","","","","","","",""
"","","","","","instructions","3","181127","0.0-3.0-0.0","574eab79c18847000e071119","665500ab8938657b03fbdba8","665792eabd7671fa41307595","160313","","","[{""page_index"":0,""viewing_time"":1600},{""page_index"":1,""viewing_time"":1980},{""page_index"":2,""viewing_time"":2908},{""page_index"":3,""viewing_time"":7668},{""page_index"":4,""viewing_time"":6496},{""page_index"":5,""viewing_time"":81580},{""page_index"":6,""viewing_time"":7184},{""page_index"":7,""viewing_time"":3728},{""page_index"":8,""viewing_time"":3528},{""page_index"":9,""viewing_time"":3384},{""page_index"":10,""viewing_time"":21060},{""page_index"":11,""viewing_time"":14232},{""page_index"":12,""viewing_time"":3820},{""page_index"":13,""viewing_time"":1144}]","intro","","","","","","","","","","","","","","","","","","","","","",""
"","","","","","image-keyboard-response","4","183934","0.0-3.0-1.0","574eab79c18847000e071119","665500ab8938657b03fbdba8","665792eabd7671fa41307595","2804","stimuli/1001011.jpg","2","","prediction_practice","1","{""filepath"":""stimuli/1001011.jpg"",""ball_pos"":1,""ego_ball_visible"":false,""ego_can_infer"":false,""alter_ball_visible"":true,""alter_can_infer"":true,""collective_ball_visible"":false,""collective_can_infer"":false,""search_locations"":[1],""alter_occluders"":""001"",""ego_occluders"":""011""}","false","","","","","","","","","","","","","","","","","","",""
"","","","","","image-keyboard-response","5","185911","0.0-3.0-2.0","574eab79c18847000e071119","665500ab8938657b03fbdba8","665792eabd7671fa41307595","1975","stimuli/10010111.jpg"," ","","practrice_feedback","1","","","","","","","","","","","","","","","","","","","","",""
"","","","","","image-keyboard-response","6","189078","0.0-3.0-3.0","574eab79c18847000e071119","665500ab8938657b03fbdba8","665792eabd7671fa41307595","3165","stimuli/2101000.jpg","2","","prediction_practice","2","{""filepath"":""stimuli/2101000.jpg"",""ball_pos"":2,""ego_ball_visible"":true,""ego_can_infer"":true,""alter_ball_visible"":false,""alter_can_infer"":false,""collective_ball_visible"":false,""collective_can_infer"":false,""search_locations"":[2,0],""alter_occluders"":""101"",""ego_occluders"":""000""}","true","","","","","","","","","","","","","","","","","","",""
"","","","","","image-keyboard-response","7","191173","0.0-3.0-4.0","574eab79c18847000e071119","665500ab8938657b03fbdba8","665792eabd7671fa41307595","2093","stimuli/21010002.jpg"," ","","practrice_feedback","2","","","","","","","","","","","","","","","","","","","","",""
"","","","","","image-keyboard-response","8","193285","0.0-3.0-5.0","574eab79c18847000e071119","665500ab8938657b03fbdba8","665792eabd7671fa41307595","2110","stimuli/2100010.jpg","2","","prediction_practice","2","{""filepath"":""stimuli/2100010.jpg"",""ball_pos"":2,""ego_ball_visible"":true,""ego_can_infer"":true,""alter_ball_visible"":true,""alter_can_infer"":true,""collective_ball_visible"":true,""collective_can_infer"":true,""search_locations"":[2],""alter_occluders"":""100"",""ego_occluders"":""010""}","true","","","","","","","","","","","","","","","","","","",""
"","","","","","image-keyboard-response","9","194462","0.0-3.0-6.0","574eab79c18847000e071119","665500ab8938657b03fbdba8","665792eabd7671fa41307595","1176","stimuli/21000102.jpg"," ","","practrice_feedback","2","","","","","","","","","","","","","","","","","","","","",""
"","","","","","image-keyboard-response","10","196613","0.0-3.0-7.0","574eab79c18847000e071119","665500ab8938657b03fbdba8","665792eabd7671fa41307595","2149","stimuli/2110001.jpg","2","","prediction_practice","2","{""filepath"":""stimuli/2110001.jpg"",""ball_pos"":2,""ego_ball_visible"":false,""ego_can_infer"":true,""alter_ball_visible"":true,""alter_can_infer"":true,""collective_ball_visible"":false,""collective_can_infer"":true,""search_locations"":[2],""alter_occluders"":""110"",""ego_occluders"":""001""}","true","","","","","","","","","","","","","","","","","","",""
"","","","","","image-keyboard-response","11","197894","0.0-3.0-8.0","574eab79c18847000e071119","665500ab8938657b03fbdba8","665792eabd7671fa41307595","1279","stimuli/21100012.jpg"," ","","practrice_feedback","2","","","","","","","","","","","","","","","","","","","","",""
"","","","","","image-keyboard-response","12","199911","0.0-3.0-9.0","574eab79c18847000e071119","665500ab8938657b03fbdba8","665792eabd7671fa41307595","2014","stimuli/2101111.jpg","1","","prediction_practice","2","{""filepath"":""stimuli/2101111.jpg"",""ball_pos"":2,""ego_ball_visible"":false,""ego_can_infer"":false,""alter_ball_visible"":false,""alter_can_infer"":false,""collective_ball_visible"":false,""collective_can_infer"":false,""search_locations"":[2,0],""alter_occluders"":""101"",""ego_occluders"":""111""}","false","","","","","","","","","","","","","","","","","","",""
"","","","","","image-keyboard-response","13","202297","0.0-3.0-10.0","574eab79c18847000e071119","665500ab8938657b03fbdba8","665792eabd7671fa41307595","2384","stimuli/21011112.jpg"," ","","practrice_feedback","2","","","","","","","","","","","","","","","","","","","","",""
"","","","","","image-keyboard-response","14","204221","0.0-3.0-11.0","574eab79c18847000e071119","665500ab8938657b03fbdba8","665792eabd7671fa41307595","1922","stimuli/1001111.jpg","0","","prediction_practice","1","{""filepath"":""stimuli/1001111.jpg"",""ball_pos"":1,""ego_ball_visible"":false,""ego_can_infer"":false,""alter_ball_visible"":true,""alter_can_infer"":true,""collective_ball_visible"":false,""collective_can_infer"":false,""search_locations"":[1],""alter_occluders"":""001"",""ego_occluders"":""111""}","false","","","","","","","","","","","","","","","","","","",""
"","","","","","image-keyboard-response","15","206110","0.0-3.0-12.0","574eab79c18847000e071119","665500ab8938657b03fbdba8","665792eabd7671fa41307595","1887","stimuli/10011111.jpg"," ","","practrice_feedback","1","","","","","","","","","","","","","","","","","","","","",""
"","","","","","image-keyboard-response","16","207999","0.0-3.0-13.0","574eab79c18847000e071119","665500ab8938657b03fbdba8","665792eabd7671fa41307595","1886","stimuli/0100111.jpg","1","","prediction_practice","0","{""filepath"":""stimuli/0100111.jpg"",""ball_pos"":0,""ego_ball_visible"":false,""ego_can_infer"":false,""alter_ball_visible"":false,""alter_can_infer"":true,""collective_ball_visible"":false,""collective_can_infer"":false,""search_locations"":[0],""alter_occluders"":""100"",""ego_occluders"":""111""}","false","","","","","","","","","","","","","","","","","","",""
"","","","","","image-keyboard-response","17","210237","0.0-3.0-14.0","574eab79c18847000e071119","665500ab8938657b03fbdba8","665792eabd7671fa41307595","2237","stimuli/01001110.jpg"," ","","practrice_feedback","0","","","","","","","","","","","","","","","","","","","","",""
"","","","","","image-keyboard-response","18","211934","0.0-3.0-15.0","574eab79c18847000e071119","665500ab8938657b03fbdba8","665792eabd7671fa41307595","1696","stimuli/2001111.jpg","2","","prediction_practice","2","{""filepath"":""stimuli/2001111.jpg"",""ball_pos"":2,""ego_ball_visible"":false,""ego_can_infer"":false,""alter_ball_visible"":false,""alter_can_infer"":true,""collective_ball_visible"":false,""collective_can_infer"":false,""search_locations"":[2],""alter_occluders"":""001"",""ego_occluders"":""111""}","true","","","","","","","","","","","","","","","","","","",""
"","","","","","image-keyboard-response","19","213238","0.0-3.0-16.0","574eab79c18847000e071119","665500ab8938657b03fbdba8","665792eabd7671fa41307595","1302","stimuli/20011112.jpg"," ","","practrice_feedback","2","","","","","","","","","","","","","","","","","","","","",""
"","","","","","image-keyboard-response","20","215893","0.0-3.0-17.0","574eab79c18847000e071119","665500ab8938657b03fbdba8","665792eabd7671fa41307595","2653","stimuli/2101100.jpg","2","","prediction_practice","0","{""filepath"":""stimuli/2101100.jpg"",""ball_pos"":2,""ego_ball_visible"":true,""ego_can_infer"":true,""alter_ball_visible"":false,""alter_can_infer"":false,""collective_ball_visible"":false,""collective_can_infer"":false,""search_locations"":[0,2],""alter_occluders"":""101"",""ego_occluders"":""100""}","false","","","","","","","","","","","","","","","","","","",""
"","","","","","image-keyboard-response","21","217406","0.0-3.0-18.0","574eab79c18847000e071119","665500ab8938657b03fbdba8","665792eabd7671fa41307595","1511","stimuli/21011000.jpg"," ","","practrice_feedback","0","","","","","","","","","","","","","","","","","","","","",""
"","","","","","image-keyboard-response","22","218669","0.0-3.0-19.0","574eab79c18847000e071119","665500ab8938657b03fbdba8","665792eabd7671fa41307595","1261","stimuli/1001101.jpg","1","","prediction_practice","1","{""filepath"":""stimuli/1001101.jpg"",""ball_pos"":1,""ego_ball_visible"":true,""ego_can_infer"":true,""alter_ball_visible"":true,""alter_can_infer"":true,""collective_ball_visible"":true,""collective_can_infer"":true,""search_locations"":[1],""alter_occluders"":""001"",""ego_occluders"":""101""}","true","","","","","","","","","","","","","","","","","","",""
"","","","","","image-keyboard-response","23","219510","0.0-3.0-20.0","574eab79c18847000e071119","665500ab8938657b03fbdba8","665792eabd7671fa41307595","840","stimuli/10011011.jpg"," ","","practrice_feedback","1","","","","","","","","","","","","","","","","","","","","",""
"","","","","","html-button-response","24","222885","0.0-3.0-21.0","574eab79c18847000e071119","665500ab8938657b03fbdba8","665792eabd7671fa41307595","3373","Now that you've had some practice, you'll be tested with a couple of easy trials. If you correctly predict Sam's choice, you'll move on to complete the experiment!","0","","","","","","","","","","","","","","","","","","","","","","","",""
"","","","","","image-keyboard-response","25","224278","0.0-3.0-22.0-0.0","574eab79c18847000e071119","665500ab8938657b03fbdba8","665792eabd7671fa41307595","1392","stimuli/0000011.jpg","arrowleft","","comprehension_quiz","","","true","arrowleft","","","","","","","","","","","","","","","","","",""
"","","","","","image-keyboard-response","26","225478","0.0-3.0-22.0-1.0","574eab79c18847000e071119","665500ab8938657b03fbdba8","665792eabd7671fa41307595","1196","stimuli/00000110.jpg"," ","","comprehension_quiz","","","true"," ","","","","","","","","","","","","","","","","","",""
"","","","","","image-keyboard-response","27","227166","0.0-3.0-22.0-2.0","574eab79c18847000e071119","665500ab8938657b03fbdba8","665792eabd7671fa41307595","1686","stimuli/1010010.jpg","arrowdown","","comprehension_quiz","","","true","arrowdown","","","","","","","","","","","","","","","","","",""
"","","","","","image-keyboard-response","28","228542","0.0-3.0-22.0-3.0","574eab79c18847000e071119","665500ab8938657b03fbdba8","665792eabd7671fa41307595","1373","stimuli/10100101.jpg"," ","","comprehension_quiz","","","true"," ","","","","","","","","","","","","","","","","","",""
"","","","","","html-button-response","29","231753","0.0-4.0","574eab79c18847000e071119","665500ab8938657b03fbdba8","665792eabd7671fa41307595","3207","The experiment will now begin.","0","","","","","","","","","","","","","","","","","","","","","","","",""
"","","","","","image-keyboard-response","30","233277","0.0-5.0","574eab79c18847000e071119","665500ab8938657b03fbdba8","665792eabd7671fa41307595","1523","stimuli/1011111.jpg","2","","prediction_trial","2","","true","","1","false","false","false","false","false","false","[1,2]","011","111","1","","","","","","",""
"","","","","","image-keyboard-response","31","234341","0.0-6.0","574eab79c18847000e071119","665500ab8938657b03fbdba8","665792eabd7671fa41307595","1063","stimuli/10111112.jpg"," ","","feedback_trial","1","","","","","","","","","","","","","","","","","","","","",""
"","","","","","image-keyboard-response","32","235510","0.0-7.0","574eab79c18847000e071119","665500ab8938657b03fbdba8","665792eabd7671fa41307595","1168","stimuli/0010010.jpg","0","","prediction_trial","0","","true","","0","true","true","true","true","true","true","[0]","010","010","1","","","","","","",""
"","","","","","image-keyboard-response","33","236374","0.0-8.0","574eab79c18847000e071119","665500ab8938657b03fbdba8","665792eabd7671fa41307595","862","stimuli/00100100.jpg"," ","","feedback_trial","0","","","","","","","","","","","","","","","","","","","","",""
"","","","","","image-keyboard-response","34","237390","0.0-9.0","574eab79c18847000e071119","665500ab8938657b03fbdba8","665792eabd7671fa41307595","1014","stimuli/0010001.jpg","0","","prediction_trial","0","","true","","0","true","true","true","true","true","true","[0]","010","001","1","","","","","","",""
"","","","","","image-keyboard-response","35","237925","0.0-10.0","574eab79c18847000e071119","665500ab8938657b03fbdba8","665792eabd7671fa41307595","531","stimuli/00100010.jpg"," ","","feedback_trial","0","","","","","","","","","","","","","","","","","","","","",""
"","","","","","image-keyboard-response","36","239933","0.0-11.0","574eab79c18847000e071119","665500ab8938657b03fbdba8","665792eabd7671fa41307595","2007","stimuli/0001000.jpg","0","","prediction_trial","0","","true","","0","true","true","true","true","true","true","[0]","001","000","1","","","","","","",""
"","","","","","image-keyboard-response","37","240765","0.0-12.0","574eab79c18847000e071119","665500ab8938657b03fbdba8","665792eabd7671fa41307595","831","stimuli/00010000.jpg"," ","","feedback_trial","0","","","","","","","","","","","","","","","","","","","","",""
"","","","","","image-keyboard-response","38","243423","0.0-13.0","574eab79c18847000e071119","665500ab8938657b03fbdba8","665792eabd7671fa41307595","2657","stimuli/2000001.jpg","2","","prediction_trial","2","","true","","2","false","true","true","true","false","true","[2]","000","001","1","","","","","","",""
"","","","","","image-keyboard-response","39","244413","0.0-14.0","574eab79c18847000e071119","665500ab8938657b03fbdba8","665792eabd7671fa41307595","988","stimuli/20000012.jpg"," ","","feedback_trial","2","","","","","","","","","","","","","","","","","","","","",""
"","","","","","image-keyboard-response","40","246062","0.0-15.0","574eab79c18847000e071119","665500ab8938657b03fbdba8","665792eabd7671fa41307595","1647","stimuli/1110110.jpg","1","","prediction_trial","1","","true","","1","false","false","false","false","false","false","[0,1]","110","110","1","","","","","","",""
"","","","","","image-keyboard-response","41","246998","0.0-16.0","574eab79c18847000e071119","665500ab8938657b03fbdba8","665792eabd7671fa41307595","933","stimuli/11101101.jpg"," ","","feedback_trial","0","","","","","","","","","","","","","","","","","","","","",""
"","","","","","image-keyboard-response","42","247902","0.0-17.0","574eab79c18847000e071119","665500ab8938657b03fbdba8","665792eabd7671fa41307595","901","stimuli/2010010.jpg","2","","prediction_trial","2","","true","","2","true","true","true","true","true","true","[2]","010","010","1","","","","","","",""
"","","","","","image-keyboard-response","43","248566","0.0-18.0","574eab79c18847000e071119","665500ab8938657b03fbdba8","665792eabd7671fa41307595","662","stimuli/20100102.jpg"," ","","feedback_trial","2","","","","","","","","","","","","","","","","","","","","",""
"","","","","","image-keyboard-response","44","249902","0.0-19.0","574eab79c18847000e071119","665500ab8938657b03fbdba8","665792eabd7671fa41307595","1334","stimuli/0101101.jpg","0","","prediction_trial","0","","true","","0","false","false","false","false","false","false","[0,2]","101","101","1","","","","","","",""
"","","","","","image-keyboard-response","45","250812","0.0-20.0","574eab79c18847000e071119","665500ab8938657b03fbdba8","665792eabd7671fa41307595","908","stimuli/01011010.jpg"," ","","feedback_trial","0","","","","","","","","","","","","","","","","","","","","",""
"","","","","","image-keyboard-response","46","254445","0.0-21.0","574eab79c18847000e071119","665500ab8938657b03fbdba8","665792eabd7671fa41307595","3632","stimuli/0010101.jpg","2","","prediction_trial","0","","false","","0","false","false","true","true","false","false","[0]","010","101","0","","","","","","",""
"","","","","","image-keyboard-response","47","255550","0.0-22.0","574eab79c18847000e071119","665500ab8938657b03fbdba8","665792eabd7671fa41307595","1104","stimuli/00101010.jpg"," ","","feedback_trial","0","","","","","","","","","","","","","","","","","","","","",""
"","","","","","image-keyboard-response","48","257588","0.0-23.0","574eab79c18847000e071119","665500ab8938657b03fbdba8","665792eabd7671fa41307595","2036","stimuli/2011100.jpg","2","","prediction_trial","2","","true","","2","true","true","false","false","false","false","[1,2]","011","100","1","","","","","","",""
"","","","","","image-keyboard-response","49","258284","0.0-24.0","574eab79c18847000e071119","665500ab8938657b03fbdba8","665792eabd7671fa41307595","696","stimuli/20111002.jpg"," ","","feedback_trial","1","","","","","","","","","","","","","","","","","","","","",""
"","","","","","image-keyboard-response","50","260910","0.0-25.0","574eab79c18847000e071119","665500ab8938657b03fbdba8","665792eabd7671fa41307595","2624","stimuli/2101011.jpg","1","","prediction_trial","2","","false","","2","false","false","false","false","false","false","[2,0]","101","011","0","","","","","","",""
"","","","","","image-keyboard-response","51","261821","0.0-26.0","574eab79c18847000e071119","665500ab8938657b03fbdba8","665792eabd7671fa41307595","908","stimuli/21010112.jpg"," ","","feedback_trial","2","","","","","","","","","","","","","","","","","","","","",""
"","","","","","image-keyboard-response","52","264917","0.0-27.0","574eab79c18847000e071119","665500ab8938657b03fbdba8","665792eabd7671fa41307595","3095","stimuli/0101110.jpg","0","","prediction_trial","2","","false","","0","false","false","false","false","false","false","[0,2]","101","110","0","","","","","","",""
"","","","","","image-keyboard-response","53","265990","0.0-28.0","574eab79c18847000e071119","665500ab8938657b03fbdba8","665792eabd7671fa41307595","1072","stimuli/01011102.jpg"," ","","feedback_trial","0","","","","","","","","","","","","","","","","","","","","",""
"","","","","","image-keyboard-response","54","268182","0.0-29.0","574eab79c18847000e071119","665500ab8938657b03fbdba8","665792eabd7671fa41307595","2190","stimuli/2000011.jpg","1","","prediction_trial","2","","false","","2","false","false","true","true","false","false","[2]","000","011","0","","","","","","",""
"","","","","","image-keyboard-response","55","269086","0.0-30.0","574eab79c18847000e071119","665500ab8938657b03fbdba8","665792eabd7671fa41307595","901","stimuli/20000112.jpg"," ","","feedback_trial","2","","","","","","","","","","","","","","","","","","","","",""
"","","","","","image-keyboard-response","56","270710","0.0-31.0","574eab79c18847000e071119","665500ab8938657b03fbdba8","665792eabd7671fa41307595","1622","stimuli/0011100.jpg","2","","prediction_trial","0","","false","","0","false","true","true","true","false","true","[0]","011","100","0","","","","","","",""
"","","","","","image-keyboard-response","57","271637","0.0-32.0","574eab79c18847000e071119","665500ab8938657b03fbdba8","665792eabd7671fa41307595","926","stimuli/00111000.jpg"," ","","feedback_trial","0","","","","","","","","","","","","","","","","","","","","",""
"","","","","","image-keyboard-response","58","273213","0.0-33.0","574eab79c18847000e071119","665500ab8938657b03fbdba8","665792eabd7671fa41307595","1574","stimuli/2001011.jpg","1","","prediction_trial","2","","false","","2","false","false","false","true","false","false","[2]","001","011","0","","","","","","",""
"","","","","","image-keyboard-response","59","274260","0.0-34.0","574eab79c18847000e071119","665500ab8938657b03fbdba8","665792eabd7671fa41307595","1046","stimuli/20010112.jpg"," ","","feedback_trial","2","","","","","","","","","","","","","","","","","","","","",""
"","","","","","image-keyboard-response","60","275997","0.0-35.0","574eab79c18847000e071119","665500ab8938657b03fbdba8","665792eabd7671fa41307595","1735","stimuli/2000100.jpg","2","","prediction_trial","2","","true","","2","true","true","true","true","true","true","[2]","000","100","1","","","","","","",""
"","","","","","image-keyboard-response","61","276590","0.0-36.0","574eab79c18847000e071119","665500ab8938657b03fbdba8","665792eabd7671fa41307595","591","stimuli/20001002.jpg"," ","","feedback_trial","2","","","","","","","","","","","","","","","","","","","","",""
"","","","","","image-keyboard-response","62","278814","0.0-37.0","574eab79c18847000e071119","665500ab8938657b03fbdba8","665792eabd7671fa41307595","2222","stimuli/0000100.jpg","0","","prediction_trial","0","","true","","0","false","true","true","true","false","true","[0]","000","100","1","","","","","","",""
"","","","","","image-keyboard-response","63","279566","0.0-38.0","574eab79c18847000e071119","665500ab8938657b03fbdba8","665792eabd7671fa41307595","749","stimuli/00001000.jpg"," ","","feedback_trial","0","","","","","","","","","","","","","","","","","","","","",""
"","","","","","image-keyboard-response","64","281644","0.0-39.0","574eab79c18847000e071119","665500ab8938657b03fbdba8","665792eabd7671fa41307595","2077","stimuli/2101000.jpg","2","","prediction_trial","0","","false","","2","true","true","false","false","false","false","[2,0]","101","000","0","","","","","","",""
"","","","","","image-keyboard-response","65","282446","0.0-40.0","574eab79c18847000e071119","665500ab8938657b03fbdba8","665792eabd7671fa41307595","800","stimuli/21010000.jpg"," ","","feedback_trial","2","","","","","","","","","","","","","","","","","","","","",""
"","","","","","image-keyboard-response","66","285453","0.0-41.0","574eab79c18847000e071119","665500ab8938657b03fbdba8","665792eabd7671fa41307595","3004","stimuli/1100111.jpg","0","","prediction_trial","1","","false","","1","false","false","true","true","false","false","[1]","100","111","0","","","","","","",""
"","","","","","image-keyboard-response","67","286341","0.0-42.0","574eab79c18847000e071119","665500ab8938657b03fbdba8","665792eabd7671fa41307595","887","stimuli/11001111.jpg"," ","","feedback_trial","1","","","","","","","","","","","","","","","","","","","","",""
"","","","","","image-keyboard-response","68","287692","0.0-43.0","574eab79c18847000e071119","665500ab8938657b03fbdba8","665792eabd7671fa41307595","1351","stimuli/2011010.jpg","2","","prediction_trial","2","","true","","2","true","true","false","false","false","false","[2,1]","011","010","1","","","","","","",""
"","","","","","image-keyboard-response","69","288495","0.0-44.0","574eab79c18847000e071119","665500ab8938657b03fbdba8","665792eabd7671fa41307595","801","stimuli/20110102.jpg"," ","","feedback_trial","2","","","","","","","","","","","","","","","","","","","","",""
"","","","","","image-keyboard-response","70","291406","0.0-45.0","574eab79c18847000e071119","665500ab8938657b03fbdba8","665792eabd7671fa41307595","2909","stimuli/2011110.jpg","1","","prediction_trial","1","","true","","2","true","true","false","false","false","false","[2,1]","011","110","1","","","","","","",""
"","","","","","image-keyboard-response","71","292214","0.0-46.0","574eab79c18847000e071119","665500ab8938657b03fbdba8","665792eabd7671fa41307595","806","stimuli/20111101.jpg"," ","","feedback_trial","2","","","","","","","","","","","","","","","","","","","","",""
"","","","","","image-keyboard-response","72","293534","0.0-47.0","574eab79c18847000e071119","665500ab8938657b03fbdba8","665792eabd7671fa41307595","1317","stimuli/2001001.jpg","2","","prediction_trial","2","","true","","2","false","true","false","true","false","true","[2]","001","001","1","","","","","","",""
"","","","","","image-keyboard-response","73","294140","0.0-48.0","574eab79c18847000e071119","665500ab8938657b03fbdba8","665792eabd7671fa41307595","605","stimuli/20010012.jpg"," ","","feedback_trial","2","","","","","","","","","","","","","","","","","","","","",""
"","","","","","image-keyboard-response","74","296623","0.0-49.0","574eab79c18847000e071119","665500ab8938657b03fbdba8","665792eabd7671fa41307595","2482","stimuli/2001100.jpg","0","","prediction_trial","2","","false","","2","true","true","false","true","false","true","[2]","001","100","0","","","","","","",""
"","","","","","image-keyboard-response","75","297876","0.0-50.0","574eab79c18847000e071119","665500ab8938657b03fbdba8","665792eabd7671fa41307595","1251","stimuli/20011002.jpg"," ","","feedback_trial","2","","","","","","","","","","","","","","","","","","","","",""
"","","","","","image-keyboard-response","76","301902","0.0-51.0","574eab79c18847000e071119","665500ab8938657b03fbdba8","665792eabd7671fa41307595","4025","stimuli/1011110.jpg","1","","prediction_trial","2","","false","","1","false","false","false","false","false","false","[1,2]","011","110","0","","","","","","",""
"","","","","","image-keyboard-response","77","302662","0.0-52.0","574eab79c18847000e071119","665500ab8938657b03fbdba8","665792eabd7671fa41307595","757","stimuli/10111102.jpg"," ","","feedback_trial","1","","","","","","","","","","","","","","","","","","","","",""
"","","","","","image-keyboard-response","78","305733","0.0-53.0","574eab79c18847000e071119","665500ab8938657b03fbdba8","665792eabd7671fa41307595","3068","stimuli/1100011.jpg","0","","prediction_trial","1","","false","","1","false","false","true","true","false","false","[1]","100","011","0","","","","","","",""
"","","","","","image-keyboard-response","79","309415","0.0-54.0","574eab79c18847000e071119","665500ab8938657b03fbdba8","665792eabd7671fa41307595","3681","stimuli/11000111.jpg"," ","","feedback_trial","1","","","","","","","","","","","","","","","","","","","","",""
"","","","","","image-keyboard-response","80","310414","0.0-55.0","574eab79c18847000e071119","665500ab8938657b03fbdba8","665792eabd7671fa41307595","997","stimuli/2100110.jpg","2","","prediction_trial","2","","true","","2","true","true","true","true","true","true","[2]","100","110","1","","","","","","",""
"","","","","","image-keyboard-response","81","311180","0.0-56.0","574eab79c18847000e071119","665500ab8938657b03fbdba8","665792eabd7671fa41307595","765","stimuli/21001102.jpg"," ","","feedback_trial","2","","","","","","","","","","","","","","","","","","","","",""
"","","","","","image-keyboard-response","82","314646","0.0-57.0","574eab79c18847000e071119","665500ab8938657b03fbdba8","665792eabd7671fa41307595","3464","stimuli/0100011.jpg","0","","prediction_trial","0","","true","","0","true","true","false","true","false","true","[0]","100","011","1","","","","","","",""
"","","","","","image-keyboard-response","83","315486","0.0-58.0","574eab79c18847000e071119","665500ab8938657b03fbdba8","665792eabd7671fa41307595","837","stimuli/01000110.jpg"," ","","feedback_trial","0","","","","","","","","","","","","","","","","","","","","",""
"","","","","","image-keyboard-response","84","317766","0.0-59.0","574eab79c18847000e071119","665500ab8938657b03fbdba8","665792eabd7671fa41307595","2278","stimuli/2110001.jpg","2","","prediction_trial","2","","true","","2","false","true","true","true","false","true","[2]","110","001","1","","","","","","",""
"","","","","","image-keyboard-response","85","318492","0.0-60.0","574eab79c18847000e071119","665500ab8938657b03fbdba8","665792eabd7671fa41307595","724","stimuli/21100012.jpg"," ","","feedback_trial","2","","","","","","","","","","","","","","","","","","","","",""
"","","","","","image-keyboard-response","86","320757","0.0-61.0","574eab79c18847000e071119","665500ab8938657b03fbdba8","665792eabd7671fa41307595","2264","stimuli/2111000.jpg","1","","prediction_trial","2","","false","","2","true","true","false","false","false","false","[2,1,0]","111","000","0","","","","","","",""
"","","","","","image-keyboard-response","87","321782","0.0-62.0","574eab79c18847000e071119","665500ab8938657b03fbdba8","665792eabd7671fa41307595","1023","stimuli/21110002.jpg"," ","","feedback_trial","2","","","","","","","","","","","","","","","","","","","","",""
"","","","","","image-keyboard-response","88","325374","0.0-63.0","574eab79c18847000e071119","665500ab8938657b03fbdba8","665792eabd7671fa41307595","3590","stimuli/1001110.jpg","0","","prediction_trial","1","","false","","1","false","false","true","true","false","false","[1]","001","110","0","","","","","","",""
"","","","","","image-keyboard-response","89","326461","0.0-64.0","574eab79c18847000e071119","665500ab8938657b03fbdba8","665792eabd7671fa41307595","1085","stimuli/10011101.jpg"," ","","feedback_trial","1","","","","","","","","","","","","","","","","","","","","",""
"","","","","","image-keyboard-response","90","327750","0.0-65.0","574eab79c18847000e071119","665500ab8938657b03fbdba8","665792eabd7671fa41307595","1288","stimuli/2111111.jpg","1","","prediction_trial","1","","true","","2","false","false","false","false","false","false","[1,0,2]","111","111","1","","","","","","",""
"","","","","","image-keyboard-response","91","329110","0.0-66.0","574eab79c18847000e071119","665500ab8938657b03fbdba8","665792eabd7671fa41307595","1358","stimuli/21111111.jpg"," ","","feedback_trial","1","","","","","","","","","","","","","","","","","","","","",""
"","","","","","image-keyboard-response","92","330846","0.0-67.0","574eab79c18847000e071119","665500ab8938657b03fbdba8","665792eabd7671fa41307595","1734","stimuli/0101100.jpg","2","","prediction_trial","0","","false","","0","false","true","false","false","false","false","[0,2]","101","100","0","","","","","","",""
"","","","","","image-keyboard-response","93","331653","0.0-68.0","574eab79c18847000e071119","665500ab8938657b03fbdba8","665792eabd7671fa41307595","804","stimuli/01011000.jpg"," ","","feedback_trial","0","","","","","","","","","","","","","","","","","","","","",""
"","","","","","image-keyboard-response","94","333692","0.0-69.0","574eab79c18847000e071119","665500ab8938657b03fbdba8","665792eabd7671fa41307595","2039","stimuli/0101011.jpg","0","","prediction_trial","0","","true","","0","true","true","false","false","false","false","[0,2]","101","011","1","","","","","","",""
"","","","","","image-keyboard-response","95","334476","0.0-70.0","574eab79c18847000e071119","665500ab8938657b03fbdba8","665792eabd7671fa41307595","783","stimuli/01010110.jpg"," ","","feedback_trial","0","","","","","","","","","","","","","","","","","","","","",""
"","","","","","image-keyboard-response","96","336293","0.0-71.0","574eab79c18847000e071119","665500ab8938657b03fbdba8","665792eabd7671fa41307595","1815","stimuli/0010000.jpg","0","","prediction_trial","0","","true","","0","true","true","true","true","true","true","[0]","010","000","1","","","","","","",""
"","","","","","image-keyboard-response","97","336845","0.0-72.0","574eab79c18847000e071119","665500ab8938657b03fbdba8","665792eabd7671fa41307595","551","stimuli/00100000.jpg"," ","","feedback_trial","0","","","","","","","","","","","","","","","","","","","","",""
"","","","","","image-keyboard-response","98","341397","0.0-73.0","574eab79c18847000e071119","665500ab8938657b03fbdba8","665792eabd7671fa41307595","4551","stimuli/0110100.jpg","1","","prediction_trial","0","","false","","0","false","true","false","false","false","false","[1,0]","110","100","0","","","","","","",""
"","","","","","image-keyboard-response","99","342103","0.0-74.0","574eab79c18847000e071119","665500ab8938657b03fbdba8","665792eabd7671fa41307595","705","stimuli/01101000.jpg"," ","","feedback_trial","1","","","","","","","","","","","","","","","","","","","","",""
"","","","","","image-keyboard-response","100","343238","0.0-75.0","574eab79c18847000e071119","665500ab8938657b03fbdba8","665792eabd7671fa41307595","1133","stimuli/1001001.jpg","1","","prediction_trial","1","","true","","1","true","true","true","true","true","true","[1]","001","001","1","","","","","","",""
"","","","","","image-keyboard-response","101","344422","0.0-76.0","574eab79c18847000e071119","665500ab8938657b03fbdba8","665792eabd7671fa41307595","1182","stimuli/10010011.jpg"," ","","feedback_trial","1","","","","","","","","","","","","","","","","","","","","",""
"","","","","","image-keyboard-response","102","347629","0.0-77.0","574eab79c18847000e071119","665500ab8938657b03fbdba8","665792eabd7671fa41307595","3205","stimuli/2101010.jpg","0","","prediction_trial","2","","false","","2","true","true","false","false","false","false","[0,2]","101","010","0","","","","","","",""
"","","","","","image-keyboard-response","103","348479","0.0-78.0","574eab79c18847000e071119","665500ab8938657b03fbdba8","665792eabd7671fa41307595","848","stimuli/21010102.jpg"," ","","feedback_trial","0","","","","","","","","","","","","","","","","","","","","",""
"","","","","","image-keyboard-response","104","351766","0.0-79.0","574eab79c18847000e071119","665500ab8938657b03fbdba8","665792eabd7671fa41307595","3286","stimuli/1010110.jpg","1","","prediction_trial","1","","true","","1","false","false","false","true","false","false","[1]","010","110","1","","","","","","",""
"","","","","","image-keyboard-response","105","352773","0.0-80.0","574eab79c18847000e071119","665500ab8938657b03fbdba8","665792eabd7671fa41307595","1005","stimuli/10101101.jpg"," ","","feedback_trial","1","","","","","","","","","","","","","","","","","","","","",""
"","","","","","image-keyboard-response","106","353996","0.0-81.0","574eab79c18847000e071119","665500ab8938657b03fbdba8","665792eabd7671fa41307595","1222","stimuli/2001010.jpg","2","","prediction_trial","2","","true","","2","true","true","false","true","false","true","[2]","001","010","1","","","","","","",""
"","","","","","image-keyboard-response","107","354836","0.0-82.0","574eab79c18847000e071119","665500ab8938657b03fbdba8","665792eabd7671fa41307595","839","stimuli/20010102.jpg"," ","","feedback_trial","2","","","","","","","","","","","","","","","","","","","","",""
"","","","","","image-keyboard-response","108","360037","0.0-83.0","574eab79c18847000e071119","665500ab8938657b03fbdba8","665792eabd7671fa41307595","5200","stimuli/2010001.jpg","1","","prediction_trial","2","","false","","2","false","true","true","true","false","true","[2]","010","001","0","","","","","","",""
"","","","","","image-keyboard-response","109","361006","0.0-84.0","574eab79c18847000e071119","665500ab8938657b03fbdba8","665792eabd7671fa41307595","967","stimuli/20100012.jpg"," ","","feedback_trial","2","","","","","","","","","","","","","","","","","","","","",""
"","","","","","image-keyboard-response","110","363605","0.0-85.0","574eab79c18847000e071119","665500ab8938657b03fbdba8","665792eabd7671fa41307595","2597","stimuli/2111100.jpg","0","","prediction_trial","2","","false","","2","true","true","false","false","false","false","[0,2,1]","111","100","0","","","","","","",""
"","","","","","image-keyboard-response","111","364463","0.0-86.0","574eab79c18847000e071119","665500ab8938657b03fbdba8","665792eabd7671fa41307595","856","stimuli/21111002.jpg"," ","","feedback_trial","0","","","","","","","","","","","","","","","","","","","","",""
"","","","","","image-keyboard-response","112","365660","0.0-87.0","574eab79c18847000e071119","665500ab8938657b03fbdba8","665792eabd7671fa41307595","1196","stimuli/2010100.jpg","2","","prediction_trial","2","","true","","2","true","true","true","true","true","true","[2]","010","100","1","","","","","","",""
"","","","","","image-keyboard-response","113","366302","0.0-88.0","574eab79c18847000e071119","665500ab8938657b03fbdba8","665792eabd7671fa41307595","640","stimuli/20101002.jpg"," ","","feedback_trial","2","","","","","","","","","","","","","","","","","","","","",""
"","","","","","image-keyboard-response","114","370462","0.0-89.0","574eab79c18847000e071119","665500ab8938657b03fbdba8","665792eabd7671fa41307595","4157","stimuli/0010100.jpg","0","","prediction_trial","0","","true","","0","false","true","true","true","false","true","[0]","010","100","1","","","","","","",""
"","","","","","image-keyboard-response","115","371133","0.0-90.0","574eab79c18847000e071119","665500ab8938657b03fbdba8","665792eabd7671fa41307595","669","stimuli/00101000.jpg"," ","","feedback_trial","0","","","","","","","","","","","","","","","","","","","","",""
"","","","","","image-keyboard-response","116","373663","0.0-91.0","574eab79c18847000e071119","665500ab8938657b03fbdba8","665792eabd7671fa41307595","2529","stimuli/0101010.jpg","0","","prediction_trial","2","","false","","0","true","true","false","false","false","false","[2,0]","101","010","0","","","","","","",""
"","","","","","image-keyboard-response","117","374710","0.0-92.0","574eab79c18847000e071119","665500ab8938657b03fbdba8","665792eabd7671fa41307595","1044","stimuli/01010102.jpg"," ","","feedback_trial","2","","","","","","","","","","","","","","","","","","","","",""
"","","","","","image-keyboard-response","118","375694","0.0-93.0","574eab79c18847000e071119","665500ab8938657b03fbdba8","665792eabd7671fa41307595","983","stimuli/1001000.jpg","1","","prediction_trial","1","","true","","1","true","true","true","true","true","true","[1]","001","000","1","","","","","","",""
"","","","","","image-keyboard-response","119","376357","0.0-94.0","574eab79c18847000e071119","665500ab8938657b03fbdba8","665792eabd7671fa41307595","660","stimuli/10010001.jpg"," ","","feedback_trial","1","","","","","","","","","","","","","","","","","","","","",""
"","","","","","image-keyboard-response","120","378718","0.0-95.0","574eab79c18847000e071119","665500ab8938657b03fbdba8","665792eabd7671fa41307595","2359","stimuli/0100000.jpg","0","","prediction_trial","0","","true","","0","true","true","false","true","false","true","[0]","100","000","1","","","","","","",""
"","","","","","image-keyboard-response","121","379277","0.0-96.0","574eab79c18847000e071119","665500ab8938657b03fbdba8","665792eabd7671fa41307595","557","stimuli/01000000.jpg"," ","","feedback_trial","0","","","","","","","","","","","","","","","","","","","","",""
"","","","","","image-keyboard-response","122","380942","0.0-97.0","574eab79c18847000e071119","665500ab8938657b03fbdba8","665792eabd7671fa41307595","1664","stimuli/1010101.jpg","1","","prediction_trial","1","","true","","1","true","true","false","true","false","true","[1]","010","101","1","","","","","","",""
"","","","","","image-keyboard-response","123","381518","0.0-98.0","574eab79c18847000e071119","665500ab8938657b03fbdba8","665792eabd7671fa41307595","574","stimuli/10101011.jpg"," ","","feedback_trial","1","","","","","","","","","","","","","","","","","","","","",""
"","","","","","image-keyboard-response","124","382446","0.0-99.0","574eab79c18847000e071119","665500ab8938657b03fbdba8","665792eabd7671fa41307595","925","stimuli/2110000.jpg","2","","prediction_trial","2","","true","","2","true","true","true","true","true","true","[2]","110","000","1","","","","","","",""
"","","","","","image-keyboard-response","125","382957","0.0-100.0","574eab79c18847000e071119","665500ab8938657b03fbdba8","665792eabd7671fa41307595","509","stimuli/21100002.jpg"," ","","feedback_trial","2","","","","","","","","","","","","","","","","","","","","",""
"","","","","","image-keyboard-response","126","385589","0.0-101.0","574eab79c18847000e071119","665500ab8938657b03fbdba8","665792eabd7671fa41307595","2630","stimuli/1001011.jpg","1","","prediction_trial","1","","true","","1","false","false","true","true","false","false","[1]","001","011","1","","","","","","",""
"","","","","","image-keyboard-response","127","386157","0.0-102.0","574eab79c18847000e071119","665500ab8938657b03fbdba8","665792eabd7671fa41307595","567","stimuli/10010111.jpg"," ","","feedback_trial","1","","","","","","","","","","","","","","","","","","","","",""
"","","","","","image-keyboard-response","128","387054","0.0-103.0","574eab79c18847000e071119","665500ab8938657b03fbdba8","665792eabd7671fa41307595","896","stimuli/0001010.jpg","0","","prediction_trial","0","","true","","0","true","true","true","true","true","true","[0]","001","010","1","","","","","","",""
"","","","","","image-keyboard-response","129","387550","0.0-104.0","574eab79c18847000e071119","665500ab8938657b03fbdba8","665792eabd7671fa41307595","494","stimuli/00010100.jpg"," ","","feedback_trial","0","","","","","","","","","","","","","","","","","","","","",""
"","","","","","image-keyboard-response","130","388854","0.0-105.0","574eab79c18847000e071119","665500ab8938657b03fbdba8","665792eabd7671fa41307595","1302","stimuli/0000000.jpg","0","","prediction_trial","0","","true","","0","true","true","true","true","true","true","[0]","000","000","1","","","","","","",""
"","","","","","image-keyboard-response","131","389735","0.0-106.0","574eab79c18847000e071119","665500ab8938657b03fbdba8","665792eabd7671fa41307595","878","stimuli/00000000.jpg"," ","","feedback_trial","0","","","","","","","","","","","","","","","","","","","","",""
"","","","","","image-keyboard-response","132","394557","0.0-107.0","574eab79c18847000e071119","665500ab8938657b03fbdba8","665792eabd7671fa41307595","4820","stimuli/2100001.jpg","2","","prediction_trial","2","","true","","2","false","true","true","true","false","true","[2]","100","001","1","","","","","","",""
"","","","","","image-keyboard-response","133","395150","0.0-108.0","574eab79c18847000e071119","665500ab8938657b03fbdba8","665792eabd7671fa41307595","593","stimuli/21000012.jpg"," ","","feedback_trial","2","","","","","","","","","","","","","","","","","","","","",""
"","","","","","image-keyboard-response","134","396845","0.0-109.0","574eab79c18847000e071119","665500ab8938657b03fbdba8","665792eabd7671fa41307595","1693","stimuli/2110100.jpg","2","","prediction_trial","2","","true","","2","true","true","true","true","true","true","[2]","110","100","1","","","","","","",""
"","","","","","image-keyboard-response","135","397405","0.0-110.0","574eab79c18847000e071119","665500ab8938657b03fbdba8","665792eabd7671fa41307595","558","stimuli/21101002.jpg"," ","","feedback_trial","2","","","","","","","","","","","","","","","","","","","","",""
"","","","","","image-keyboard-response","136","399278","0.0-111.0","574eab79c18847000e071119","665500ab8938657b03fbdba8","665792eabd7671fa41307595","1872","stimuli/0100100.jpg","0","","prediction_trial","0","","true","","0","false","true","false","true","false","true","[0]","100","100","1","","","","","","",""
"","","","","","image-keyboard-response","137","399806","0.0-112.0","574eab79c18847000e071119","665500ab8938657b03fbdba8","665792eabd7671fa41307595","526","stimuli/01001000.jpg"," ","","feedback_trial","0","","","","","","","","","","","","","","","","","","","","",""
"","","","","","image-keyboard-response","138","401190","0.0-113.0","574eab79c18847000e071119","665500ab8938657b03fbdba8","665792eabd7671fa41307595","1381","stimuli/2011011.jpg","2","","prediction_trial","1","","false","","2","false","false","false","false","false","false","[2,1]","011","011","0","","","","","","",""
"","","","","","image-keyboard-response","139","401831","0.0-114.0","574eab79c18847000e071119","665500ab8938657b03fbdba8","665792eabd7671fa41307595","638","stimuli/20110111.jpg"," ","","feedback_trial","2","","","","","","","","","","","","","","","","","","","","",""
"","","","","","image-keyboard-response","140","403237","0.0-115.0","574eab79c18847000e071119","665500ab8938657b03fbdba8","665792eabd7671fa41307595","1404","stimuli/1011011.jpg","1","","prediction_trial","1","","true","","1","false","false","false","false","false","false","[1,2]","011","011","1","","","","","","",""
"","","","","","image-keyboard-response","141","404765","0.0-116.0","574eab79c18847000e071119","665500ab8938657b03fbdba8","665792eabd7671fa41307595","1527","stimuli/10110111.jpg"," ","","feedback_trial","1","","","","","","","","","","","","","","","","","","","","",""
"","","","","","image-keyboard-response","142","409485","0.0-117.0","574eab79c18847000e071119","665500ab8938657b03fbdba8","665792eabd7671fa41307595","4720","stimuli/1100010.jpg","1","","prediction_trial","1","","true","","1","false","true","true","true","false","true","[1]","100","010","1","","","","","","",""
"","","","","","image-keyboard-response","143","410039","0.0-118.0","574eab79c18847000e071119","665500ab8938657b03fbdba8","665792eabd7671fa41307595","552","stimuli/11000101.jpg"," ","","feedback_trial","1","","","","","","","","","","","","","","","","","","","","",""
"","","","","","image-keyboard-response","144","411094","0.0-119.0","574eab79c18847000e071119","665500ab8938657b03fbdba8","665792eabd7671fa41307595","1053","stimuli/2111010.jpg","2","","prediction_trial","0","","false","","2","true","true","false","false","false","false","[1,2,0]","111","010","0","","","","","","",""
"","","","","","image-keyboard-response","145","411877","0.0-120.0","574eab79c18847000e071119","665500ab8938657b03fbdba8","665792eabd7671fa41307595","781","stimuli/21110100.jpg"," ","","feedback_trial","1","","","","","","","","","","","","","","","","","","","","",""
"","","","","","image-keyboard-response","146","412958","0.0-121.0","574eab79c18847000e071119","665500ab8938657b03fbdba8","665792eabd7671fa41307595","1080","stimuli/1000100.jpg","1","","prediction_trial","1","","true","","1","true","true","true","true","true","true","[1]","000","100","1","","","","","","",""
"","","","","","image-keyboard-response","147","413477","0.0-122.0","574eab79c18847000e071119","665500ab8938657b03fbdba8","665792eabd7671fa41307595","518","stimuli/10001001.jpg"," ","","feedback_trial","1","","","","","","","","","","","","","","","","","","","","",""
"","","","","","image-keyboard-response","148","414486","0.0-123.0","574eab79c18847000e071119","665500ab8938657b03fbdba8","665792eabd7671fa41307595","1007","stimuli/2101110.jpg","2","","prediction_trial","0","","false","","2","true","true","false","false","false","false","[2,0]","101","110","0","","","","","","",""
"","","","","","image-keyboard-response","149","415293","0.0-124.0","574eab79c18847000e071119","665500ab8938657b03fbdba8","665792eabd7671fa41307595","804","stimuli/21011100.jpg"," ","","feedback_trial","2","","","","","","","","","","","","","","","","","","","","",""
"","","","","","image-keyboard-response","150","416509","0.0-125.0","574eab79c18847000e071119","665500ab8938657b03fbdba8","665792eabd7671fa41307595","1215","stimuli/1100101.jpg","1","","prediction_trial","1","","true","","1","true","true","true","true","true","true","[1]","100","101","1","","","","","","",""
"","","","","","image-keyboard-response","151","417166","0.0-126.0","574eab79c18847000e071119","665500ab8938657b03fbdba8","665792eabd7671fa41307595","656","stimuli/11001011.jpg"," ","","feedback_trial","1","","","","","","","","","","","","","","","","","","","","",""
"","","","","","image-keyboard-response","152","418326","0.0-127.0","574eab79c18847000e071119","665500ab8938657b03fbdba8","665792eabd7671fa41307595","1158","stimuli/1100001.jpg","1","","prediction_trial","1","","true","","1","true","true","true","true","true","true","[1]","100","001","1","","","","","","",""
"","","","","","image-keyboard-response","153","418933","0.0-128.0","574eab79c18847000e071119","665500ab8938657b03fbdba8","665792eabd7671fa41307595","604","stimuli/11000011.jpg"," ","","feedback_trial","1","","","","","","","","","","","","","","","","","","","","",""
"","","","","","image-keyboard-response","154","421238","0.0-129.0","574eab79c18847000e071119","665500ab8938657b03fbdba8","665792eabd7671fa41307595","2305","stimuli/0010111.jpg","2","","prediction_trial","0","","false","","0","false","false","true","true","false","false","[0]","010","111","0","","","","","","",""
"","","","","","image-keyboard-response","155","421926","0.0-130.0","574eab79c18847000e071119","665500ab8938657b03fbdba8","665792eabd7671fa41307595","684","stimuli/00101110.jpg"," ","","feedback_trial","0","","","","","","","","","","","","","","","","","","","","",""
"","","","","","image-keyboard-response","156","424813","0.0-131.0","574eab79c18847000e071119","665500ab8938657b03fbdba8","665792eabd7671fa41307595","2885","stimuli/2101101.jpg","0","","prediction_trial","0","","true","","2","false","false","false","false","false","false","[2,0]","101","101","1","","","","","","",""
"","","","","","image-keyboard-response","157","425350","0.0-132.0","574eab79c18847000e071119","665500ab8938657b03fbdba8","665792eabd7671fa41307595","537","stimuli/21011010.jpg"," ","","feedback_trial","2","","","","","","","","","","","","","","","","","","","","",""
"","","","","","image-keyboard-response","158","427486","0.0-133.0","574eab79c18847000e071119","665500ab8938657b03fbdba8","665792eabd7671fa41307595","2134","stimuli/2111001.jpg","1","","prediction_trial","2","","false","","2","false","true","false","false","false","false","[0,1,2]","111","001","0","","","","","","",""
"","","","","","image-keyboard-response","159","428100","0.0-134.0","574eab79c18847000e071119","665500ab8938657b03fbdba8","665792eabd7671fa41307595","612","stimuli/21110012.jpg"," ","","feedback_trial","0","","","","","","","","","","","","","","","","","","","","",""
"","","","","","image-keyboard-response","160","430486","0.0-135.0","574eab79c18847000e071119","665500ab8938657b03fbdba8","665792eabd7671fa41307595","2384","stimuli/2010011.jpg","1","","prediction_trial","2","","false","","2","false","false","true","true","false","false","[2]","010","011","0","","","","","","",""
"","","","","","image-keyboard-response","161","431084","0.0-136.0","574eab79c18847000e071119","665500ab8938657b03fbdba8","665792eabd7671fa41307595","596","stimuli/20100112.jpg"," ","","feedback_trial","2","","","","","","","","","","","","","","","","","","","","",""
"","","","","","image-keyboard-response","162","432388","0.0-137.0","574eab79c18847000e071119","665500ab8938657b03fbdba8","665792eabd7671fa41307595","1304","stimuli/1100100.jpg","1","","prediction_trial","1","","true","","1","true","true","true","true","true","true","[1]","100","100","1","","","","","","",""
"","","","","","image-keyboard-response","163","432879","0.0-138.0","574eab79c18847000e071119","665500ab8938657b03fbdba8","665792eabd7671fa41307595","489","stimuli/11001001.jpg"," ","","feedback_trial","1","","","","","","","","","","","","","","","","","","","","",""
"","","","","","image-keyboard-response","164","434022","0.0-139.0","574eab79c18847000e071119","665500ab8938657b03fbdba8","665792eabd7671fa41307595","1140","stimuli/0011011.jpg","0","","prediction_trial","0","","true","","0","true","true","true","true","true","true","[0]","011","011","1","","","","","","",""
"","","","","","image-keyboard-response","165","434542","0.0-140.0","574eab79c18847000e071119","665500ab8938657b03fbdba8","665792eabd7671fa41307595","519","stimuli/00110110.jpg"," ","","feedback_trial","0","","","","","","","","","","","","","","","","","","","","",""
"","","","","","image-keyboard-response","166","436686","0.0-141.0","574eab79c18847000e071119","665500ab8938657b03fbdba8","665792eabd7671fa41307595","2141","stimuli/0011110.jpg","1","","prediction_trial","0","","false","","0","false","false","true","true","false","false","[0]","011","110","0","","","","","","",""
"","","","","","image-keyboard-response","167","438910","0.0-142.0","574eab79c18847000e071119","665500ab8938657b03fbdba8","665792eabd7671fa41307595","2222","stimuli/00111100.jpg"," ","","feedback_trial","0","","","","","","","","","","","","","","","","","","","","",""
"","","","","","image-keyboard-response","168","440670","0.0-143.0","574eab79c18847000e071119","665500ab8938657b03fbdba8","665792eabd7671fa41307595","1758","stimuli/1010010.jpg","1","","prediction_trial","1","","true","","1","false","true","false","true","false","true","[1]","010","010","1","","","","","","",""
"","","","","","image-keyboard-response","169","441477","0.0-144.0","574eab79c18847000e071119","665500ab8938657b03fbdba8","665792eabd7671fa41307595","805","stimuli/10100101.jpg"," ","","feedback_trial","1","","","","","","","","","","","","","","","","","","","","",""
"","","","","","image-keyboard-response","170","443549","0.0-145.0","574eab79c18847000e071119","665500ab8938657b03fbdba8","665792eabd7671fa41307595","2071","stimuli/0000111.jpg","2","","prediction_trial","0","","false","","0","false","false","true","true","false","false","[0]","000","111","0","","","","","","",""
"","","","","","image-keyboard-response","171","444358","0.0-146.0","574eab79c18847000e071119","665500ab8938657b03fbdba8","665792eabd7671fa41307595","807","stimuli/00001110.jpg"," ","","feedback_trial","0","","","","","","","","","","","","","","","","","","","","",""
"","","","","","image-keyboard-response","172","445989","0.0-147.0","574eab79c18847000e071119","665500ab8938657b03fbdba8","665792eabd7671fa41307595","1630","stimuli/2011111.jpg","0","","prediction_trial","2","","false","","2","false","false","false","false","false","false","[1,2]","011","111","0","","","","","","",""
"","","","","","image-keyboard-response","173","446790","0.0-148.0","574eab79c18847000e071119","665500ab8938657b03fbdba8","665792eabd7671fa41307595","798","stimuli/20111112.jpg"," ","","feedback_trial","1","","","","","","","","","","","","","","","","","","","","",""
"","","","","","image-keyboard-response","174","449692","0.0-149.0","574eab79c18847000e071119","665500ab8938657b03fbdba8","665792eabd7671fa41307595","2900","stimuli/0100101.jpg","2","","prediction_trial","0","","false","","0","false","false","false","true","false","false","[0]","100","101","0","","","","","","",""
"","","","","","image-keyboard-response","175","450374","0.0-150.0","574eab79c18847000e071119","665500ab8938657b03fbdba8","665792eabd7671fa41307595","681","stimuli/01001010.jpg"," ","","feedback_trial","0","","","","","","","","","","","","","","","","","","","","",""
"","","","","","image-keyboard-response","176","452134","0.0-151.0","574eab79c18847000e071119","665500ab8938657b03fbdba8","665792eabd7671fa41307595","1758","stimuli/1000010.jpg","1","","prediction_trial","1","","true","","1","false","true","true","true","false","true","[1]","000","010","1","","","","","","",""
"","","","","","image-keyboard-response","177","452740","0.0-152.0","574eab79c18847000e071119","665500ab8938657b03fbdba8","665792eabd7671fa41307595","605","stimuli/10000101.jpg"," ","","feedback_trial","1","","","","","","","","","","","","","","","","","","","","",""
"","","","","","image-keyboard-response","178","456412","0.0-153.0","574eab79c18847000e071119","665500ab8938657b03fbdba8","665792eabd7671fa41307595","3671","stimuli/1010100.jpg","1","","prediction_trial","1","","true","","1","true","true","false","true","false","true","[1]","010","100","1","","","","","","",""
"","","","","","image-keyboard-response","179","457022","0.0-154.0","574eab79c18847000e071119","665500ab8938657b03fbdba8","665792eabd7671fa41307595","608","stimuli/10101001.jpg"," ","","feedback_trial","1","","","","","","","","","","","","","","","","","","","","",""
"","","","","","image-keyboard-response","180","458110","0.0-155.0","574eab79c18847000e071119","665500ab8938657b03fbdba8","665792eabd7671fa41307595","1085","stimuli/0011000.jpg","0","","prediction_trial","0","","true","","0","true","true","true","true","true","true","[0]","011","000","1","","","","","","",""
"","","","","","image-keyboard-response","181","458574","0.0-156.0","574eab79c18847000e071119","665500ab8938657b03fbdba8","665792eabd7671fa41307595","461","stimuli/00110000.jpg"," ","","feedback_trial","0","","","","","","","","","","","","","","","","","","","","",""
"","","","","","image-keyboard-response","182","460493","0.0-157.0","574eab79c18847000e071119","665500ab8938657b03fbdba8","665792eabd7671fa41307595","1917","stimuli/1000011.jpg","2","","prediction_trial","1","","false","","1","false","false","true","true","false","false","[1]","000","011","0","","","","","","",""
"","","","","","image-keyboard-response","183","461198","0.0-158.0","574eab79c18847000e071119","665500ab8938657b03fbdba8","665792eabd7671fa41307595","703","stimuli/10000111.jpg"," ","","feedback_trial","1","","","","","","","","","","","","","","","","","","","","",""
"","","","","","image-keyboard-response","184","463374","0.0-159.0","574eab79c18847000e071119","665500ab8938657b03fbdba8","665792eabd7671fa41307595","2173","stimuli/2110111.jpg","1","","prediction_trial","2","","false","","2","false","false","true","true","false","false","[2]","110","111","0","","","","","","",""
"","","","","","image-keyboard-response","185","464782","0.0-160.0","574eab79c18847000e071119","665500ab8938657b03fbdba8","665792eabd7671fa41307595","1405","stimuli/21101112.jpg"," ","","feedback_trial","2","","","","","","","","","","","","","","","","","","","","",""
"","","","","","image-keyboard-response","186","472108","0.0-161.0","574eab79c18847000e071119","665500ab8938657b03fbdba8","665792eabd7671fa41307595","7325","stimuli/2001111.jpg","0","","prediction_trial","2","","false","","2","false","false","false","true","false","false","[2]","001","111","0","","","","","","",""
"","","","","","image-keyboard-response","187","473100","0.0-162.0","574eab79c18847000e071119","665500ab8938657b03fbdba8","665792eabd7671fa41307595","991","stimuli/20011112.jpg"," ","","feedback_trial","2","","","","","","","","","","","","","","","","","","","","",""
"","","","","","image-keyboard-response","188","477636","0.0-163.0","574eab79c18847000e071119","665500ab8938657b03fbdba8","665792eabd7671fa41307595","4535","stimuli/0001110.jpg","1","","prediction_trial","0","","false","","0","false","false","true","true","false","false","[0]","001","110","0","","","","","","",""
"","","","","","image-keyboard-response","189","478270","0.0-164.0","574eab79c18847000e071119","665500ab8938657b03fbdba8","665792eabd7671fa41307595","632","stimuli/00011100.jpg"," ","","feedback_trial","0","","","","","","","","","","","","","","","","","","","","",""
"","","","","","image-keyboard-response","190","480621","0.0-165.0","574eab79c18847000e071119","665500ab8938657b03fbdba8","665792eabd7671fa41307595","2350","stimuli/1010000.jpg","1","","prediction_trial","1","","true","","1","true","true","false","true","false","true","[1]","010","000","1","","","","","","",""
"","","","","","image-keyboard-response","191","481276","0.0-166.0","574eab79c18847000e071119","665500ab8938657b03fbdba8","665792eabd7671fa41307595","652","stimuli/10100001.jpg"," ","","feedback_trial","1","","","","","","","","","","","","","","","","","","","","",""
"","","","","","image-keyboard-response","192","484156","0.0-167.0","574eab79c18847000e071119","665500ab8938657b03fbdba8","665792eabd7671fa41307595","2879","stimuli/0001111.jpg","0","","prediction_trial","0","","true","","0","false","false","true","true","false","false","[0]","001","111","1","","","","","","",""
"","","","","","image-keyboard-response","193","485174","0.0-168.0","574eab79c18847000e071119","665500ab8938657b03fbdba8","665792eabd7671fa41307595","1016","stimuli/00011110.jpg"," ","","feedback_trial","0","","","","","","","","","","","","","","","","","","","","",""
"","","","","","image-keyboard-response","194","487981","0.0-169.0","574eab79c18847000e071119","665500ab8938657b03fbdba8","665792eabd7671fa41307595","2805","stimuli/1010011.jpg","2","","prediction_trial","1","","false","","1","false","false","false","true","false","false","[1]","010","011","0","","","","","","",""
"","","","","","image-keyboard-response","195","488757","0.0-170.0","574eab79c18847000e071119","665500ab8938657b03fbdba8","665792eabd7671fa41307595","774","stimuli/10100111.jpg"," ","","feedback_trial","1","","","","","","","","","","","","","","","","","","","","",""
"","","","","","image-keyboard-response","196","491005","0.0-171.0","574eab79c18847000e071119","665500ab8938657b03fbdba8","665792eabd7671fa41307595","2246","stimuli/0110000.jpg","1","","prediction_trial","1","","true","","0","true","true","false","false","false","false","[0,1]","110","000","1","","","","","","",""
"","","","","","image-keyboard-response","197","491902","0.0-172.0","574eab79c18847000e071119","665500ab8938657b03fbdba8","665792eabd7671fa41307595","893","stimuli/01100001.jpg"," ","","feedback_trial","0","","","","","","","","","","","","","","","","","","","","",""
"","","","","","image-keyboard-response","198","493069","0.0-173.0","574eab79c18847000e071119","665500ab8938657b03fbdba8","665792eabd7671fa41307595","1165","stimuli/1000101.jpg","1","","prediction_trial","1","","true","","1","true","true","true","true","true","true","[1]","000","101","1","","","","","","",""
"","","","","","image-keyboard-response","199","493558","0.0-174.0","574eab79c18847000e071119","665500ab8938657b03fbdba8","665792eabd7671fa41307595","487","stimuli/10001011.jpg"," ","","feedback_trial","1","","","","","","","","","","","","","","","","","","","","",""
"","","","","","image-keyboard-response","200","496373","0.0-175.0","574eab79c18847000e071119","665500ab8938657b03fbdba8","665792eabd7671fa41307595","2813","stimuli/0110011.jpg","0","","prediction_trial","1","","false","","0","true","true","false","false","false","false","[1,0]","110","011","0","","","","","","",""
"","","","","","image-keyboard-response","201","496950","0.0-176.0","574eab79c18847000e071119","665500ab8938657b03fbdba8","665792eabd7671fa41307595","575","stimuli/01100111.jpg"," ","","feedback_trial","1","","","","","","","","","","","","","","","","","","","","",""
"","","","","","image-keyboard-response","202","498709","0.0-177.0","574eab79c18847000e071119","665500ab8938657b03fbdba8","665792eabd7671fa41307595","1758","stimuli/1111011.jpg","2","","prediction_trial","2","","true","","1","false","false","false","false","false","false","[1,2,0]","111","011","1","","","","","","",""
"","","","","","image-keyboard-response","203","499444","0.0-178.0","574eab79c18847000e071119","665500ab8938657b03fbdba8","665792eabd7671fa41307595","732","stimuli/11110112.jpg"," ","","feedback_trial","1","","","","","","","","","","","","","","","","","","","","",""
"","","","","","image-keyboard-response","204","500669","0.0-179.0","574eab79c18847000e071119","665500ab8938657b03fbdba8","665792eabd7671fa41307595","1225","stimuli/2010110.jpg","2","","prediction_trial","2","","true","","2","true","true","true","true","true","true","[2]","010","110","1","","","","","","",""
"","","","","","image-keyboard-response","205","501150","0.0-180.0","574eab79c18847000e071119","665500ab8938657b03fbdba8","665792eabd7671fa41307595","478","stimuli/20101102.jpg"," ","","feedback_trial","2","","","","","","","","","","","","","","","","","","","","",""
"","","","","","image-keyboard-response","206","503165","0.0-181.0","574eab79c18847000e071119","665500ab8938657b03fbdba8","665792eabd7671fa41307595","2014","stimuli/1100110.jpg","1","","prediction_trial","1","","true","","1","false","false","true","true","false","false","[1]","100","110","1","","","","","","",""
"","","","","","image-keyboard-response","207","503846","0.0-182.0","574eab79c18847000e071119","665500ab8938657b03fbdba8","665792eabd7671fa41307595","678","stimuli/11001101.jpg"," ","","feedback_trial","1","","","","","","","","","","","","","","","","","","","","",""
"","","","","","image-keyboard-response","208","504868","0.0-183.0","574eab79c18847000e071119","665500ab8938657b03fbdba8","665792eabd7671fa41307595","1020","stimuli/1001101.jpg","1","","prediction_trial","1","","true","","1","true","true","true","true","true","true","[1]","001","101","1","","","","","","",""
"","","","","","image-keyboard-response","209","505350","0.0-184.0","574eab79c18847000e071119","665500ab8938657b03fbdba8","665792eabd7671fa41307595","479","stimuli/10011011.jpg"," ","","feedback_trial","1","","","","","","","","","","","","","","","","","","","","",""
"","","","","","image-keyboard-response","210","507092","0.0-185.0","574eab79c18847000e071119","665500ab8938657b03fbdba8","665792eabd7671fa41307595","1741","stimuli/0110001.jpg","0","","prediction_trial","0","","true","","0","true","true","false","false","false","false","[1,0]","110","001","1","","","","","","",""
"","","","","","image-keyboard-response","211","507862","0.0-186.0","574eab79c18847000e071119","665500ab8938657b03fbdba8","665792eabd7671fa41307595","768","stimuli/01100010.jpg"," ","","feedback_trial","1","","","","","","","","","","","","","","","","","","","","",""
"","","","","","image-keyboard-response","212","510013","0.0-187.0","574eab79c18847000e071119","665500ab8938657b03fbdba8","665792eabd7671fa41307595","2149","stimuli/0101000.jpg","2","","prediction_trial","0","","false","","0","true","true","false","false","false","false","[2,0]","101","000","0","","","","","","",""
"","","","","","image-keyboard-response","213","510742","0.0-188.0","574eab79c18847000e071119","665500ab8938657b03fbdba8","665792eabd7671fa41307595","726","stimuli/01010000.jpg"," ","","feedback_trial","2","","","","","","","","","","","","","","","","","","","","",""
"","","","","","image-keyboard-response","214","511869","0.0-189.0","574eab79c18847000e071119","665500ab8938657b03fbdba8","665792eabd7671fa41307595","1126","stimuli/0000001.jpg","0","","prediction_trial","0","","true","","0","true","true","true","true","true","true","[0]","000","001","1","","","","","","",""
"","","","","","image-keyboard-response","215","512342","0.0-190.0","574eab79c18847000e071119","665500ab8938657b03fbdba8","665792eabd7671fa41307595","469","stimuli/00000010.jpg"," ","","feedback_trial","0","","","","","","","","","","","","","","","","","","","","",""
"","","","","","image-keyboard-response","216","513244","0.0-191.0","574eab79c18847000e071119","665500ab8938657b03fbdba8","665792eabd7671fa41307595","901","stimuli/1101101.jpg","1","","prediction_trial","1","","true","","1","true","true","true","true","true","true","[1]","101","101","1","","","","","","",""
"","","","","","image-keyboard-response","217","513702","0.0-192.0","574eab79c18847000e071119","665500ab8938657b03fbdba8","665792eabd7671fa41307595","456","stimuli/11011011.jpg"," ","","feedback_trial","1","","","","","","","","","","","","","","","","","","","","",""
"","","","","","image-keyboard-response","218","515806","0.0-193.0","574eab79c18847000e071119","665500ab8938657b03fbdba8","665792eabd7671fa41307595","2101","stimuli/1011100.jpg","1","","prediction_trial","1","","true","","1","true","true","false","false","false","false","[1,2]","011","100","1","","","","","","",""
"","","","","","image-keyboard-response","219","516484","0.0-194.0","574eab79c18847000e071119","665500ab8938657b03fbdba8","665792eabd7671fa41307595","676","stimuli/10111001.jpg"," ","","feedback_trial","1","","","","","","","","","","","","","","","","","","","","",""
"","","","","","image-keyboard-response","220","517836","0.0-195.0","574eab79c18847000e071119","665500ab8938657b03fbdba8","665792eabd7671fa41307595","1351","stimuli/2001000.jpg","2","","prediction_trial","2","","true","","2","true","true","false","true","false","true","[2]","001","000","1","","","","","","",""
"","","","","","image-keyboard-response","221","518366","0.0-196.0","574eab79c18847000e071119","665500ab8938657b03fbdba8","665792eabd7671fa41307595","528","stimuli/20010002.jpg"," ","","feedback_trial","2","","","","","","","","","","","","","","","","","","","","",""
"","","","","","image-keyboard-response","222","519444","0.0-197.0","574eab79c18847000e071119","665500ab8938657b03fbdba8","665792eabd7671fa41307595","1076","stimuli/1100000.jpg","1","","prediction_trial","1","","true","","1","true","true","true","true","true","true","[1]","100","000","1","","","","","","",""
"","","","","","image-keyboard-response","223","519916","0.0-198.0","574eab79c18847000e071119","665500ab8938657b03fbdba8","665792eabd7671fa41307595","471","stimuli/11000001.jpg"," ","","feedback_trial","1","","","","","","","","","","","","","","","","","","","","",""
"","","","","","image-keyboard-response","224","522973","0.0-199.0","574eab79c18847000e071119","665500ab8938657b03fbdba8","665792eabd7671fa41307595","3056","stimuli/1010001.jpg","1","","prediction_trial","1","","true","","1","true","true","false","true","false","true","[1]","010","001","1","","","","","","",""
"","","","","","image-keyboard-response","225","523510","0.0-200.0","574eab79c18847000e071119","665500ab8938657b03fbdba8","665792eabd7671fa41307595","535","stimuli/10100011.jpg"," ","","feedback_trial","1","","","","","","","","","","","","","","","","","","","","",""
"","","","","","image-keyboard-response","226","525438","0.0-201.0","574eab79c18847000e071119","665500ab8938657b03fbdba8","665792eabd7671fa41307595","1926","stimuli/1111101.jpg","2","","prediction_trial","1","","false","","1","true","true","false","false","false","false","[1,0,2]","111","101","0","","","","","","",""
"","","","","","image-keyboard-response","227","526142","0.0-202.0","574eab79c18847000e071119","665500ab8938657b03fbdba8","665792eabd7671fa41307595","701","stimuli/11111011.jpg"," ","","feedback_trial","1","","","","","","","","","","","","","","","","","","","","",""
"","","","","","image-keyboard-response","228","528228","0.0-203.0","574eab79c18847000e071119","665500ab8938657b03fbdba8","665792eabd7671fa41307595","2085","stimuli/0111000.jpg","0","","prediction_trial","1","","false","","0","true","true","false","false","false","false","[2,0,1]","111","000","0","","","","","","",""
"","","","","","image-keyboard-response","229","528701","0.0-204.0","574eab79c18847000e071119","665500ab8938657b03fbdba8","665792eabd7671fa41307595","472","stimuli/01110001.jpg"," ","","feedback_trial","2","","","","","","","","","","","","","","","","","","","","",""
"","","","","","image-keyboard-response","230","530628","0.0-205.0","574eab79c18847000e071119","665500ab8938657b03fbdba8","665792eabd7671fa41307595","1925","stimuli/2000101.jpg","0","","prediction_trial","2","","false","","2","false","false","true","true","false","false","[2]","000","101","0","","","","","","",""
"","","","","","image-keyboard-response","231","531334","0.0-206.0","574eab79c18847000e071119","665500ab8938657b03fbdba8","665792eabd7671fa41307595","705","stimuli/20001012.jpg"," ","","feedback_trial","2","","","","","","","","","","","","","","","","","","","","",""
"","","","","","image-keyboard-response","232","535781","0.0-207.0","574eab79c18847000e071119","665500ab8938657b03fbdba8","665792eabd7671fa41307595","4445","stimuli/1110100.jpg","1","","prediction_trial","1","","true","","1","true","true","false","false","false","false","[0,1]","110","100","1","","","","","","",""
"","","","","","image-keyboard-response","233","536540","0.0-208.0","574eab79c18847000e071119","665500ab8938657b03fbdba8","665792eabd7671fa41307595","756","stimuli/11101001.jpg"," ","","feedback_trial","0","","","","","","","","","","","","","","","","","","","","",""
"","","","","","image-keyboard-response","234","542686","0.0-209.0","574eab79c18847000e071119","665500ab8938657b03fbdba8","665792eabd7671fa41307595","6145","stimuli/0011101.jpg","1","","prediction_trial","0","","false","","0","false","false","true","true","false","false","[0]","011","101","0","","","","","","",""
"","","","","","image-keyboard-response","235","543388","0.0-210.0","574eab79c18847000e071119","665500ab8938657b03fbdba8","665792eabd7671fa41307595","699","stimuli/00111010.jpg"," ","","feedback_trial","0","","","","","","","","","","","","","","","","","","","","",""
"","","","","","image-keyboard-response","236","545485","0.0-211.0","574eab79c18847000e071119","665500ab8938657b03fbdba8","665792eabd7671fa41307595","2096","stimuli/1011101.jpg","1","","prediction_trial","1","","true","","1","true","true","false","false","false","false","[2,1]","011","101","1","","","","","","",""
"","","","","","image-keyboard-response","237","546053","0.0-212.0","574eab79c18847000e071119","665500ab8938657b03fbdba8","665792eabd7671fa41307595","566","stimuli/10111011.jpg"," ","","feedback_trial","2","","","","","","","","","","","","","","","","","","","","",""
"","","","","","image-keyboard-response","238","547021","0.0-213.0","574eab79c18847000e071119","665500ab8938657b03fbdba8","665792eabd7671fa41307595","966","stimuli/0001011.jpg","0","","prediction_trial","0","","true","","0","true","true","true","true","true","true","[0]","001","011","1","","","","","","",""
"","","","","","image-keyboard-response","239","547460","0.0-214.0","574eab79c18847000e071119","665500ab8938657b03fbdba8","665792eabd7671fa41307595","437","stimuli/00010110.jpg"," ","","feedback_trial","0","","","","","","","","","","","","","","","","","","","","",""
"","","","","","image-keyboard-response","240","548764","0.0-215.0","574eab79c18847000e071119","665500ab8938657b03fbdba8","665792eabd7671fa41307595","1302","stimuli/1110101.jpg","2","","prediction_trial","0","","false","","1","true","true","false","false","false","false","[0,1]","110","101","0","","","","","","",""
"","","","","","image-keyboard-response","241","550340","0.0-216.0","574eab79c18847000e071119","665500ab8938657b03fbdba8","665792eabd7671fa41307595","1575","stimuli/11101010.jpg"," ","","feedback_trial","0","","","","","","","","","","","","","","","","","","","","",""
"","","","","","image-keyboard-response","242","554087","0.0-217.0","574eab79c18847000e071119","665500ab8938657b03fbdba8","665792eabd7671fa41307595","3746","stimuli/2111011.jpg","2","","prediction_trial","2","","true","","2","false","false","false","false","false","false","[1,0,2]","111","011","1","","","","","","",""
"","","","","","image-keyboard-response","243","554798","0.0-218.0","574eab79c18847000e071119","665500ab8938657b03fbdba8","665792eabd7671fa41307595","709","stimuli/21110112.jpg"," ","","feedback_trial","1","","","","","","","","","","","","","","","","","","","","",""
"","","","","","image-keyboard-response","244","556708","0.0-219.0","574eab79c18847000e071119","665500ab8938657b03fbdba8","665792eabd7671fa41307595","1908","stimuli/0111001.jpg","0","","prediction_trial","1","","false","","0","true","true","false","false","false","false","[1,2,0]","111","001","0","","","","","","",""
"","","","","","image-keyboard-response","245","557420","0.0-220.0","574eab79c18847000e071119","665500ab8938657b03fbdba8","665792eabd7671fa41307595","711","stimuli/01110011.jpg"," ","","feedback_trial","1","","","","","","","","","","","","","","","","","","","","",""
"","","","","","image-keyboard-response","246","559236","0.0-221.0","574eab79c18847000e071119","665500ab8938657b03fbdba8","665792eabd7671fa41307595","1815","stimuli/0111101.jpg","2","","prediction_trial","1","","false","","0","false","false","false","false","false","false","[2,0,1]","111","101","0","","","","","","",""
"","","","","","image-keyboard-response","247","560284","0.0-222.0","574eab79c18847000e071119","665500ab8938657b03fbdba8","665792eabd7671fa41307595","1047","stimuli/01111011.jpg"," ","","feedback_trial","2","","","","","","","","","","","","","","","","","","","","",""
"","","","","","image-keyboard-response","248","561484","0.0-223.0","574eab79c18847000e071119","665500ab8938657b03fbdba8","665792eabd7671fa41307595","1199","stimuli/2110010.jpg","2","","prediction_trial","2","","true","","2","true","true","true","true","true","true","[2]","110","010","1","","","","","","",""
"","","","","","image-keyboard-response","249","562060","0.0-224.0","574eab79c18847000e071119","665500ab8938657b03fbdba8","665792eabd7671fa41307595","575","stimuli/21100102.jpg"," ","","feedback_trial","2","","","","","","","","","","","","","","","","","","","","",""
"","","","","","image-keyboard-response","250","563364","0.0-225.0","574eab79c18847000e071119","665500ab8938657b03fbdba8","665792eabd7671fa41307595","1303","stimuli/0001001.jpg","0","","prediction_trial","0","","true","","0","true","true","true","true","true","true","[0]","001","001","1","","","","","","",""
"","","","","","image-keyboard-response","251","563852","0.0-226.0","574eab79c18847000e071119","665500ab8938657b03fbdba8","665792eabd7671fa41307595","487","stimuli/00010010.jpg"," ","","feedback_trial","0","","","","","","","","","","","","","","","","","","","","",""
"","","","","","image-keyboard-response","252","566438","0.0-227.0","574eab79c18847000e071119","665500ab8938657b03fbdba8","665792eabd7671fa41307595","2585","stimuli/2100011.jpg","1","","prediction_trial","2","","false","","2","false","false","true","true","false","false","[2]","100","011","0","","","","","","",""
"","","","","","image-keyboard-response","253","567766","0.0-228.0","574eab79c18847000e071119","665500ab8938657b03fbdba8","665792eabd7671fa41307595","1325","stimuli/21000112.jpg"," ","","feedback_trial","2","","","","","","","","","","","","","","","","","","","","",""
"","","","","","image-keyboard-response","254","568701","0.0-229.0","574eab79c18847000e071119","665500ab8938657b03fbdba8","665792eabd7671fa41307595","934","stimuli/0011010.jpg","0","","prediction_trial","0","","true","","0","true","true","true","true","true","true","[0]","011","010","1","","","","","","",""
"","","","","","image-keyboard-response","255","569133","0.0-230.0","574eab79c18847000e071119","665500ab8938657b03fbdba8","665792eabd7671fa41307595","429","stimuli/00110100.jpg"," ","","feedback_trial","0","","","","","","","","","","","","","","","","","","","","",""
"","","","","","image-keyboard-response","256","570613","0.0-231.0","574eab79c18847000e071119","665500ab8938657b03fbdba8","665792eabd7671fa41307595","1479","stimuli/1000110.jpg","1","","prediction_trial","1","","true","","1","false","false","true","true","false","false","[1]","000","110","1","","","","","","",""
"","","","","","image-keyboard-response","257","571350","0.0-232.0","574eab79c18847000e071119","665500ab8938657b03fbdba8","665792eabd7671fa41307595","734","stimuli/10001101.jpg"," ","","feedback_trial","1","","","","","","","","","","","","","","","","","","","","",""
"","","","","","image-keyboard-response","258","573604","0.0-233.0","574eab79c18847000e071119","665500ab8938657b03fbdba8","665792eabd7671fa41307595","2252","stimuli/0110111.jpg","1","","prediction_trial","1","","true","","0","false","false","false","false","false","false","[0,1]","110","111","1","","","","","","",""
"","","","","","image-keyboard-response","259","574342","0.0-234.0","574eab79c18847000e071119","665500ab8938657b03fbdba8","665792eabd7671fa41307595","737","stimuli/01101111.jpg"," ","","feedback_trial","0","","","","","","","","","","","","","","","","","","","","",""
"","","","","","image-keyboard-response","260","576742","0.0-235.0","574eab79c18847000e071119","665500ab8938657b03fbdba8","665792eabd7671fa41307595","2398","stimuli/1110011.jpg","2","","prediction_trial","0","","false","","1","false","false","false","false","false","false","[1,0]","110","011","0","","","","","","",""
"","","","","","image-keyboard-response","261","577421","0.0-236.0","574eab79c18847000e071119","665500ab8938657b03fbdba8","665792eabd7671fa41307595","676","stimuli/11100110.jpg"," ","","feedback_trial","1","","","","","","","","","","","","","","","","","","","","",""
"","","","","","image-keyboard-response","262","581132","0.0-237.0","574eab79c18847000e071119","665500ab8938657b03fbdba8","665792eabd7671fa41307595","3710","stimuli/2011001.jpg","1","","prediction_trial","1","","true","","2","false","true","false","false","false","false","[1,2]","011","001","1","","","","","","",""
"","","","","","image-keyboard-response","263","581582","0.0-238.0","574eab79c18847000e071119","665500ab8938657b03fbdba8","665792eabd7671fa41307595","448","stimuli/20110011.jpg"," ","","feedback_trial","1","","","","","","","","","","","","","","","","","","","","",""
"","","","","","image-keyboard-response","264","584181","0.0-239.0","574eab79c18847000e071119","665500ab8938657b03fbdba8","665792eabd7671fa41307595","2597","stimuli/0000101.jpg","0","","prediction_trial","0","","true","","0","false","false","true","true","false","false","[0]","000","101","1","","","","","","",""
"","","","","","image-keyboard-response","265","584613","0.0-240.0","574eab79c18847000e071119","665500ab8938657b03fbdba8","665792eabd7671fa41307595","429","stimuli/00001010.jpg"," ","","feedback_trial","0","","","","","","","","","","","","","","","","","","","","",""
"","","","","","image-keyboard-response","266","586708","0.0-241.0","574eab79c18847000e071119","665500ab8938657b03fbdba8","665792eabd7671fa41307595","2094","stimuli/0111100.jpg","2","","prediction_trial","2","","true","","0","false","true","false","false","false","false","[1,0,2]","111","100","1","","","","","","",""
"","","","","","image-keyboard-response","267","587605","0.0-242.0","574eab79c18847000e071119","665500ab8938657b03fbdba8","665792eabd7671fa41307595","896","stimuli/01111002.jpg"," ","","feedback_trial","1","","","","","","","","","","","","","","","","","","","","",""
"","","","","","image-keyboard-response","268","591348","0.0-243.0","574eab79c18847000e071119","665500ab8938657b03fbdba8","665792eabd7671fa41307595","3742","stimuli/2010111.jpg","2","","prediction_trial","2","","true","","2","false","false","true","true","false","false","[2]","010","111","1","","","","","","",""
"","","","","","image-keyboard-response","269","592334","0.0-244.0","574eab79c18847000e071119","665500ab8938657b03fbdba8","665792eabd7671fa41307595","984","stimuli/20101112.jpg"," ","","feedback_trial","2","","","","","","","","","","","","","","","","","","","","",""
"","","","","","image-keyboard-response","270","595614","0.0-245.0","574eab79c18847000e071119","665500ab8938657b03fbdba8","665792eabd7671fa41307595","3277","stimuli/1101010.jpg","0","","prediction_trial","1","","false","","1","false","true","true","true","false","true","[1]","101","010","0","","","","","","",""
"","","","","","image-keyboard-response","271","596228","0.0-246.0","574eab79c18847000e071119","665500ab8938657b03fbdba8","665792eabd7671fa41307595","613","stimuli/11010101.jpg"," ","","feedback_trial","1","","","","","","","","","","","","","","","","","","","","",""
"","","","","","image-keyboard-response","272","599260","0.0-247.0","574eab79c18847000e071119","665500ab8938657b03fbdba8","665792eabd7671fa41307595","3031","stimuli/0111111.jpg","1","","prediction_trial","1","","true","","0","false","false","false","false","false","false","[0,1,2]","111","111","1","","","","","","",""
"","","","","","image-keyboard-response","273","599886","0.0-248.0","574eab79c18847000e071119","665500ab8938657b03fbdba8","665792eabd7671fa41307595","624","stimuli/01111111.jpg"," ","","feedback_trial","0","","","","","","","","","","","","","","","","","","","","",""
"","","","","","image-keyboard-response","274","601012","0.0-249.0","574eab79c18847000e071119","665500ab8938657b03fbdba8","665792eabd7671fa41307595","1124","stimuli/2000010.jpg","2","","prediction_trial","2","","true","","2","true","true","true","true","true","true","[2]","000","010","1","","","","","","",""
"","","","","","image-keyboard-response","275","601557","0.0-250.0","574eab79c18847000e071119","665500ab8938657b03fbdba8","665792eabd7671fa41307595","544","stimuli/20000102.jpg"," ","","feedback_trial","2","","","","","","","","","","","","","","","","","","","","",""
"","","","","","image-keyboard-response","276","605021","0.0-251.0","574eab79c18847000e071119","665500ab8938657b03fbdba8","665792eabd7671fa41307595","3462","stimuli/0100010.jpg","0","","prediction_trial","0","","true","","0","true","true","false","true","false","true","[0]","100","010","1","","","","","","",""
"","","","","","image-keyboard-response","277","605437","0.0-252.0","574eab79c18847000e071119","665500ab8938657b03fbdba8","665792eabd7671fa41307595","413","stimuli/01000100.jpg"," ","","feedback_trial","0","","","","","","","","","","","","","","","","","","","","",""
"","","","","","image-keyboard-response","278","608293","0.0-253.0","574eab79c18847000e071119","665500ab8938657b03fbdba8","665792eabd7671fa41307595","2854","stimuli/2001101.jpg","0","","prediction_trial","2","","false","","2","false","false","false","true","false","false","[2]","001","101","0","","","","","","",""
"","","","","","image-keyboard-response","279","608829","0.0-254.0","574eab79c18847000e071119","665500ab8938657b03fbdba8","665792eabd7671fa41307595","533","stimuli/20011012.jpg"," ","","feedback_trial","2","","","","","","","","","","","","","","","","","","","","",""
"","","","","","image-keyboard-response","280","610302","0.0-255.0","574eab79c18847000e071119","665500ab8938657b03fbdba8","665792eabd7671fa41307595","1472","stimuli/2111110.jpg","2","","prediction_trial","1","","false","","2","true","true","false","false","false","false","[1,2,0]","111","110","0","","","","","","",""
"","","","","","image-keyboard-response","281","610860","0.0-256.0","574eab79c18847000e071119","665500ab8938657b03fbdba8","665792eabd7671fa41307595","556","stimuli/21111101.jpg"," ","","feedback_trial","1","","","","","","","","","","","","","","","","","","","","",""
"","","","","","image-keyboard-response","282","613357","0.0-257.0","574eab79c18847000e071119","665500ab8938657b03fbdba8","665792eabd7671fa41307595","2496","stimuli/0100001.jpg","0","","prediction_trial","0","","true","","0","true","true","false","true","false","true","[0]","100","001","1","","","","","","",""
"","","","","","image-keyboard-response","283","613758","0.0-258.0","574eab79c18847000e071119","665500ab8938657b03fbdba8","665792eabd7671fa41307595","398","stimuli/01000010.jpg"," ","","feedback_trial","0","","","","","","","","","","","","","","","","","","","","",""
"","","","","","image-keyboard-response","284","615381","0.0-259.0","574eab79c18847000e071119","665500ab8938657b03fbdba8","665792eabd7671fa41307595","1622","stimuli/0111110.jpg","0","","prediction_trial","2","","false","","0","false","false","false","false","false","false","[2,0,1]","111","110","0","","","","","","",""
"","","","","","image-keyboard-response","285","615941","0.0-260.0","574eab79c18847000e071119","665500ab8938657b03fbdba8","665792eabd7671fa41307595","558","stimuli/01111102.jpg"," ","","feedback_trial","2","","","","","","","","","","","","","","","","","","","","",""
"","","","","","image-keyboard-response","286","618822","0.0-261.0","574eab79c18847000e071119","665500ab8938657b03fbdba8","665792eabd7671fa41307595","2878","stimuli/0001101.jpg","0","","prediction_trial","0","","true","","0","false","false","true","true","false","false","[0]","001","101","1","","","","","","",""
"","","","","","image-keyboard-response","287","619182","0.0-262.0","574eab79c18847000e071119","665500ab8938657b03fbdba8","665792eabd7671fa41307595","357","stimuli/00011010.jpg"," ","","feedback_trial","0","","","","","","","","","","","","","","","","","","","","",""
"","","","","","image-keyboard-response","288","622116","0.0-263.0","574eab79c18847000e071119","665500ab8938657b03fbdba8","665792eabd7671fa41307595","2932","stimuli/1101011.jpg","1","","prediction_trial","1","","true","","1","false","false","true","true","false","false","[1]","101","011","1","","","","","","",""
"","","","","","image-keyboard-response","289","622589","0.0-264.0","574eab79c18847000e071119","665500ab8938657b03fbdba8","665792eabd7671fa41307595","471","stimuli/11010111.jpg"," ","","feedback_trial","1","","","","","","","","","","","","","","","","","","","","",""
"","","","","","image-keyboard-response","290","624356","0.0-265.0","574eab79c18847000e071119","665500ab8938657b03fbdba8","665792eabd7671fa41307595","1765","stimuli/1001010.jpg","1","","prediction_trial","1","","true","","1","false","true","true","true","false","true","[1]","001","010","1","","","","","","",""
"","","","","","image-keyboard-response","291","624804","0.0-266.0","574eab79c18847000e071119","665500ab8938657b03fbdba8","665792eabd7671fa41307595","447","stimuli/10010101.jpg"," ","","feedback_trial","1","","","","","","","","","","","","","","","","","","","","",""
"","","","","","image-keyboard-response","292","626774","0.0-267.0","574eab79c18847000e071119","665500ab8938657b03fbdba8","665792eabd7671fa41307595","1968","stimuli/1011001.jpg","1","","prediction_trial","2","","false","","1","true","true","false","false","false","false","[1,2]","011","001","0","","","","","","",""
"","","","","","image-keyboard-response","293","627268","0.0-268.0","574eab79c18847000e071119","665500ab8938657b03fbdba8","665792eabd7671fa41307595","491","stimuli/10110012.jpg"," ","","feedback_trial","1","","","","","","","","","","","","","","","","","","","","",""
"","","","","","image-keyboard-response","294","630741","0.0-269.0","574eab79c18847000e071119","665500ab8938657b03fbdba8","665792eabd7671fa41307595","3472","stimuli/1011010.jpg","2","","prediction_trial","2","","true","","1","false","true","false","false","false","false","[1,2]","011","010","1","","","","","","",""
"","","","","","image-keyboard-response","295","631380","0.0-270.0","574eab79c18847000e071119","665500ab8938657b03fbdba8","665792eabd7671fa41307595","637","stimuli/10110102.jpg"," ","","feedback_trial","1","","","","","","","","","","","","","","","","","","","","",""
"","","","","","image-keyboard-response","296","632582","0.0-271.0","574eab79c18847000e071119","665500ab8938657b03fbdba8","665792eabd7671fa41307595","1201","stimuli/0000010.jpg","0","","prediction_trial","0","","true","","0","true","true","true","true","true","true","[0]","000","010","1","","","","","","",""
"","","","","","image-keyboard-response","297","633012","0.0-272.0","574eab79c18847000e071119","665500ab8938657b03fbdba8","665792eabd7671fa41307595","428","stimuli/00000100.jpg"," ","","feedback_trial","0","","","","","","","","","","","","","","","","","","","","",""
"","","","","","image-keyboard-response","298","634100","0.0-273.0","574eab79c18847000e071119","665500ab8938657b03fbdba8","665792eabd7671fa41307595","1088","stimuli/1000001.jpg","1","","prediction_trial","1","","true","","1","true","true","true","true","true","true","[1]","000","001","1","","","","","","",""
"","","","","","image-keyboard-response","299","634500","0.0-274.0","574eab79c18847000e071119","665500ab8938657b03fbdba8","665792eabd7671fa41307595","398","stimuli/10000011.jpg"," ","","feedback_trial","1","","","","","","","","","","","","","","","","","","","","",""
"","","","","","image-keyboard-response","300","638612","0.0-275.0","574eab79c18847000e071119","665500ab8938657b03fbdba8","665792eabd7671fa41307595","4111","stimuli/1011000.jpg","1","","prediction_trial","2","","false","","1","true","true","false","false","false","false","[1,2]","011","000","0","","","","","","",""
"","","","","","image-keyboard-response","301","639148","0.0-276.0","574eab79c18847000e071119","665500ab8938657b03fbdba8","665792eabd7671fa41307595","534","stimuli/10110002.jpg"," ","","feedback_trial","1","","","","","","","","","","","","","","","","","","","","",""
"","","","","","image-keyboard-response","302","640309","0.0-277.0","574eab79c18847000e071119","665500ab8938657b03fbdba8","665792eabd7671fa41307595","1159","stimuli/2100100.jpg","2","","prediction_trial","2","","true","","2","true","true","true","true","true","true","[2]","100","100","1","","","","","","",""
"","","","","","image-keyboard-response","303","640708","0.0-278.0","574eab79c18847000e071119","665500ab8938657b03fbdba8","665792eabd7671fa41307595","397","stimuli/21001002.jpg"," ","","feedback_trial","2","","","","","","","","","","","","","","","","","","","","",""
"","","","","","image-keyboard-response","304","644254","0.0-279.0","574eab79c18847000e071119","665500ab8938657b03fbdba8","665792eabd7671fa41307595","3545","stimuli/0001100.jpg","0","","prediction_trial","0","","true","","0","false","true","true","true","false","true","[0]","001","100","1","","","","","","",""
"","","","","","image-keyboard-response","305","644660","0.0-280.0","574eab79c18847000e071119","665500ab8938657b03fbdba8","665792eabd7671fa41307595","403","stimuli/00011000.jpg"," ","","feedback_trial","0","","","","","","","","","","","","","","","","","","","","",""
"","","","","","image-keyboard-response","306","647212","0.0-281.0","574eab79c18847000e071119","665500ab8938657b03fbdba8","665792eabd7671fa41307595","2551","stimuli/0000110.jpg","1","","prediction_trial","0","","false","","0","false","false","true","true","false","false","[0]","000","110","0","","","","","","",""
"","","","","","image-keyboard-response","307","648157","0.0-282.0","574eab79c18847000e071119","665500ab8938657b03fbdba8","665792eabd7671fa41307595","944","stimuli/00001100.jpg"," ","","feedback_trial","0","","","","","","","","","","","","","","","","","","","","",""
"","","","","","image-keyboard-response","308","650868","0.0-283.0","574eab79c18847000e071119","665500ab8938657b03fbdba8","665792eabd7671fa41307595","2708","stimuli/1111001.jpg","1","","prediction_trial","2","","false","","1","true","true","false","false","false","false","[1,0,2]","111","001","0","","","","","","",""
"","","","","","image-keyboard-response","309","651277","0.0-284.0","574eab79c18847000e071119","665500ab8938657b03fbdba8","665792eabd7671fa41307595","408","stimuli/11110012.jpg"," ","","feedback_trial","1","","","","","","","","","","","","","","","","","","","","",""
"","","","","","image-keyboard-response","310","653637","0.0-285.0","574eab79c18847000e071119","665500ab8938657b03fbdba8","665792eabd7671fa41307595","2358","stimuli/2101100.jpg","0","","prediction_trial","2","","false","","2","true","true","false","false","false","false","[0,2]","101","100","0","","","","","","",""
"","","","","","image-keyboard-response","311","654181","0.0-286.0","574eab79c18847000e071119","665500ab8938657b03fbdba8","665792eabd7671fa41307595","542","stimuli/21011002.jpg"," ","","feedback_trial","0","","","","","","","","","","","","","","","","","","","","",""
"","","","","","image-keyboard-response","312","657492","0.0-287.0","574eab79c18847000e071119","665500ab8938657b03fbdba8","665792eabd7671fa41307595","3309","stimuli/1101111.jpg","1","","prediction_trial","1","","true","","1","false","false","true","true","false","false","[1]","101","111","1","","","","","","",""
"","","","","","image-keyboard-response","313","657885","0.0-288.0","574eab79c18847000e071119","665500ab8938657b03fbdba8","665792eabd7671fa41307595","392","stimuli/11011111.jpg"," ","","feedback_trial","1","","","","","","","","","","","","","","","","","","","","",""
"","","","","","image-keyboard-response","314","661629","0.0-289.0","574eab79c18847000e071119","665500ab8938657b03fbdba8","665792eabd7671fa41307595","3741","stimuli/2111101.jpg","1","","prediction_trial","2","","false","","2","false","false","false","false","false","false","[0,1,2]","111","101","0","","","","","","",""
"","","","","","image-keyboard-response","315","662100","0.0-290.0","574eab79c18847000e071119","665500ab8938657b03fbdba8","665792eabd7671fa41307595","469","stimuli/21111012.jpg"," ","","feedback_trial","0","","","","","","","","","","","","","","","","","","","","",""
"","","","","","image-keyboard-response","316","663107","0.0-291.0","574eab79c18847000e071119","665500ab8938657b03fbdba8","665792eabd7671fa41307595","1006","stimuli/2100000.jpg","2","","prediction_trial","2","","true","","2","true","true","true","true","true","true","[2]","100","000","1","","","","","","",""
"","","","","","image-keyboard-response","317","663549","0.0-292.0","574eab79c18847000e071119","665500ab8938657b03fbdba8","665792eabd7671fa41307595","440","stimuli/21000002.jpg"," ","","feedback_trial","2","","","","","","","","","","","","","","","","","","","","",""
"","","","","","survey-html-form","318","781149","0.0-293.0","574eab79c18847000e071119","665500ab8938657b03fbdba8","665792eabd7671fa41307595","117595","","{""feedback"":""I tried to respons based on the prior repones he chose. The hardest ones were where neither he or I could see the ball."",""age"":""43"",""gender"":""Female"",""other_gender"":"""",""race"":""Black/African American"",""other_race"":"""",""ethnicity"":""Non-Hispanic""}","","exit_survey","","","","","","","","","","","","","","","","I tried to respons based on the prior repones he chose. The hardest ones were where neither he or I could see the ball.","43","Non-Hispanic","Female","Black/African American","0.6180555555555556","0.6180555555555556"
