"success","timeout","failed_images","failed_audio","failed_video","trial_type","trial_index","time_elapsed","internal_node_id","prolific_id","prolific_study_id","prolific_session_id","rt","stimulus","response","view_history","trial","character_choice","stimulus_dict","accuracy","correct_response","ball_pos","ego_ball_visible","ego_can_infer","alter_ball_visible","alter_can_infer","collective_ball_visible","collective_can_infer","search_locations","alter_occluders","ego_occluders","accuracy_bool","feedback","age","ethnicity","gender","race","overall_accuracy","bonus"
"true","false","[]","[]","[]","preload","0","6633","0.0-0.0","559e82dffdf99b7a9a124180","665500ab8938657b03fbdba8","6657926b8e2b4a710cb8a349","","","","","","","","","","","","","","","","","","","","","","","","","","",""
"true","","","","","fullscreen","1","15031","0.0-1.0","559e82dffdf99b7a9a124180","665500ab8938657b03fbdba8","6657926b8e2b4a710cb8a349","","","","","","","","","","","","","","","","","","","","","","","","","","",""
"","","","","","html-button-response","2","77477","0.0-2.0","559e82dffdf99b7a9a124180","665500ab8938657b03fbdba8","6657926b8e2b4a710cb8a349","62444","<p><b>Consent Form</b></p> <div style=""text-align:left;background-color:lightgrey; padding:20px; max-width:900px;""><p>Please consider this information carefully before deciding whether to participate in this research.</p> <p>The purpose of this research is to examine which factors influence social judgment and decision-making. You will be asked to make judgements about individuals and actions in social scenarios. We are simply interested in your judgement. The study will take less than 1 hour to complete, and you will receive less than $20 on Prolific. Your compensation and time commitment are specified in the study description. There are no anticipated risks associated with participating in this study. The effects of participating should be comparable to those you would ordinarily experience from viewing a computer monitor and using a mouse or keyboard for a similar amount of time. At the end of the study, we will provide an explanation of the questions that motivate this line of research and will describe the potential implications. </p><p> Your participation in this study is completely voluntary and you may refuse to participate or you may choose to withdraw at any time without penalty or loss of benefits to you which are otherwise entitled. Your participation in this study will remain confidential. No personally identifiable information will be associated with your data. Also, all analyses of the data will be averaged across all the participants, so your individual responses will never be specifically analyzed. </p><p> If you have questions or concerns about your participation or payment, or want to request a summary of research findings, please contact Dr. Jonathan Phillips at Jonathan.S.Phillips@dartmouth.edu. </p><p> Please save a copy of this form for your records. </p><p><b>Agreement: </b>The nature and purpose of this research have been sufficiently explained and I agree to participate in this study. I understand that I am free to withdraw at any time without incurring any penalty. Please consent by clicking the button below to continue. Otherwise, please exit the study at any time. </p>","0","","","","","","","","","","","","","","","","","","","","","","","",""
"","","","","","instructions","3","300029","0.0-3.0-0.0","559e82dffdf99b7a9a124180","665500ab8938657b03fbdba8","6657926b8e2b4a710cb8a349","222551","","","[{""page_index"":0,""viewing_time"":1879},{""page_index"":1,""viewing_time"":2990},{""page_index"":2,""viewing_time"":34204},{""page_index"":3,""viewing_time"":9262},{""page_index"":4,""viewing_time"":14178},{""page_index"":5,""viewing_time"":3356},{""page_index"":6,""viewing_time"":6574},{""page_index"":7,""viewing_time"":4319},{""page_index"":8,""viewing_time"":5798},{""page_index"":9,""viewing_time"":30932},{""page_index"":10,""viewing_time"":95747},{""page_index"":11,""viewing_time"":7807},{""page_index"":12,""viewing_time"":4446},{""page_index"":13,""viewing_time"":1060}]","intro","","","","","","","","","","","","","","","","","","","","","",""
"","","","","","image-keyboard-response","4","301464","0.0-3.0-1.0","559e82dffdf99b7a9a124180","665500ab8938657b03fbdba8","6657926b8e2b4a710cb8a349","1429","stimuli/2100100.jpg","2","","prediction_practice","2","{""filepath"":""stimuli/2100100.jpg"",""ball_pos"":2,""ego_ball_visible"":true,""ego_can_infer"":true,""alter_ball_visible"":true,""alter_can_infer"":true,""collective_ball_visible"":true,""collective_can_infer"":true,""search_locations"":[2],""alter_occluders"":""100"",""ego_occluders"":""100""}","true","","","","","","","","","","","","","","","","","","",""
"","","","","","image-keyboard-response","5","302769","0.0-3.0-2.0","559e82dffdf99b7a9a124180","665500ab8938657b03fbdba8","6657926b8e2b4a710cb8a349","1301","stimuli/21001002.jpg"," ","","practrice_feedback","2","","","","","","","","","","","","","","","","","","","","",""
"","","","","","image-keyboard-response","6","303815","0.0-3.0-3.0","559e82dffdf99b7a9a124180","665500ab8938657b03fbdba8","6657926b8e2b4a710cb8a349","1041","stimuli/2110000.jpg","2","","prediction_practice","2","{""filepath"":""stimuli/2110000.jpg"",""ball_pos"":2,""ego_ball_visible"":true,""ego_can_infer"":true,""alter_ball_visible"":true,""alter_can_infer"":true,""collective_ball_visible"":true,""collective_can_infer"":true,""search_locations"":[2],""alter_occluders"":""110"",""ego_occluders"":""000""}","true","","","","","","","","","","","","","","","","","","",""
"","","","","","image-keyboard-response","7","304723","0.0-3.0-4.0","559e82dffdf99b7a9a124180","665500ab8938657b03fbdba8","6657926b8e2b4a710cb8a349","905","stimuli/21100002.jpg"," ","","practrice_feedback","2","","","","","","","","","","","","","","","","","","","","",""
"","","","","","image-keyboard-response","8","310796","0.0-3.0-5.0","559e82dffdf99b7a9a124180","665500ab8938657b03fbdba8","6657926b8e2b4a710cb8a349","6069","stimuli/2010001.jpg","2","","prediction_practice","2","{""filepath"":""stimuli/2010001.jpg"",""ball_pos"":2,""ego_ball_visible"":false,""ego_can_infer"":true,""alter_ball_visible"":true,""alter_can_infer"":true,""collective_ball_visible"":false,""collective_can_infer"":true,""search_locations"":[2],""alter_occluders"":""010"",""ego_occluders"":""001""}","true","","","","","","","","","","","","","","","","","","",""
"","","","","","image-keyboard-response","9","312501","0.0-3.0-6.0","559e82dffdf99b7a9a124180","665500ab8938657b03fbdba8","6657926b8e2b4a710cb8a349","1701","stimuli/20100012.jpg"," ","","practrice_feedback","2","","","","","","","","","","","","","","","","","","","","",""
"","","","","","image-keyboard-response","10","315117","0.0-3.0-7.0","559e82dffdf99b7a9a124180","665500ab8938657b03fbdba8","6657926b8e2b4a710cb8a349","2613","stimuli/2011111.jpg","1","","prediction_practice","1","{""filepath"":""stimuli/2011111.jpg"",""ball_pos"":2,""ego_ball_visible"":false,""ego_can_infer"":false,""alter_ball_visible"":false,""alter_can_infer"":false,""collective_ball_visible"":false,""collective_can_infer"":false,""search_locations"":[1,2],""alter_occluders"":""011"",""ego_occluders"":""111""}","true","","","","","","","","","","","","","","","","","","",""
"","","","","","image-keyboard-response","11","316524","0.0-3.0-8.0","559e82dffdf99b7a9a124180","665500ab8938657b03fbdba8","6657926b8e2b4a710cb8a349","1402","stimuli/20111111.jpg"," ","","practrice_feedback","1","","","","","","","","","","","","","","","","","","","","",""
"","","","","","image-keyboard-response","12","318608","0.0-3.0-9.0","559e82dffdf99b7a9a124180","665500ab8938657b03fbdba8","6657926b8e2b4a710cb8a349","2079","stimuli/0100100.jpg","0","","prediction_practice","0","{""filepath"":""stimuli/0100100.jpg"",""ball_pos"":0,""ego_ball_visible"":false,""ego_can_infer"":true,""alter_ball_visible"":false,""alter_can_infer"":true,""collective_ball_visible"":false,""collective_can_infer"":true,""search_locations"":[0],""alter_occluders"":""100"",""ego_occluders"":""100""}","true","","","","","","","","","","","","","","","","","","",""
"","","","","","image-keyboard-response","13","319588","0.0-3.0-10.0","559e82dffdf99b7a9a124180","665500ab8938657b03fbdba8","6657926b8e2b4a710cb8a349","976","stimuli/01001000.jpg"," ","","practrice_feedback","0","","","","","","","","","","","","","","","","","","","","",""
"","","","","","image-keyboard-response","14","321132","0.0-3.0-11.0","559e82dffdf99b7a9a124180","665500ab8938657b03fbdba8","6657926b8e2b4a710cb8a349","1540","stimuli/0010000.jpg","0","","prediction_practice","0","{""filepath"":""stimuli/0010000.jpg"",""ball_pos"":0,""ego_ball_visible"":true,""ego_can_infer"":true,""alter_ball_visible"":true,""alter_can_infer"":true,""collective_ball_visible"":true,""collective_can_infer"":true,""search_locations"":[0],""alter_occluders"":""010"",""ego_occluders"":""000""}","true","","","","","","","","","","","","","","","","","","",""
"","","","","","image-keyboard-response","15","321879","0.0-3.0-12.0","559e82dffdf99b7a9a124180","665500ab8938657b03fbdba8","6657926b8e2b4a710cb8a349","742","stimuli/00100000.jpg"," ","","practrice_feedback","0","","","","","","","","","","","","","","","","","","","","",""
"","","","","","image-keyboard-response","16","323296","0.0-3.0-13.0","559e82dffdf99b7a9a124180","665500ab8938657b03fbdba8","6657926b8e2b4a710cb8a349","1415","stimuli/2010010.jpg","2","","prediction_practice","2","{""filepath"":""stimuli/2010010.jpg"",""ball_pos"":2,""ego_ball_visible"":true,""ego_can_infer"":true,""alter_ball_visible"":true,""alter_can_infer"":true,""collective_ball_visible"":true,""collective_can_infer"":true,""search_locations"":[2],""alter_occluders"":""010"",""ego_occluders"":""010""}","true","","","","","","","","","","","","","","","","","","",""
"","","","","","image-keyboard-response","17","324010","0.0-3.0-14.0","559e82dffdf99b7a9a124180","665500ab8938657b03fbdba8","6657926b8e2b4a710cb8a349","710","stimuli/20100102.jpg"," ","","practrice_feedback","2","","","","","","","","","","","","","","","","","","","","",""
"","","","","","image-keyboard-response","18","326145","0.0-3.0-15.0","559e82dffdf99b7a9a124180","665500ab8938657b03fbdba8","6657926b8e2b4a710cb8a349","2132","stimuli/0011110.jpg","1","","prediction_practice","0","{""filepath"":""stimuli/0011110.jpg"",""ball_pos"":0,""ego_ball_visible"":false,""ego_can_infer"":false,""alter_ball_visible"":true,""alter_can_infer"":true,""collective_ball_visible"":false,""collective_can_infer"":false,""search_locations"":[0],""alter_occluders"":""011"",""ego_occluders"":""110""}","false","","","","","","","","","","","","","","","","","","",""
"","","","","","image-keyboard-response","19","332127","0.0-3.0-16.0","559e82dffdf99b7a9a124180","665500ab8938657b03fbdba8","6657926b8e2b4a710cb8a349","5987","stimuli/00111100.jpg"," ","","practrice_feedback","0","","","","","","","","","","","","","","","","","","","","",""
"","","","","","image-keyboard-response","20","334220","0.0-3.0-17.0","559e82dffdf99b7a9a124180","665500ab8938657b03fbdba8","6657926b8e2b4a710cb8a349","2089","stimuli/0100111.jpg","0","","prediction_practice","0","{""filepath"":""stimuli/0100111.jpg"",""ball_pos"":0,""ego_ball_visible"":false,""ego_can_infer"":false,""alter_ball_visible"":false,""alter_can_infer"":true,""collective_ball_visible"":false,""collective_can_infer"":false,""search_locations"":[0],""alter_occluders"":""100"",""ego_occluders"":""111""}","true","","","","","","","","","","","","","","","","","","",""
"","","","","","image-keyboard-response","21","335052","0.0-3.0-18.0","559e82dffdf99b7a9a124180","665500ab8938657b03fbdba8","6657926b8e2b4a710cb8a349","829","stimuli/01001110.jpg"," ","","practrice_feedback","0","","","","","","","","","","","","","","","","","","","","",""
"","","","","","image-keyboard-response","22","336856","0.0-3.0-19.0","559e82dffdf99b7a9a124180","665500ab8938657b03fbdba8","6657926b8e2b4a710cb8a349","1801","stimuli/1111111.jpg","0","","prediction_practice","2","{""filepath"":""stimuli/1111111.jpg"",""ball_pos"":1,""ego_ball_visible"":false,""ego_can_infer"":false,""alter_ball_visible"":false,""alter_can_infer"":false,""collective_ball_visible"":false,""collective_can_infer"":false,""search_locations"":[0,2,1],""alter_occluders"":""111"",""ego_occluders"":""111""}","false","","","","","","","","","","","","","","","","","","",""
"","","","","","image-keyboard-response","23","338132","0.0-3.0-20.0","559e82dffdf99b7a9a124180","665500ab8938657b03fbdba8","6657926b8e2b4a710cb8a349","1271","stimuli/11111112.jpg"," ","","practrice_feedback","0","","","","","","","","","","","","","","","","","","","","",""
"","","","","","html-button-response","24","342848","0.0-3.0-21.0","559e82dffdf99b7a9a124180","665500ab8938657b03fbdba8","6657926b8e2b4a710cb8a349","4715","Now that you've had some practice, you'll be tested with a couple of easy trials. If you correctly predict Sam's choice, you'll move on to complete the experiment!","0","","","","","","","","","","","","","","","","","","","","","","","",""
"","","","","","image-keyboard-response","25","343875","0.0-3.0-22.0-0.0","559e82dffdf99b7a9a124180","665500ab8938657b03fbdba8","6657926b8e2b4a710cb8a349","1024","stimuli/0000011.jpg","arrowleft","","comprehension_quiz","","","true","arrowleft","","","","","","","","","","","","","","","","","",""
"","","","","","image-keyboard-response","26","345120","0.0-3.0-22.0-1.0","559e82dffdf99b7a9a124180","665500ab8938657b03fbdba8","6657926b8e2b4a710cb8a349","1242","stimuli/00000110.jpg"," ","","comprehension_quiz","","","true"," ","","","","","","","","","","","","","","","","","",""
"","","","","","image-keyboard-response","27","346759","0.0-3.0-22.0-2.0","559e82dffdf99b7a9a124180","665500ab8938657b03fbdba8","6657926b8e2b4a710cb8a349","1635","stimuli/1010010.jpg","arrowdown","","comprehension_quiz","","","true","arrowdown","","","","","","","","","","","","","","","","","",""
"","","","","","image-keyboard-response","28","347543","0.0-3.0-22.0-3.0","559e82dffdf99b7a9a124180","665500ab8938657b03fbdba8","6657926b8e2b4a710cb8a349","778","stimuli/10100101.jpg"," ","","comprehension_quiz","","","true"," ","","","","","","","","","","","","","","","","","",""
"","","","","","html-button-response","29","349572","0.0-4.0","559e82dffdf99b7a9a124180","665500ab8938657b03fbdba8","6657926b8e2b4a710cb8a349","2028","The experiment will now begin.","0","","","","","","","","","","","","","","","","","","","","","","","",""
"","","","","","image-keyboard-response","30","352015","0.0-5.0","559e82dffdf99b7a9a124180","665500ab8938657b03fbdba8","6657926b8e2b4a710cb8a349","2440","stimuli/0111110.jpg","1","","prediction_trial","1","","true","","0","false","false","false","false","false","false","[0,1,2]","111","110","1","","","","","","",""
"","","","","","image-keyboard-response","31","352897","0.0-6.0","559e82dffdf99b7a9a124180","665500ab8938657b03fbdba8","6657926b8e2b4a710cb8a349","880","stimuli/01111101.jpg"," ","","feedback_trial","0","","","","","","","","","","","","","","","","","","","","",""
"","","","","","image-keyboard-response","32","354119","0.0-7.0","559e82dffdf99b7a9a124180","665500ab8938657b03fbdba8","6657926b8e2b4a710cb8a349","1219","stimuli/1111010.jpg","1","","prediction_trial","2","","false","","1","false","true","false","false","false","false","[1,0,2]","111","010","0","","","","","","",""
"","","","","","image-keyboard-response","33","355371","0.0-8.0","559e82dffdf99b7a9a124180","665500ab8938657b03fbdba8","6657926b8e2b4a710cb8a349","1248","stimuli/11110102.jpg"," ","","feedback_trial","1","","","","","","","","","","","","","","","","","","","","",""
"","","","","","image-keyboard-response","34","357819","0.0-9.0","559e82dffdf99b7a9a124180","665500ab8938657b03fbdba8","6657926b8e2b4a710cb8a349","2447","stimuli/0001100.jpg","0","","prediction_trial","0","","true","","0","false","true","true","true","false","true","[0]","001","100","1","","","","","","",""
"","","","","","image-keyboard-response","35","358914","0.0-10.0","559e82dffdf99b7a9a124180","665500ab8938657b03fbdba8","6657926b8e2b4a710cb8a349","1091","stimuli/00011000.jpg"," ","","feedback_trial","0","","","","","","","","","","","","","","","","","","","","",""
"","","","","","image-keyboard-response","36","361715","0.0-11.0","559e82dffdf99b7a9a124180","665500ab8938657b03fbdba8","6657926b8e2b4a710cb8a349","2796","stimuli/2111110.jpg","2","","prediction_trial","0","","false","","2","true","true","false","false","false","false","[2,1,0]","111","110","0","","","","","","",""
"","","","","","image-keyboard-response","37","362603","0.0-12.0","559e82dffdf99b7a9a124180","665500ab8938657b03fbdba8","6657926b8e2b4a710cb8a349","886","stimuli/21111100.jpg"," ","","feedback_trial","2","","","","","","","","","","","","","","","","","","","","",""
"","","","","","image-keyboard-response","38","365451","0.0-13.0","559e82dffdf99b7a9a124180","665500ab8938657b03fbdba8","6657926b8e2b4a710cb8a349","2847","stimuli/0101110.jpg","0","","prediction_trial","2","","false","","0","false","false","false","false","false","false","[0,2]","101","110","0","","","","","","",""
"","","","","","image-keyboard-response","39","367102","0.0-14.0","559e82dffdf99b7a9a124180","665500ab8938657b03fbdba8","6657926b8e2b4a710cb8a349","1646","stimuli/01011102.jpg"," ","","feedback_trial","0","","","","","","","","","","","","","","","","","","","","",""
"","","","","","image-keyboard-response","40","371319","0.0-15.0","559e82dffdf99b7a9a124180","665500ab8938657b03fbdba8","6657926b8e2b4a710cb8a349","4215","stimuli/0101111.jpg","0","","prediction_trial","0","","true","","0","false","false","false","false","false","false","[2,0]","101","111","1","","","","","","",""
"","","","","","image-keyboard-response","41","372333","0.0-16.0","559e82dffdf99b7a9a124180","665500ab8938657b03fbdba8","6657926b8e2b4a710cb8a349","1010","stimuli/01011110.jpg"," ","","feedback_trial","2","","","","","","","","","","","","","","","","","","","","",""
"","","","","","image-keyboard-response","42","373356","0.0-17.0","559e82dffdf99b7a9a124180","665500ab8938657b03fbdba8","6657926b8e2b4a710cb8a349","1019","stimuli/2100110.jpg","2","","prediction_trial","2","","true","","2","true","true","true","true","true","true","[2]","100","110","1","","","","","","",""
"","","","","","image-keyboard-response","43","374098","0.0-18.0","559e82dffdf99b7a9a124180","665500ab8938657b03fbdba8","6657926b8e2b4a710cb8a349","737","stimuli/21001102.jpg"," ","","feedback_trial","2","","","","","","","","","","","","","","","","","","","","",""
"","","","","","image-keyboard-response","44","375143","0.0-19.0","559e82dffdf99b7a9a124180","665500ab8938657b03fbdba8","6657926b8e2b4a710cb8a349","1041","stimuli/0011110.jpg","0","","prediction_trial","0","","true","","0","false","false","true","true","false","false","[0]","011","110","1","","","","","","",""
"","","","","","image-keyboard-response","45","376103","0.0-20.0","559e82dffdf99b7a9a124180","665500ab8938657b03fbdba8","6657926b8e2b4a710cb8a349","956","stimuli/00111100.jpg"," ","","feedback_trial","0","","","","","","","","","","","","","","","","","","","","",""
"","","","","","image-keyboard-response","46","377469","0.0-21.0","559e82dffdf99b7a9a124180","665500ab8938657b03fbdba8","6657926b8e2b4a710cb8a349","1364","stimuli/2110101.jpg","2","","prediction_trial","2","","true","","2","false","false","true","true","false","false","[2]","110","101","1","","","","","","",""
"","","","","","image-keyboard-response","47","378347","0.0-22.0","559e82dffdf99b7a9a124180","665500ab8938657b03fbdba8","6657926b8e2b4a710cb8a349","877","stimuli/21101012.jpg"," ","","feedback_trial","2","","","","","","","","","","","","","","","","","","","","",""
"","","","","","image-keyboard-response","48","380670","0.0-23.0","559e82dffdf99b7a9a124180","665500ab8938657b03fbdba8","6657926b8e2b4a710cb8a349","2319","stimuli/0110011.jpg","0","","prediction_trial","0","","true","","0","true","true","false","false","false","false","[0,1]","110","011","1","","","","","","",""
"","","","","","image-keyboard-response","49","381403","0.0-24.0","559e82dffdf99b7a9a124180","665500ab8938657b03fbdba8","6657926b8e2b4a710cb8a349","731","stimuli/01100110.jpg"," ","","feedback_trial","0","","","","","","","","","","","","","","","","","","","","",""
"","","","","","image-keyboard-response","50","382355","0.0-25.0","559e82dffdf99b7a9a124180","665500ab8938657b03fbdba8","6657926b8e2b4a710cb8a349","950","stimuli/2000110.jpg","2","","prediction_trial","2","","true","","2","true","true","true","true","true","true","[2]","000","110","1","","","","","","",""
"","","","","","image-keyboard-response","51","383048","0.0-26.0","559e82dffdf99b7a9a124180","665500ab8938657b03fbdba8","6657926b8e2b4a710cb8a349","689","stimuli/20001102.jpg"," ","","feedback_trial","2","","","","","","","","","","","","","","","","","","","","",""
"","","","","","image-keyboard-response","52","385196","0.0-27.0","559e82dffdf99b7a9a124180","665500ab8938657b03fbdba8","6657926b8e2b4a710cb8a349","2143","stimuli/0001101.jpg","0","","prediction_trial","0","","true","","0","false","false","true","true","false","false","[0]","001","101","1","","","","","","",""
"","","","","","image-keyboard-response","53","385994","0.0-28.0","559e82dffdf99b7a9a124180","665500ab8938657b03fbdba8","6657926b8e2b4a710cb8a349","796","stimuli/00011010.jpg"," ","","feedback_trial","0","","","","","","","","","","","","","","","","","","","","",""
"","","","","","image-keyboard-response","54","387939","0.0-29.0","559e82dffdf99b7a9a124180","665500ab8938657b03fbdba8","6657926b8e2b4a710cb8a349","1941","stimuli/1110110.jpg","1","","prediction_trial","0","","false","","1","false","false","false","false","false","false","[1,0]","110","110","0","","","","","","",""
"","","","","","image-keyboard-response","55","388927","0.0-30.0","559e82dffdf99b7a9a124180","665500ab8938657b03fbdba8","6657926b8e2b4a710cb8a349","986","stimuli/11101100.jpg"," ","","feedback_trial","1","","","","","","","","","","","","","","","","","","","","",""
"","","","","","image-keyboard-response","56","391792","0.0-31.0","559e82dffdf99b7a9a124180","665500ab8938657b03fbdba8","6657926b8e2b4a710cb8a349","2863","stimuli/0100101.jpg","2","","prediction_trial","0","","false","","0","false","false","false","true","false","false","[0]","100","101","0","","","","","","",""
"","","","","","image-keyboard-response","57","392850","0.0-32.0","559e82dffdf99b7a9a124180","665500ab8938657b03fbdba8","6657926b8e2b4a710cb8a349","1050","stimuli/01001010.jpg"," ","","feedback_trial","0","","","","","","","","","","","","","","","","","","","","",""
"","","","","","image-keyboard-response","58","393899","0.0-33.0","559e82dffdf99b7a9a124180","665500ab8938657b03fbdba8","6657926b8e2b4a710cb8a349","1048","stimuli/0010011.jpg","0","","prediction_trial","0","","true","","0","true","true","true","true","true","true","[0]","010","011","1","","","","","","",""
"","","","","","image-keyboard-response","59","394731","0.0-34.0","559e82dffdf99b7a9a124180","665500ab8938657b03fbdba8","6657926b8e2b4a710cb8a349","827","stimuli/00100110.jpg"," ","","feedback_trial","0","","","","","","","","","","","","","","","","","","","","",""
"","","","","","image-keyboard-response","60","396648","0.0-35.0","559e82dffdf99b7a9a124180","665500ab8938657b03fbdba8","6657926b8e2b4a710cb8a349","1913","stimuli/0011111.jpg","0","","prediction_trial","0","","true","","0","false","false","true","true","false","false","[0]","011","111","1","","","","","","",""
"","","","","","image-keyboard-response","61","397404","0.0-36.0","559e82dffdf99b7a9a124180","665500ab8938657b03fbdba8","6657926b8e2b4a710cb8a349","755","stimuli/00111110.jpg"," ","","feedback_trial","0","","","","","","","","","","","","","","","","","","","","",""
"","","","","","image-keyboard-response","62","399339","0.0-37.0","559e82dffdf99b7a9a124180","665500ab8938657b03fbdba8","6657926b8e2b4a710cb8a349","1933","stimuli/0101001.jpg","0","","prediction_trial","2","","false","","0","true","true","false","false","false","false","[2,0]","101","001","0","","","","","","",""
"","","","","","image-keyboard-response","63","400199","0.0-38.0","559e82dffdf99b7a9a124180","665500ab8938657b03fbdba8","6657926b8e2b4a710cb8a349","856","stimuli/01010012.jpg"," ","","feedback_trial","2","","","","","","","","","","","","","","","","","","","","",""
"","","","","","image-keyboard-response","64","401113","0.0-39.0","559e82dffdf99b7a9a124180","665500ab8938657b03fbdba8","6657926b8e2b4a710cb8a349","908","stimuli/0010000.jpg","0","","prediction_trial","0","","true","","0","true","true","true","true","true","true","[0]","010","000","1","","","","","","",""
"","","","","","image-keyboard-response","65","401699","0.0-40.0","559e82dffdf99b7a9a124180","665500ab8938657b03fbdba8","6657926b8e2b4a710cb8a349","581","stimuli/00100000.jpg"," ","","feedback_trial","0","","","","","","","","","","","","","","","","","","","","",""
"","","","","","image-keyboard-response","66","402538","0.0-41.0","559e82dffdf99b7a9a124180","665500ab8938657b03fbdba8","6657926b8e2b4a710cb8a349","838","stimuli/1100000.jpg","1","","prediction_trial","1","","true","","1","true","true","true","true","true","true","[1]","100","000","1","","","","","","",""
"","","","","","image-keyboard-response","67","403330","0.0-42.0","559e82dffdf99b7a9a124180","665500ab8938657b03fbdba8","6657926b8e2b4a710cb8a349","787","stimuli/11000001.jpg"," ","","feedback_trial","1","","","","","","","","","","","","","","","","","","","","",""
"","","","","","image-keyboard-response","68","405144","0.0-43.0","559e82dffdf99b7a9a124180","665500ab8938657b03fbdba8","6657926b8e2b4a710cb8a349","1808","stimuli/1101010.jpg","1","","prediction_trial","1","","true","","1","false","true","true","true","false","true","[1]","101","010","1","","","","","","",""
"","","","","","image-keyboard-response","69","405811","0.0-44.0","559e82dffdf99b7a9a124180","665500ab8938657b03fbdba8","6657926b8e2b4a710cb8a349","665","stimuli/11010101.jpg"," ","","feedback_trial","1","","","","","","","","","","","","","","","","","","","","",""
"","","","","","image-keyboard-response","70","406785","0.0-45.0","559e82dffdf99b7a9a124180","665500ab8938657b03fbdba8","6657926b8e2b4a710cb8a349","969","stimuli/2100001.jpg","2","","prediction_trial","2","","true","","2","false","true","true","true","false","true","[2]","100","001","1","","","","","","",""
"","","","","","image-keyboard-response","71","407455","0.0-46.0","559e82dffdf99b7a9a124180","665500ab8938657b03fbdba8","6657926b8e2b4a710cb8a349","665","stimuli/21000012.jpg"," ","","feedback_trial","2","","","","","","","","","","","","","","","","","","","","",""
"","","","","","image-keyboard-response","72","408926","0.0-47.0","559e82dffdf99b7a9a124180","665500ab8938657b03fbdba8","6657926b8e2b4a710cb8a349","1468","stimuli/1111011.jpg","2","","prediction_trial","1","","false","","1","false","false","false","false","false","false","[1,0,2]","111","011","0","","","","","","",""
"","","","","","image-keyboard-response","73","409955","0.0-48.0","559e82dffdf99b7a9a124180","665500ab8938657b03fbdba8","6657926b8e2b4a710cb8a349","1027","stimuli/11110111.jpg"," ","","feedback_trial","1","","","","","","","","","","","","","","","","","","","","",""
"","","","","","image-keyboard-response","74","411027","0.0-49.0","559e82dffdf99b7a9a124180","665500ab8938657b03fbdba8","6657926b8e2b4a710cb8a349","1070","stimuli/0010100.jpg","0","","prediction_trial","0","","true","","0","false","true","true","true","false","true","[0]","010","100","1","","","","","","",""
"","","","","","image-keyboard-response","75","411726","0.0-50.0","559e82dffdf99b7a9a124180","665500ab8938657b03fbdba8","6657926b8e2b4a710cb8a349","697","stimuli/00101000.jpg"," ","","feedback_trial","0","","","","","","","","","","","","","","","","","","","","",""
"","","","","","image-keyboard-response","76","414475","0.0-51.0","559e82dffdf99b7a9a124180","665500ab8938657b03fbdba8","6657926b8e2b4a710cb8a349","2748","stimuli/1010110.jpg","0","","prediction_trial","1","","false","","1","false","false","false","true","false","false","[1]","010","110","0","","","","","","",""
"","","","","","image-keyboard-response","77","415637","0.0-52.0","559e82dffdf99b7a9a124180","665500ab8938657b03fbdba8","6657926b8e2b4a710cb8a349","1158","stimuli/10101101.jpg"," ","","feedback_trial","1","","","","","","","","","","","","","","","","","","","","",""
"","","","","","image-keyboard-response","78","418132","0.0-53.0","559e82dffdf99b7a9a124180","665500ab8938657b03fbdba8","6657926b8e2b4a710cb8a349","2494","stimuli/1101011.jpg","2","","prediction_trial","1","","false","","1","false","false","true","true","false","false","[1]","101","011","0","","","","","","",""
"","","","","","image-keyboard-response","79","418957","0.0-54.0","559e82dffdf99b7a9a124180","665500ab8938657b03fbdba8","6657926b8e2b4a710cb8a349","823","stimuli/11010111.jpg"," ","","feedback_trial","1","","","","","","","","","","","","","","","","","","","","",""
"","","","","","image-keyboard-response","80","421313","0.0-55.0","559e82dffdf99b7a9a124180","665500ab8938657b03fbdba8","6657926b8e2b4a710cb8a349","2355","stimuli/0010101.jpg","0","","prediction_trial","0","","true","","0","false","false","true","true","false","false","[0]","010","101","1","","","","","","",""
"","","","","","image-keyboard-response","81","422141","0.0-56.0","559e82dffdf99b7a9a124180","665500ab8938657b03fbdba8","6657926b8e2b4a710cb8a349","826","stimuli/00101010.jpg"," ","","feedback_trial","0","","","","","","","","","","","","","","","","","","","","",""
"","","","","","image-keyboard-response","82","423026","0.0-57.0","559e82dffdf99b7a9a124180","665500ab8938657b03fbdba8","6657926b8e2b4a710cb8a349","880","stimuli/0011100.jpg","0","","prediction_trial","0","","true","","0","false","true","true","true","false","true","[0]","011","100","1","","","","","","",""
"","","","","","image-keyboard-response","83","423650","0.0-58.0","559e82dffdf99b7a9a124180","665500ab8938657b03fbdba8","6657926b8e2b4a710cb8a349","621","stimuli/00111000.jpg"," ","","feedback_trial","0","","","","","","","","","","","","","","","","","","","","",""
"","","","","","image-keyboard-response","84","425109","0.0-59.0","559e82dffdf99b7a9a124180","665500ab8938657b03fbdba8","6657926b8e2b4a710cb8a349","1458","stimuli/0100000.jpg","0","","prediction_trial","0","","true","","0","true","true","false","true","false","true","[0]","100","000","1","","","","","","",""
"","","","","","image-keyboard-response","85","425784","0.0-60.0","559e82dffdf99b7a9a124180","665500ab8938657b03fbdba8","6657926b8e2b4a710cb8a349","670","stimuli/01000000.jpg"," ","","feedback_trial","0","","","","","","","","","","","","","","","","","","","","",""
"","","","","","image-keyboard-response","86","426975","0.0-61.0","559e82dffdf99b7a9a124180","665500ab8938657b03fbdba8","6657926b8e2b4a710cb8a349","1186","stimuli/1010000.jpg","1","","prediction_trial","1","","true","","1","true","true","false","true","false","true","[1]","010","000","1","","","","","","",""
"","","","","","image-keyboard-response","87","427666","0.0-62.0","559e82dffdf99b7a9a124180","665500ab8938657b03fbdba8","6657926b8e2b4a710cb8a349","687","stimuli/10100001.jpg"," ","","feedback_trial","1","","","","","","","","","","","","","","","","","","","","",""
"","","","","","image-keyboard-response","88","429175","0.0-63.0","559e82dffdf99b7a9a124180","665500ab8938657b03fbdba8","6657926b8e2b4a710cb8a349","1504","stimuli/0101010.jpg","0","","prediction_trial","0","","true","","0","true","true","false","false","false","false","[2,0]","101","010","1","","","","","","",""
"","","","","","image-keyboard-response","89","429818","0.0-64.0","559e82dffdf99b7a9a124180","665500ab8938657b03fbdba8","6657926b8e2b4a710cb8a349","639","stimuli/01010100.jpg"," ","","feedback_trial","2","","","","","","","","","","","","","","","","","","","","",""
"","","","","","image-keyboard-response","90","431244","0.0-65.0","559e82dffdf99b7a9a124180","665500ab8938657b03fbdba8","6657926b8e2b4a710cb8a349","1422","stimuli/2011011.jpg","2","","prediction_trial","2","","true","","2","false","false","false","false","false","false","[2,1]","011","011","1","","","","","","",""
"","","","","","image-keyboard-response","91","432013","0.0-66.0","559e82dffdf99b7a9a124180","665500ab8938657b03fbdba8","6657926b8e2b4a710cb8a349","766","stimuli/20110112.jpg"," ","","feedback_trial","2","","","","","","","","","","","","","","","","","","","","",""
"","","","","","image-keyboard-response","92","433157","0.0-67.0","559e82dffdf99b7a9a124180","665500ab8938657b03fbdba8","6657926b8e2b4a710cb8a349","1140","stimuli/2000111.jpg","0","","prediction_trial","2","","false","","2","false","false","true","true","false","false","[2]","000","111","0","","","","","","",""
"","","","","","image-keyboard-response","93","434024","0.0-68.0","559e82dffdf99b7a9a124180","665500ab8938657b03fbdba8","6657926b8e2b4a710cb8a349","863","stimuli/20001112.jpg"," ","","feedback_trial","2","","","","","","","","","","","","","","","","","","","","",""
"","","","","","image-keyboard-response","94","434801","0.0-69.0","559e82dffdf99b7a9a124180","665500ab8938657b03fbdba8","6657926b8e2b4a710cb8a349","775","stimuli/0100001.jpg","0","","prediction_trial","0","","true","","0","true","true","false","true","false","true","[0]","100","001","1","","","","","","",""
"","","","","","image-keyboard-response","95","435463","0.0-70.0","559e82dffdf99b7a9a124180","665500ab8938657b03fbdba8","6657926b8e2b4a710cb8a349","660","stimuli/01000010.jpg"," ","","feedback_trial","0","","","","","","","","","","","","","","","","","","","","",""
"","","","","","image-keyboard-response","96","436335","0.0-71.0","559e82dffdf99b7a9a124180","665500ab8938657b03fbdba8","6657926b8e2b4a710cb8a349","870","stimuli/2000010.jpg","2","","prediction_trial","2","","true","","2","true","true","true","true","true","true","[2]","000","010","1","","","","","","",""
"","","","","","image-keyboard-response","97","437265","0.0-72.0","559e82dffdf99b7a9a124180","665500ab8938657b03fbdba8","6657926b8e2b4a710cb8a349","925","stimuli/20000102.jpg"," ","","feedback_trial","2","","","","","","","","","","","","","","","","","","","","",""
"","","","","","image-keyboard-response","98","439309","0.0-73.0","559e82dffdf99b7a9a124180","665500ab8938657b03fbdba8","6657926b8e2b4a710cb8a349","2040","stimuli/2111011.jpg","2","","prediction_trial","2","","true","","2","false","false","false","false","false","false","[0,2,1]","111","011","1","","","","","","",""
"","","","","","image-keyboard-response","99","440109","0.0-74.0","559e82dffdf99b7a9a124180","665500ab8938657b03fbdba8","6657926b8e2b4a710cb8a349","798","stimuli/21110112.jpg"," ","","feedback_trial","0","","","","","","","","","","","","","","","","","","","","",""
"","","","","","image-keyboard-response","100","443031","0.0-75.0","559e82dffdf99b7a9a124180","665500ab8938657b03fbdba8","6657926b8e2b4a710cb8a349","2917","stimuli/1000111.jpg","0","","prediction_trial","1","","false","","1","false","false","true","true","false","false","[1]","000","111","0","","","","","","",""
"","","","","","image-keyboard-response","101","443900","0.0-76.0","559e82dffdf99b7a9a124180","665500ab8938657b03fbdba8","6657926b8e2b4a710cb8a349","864","stimuli/10001111.jpg"," ","","feedback_trial","1","","","","","","","","","","","","","","","","","","","","",""
"","","","","","image-keyboard-response","102","445359","0.0-77.0","559e82dffdf99b7a9a124180","665500ab8938657b03fbdba8","6657926b8e2b4a710cb8a349","1455","stimuli/0000111.jpg","1","","prediction_trial","0","","false","","0","false","false","true","true","false","false","[0]","000","111","0","","","","","","",""
"","","","","","image-keyboard-response","103","446290","0.0-78.0","559e82dffdf99b7a9a124180","665500ab8938657b03fbdba8","6657926b8e2b4a710cb8a349","926","stimuli/00001110.jpg"," ","","feedback_trial","0","","","","","","","","","","","","","","","","","","","","",""
"","","","","","image-keyboard-response","104","448153","0.0-79.0","559e82dffdf99b7a9a124180","665500ab8938657b03fbdba8","6657926b8e2b4a710cb8a349","1858","stimuli/1110011.jpg","2","","prediction_trial","1","","false","","1","false","false","false","false","false","false","[1,0]","110","011","0","","","","","","",""
"","","","","","image-keyboard-response","105","449592","0.0-80.0","559e82dffdf99b7a9a124180","665500ab8938657b03fbdba8","6657926b8e2b4a710cb8a349","1435","stimuli/11100111.jpg"," ","","feedback_trial","1","","","","","","","","","","","","","","","","","","","","",""
"","","","","","image-keyboard-response","106","451886","0.0-81.0","559e82dffdf99b7a9a124180","665500ab8938657b03fbdba8","6657926b8e2b4a710cb8a349","2293","stimuli/2101100.jpg","2","","prediction_trial","0","","false","","2","true","true","false","false","false","false","[0,2]","101","100","0","","","","","","",""
"","","","","","image-keyboard-response","107","453605","0.0-82.0","559e82dffdf99b7a9a124180","665500ab8938657b03fbdba8","6657926b8e2b4a710cb8a349","1728","stimuli/21011000.jpg"," ","","feedback_trial","0","","","","","","","","","","","","","","","","","","","","",""
"","","","","","image-keyboard-response","108","454572","0.0-83.0","559e82dffdf99b7a9a124180","665500ab8938657b03fbdba8","6657926b8e2b4a710cb8a349","965","stimuli/0001000.jpg","0","","prediction_trial","0","","true","","0","true","true","true","true","true","true","[0]","001","000","1","","","","","","",""
"","","","","","image-keyboard-response","109","455530","0.0-84.0","559e82dffdf99b7a9a124180","665500ab8938657b03fbdba8","6657926b8e2b4a710cb8a349","953","stimuli/00010000.jpg"," ","","feedback_trial","0","","","","","","","","","","","","","","","","","","","","",""
"","","","","","image-keyboard-response","110","456684","0.0-85.0","559e82dffdf99b7a9a124180","665500ab8938657b03fbdba8","6657926b8e2b4a710cb8a349","1152","stimuli/2001000.jpg","2","","prediction_trial","2","","true","","2","true","true","false","true","false","true","[2]","001","000","1","","","","","","",""
"","","","","","image-keyboard-response","111","457323","0.0-86.0","559e82dffdf99b7a9a124180","665500ab8938657b03fbdba8","6657926b8e2b4a710cb8a349","634","stimuli/20010002.jpg"," ","","feedback_trial","2","","","","","","","","","","","","","","","","","","","","",""
"","","","","","image-keyboard-response","112","458850","0.0-87.0","559e82dffdf99b7a9a124180","665500ab8938657b03fbdba8","6657926b8e2b4a710cb8a349","1522","stimuli/1101110.jpg","1","","prediction_trial","1","","true","","1","false","false","true","true","false","false","[1]","101","110","1","","","","","","",""
"","","","","","image-keyboard-response","113","459662","0.0-88.0","559e82dffdf99b7a9a124180","665500ab8938657b03fbdba8","6657926b8e2b4a710cb8a349","807","stimuli/11011101.jpg"," ","","feedback_trial","1","","","","","","","","","","","","","","","","","","","","",""
"","","","","","image-keyboard-response","114","461527","0.0-89.0","559e82dffdf99b7a9a124180","665500ab8938657b03fbdba8","6657926b8e2b4a710cb8a349","1864","stimuli/0100111.jpg","0","","prediction_trial","0","","true","","0","false","false","false","true","false","false","[0]","100","111","1","","","","","","",""
"","","","","","image-keyboard-response","115","462257","0.0-90.0","559e82dffdf99b7a9a124180","665500ab8938657b03fbdba8","6657926b8e2b4a710cb8a349","725","stimuli/01001110.jpg"," ","","feedback_trial","0","","","","","","","","","","","","","","","","","","","","",""
"","","","","","image-keyboard-response","116","463524","0.0-91.0","559e82dffdf99b7a9a124180","665500ab8938657b03fbdba8","6657926b8e2b4a710cb8a349","1265","stimuli/1101000.jpg","1","","prediction_trial","1","","true","","1","true","true","true","true","true","true","[1]","101","000","1","","","","","","",""
"","","","","","image-keyboard-response","117","464099","0.0-92.0","559e82dffdf99b7a9a124180","665500ab8938657b03fbdba8","6657926b8e2b4a710cb8a349","571","stimuli/11010001.jpg"," ","","feedback_trial","1","","","","","","","","","","","","","","","","","","","","",""
"","","","","","image-keyboard-response","118","465170","0.0-93.0","559e82dffdf99b7a9a124180","665500ab8938657b03fbdba8","6657926b8e2b4a710cb8a349","1067","stimuli/1110000.jpg","1","","prediction_trial","0","","false","","1","true","true","false","false","false","false","[0,1]","110","000","0","","","","","","",""
"","","","","","image-keyboard-response","119","466126","0.0-94.0","559e82dffdf99b7a9a124180","665500ab8938657b03fbdba8","6657926b8e2b4a710cb8a349","952","stimuli/11100000.jpg"," ","","feedback_trial","0","","","","","","","","","","","","","","","","","","","","",""
"","","","","","image-keyboard-response","120","467836","0.0-95.0","559e82dffdf99b7a9a124180","665500ab8938657b03fbdba8","6657926b8e2b4a710cb8a349","1706","stimuli/2100111.jpg","0","","prediction_trial","2","","false","","2","false","false","true","true","false","false","[2]","100","111","0","","","","","","",""
"","","","","","image-keyboard-response","121","468673","0.0-96.0","559e82dffdf99b7a9a124180","665500ab8938657b03fbdba8","6657926b8e2b4a710cb8a349","833","stimuli/21001112.jpg"," ","","feedback_trial","2","","","","","","","","","","","","","","","","","","","","",""
"","","","","","image-keyboard-response","122","470296","0.0-97.0","559e82dffdf99b7a9a124180","665500ab8938657b03fbdba8","6657926b8e2b4a710cb8a349","1618","stimuli/1011100.jpg","1","","prediction_trial","1","","true","","1","true","true","false","false","false","false","[2,1]","011","100","1","","","","","","",""
"","","","","","image-keyboard-response","123","471097","0.0-98.0","559e82dffdf99b7a9a124180","665500ab8938657b03fbdba8","6657926b8e2b4a710cb8a349","797","stimuli/10111001.jpg"," ","","feedback_trial","2","","","","","","","","","","","","","","","","","","","","",""
"","","","","","image-keyboard-response","124","472527","0.0-99.0","559e82dffdf99b7a9a124180","665500ab8938657b03fbdba8","6657926b8e2b4a710cb8a349","1429","stimuli/1011101.jpg","1","","prediction_trial","1","","true","","1","true","true","false","false","false","false","[2,1]","011","101","1","","","","","","",""
"","","","","","image-keyboard-response","125","473288","0.0-100.0","559e82dffdf99b7a9a124180","665500ab8938657b03fbdba8","6657926b8e2b4a710cb8a349","759","stimuli/10111011.jpg"," ","","feedback_trial","2","","","","","","","","","","","","","","","","","","","","",""
"","","","","","image-keyboard-response","126","474635","0.0-101.0","559e82dffdf99b7a9a124180","665500ab8938657b03fbdba8","6657926b8e2b4a710cb8a349","1343","stimuli/0101100.jpg","0","","prediction_trial","0","","true","","0","false","true","false","false","false","false","[2,0]","101","100","1","","","","","","",""
"","","","","","image-keyboard-response","127","475442","0.0-102.0","559e82dffdf99b7a9a124180","665500ab8938657b03fbdba8","6657926b8e2b4a710cb8a349","802","stimuli/01011000.jpg"," ","","feedback_trial","2","","","","","","","","","","","","","","","","","","","","",""
"","","","","","image-keyboard-response","128","477757","0.0-103.0","559e82dffdf99b7a9a124180","665500ab8938657b03fbdba8","6657926b8e2b4a710cb8a349","2310","stimuli/2000101.jpg","2","","prediction_trial","2","","true","","2","false","false","true","true","false","false","[2]","000","101","1","","","","","","",""
"","","","","","image-keyboard-response","129","478482","0.0-104.0","559e82dffdf99b7a9a124180","665500ab8938657b03fbdba8","6657926b8e2b4a710cb8a349","724","stimuli/20001012.jpg"," ","","feedback_trial","2","","","","","","","","","","","","","","","","","","","","",""
"","","","","","image-keyboard-response","130","480140","0.0-105.0","559e82dffdf99b7a9a124180","665500ab8938657b03fbdba8","6657926b8e2b4a710cb8a349","1656","stimuli/2010111.jpg","0","","prediction_trial","2","","false","","2","false","false","true","true","false","false","[2]","010","111","0","","","","","","",""
"","","","","","image-keyboard-response","131","481441","0.0-106.0","559e82dffdf99b7a9a124180","665500ab8938657b03fbdba8","6657926b8e2b4a710cb8a349","1296","stimuli/20101112.jpg"," ","","feedback_trial","2","","","","","","","","","","","","","","","","","","","","",""
"","","","","","image-keyboard-response","132","482400","0.0-107.0","559e82dffdf99b7a9a124180","665500ab8938657b03fbdba8","6657926b8e2b4a710cb8a349","955","stimuli/2010010.jpg","2","","prediction_trial","2","","true","","2","true","true","true","true","true","true","[2]","010","010","1","","","","","","",""
"","","","","","image-keyboard-response","133","483047","0.0-108.0","559e82dffdf99b7a9a124180","665500ab8938657b03fbdba8","6657926b8e2b4a710cb8a349","645","stimuli/20100102.jpg"," ","","feedback_trial","2","","","","","","","","","","","","","","","","","","","","",""
"","","","","","image-keyboard-response","134","483915","0.0-109.0","559e82dffdf99b7a9a124180","665500ab8938657b03fbdba8","6657926b8e2b4a710cb8a349","863","stimuli/2110000.jpg","2","","prediction_trial","2","","true","","2","true","true","true","true","true","true","[2]","110","000","1","","","","","","",""
"","","","","","image-keyboard-response","135","484460","0.0-110.0","559e82dffdf99b7a9a124180","665500ab8938657b03fbdba8","6657926b8e2b4a710cb8a349","544","stimuli/21100002.jpg"," ","","feedback_trial","2","","","","","","","","","","","","","","","","","","","","",""
"","","","","","image-keyboard-response","136","486128","0.0-111.0","559e82dffdf99b7a9a124180","665500ab8938657b03fbdba8","6657926b8e2b4a710cb8a349","1663","stimuli/2011000.jpg","2","","prediction_trial","1","","false","","2","true","true","false","false","false","false","[2,1]","011","000","0","","","","","","",""
"","","","","","image-keyboard-response","137","486697","0.0-112.0","559e82dffdf99b7a9a124180","665500ab8938657b03fbdba8","6657926b8e2b4a710cb8a349","565","stimuli/20110001.jpg"," ","","feedback_trial","2","","","","","","","","","","","","","","","","","","","","",""
"","","","","","image-keyboard-response","138","489160","0.0-113.0","559e82dffdf99b7a9a124180","665500ab8938657b03fbdba8","6657926b8e2b4a710cb8a349","2461","stimuli/1100111.jpg","0","","prediction_trial","1","","false","","1","false","false","true","true","false","false","[1]","100","111","0","","","","","","",""
"","","","","","image-keyboard-response","139","489763","0.0-114.0","559e82dffdf99b7a9a124180","665500ab8938657b03fbdba8","6657926b8e2b4a710cb8a349","601","stimuli/11001111.jpg"," ","","feedback_trial","1","","","","","","","","","","","","","","","","","","","","",""
"","","","","","image-keyboard-response","140","491278","0.0-115.0","559e82dffdf99b7a9a124180","665500ab8938657b03fbdba8","6657926b8e2b4a710cb8a349","1513","stimuli/0000101.jpg","0","","prediction_trial","0","","true","","0","false","false","true","true","false","false","[0]","000","101","1","","","","","","",""
"","","","","","image-keyboard-response","141","491919","0.0-116.0","559e82dffdf99b7a9a124180","665500ab8938657b03fbdba8","6657926b8e2b4a710cb8a349","639","stimuli/00001010.jpg"," ","","feedback_trial","0","","","","","","","","","","","","","","","","","","","","",""
"","","","","","image-keyboard-response","142","493557","0.0-117.0","559e82dffdf99b7a9a124180","665500ab8938657b03fbdba8","6657926b8e2b4a710cb8a349","1634","stimuli/0111011.jpg","0","","prediction_trial","0","","true","","0","true","true","false","false","false","false","[2,1,0]","111","011","1","","","","","","",""
"","","","","","image-keyboard-response","143","494180","0.0-118.0","559e82dffdf99b7a9a124180","665500ab8938657b03fbdba8","6657926b8e2b4a710cb8a349","619","stimuli/01110110.jpg"," ","","feedback_trial","2","","","","","","","","","","","","","","","","","","","","",""
"","","","","","image-keyboard-response","144","495197","0.0-119.0","559e82dffdf99b7a9a124180","665500ab8938657b03fbdba8","6657926b8e2b4a710cb8a349","1016","stimuli/0111000.jpg","0","","prediction_trial","1","","false","","0","true","true","false","false","false","false","[0,2,1]","111","000","0","","","","","","",""
"","","","","","image-keyboard-response","145","496012","0.0-120.0","559e82dffdf99b7a9a124180","665500ab8938657b03fbdba8","6657926b8e2b4a710cb8a349","811","stimuli/01110001.jpg"," ","","feedback_trial","0","","","","","","","","","","","","","","","","","","","","",""
"","","","","","image-keyboard-response","146","496981","0.0-121.0","559e82dffdf99b7a9a124180","665500ab8938657b03fbdba8","6657926b8e2b4a710cb8a349","964","stimuli/2010001.jpg","2","","prediction_trial","2","","true","","2","false","true","true","true","false","true","[2]","010","001","1","","","","","","",""
"","","","","","image-keyboard-response","147","497555","0.0-122.0","559e82dffdf99b7a9a124180","665500ab8938657b03fbdba8","6657926b8e2b4a710cb8a349","571","stimuli/20100012.jpg"," ","","feedback_trial","2","","","","","","","","","","","","","","","","","","","","",""
"","","","","","image-keyboard-response","148","498695","0.0-123.0","559e82dffdf99b7a9a124180","665500ab8938657b03fbdba8","6657926b8e2b4a710cb8a349","1136","stimuli/1111001.jpg","1","","prediction_trial","2","","false","","1","true","true","false","false","false","false","[2,0,1]","111","001","0","","","","","","",""
"","","","","","image-keyboard-response","149","499289","0.0-124.0","559e82dffdf99b7a9a124180","665500ab8938657b03fbdba8","6657926b8e2b4a710cb8a349","592","stimuli/11110012.jpg"," ","","feedback_trial","2","","","","","","","","","","","","","","","","","","","","",""
"","","","","","image-keyboard-response","150","500257","0.0-125.0","559e82dffdf99b7a9a124180","665500ab8938657b03fbdba8","6657926b8e2b4a710cb8a349","964","stimuli/2000001.jpg","2","","prediction_trial","2","","true","","2","false","true","true","true","false","true","[2]","000","001","1","","","","","","",""
"","","","","","image-keyboard-response","151","500831","0.0-126.0","559e82dffdf99b7a9a124180","665500ab8938657b03fbdba8","6657926b8e2b4a710cb8a349","569","stimuli/20000012.jpg"," ","","feedback_trial","2","","","","","","","","","","","","","","","","","","","","",""
"","","","","","image-keyboard-response","152","501736","0.0-127.0","559e82dffdf99b7a9a124180","665500ab8938657b03fbdba8","6657926b8e2b4a710cb8a349","904","stimuli/1010101.jpg","1","","prediction_trial","1","","true","","1","true","true","false","true","false","true","[1]","010","101","1","","","","","","",""
"","","","","","image-keyboard-response","153","502503","0.0-128.0","559e82dffdf99b7a9a124180","665500ab8938657b03fbdba8","6657926b8e2b4a710cb8a349","765","stimuli/10101011.jpg"," ","","feedback_trial","1","","","","","","","","","","","","","","","","","","","","",""
"","","","","","image-keyboard-response","154","503495","0.0-129.0","559e82dffdf99b7a9a124180","665500ab8938657b03fbdba8","6657926b8e2b4a710cb8a349","989","stimuli/2111111.jpg","0","","prediction_trial","1","","false","","2","false","false","false","false","false","false","[2,1,0]","111","111","0","","","","","","",""
"","","","","","image-keyboard-response","155","504111","0.0-130.0","559e82dffdf99b7a9a124180","665500ab8938657b03fbdba8","6657926b8e2b4a710cb8a349","612","stimuli/21111111.jpg"," ","","feedback_trial","2","","","","","","","","","","","","","","","","","","","","",""
"","","","","","image-keyboard-response","156","504831","0.0-131.0","559e82dffdf99b7a9a124180","665500ab8938657b03fbdba8","6657926b8e2b4a710cb8a349","716","stimuli/2001110.jpg","2","","prediction_trial","2","","true","","2","true","true","false","true","false","true","[2]","001","110","1","","","","","","",""
"","","","","","image-keyboard-response","157","505350","0.0-132.0","559e82dffdf99b7a9a124180","665500ab8938657b03fbdba8","6657926b8e2b4a710cb8a349","517","stimuli/20011102.jpg"," ","","feedback_trial","2","","","","","","","","","","","","","","","","","","","","",""
"","","","","","image-keyboard-response","158","506089","0.0-133.0","559e82dffdf99b7a9a124180","665500ab8938657b03fbdba8","6657926b8e2b4a710cb8a349","735","stimuli/1111100.jpg","1","","prediction_trial","0","","false","","1","true","true","false","false","false","false","[0,2,1]","111","100","0","","","","","","",""
"","","","","","image-keyboard-response","159","506606","0.0-134.0","559e82dffdf99b7a9a124180","665500ab8938657b03fbdba8","6657926b8e2b4a710cb8a349","513","stimuli/11111000.jpg"," ","","feedback_trial","0","","","","","","","","","","","","","","","","","","","","",""
"","","","","","image-keyboard-response","160","508313","0.0-135.0","559e82dffdf99b7a9a124180","665500ab8938657b03fbdba8","6657926b8e2b4a710cb8a349","1705","stimuli/2011101.jpg","0","","prediction_trial","2","","false","","2","false","false","false","false","false","false","[2,1]","011","101","0","","","","","","",""
"","","","","","image-keyboard-response","161","509498","0.0-136.0","559e82dffdf99b7a9a124180","665500ab8938657b03fbdba8","6657926b8e2b4a710cb8a349","1181","stimuli/20111012.jpg"," ","","feedback_trial","2","","","","","","","","","","","","","","","","","","","","",""
"","","","","","image-keyboard-response","162","510783","0.0-137.0","559e82dffdf99b7a9a124180","665500ab8938657b03fbdba8","6657926b8e2b4a710cb8a349","1284","stimuli/1001100.jpg","1","","prediction_trial","1","","true","","1","true","true","true","true","true","true","[1]","001","100","1","","","","","","",""
"","","","","","image-keyboard-response","163","511357","0.0-138.0","559e82dffdf99b7a9a124180","665500ab8938657b03fbdba8","6657926b8e2b4a710cb8a349","572","stimuli/10011001.jpg"," ","","feedback_trial","1","","","","","","","","","","","","","","","","","","","","",""
"","","","","","image-keyboard-response","164","512492","0.0-139.0","559e82dffdf99b7a9a124180","665500ab8938657b03fbdba8","6657926b8e2b4a710cb8a349","1131","stimuli/1000010.jpg","1","","prediction_trial","1","","true","","1","false","true","true","true","false","true","[1]","000","010","1","","","","","","",""
"","","","","","image-keyboard-response","165","512993","0.0-140.0","559e82dffdf99b7a9a124180","665500ab8938657b03fbdba8","6657926b8e2b4a710cb8a349","496","stimuli/10000101.jpg"," ","","feedback_trial","1","","","","","","","","","","","","","","","","","","","","",""
"","","","","","image-keyboard-response","166","515416","0.0-141.0","559e82dffdf99b7a9a124180","665500ab8938657b03fbdba8","6657926b8e2b4a710cb8a349","2410","stimuli/0010111.jpg","2","","prediction_trial","0","","false","","0","false","false","true","true","false","false","[0]","010","111","0","","","","","","",""
"","","","","","image-keyboard-response","167","516324","0.0-142.0","559e82dffdf99b7a9a124180","665500ab8938657b03fbdba8","6657926b8e2b4a710cb8a349","903","stimuli/00101110.jpg"," ","","feedback_trial","0","","","","","","","","","","","","","","","","","","","","",""
"","","","","","image-keyboard-response","168","517624","0.0-143.0","559e82dffdf99b7a9a124180","665500ab8938657b03fbdba8","6657926b8e2b4a710cb8a349","1296","stimuli/2110111.jpg","2","","prediction_trial","2","","true","","2","false","false","true","true","false","false","[2]","110","111","1","","","","","","",""
"","","","","","image-keyboard-response","169","518496","0.0-144.0","559e82dffdf99b7a9a124180","665500ab8938657b03fbdba8","6657926b8e2b4a710cb8a349","868","stimuli/21101112.jpg"," ","","feedback_trial","2","","","","","","","","","","","","","","","","","","","","",""
"","","","","","image-keyboard-response","170","519548","0.0-145.0","559e82dffdf99b7a9a124180","665500ab8938657b03fbdba8","6657926b8e2b4a710cb8a349","1049","stimuli/1011001.jpg","1","","prediction_trial","1","","true","","1","true","true","false","false","false","false","[2,1]","011","001","1","","","","","","",""
"","","","","","image-keyboard-response","171","520269","0.0-146.0","559e82dffdf99b7a9a124180","665500ab8938657b03fbdba8","6657926b8e2b4a710cb8a349","716","stimuli/10110011.jpg"," ","","feedback_trial","2","","","","","","","","","","","","","","","","","","","","",""
"","","","","","image-keyboard-response","172","521550","0.0-147.0","559e82dffdf99b7a9a124180","665500ab8938657b03fbdba8","6657926b8e2b4a710cb8a349","1277","stimuli/0110010.jpg","0","","prediction_trial","1","","false","","0","true","true","false","false","false","false","[1,0]","110","010","0","","","","","","",""
"","","","","","image-keyboard-response","173","522214","0.0-148.0","559e82dffdf99b7a9a124180","665500ab8938657b03fbdba8","6657926b8e2b4a710cb8a349","660","stimuli/01100101.jpg"," ","","feedback_trial","1","","","","","","","","","","","","","","","","","","","","",""
"","","","","","image-keyboard-response","174","523062","0.0-149.0","559e82dffdf99b7a9a124180","665500ab8938657b03fbdba8","6657926b8e2b4a710cb8a349","843","stimuli/0001001.jpg","0","","prediction_trial","0","","true","","0","true","true","true","true","true","true","[0]","001","001","1","","","","","","",""
"","","","","","image-keyboard-response","175","523705","0.0-150.0","559e82dffdf99b7a9a124180","665500ab8938657b03fbdba8","6657926b8e2b4a710cb8a349","639","stimuli/00010010.jpg"," ","","feedback_trial","0","","","","","","","","","","","","","","","","","","","","",""
"","","","","","image-keyboard-response","176","524486","0.0-151.0","559e82dffdf99b7a9a124180","665500ab8938657b03fbdba8","6657926b8e2b4a710cb8a349","779","stimuli/0001011.jpg","0","","prediction_trial","0","","true","","0","true","true","true","true","true","true","[0]","001","011","1","","","","","","",""
"","","","","","image-keyboard-response","177","525008","0.0-152.0","559e82dffdf99b7a9a124180","665500ab8938657b03fbdba8","6657926b8e2b4a710cb8a349","521","stimuli/00010110.jpg"," ","","feedback_trial","0","","","","","","","","","","","","","","","","","","","","",""
"","","","","","image-keyboard-response","178","525816","0.0-153.0","559e82dffdf99b7a9a124180","665500ab8938657b03fbdba8","6657926b8e2b4a710cb8a349","806","stimuli/1100100.jpg","1","","prediction_trial","1","","true","","1","true","true","true","true","true","true","[1]","100","100","1","","","","","","",""
"","","","","","image-keyboard-response","179","526433","0.0-154.0","559e82dffdf99b7a9a124180","665500ab8938657b03fbdba8","6657926b8e2b4a710cb8a349","615","stimuli/11001001.jpg"," ","","feedback_trial","1","","","","","","","","","","","","","","","","","","","","",""
"","","","","","image-keyboard-response","180","527565","0.0-155.0","559e82dffdf99b7a9a124180","665500ab8938657b03fbdba8","6657926b8e2b4a710cb8a349","1127","stimuli/2100011.jpg","2","","prediction_trial","2","","true","","2","false","false","true","true","false","false","[2]","100","011","1","","","","","","",""
"","","","","","image-keyboard-response","181","528232","0.0-156.0","559e82dffdf99b7a9a124180","665500ab8938657b03fbdba8","6657926b8e2b4a710cb8a349","665","stimuli/21000112.jpg"," ","","feedback_trial","2","","","","","","","","","","","","","","","","","","","","",""
"","","","","","image-keyboard-response","182","531808","0.0-157.0","559e82dffdf99b7a9a124180","665500ab8938657b03fbdba8","6657926b8e2b4a710cb8a349","3571","stimuli/1110111.jpg","2","","prediction_trial","0","","false","","1","false","false","false","false","false","false","[1,0]","110","111","0","","","","","","",""
"","","","","","image-keyboard-response","183","532346","0.0-158.0","559e82dffdf99b7a9a124180","665500ab8938657b03fbdba8","6657926b8e2b4a710cb8a349","536","stimuli/11101110.jpg"," ","","feedback_trial","1","","","","","","","","","","","","","","","","","","","","",""
"","","","","","image-keyboard-response","184","533118","0.0-159.0","559e82dffdf99b7a9a124180","665500ab8938657b03fbdba8","6657926b8e2b4a710cb8a349","768","stimuli/1011000.jpg","1","","prediction_trial","1","","true","","1","true","true","false","false","false","false","[2,1]","011","000","1","","","","","","",""
"","","","","","image-keyboard-response","185","533721","0.0-160.0","559e82dffdf99b7a9a124180","665500ab8938657b03fbdba8","6657926b8e2b4a710cb8a349","598","stimuli/10110001.jpg"," ","","feedback_trial","2","","","","","","","","","","","","","","","","","","","","",""
"","","","","","image-keyboard-response","186","534415","0.0-161.0","559e82dffdf99b7a9a124180","665500ab8938657b03fbdba8","6657926b8e2b4a710cb8a349","690","stimuli/0100011.jpg","0","","prediction_trial","0","","true","","0","true","true","false","true","false","true","[0]","100","011","1","","","","","","",""
"","","","","","image-keyboard-response","187","535008","0.0-162.0","559e82dffdf99b7a9a124180","665500ab8938657b03fbdba8","6657926b8e2b4a710cb8a349","589","stimuli/01000110.jpg"," ","","feedback_trial","0","","","","","","","","","","","","","","","","","","","","",""
"","","","","","image-keyboard-response","188","537906","0.0-163.0","559e82dffdf99b7a9a124180","665500ab8938657b03fbdba8","6657926b8e2b4a710cb8a349","2897","stimuli/2010011.jpg","1","","prediction_trial","2","","false","","2","false","false","true","true","false","false","[2]","010","011","0","","","","","","",""
"","","","","","image-keyboard-response","189","538661","0.0-164.0","559e82dffdf99b7a9a124180","665500ab8938657b03fbdba8","6657926b8e2b4a710cb8a349","751","stimuli/20100112.jpg"," ","","feedback_trial","2","","","","","","","","","","","","","","","","","","","","",""
"","","","","","image-keyboard-response","190","539532","0.0-165.0","559e82dffdf99b7a9a124180","665500ab8938657b03fbdba8","6657926b8e2b4a710cb8a349","869","stimuli/0011000.jpg","0","","prediction_trial","0","","true","","0","true","true","true","true","true","true","[0]","011","000","1","","","","","","",""
"","","","","","image-keyboard-response","191","540041","0.0-166.0","559e82dffdf99b7a9a124180","665500ab8938657b03fbdba8","6657926b8e2b4a710cb8a349","504","stimuli/00110000.jpg"," ","","feedback_trial","0","","","","","","","","","","","","","","","","","","","","",""
"","","","","","image-keyboard-response","192","541298","0.0-167.0","559e82dffdf99b7a9a124180","665500ab8938657b03fbdba8","6657926b8e2b4a710cb8a349","1254","stimuli/1000110.jpg","1","","prediction_trial","1","","true","","1","false","false","true","true","false","false","[1]","000","110","1","","","","","","",""
"","","","","","image-keyboard-response","193","541993","0.0-168.0","559e82dffdf99b7a9a124180","665500ab8938657b03fbdba8","6657926b8e2b4a710cb8a349","691","stimuli/10001101.jpg"," ","","feedback_trial","1","","","","","","","","","","","","","","","","","","","","",""
"","","","","","image-keyboard-response","194","543495","0.0-169.0","559e82dffdf99b7a9a124180","665500ab8938657b03fbdba8","6657926b8e2b4a710cb8a349","1499","stimuli/1100011.jpg","1","","prediction_trial","1","","true","","1","false","false","true","true","false","false","[1]","100","011","1","","","","","","",""
"","","","","","image-keyboard-response","195","544168","0.0-170.0","559e82dffdf99b7a9a124180","665500ab8938657b03fbdba8","6657926b8e2b4a710cb8a349","671","stimuli/11000111.jpg"," ","","feedback_trial","1","","","","","","","","","","","","","","","","","","","","",""
"","","","","","image-keyboard-response","196","545066","0.0-171.0","559e82dffdf99b7a9a124180","665500ab8938657b03fbdba8","6657926b8e2b4a710cb8a349","894","stimuli/0000011.jpg","0","","prediction_trial","0","","true","","0","true","true","true","true","true","true","[0]","000","011","1","","","","","","",""
"","","","","","image-keyboard-response","197","545583","0.0-172.0","559e82dffdf99b7a9a124180","665500ab8938657b03fbdba8","6657926b8e2b4a710cb8a349","512","stimuli/00000110.jpg"," ","","feedback_trial","0","","","","","","","","","","","","","","","","","","","","",""
"","","","","","image-keyboard-response","198","546915","0.0-173.0","559e82dffdf99b7a9a124180","665500ab8938657b03fbdba8","6657926b8e2b4a710cb8a349","1328","stimuli/0101101.jpg","2","","prediction_trial","2","","true","","0","false","false","false","false","false","false","[0,2]","101","101","1","","","","","","",""
"","","","","","image-keyboard-response","199","547908","0.0-174.0","559e82dffdf99b7a9a124180","665500ab8938657b03fbdba8","6657926b8e2b4a710cb8a349","992","stimuli/01011012.jpg"," ","","feedback_trial","0","","","","","","","","","","","","","","","","","","","","",""
"","","","","","image-keyboard-response","200","548866","0.0-175.0","559e82dffdf99b7a9a124180","665500ab8938657b03fbdba8","6657926b8e2b4a710cb8a349","954","stimuli/1111101.jpg","1","","prediction_trial","2","","false","","1","true","true","false","false","false","false","[0,2,1]","111","101","0","","","","","","",""
"","","","","","image-keyboard-response","201","549735","0.0-176.0","559e82dffdf99b7a9a124180","665500ab8938657b03fbdba8","6657926b8e2b4a710cb8a349","867","stimuli/11111012.jpg"," ","","feedback_trial","0","","","","","","","","","","","","","","","","","","","","",""
"","","","","","image-keyboard-response","202","552283","0.0-177.0","559e82dffdf99b7a9a124180","665500ab8938657b03fbdba8","6657926b8e2b4a710cb8a349","2544","stimuli/1100110.jpg","0","","prediction_trial","1","","false","","1","false","false","true","true","false","false","[1]","100","110","0","","","","","","",""
"","","","","","image-keyboard-response","203","552906","0.0-178.0","559e82dffdf99b7a9a124180","665500ab8938657b03fbdba8","6657926b8e2b4a710cb8a349","619","stimuli/11001101.jpg"," ","","feedback_trial","1","","","","","","","","","","","","","","","","","","","","",""
"","","","","","image-keyboard-response","204","553719","0.0-179.0","559e82dffdf99b7a9a124180","665500ab8938657b03fbdba8","6657926b8e2b4a710cb8a349","812","stimuli/2101000.jpg","2","","prediction_trial","0","","false","","2","true","true","false","false","false","false","[2,0]","101","000","0","","","","","","",""
"","","","","","image-keyboard-response","205","554185","0.0-180.0","559e82dffdf99b7a9a124180","665500ab8938657b03fbdba8","6657926b8e2b4a710cb8a349","462","stimuli/21010000.jpg"," ","","feedback_trial","2","","","","","","","","","","","","","","","","","","","","",""
"","","","","","image-keyboard-response","206","555385","0.0-181.0","559e82dffdf99b7a9a124180","665500ab8938657b03fbdba8","6657926b8e2b4a710cb8a349","1197","stimuli/0010110.jpg","0","","prediction_trial","0","","true","","0","false","false","true","true","false","false","[0]","010","110","1","","","","","","",""
"","","","","","image-keyboard-response","207","556450","0.0-182.0","559e82dffdf99b7a9a124180","665500ab8938657b03fbdba8","6657926b8e2b4a710cb8a349","1064","stimuli/00101100.jpg"," ","","feedback_trial","0","","","","","","","","","","","","","","","","","","","","",""
"","","","","","image-keyboard-response","208","557719","0.0-183.0","559e82dffdf99b7a9a124180","665500ab8938657b03fbdba8","6657926b8e2b4a710cb8a349","1267","stimuli/1110010.jpg","1","","prediction_trial","1","","true","","1","false","true","false","false","false","false","[0,1]","110","010","1","","","","","","",""
"","","","","","image-keyboard-response","209","558616","0.0-184.0","559e82dffdf99b7a9a124180","665500ab8938657b03fbdba8","6657926b8e2b4a710cb8a349","893","stimuli/11100101.jpg"," ","","feedback_trial","0","","","","","","","","","","","","","","","","","","","","",""
"","","","","","image-keyboard-response","210","559513","0.0-185.0","559e82dffdf99b7a9a124180","665500ab8938657b03fbdba8","6657926b8e2b4a710cb8a349","893","stimuli/1100001.jpg","1","","prediction_trial","1","","true","","1","true","true","true","true","true","true","[1]","100","001","1","","","","","","",""
"","","","","","image-keyboard-response","211","560064","0.0-186.0","559e82dffdf99b7a9a124180","665500ab8938657b03fbdba8","6657926b8e2b4a710cb8a349","547","stimuli/11000011.jpg"," ","","feedback_trial","1","","","","","","","","","","","","","","","","","","","","",""
"","","","","","image-keyboard-response","212","561545","0.0-187.0","559e82dffdf99b7a9a124180","665500ab8938657b03fbdba8","6657926b8e2b4a710cb8a349","1477","stimuli/2101111.jpg","1","","prediction_trial","2","","false","","2","false","false","false","false","false","false","[0,2]","101","111","0","","","","","","",""
"","","","","","image-keyboard-response","213","562290","0.0-188.0","559e82dffdf99b7a9a124180","665500ab8938657b03fbdba8","6657926b8e2b4a710cb8a349","740","stimuli/21011112.jpg"," ","","feedback_trial","0","","","","","","","","","","","","","","","","","","","","",""
"","","","","","image-keyboard-response","214","563883","0.0-189.0","559e82dffdf99b7a9a124180","665500ab8938657b03fbdba8","6657926b8e2b4a710cb8a349","1589","stimuli/2101101.jpg","2","","prediction_trial","2","","true","","2","false","false","false","false","false","false","[0,2]","101","101","1","","","","","","",""
"","","","","","image-keyboard-response","215","564582","0.0-190.0","559e82dffdf99b7a9a124180","665500ab8938657b03fbdba8","6657926b8e2b4a710cb8a349","695","stimuli/21011012.jpg"," ","","feedback_trial","0","","","","","","","","","","","","","","","","","","","","",""
"","","","","","image-keyboard-response","216","565263","0.0-191.0","559e82dffdf99b7a9a124180","665500ab8938657b03fbdba8","6657926b8e2b4a710cb8a349","678","stimuli/2110110.jpg","2","","prediction_trial","2","","true","","2","true","true","true","true","true","true","[2]","110","110","1","","","","","","",""
"","","","","","image-keyboard-response","217","565970","0.0-192.0","559e82dffdf99b7a9a124180","665500ab8938657b03fbdba8","6657926b8e2b4a710cb8a349","705","stimuli/21101102.jpg"," ","","feedback_trial","2","","","","","","","","","","","","","","","","","","","","",""
"","","","","","image-keyboard-response","218","567180","0.0-193.0","559e82dffdf99b7a9a124180","665500ab8938657b03fbdba8","6657926b8e2b4a710cb8a349","1205","stimuli/1000011.jpg","2","","prediction_trial","1","","false","","1","false","false","true","true","false","false","[1]","000","011","0","","","","","","",""
"","","","","","image-keyboard-response","219","568225","0.0-194.0","559e82dffdf99b7a9a124180","665500ab8938657b03fbdba8","6657926b8e2b4a710cb8a349","1043","stimuli/10000111.jpg"," ","","feedback_trial","1","","","","","","","","","","","","","","","","","","","","",""
"","","","","","image-keyboard-response","220","569518","0.0-195.0","559e82dffdf99b7a9a124180","665500ab8938657b03fbdba8","6657926b8e2b4a710cb8a349","1291","stimuli/1101111.jpg","1","","prediction_trial","1","","true","","1","false","false","true","true","false","false","[1]","101","111","1","","","","","","",""
"","","","","","image-keyboard-response","221","570322","0.0-196.0","559e82dffdf99b7a9a124180","665500ab8938657b03fbdba8","6657926b8e2b4a710cb8a349","802","stimuli/11011111.jpg"," ","","feedback_trial","1","","","","","","","","","","","","","","","","","","","","",""
"","","","","","image-keyboard-response","222","571340","0.0-197.0","559e82dffdf99b7a9a124180","665500ab8938657b03fbdba8","6657926b8e2b4a710cb8a349","1014","stimuli/2011110.jpg","2","","prediction_trial","1","","false","","2","true","true","false","false","false","false","[2,1]","011","110","0","","","","","","",""
"","","","","","image-keyboard-response","223","572158","0.0-198.0","559e82dffdf99b7a9a124180","665500ab8938657b03fbdba8","6657926b8e2b4a710cb8a349","813","stimuli/20111101.jpg"," ","","feedback_trial","2","","","","","","","","","","","","","","","","","","","","",""
"","","","","","image-keyboard-response","224","572851","0.0-199.0","559e82dffdf99b7a9a124180","665500ab8938657b03fbdba8","6657926b8e2b4a710cb8a349","689","stimuli/1110101.jpg","1","","prediction_trial","0","","false","","1","true","true","false","false","false","false","[1,0]","110","101","0","","","","","","",""
"","","","","","image-keyboard-response","225","573739","0.0-200.0","559e82dffdf99b7a9a124180","665500ab8938657b03fbdba8","6657926b8e2b4a710cb8a349","885","stimuli/11101010.jpg"," ","","feedback_trial","1","","","","","","","","","","","","","","","","","","","","",""
"","","","","","image-keyboard-response","226","575168","0.0-201.0","559e82dffdf99b7a9a124180","665500ab8938657b03fbdba8","6657926b8e2b4a710cb8a349","1424","stimuli/0110101.jpg","2","","prediction_trial","0","","false","","0","false","false","false","false","false","false","[0,1]","110","101","0","","","","","","",""
"","","","","","image-keyboard-response","227","575887","0.0-202.0","559e82dffdf99b7a9a124180","665500ab8938657b03fbdba8","6657926b8e2b4a710cb8a349","721","stimuli/01101010.jpg"," ","","feedback_trial","0","","","","","","","","","","","","","","","","","","","","",""
"","","","","","image-keyboard-response","228","576958","0.0-203.0","559e82dffdf99b7a9a124180","665500ab8938657b03fbdba8","6657926b8e2b4a710cb8a349","1067","stimuli/0000010.jpg","0","","prediction_trial","0","","true","","0","true","true","true","true","true","true","[0]","000","010","1","","","","","","",""
"","","","","","image-keyboard-response","229","577542","0.0-204.0","559e82dffdf99b7a9a124180","665500ab8938657b03fbdba8","6657926b8e2b4a710cb8a349","579","stimuli/00000100.jpg"," ","","feedback_trial","0","","","","","","","","","","","","","","","","","","","","",""
"","","","","","image-keyboard-response","230","578618","0.0-205.0","559e82dffdf99b7a9a124180","665500ab8938657b03fbdba8","6657926b8e2b4a710cb8a349","1073","stimuli/1011110.jpg","0","","prediction_trial","1","","false","","1","false","false","false","false","false","false","[1,2]","011","110","0","","","","","","",""
"","","","","","image-keyboard-response","231","579309","0.0-206.0","559e82dffdf99b7a9a124180","665500ab8938657b03fbdba8","6657926b8e2b4a710cb8a349","686","stimuli/10111101.jpg"," ","","feedback_trial","1","","","","","","","","","","","","","","","","","","","","",""
"","","","","","image-keyboard-response","232","580523","0.0-207.0","559e82dffdf99b7a9a124180","665500ab8938657b03fbdba8","6657926b8e2b4a710cb8a349","1210","stimuli/2010110.jpg","2","","prediction_trial","2","","true","","2","true","true","true","true","true","true","[2]","010","110","1","","","","","","",""
"","","","","","image-keyboard-response","233","581018","0.0-208.0","559e82dffdf99b7a9a124180","665500ab8938657b03fbdba8","6657926b8e2b4a710cb8a349","493","stimuli/20101102.jpg"," ","","feedback_trial","2","","","","","","","","","","","","","","","","","","","","",""
"","","","","","image-keyboard-response","234","583246","0.0-209.0","559e82dffdf99b7a9a124180","665500ab8938657b03fbdba8","6657926b8e2b4a710cb8a349","2223","stimuli/2011111.jpg","1","","prediction_trial","2","","false","","2","false","false","false","false","false","false","[1,2]","011","111","0","","","","","","",""
"","","","","","image-keyboard-response","235","584124","0.0-210.0","559e82dffdf99b7a9a124180","665500ab8938657b03fbdba8","6657926b8e2b4a710cb8a349","874","stimuli/20111112.jpg"," ","","feedback_trial","1","","","","","","","","","","","","","","","","","","","","",""
"","","","","","image-keyboard-response","236","584708","0.0-211.0","559e82dffdf99b7a9a124180","665500ab8938657b03fbdba8","6657926b8e2b4a710cb8a349","581","stimuli/1010001.jpg","1","","prediction_trial","1","","true","","1","true","true","false","true","false","true","[1]","010","001","1","","","","","","",""
"","","","","","image-keyboard-response","237","585410","0.0-212.0","559e82dffdf99b7a9a124180","665500ab8938657b03fbdba8","6657926b8e2b4a710cb8a349","698","stimuli/10100011.jpg"," ","","feedback_trial","1","","","","","","","","","","","","","","","","","","","","",""
"","","","","","image-keyboard-response","238","586074","0.0-213.0","559e82dffdf99b7a9a124180","665500ab8938657b03fbdba8","6657926b8e2b4a710cb8a349","659","stimuli/2000100.jpg","2","","prediction_trial","2","","true","","2","true","true","true","true","true","true","[2]","000","100","1","","","","","","",""
"","","","","","image-keyboard-response","239","586602","0.0-214.0","559e82dffdf99b7a9a124180","665500ab8938657b03fbdba8","6657926b8e2b4a710cb8a349","527","stimuli/20001002.jpg"," ","","feedback_trial","2","","","","","","","","","","","","","","","","","","","","",""
"","","","","","image-keyboard-response","240","587636","0.0-215.0","559e82dffdf99b7a9a124180","665500ab8938657b03fbdba8","6657926b8e2b4a710cb8a349","1029","stimuli/1111111.jpg","2","","prediction_trial","0","","false","","1","false","false","false","false","false","false","[0,2,1]","111","111","0","","","","","","",""
"","","","","","image-keyboard-response","241","588881","0.0-216.0","559e82dffdf99b7a9a124180","665500ab8938657b03fbdba8","6657926b8e2b4a710cb8a349","1240","stimuli/11111110.jpg"," ","","feedback_trial","0","","","","","","","","","","","","","","","","","","","","",""
"","","","","","image-keyboard-response","242","589553","0.0-217.0","559e82dffdf99b7a9a124180","665500ab8938657b03fbdba8","6657926b8e2b4a710cb8a349","668","stimuli/1100101.jpg","1","","prediction_trial","1","","true","","1","true","true","true","true","true","true","[1]","100","101","1","","","","","","",""
"","","","","","image-keyboard-response","243","590373","0.0-218.0","559e82dffdf99b7a9a124180","665500ab8938657b03fbdba8","6657926b8e2b4a710cb8a349","817","stimuli/11001011.jpg"," ","","feedback_trial","1","","","","","","","","","","","","","","","","","","","","",""
"","","","","","image-keyboard-response","244","591764","0.0-219.0","559e82dffdf99b7a9a124180","665500ab8938657b03fbdba8","6657926b8e2b4a710cb8a349","1389","stimuli/0100110.jpg","0","","prediction_trial","0","","true","","0","false","false","false","true","false","false","[0]","100","110","1","","","","","","",""
"","","","","","image-keyboard-response","245","592808","0.0-220.0","559e82dffdf99b7a9a124180","665500ab8938657b03fbdba8","6657926b8e2b4a710cb8a349","1042","stimuli/01001100.jpg"," ","","feedback_trial","0","","","","","","","","","","","","","","","","","","","","",""
"","","","","","image-keyboard-response","246","593540","0.0-221.0","559e82dffdf99b7a9a124180","665500ab8938657b03fbdba8","6657926b8e2b4a710cb8a349","729","stimuli/1001000.jpg","1","","prediction_trial","1","","true","","1","true","true","true","true","true","true","[1]","001","000","1","","","","","","",""
"","","","","","image-keyboard-response","247","594256","0.0-222.0","559e82dffdf99b7a9a124180","665500ab8938657b03fbdba8","6657926b8e2b4a710cb8a349","714","stimuli/10010001.jpg"," ","","feedback_trial","1","","","","","","","","","","","","","","","","","","","","",""
"","","","","","image-keyboard-response","248","595245","0.0-223.0","559e82dffdf99b7a9a124180","665500ab8938657b03fbdba8","6657926b8e2b4a710cb8a349","987","stimuli/2000011.jpg","1","","prediction_trial","2","","false","","2","false","false","true","true","false","false","[2]","000","011","0","","","","","","",""
"","","","","","image-keyboard-response","249","595998","0.0-224.0","559e82dffdf99b7a9a124180","665500ab8938657b03fbdba8","6657926b8e2b4a710cb8a349","748","stimuli/20000112.jpg"," ","","feedback_trial","2","","","","","","","","","","","","","","","","","","","","",""
"","","","","","image-keyboard-response","250","596725","0.0-225.0","559e82dffdf99b7a9a124180","665500ab8938657b03fbdba8","6657926b8e2b4a710cb8a349","726","stimuli/1000100.jpg","1","","prediction_trial","1","","true","","1","true","true","true","true","true","true","[1]","000","100","1","","","","","","",""
"","","","","","image-keyboard-response","251","597175","0.0-226.0","559e82dffdf99b7a9a124180","665500ab8938657b03fbdba8","6657926b8e2b4a710cb8a349","449","stimuli/10001001.jpg"," ","","feedback_trial","1","","","","","","","","","","","","","","","","","","","","",""
"","","","","","image-keyboard-response","252","598104","0.0-227.0","559e82dffdf99b7a9a124180","665500ab8938657b03fbdba8","6657926b8e2b4a710cb8a349","927","stimuli/2110011.jpg","2","","prediction_trial","2","","true","","2","false","false","true","true","false","false","[2]","110","011","1","","","","","","",""
"","","","","","image-keyboard-response","253","598887","0.0-228.0","559e82dffdf99b7a9a124180","665500ab8938657b03fbdba8","6657926b8e2b4a710cb8a349","780","stimuli/21100112.jpg"," ","","feedback_trial","2","","","","","","","","","","","","","","","","","","","","",""
"","","","","","image-keyboard-response","254","599657","0.0-229.0","559e82dffdf99b7a9a124180","665500ab8938657b03fbdba8","6657926b8e2b4a710cb8a349","766","stimuli/0111111.jpg","2","","prediction_trial","0","","false","","0","false","false","false","false","false","false","[2,1,0]","111","111","0","","","","","","",""
"","","","","","image-keyboard-response","255","600533","0.0-230.0","559e82dffdf99b7a9a124180","665500ab8938657b03fbdba8","6657926b8e2b4a710cb8a349","874","stimuli/01111110.jpg"," ","","feedback_trial","2","","","","","","","","","","","","","","","","","","","","",""
"","","","","","image-keyboard-response","256","601622","0.0-231.0","559e82dffdf99b7a9a124180","665500ab8938657b03fbdba8","6657926b8e2b4a710cb8a349","1084","stimuli/0110000.jpg","0","","prediction_trial","0","","true","","0","true","true","false","false","false","false","[1,0]","110","000","1","","","","","","",""
"","","","","","image-keyboard-response","257","602219","0.0-232.0","559e82dffdf99b7a9a124180","665500ab8938657b03fbdba8","6657926b8e2b4a710cb8a349","592","stimuli/01100000.jpg"," ","","feedback_trial","1","","","","","","","","","","","","","","","","","","","","",""
"","","","","","image-keyboard-response","258","603010","0.0-233.0","559e82dffdf99b7a9a124180","665500ab8938657b03fbdba8","6657926b8e2b4a710cb8a349","786","stimuli/2101110.jpg","2","","prediction_trial","2","","true","","2","true","true","false","false","false","false","[2,0]","101","110","1","","","","","","",""
"","","","","","image-keyboard-response","259","603473","0.0-234.0","559e82dffdf99b7a9a124180","665500ab8938657b03fbdba8","6657926b8e2b4a710cb8a349","461","stimuli/21011102.jpg"," ","","feedback_trial","2","","","","","","","","","","","","","","","","","","","","",""
"","","","","","image-keyboard-response","260","604158","0.0-235.0","559e82dffdf99b7a9a124180","665500ab8938657b03fbdba8","6657926b8e2b4a710cb8a349","684","stimuli/0010010.jpg","0","","prediction_trial","0","","true","","0","true","true","true","true","true","true","[0]","010","010","1","","","","","","",""
"","","","","","image-keyboard-response","261","604736","0.0-236.0","559e82dffdf99b7a9a124180","665500ab8938657b03fbdba8","6657926b8e2b4a710cb8a349","573","stimuli/00100100.jpg"," ","","feedback_trial","0","","","","","","","","","","","","","","","","","","","","",""
"","","","","","image-keyboard-response","262","606640","0.0-237.0","559e82dffdf99b7a9a124180","665500ab8938657b03fbdba8","6657926b8e2b4a710cb8a349","1899","stimuli/2100101.jpg","0","","prediction_trial","2","","false","","2","false","false","true","true","false","false","[2]","100","101","0","","","","","","",""
"","","","","","image-keyboard-response","263","607168","0.0-238.0","559e82dffdf99b7a9a124180","665500ab8938657b03fbdba8","6657926b8e2b4a710cb8a349","524","stimuli/21001012.jpg"," ","","feedback_trial","2","","","","","","","","","","","","","","","","","","","","",""
"","","","","","image-keyboard-response","264","608046","0.0-239.0","559e82dffdf99b7a9a124180","665500ab8938657b03fbdba8","6657926b8e2b4a710cb8a349","876","stimuli/0111100.jpg","0","","prediction_trial","1","","false","","0","false","true","false","false","false","false","[1,2,0]","111","100","0","","","","","","",""
"","","","","","image-keyboard-response","265","608799","0.0-240.0","559e82dffdf99b7a9a124180","665500ab8938657b03fbdba8","6657926b8e2b4a710cb8a349","749","stimuli/01111001.jpg"," ","","feedback_trial","1","","","","","","","","","","","","","","","","","","","","",""
"","","","","","image-keyboard-response","266","609710","0.0-241.0","559e82dffdf99b7a9a124180","665500ab8938657b03fbdba8","6657926b8e2b4a710cb8a349","906","stimuli/2001011.jpg","2","","prediction_trial","2","","true","","2","false","false","false","true","false","false","[2]","001","011","1","","","","","","",""
"","","","","","image-keyboard-response","267","610356","0.0-242.0","559e82dffdf99b7a9a124180","665500ab8938657b03fbdba8","6657926b8e2b4a710cb8a349","645","stimuli/20010112.jpg"," ","","feedback_trial","2","","","","","","","","","","","","","","","","","","","","",""
"","","","","","image-keyboard-response","268","611360","0.0-243.0","559e82dffdf99b7a9a124180","665500ab8938657b03fbdba8","6657926b8e2b4a710cb8a349","999","stimuli/1010011.jpg","1","","prediction_trial","1","","true","","1","false","false","false","true","false","false","[1]","010","011","1","","","","","","",""
"","","","","","image-keyboard-response","269","612015","0.0-244.0","559e82dffdf99b7a9a124180","665500ab8938657b03fbdba8","6657926b8e2b4a710cb8a349","653","stimuli/10100111.jpg"," ","","feedback_trial","1","","","","","","","","","","","","","","","","","","","","",""
"","","","","","image-keyboard-response","270","613827","0.0-245.0","559e82dffdf99b7a9a124180","665500ab8938657b03fbdba8","6657926b8e2b4a710cb8a349","1811","stimuli/0001111.jpg","2","","prediction_trial","0","","false","","0","false","false","true","true","false","false","[0]","001","111","0","","","","","","",""
"","","","","","image-keyboard-response","271","614559","0.0-246.0","559e82dffdf99b7a9a124180","665500ab8938657b03fbdba8","6657926b8e2b4a710cb8a349","730","stimuli/00011110.jpg"," ","","feedback_trial","0","","","","","","","","","","","","","","","","","","","","",""
"","","","","","image-keyboard-response","272","615641","0.0-247.0","559e82dffdf99b7a9a124180","665500ab8938657b03fbdba8","6657926b8e2b4a710cb8a349","1080","stimuli/0111101.jpg","2","","prediction_trial","2","","true","","0","false","false","false","false","false","false","[2,1,0]","111","101","1","","","","","","",""
"","","","","","image-keyboard-response","273","616302","0.0-248.0","559e82dffdf99b7a9a124180","665500ab8938657b03fbdba8","6657926b8e2b4a710cb8a349","659","stimuli/01111012.jpg"," ","","feedback_trial","2","","","","","","","","","","","","","","","","","","","","",""
"","","","","","image-keyboard-response","274","617339","0.0-249.0","559e82dffdf99b7a9a124180","665500ab8938657b03fbdba8","6657926b8e2b4a710cb8a349","1031","stimuli/1100010.jpg","1","","prediction_trial","1","","true","","1","false","true","true","true","false","true","[1]","100","010","1","","","","","","",""
"","","","","","image-keyboard-response","275","618060","0.0-250.0","559e82dffdf99b7a9a124180","665500ab8938657b03fbdba8","6657926b8e2b4a710cb8a349","715","stimuli/11000101.jpg"," ","","feedback_trial","1","","","","","","","","","","","","","","","","","","","","",""
"","","","","","image-keyboard-response","276","619287","0.0-251.0","559e82dffdf99b7a9a124180","665500ab8938657b03fbdba8","6657926b8e2b4a710cb8a349","1223","stimuli/0011101.jpg","0","","prediction_trial","0","","true","","0","false","false","true","true","false","false","[0]","011","101","1","","","","","","",""
"","","","","","image-keyboard-response","277","619929","0.0-252.0","559e82dffdf99b7a9a124180","665500ab8938657b03fbdba8","6657926b8e2b4a710cb8a349","637","stimuli/00111010.jpg"," ","","feedback_trial","0","","","","","","","","","","","","","","","","","","","","",""
"","","","","","image-keyboard-response","278","620638","0.0-253.0","559e82dffdf99b7a9a124180","665500ab8938657b03fbdba8","6657926b8e2b4a710cb8a349","708","stimuli/0011010.jpg","0","","prediction_trial","0","","true","","0","true","true","true","true","true","true","[0]","011","010","1","","","","","","",""
"","","","","","image-keyboard-response","279","621123","0.0-254.0","559e82dffdf99b7a9a124180","665500ab8938657b03fbdba8","6657926b8e2b4a710cb8a349","482","stimuli/00110100.jpg"," ","","feedback_trial","0","","","","","","","","","","","","","","","","","","","","",""
"","","","","","image-keyboard-response","280","622274","0.0-255.0","559e82dffdf99b7a9a124180","665500ab8938657b03fbdba8","6657926b8e2b4a710cb8a349","1149","stimuli/2100100.jpg","2","","prediction_trial","2","","true","","2","true","true","true","true","true","true","[2]","100","100","1","","","","","","",""
"","","","","","image-keyboard-response","281","622688","0.0-256.0","559e82dffdf99b7a9a124180","665500ab8938657b03fbdba8","6657926b8e2b4a710cb8a349","413","stimuli/21001002.jpg"," ","","feedback_trial","2","","","","","","","","","","","","","","","","","","","","",""
"","","","","","image-keyboard-response","282","623371","0.0-257.0","559e82dffdf99b7a9a124180","665500ab8938657b03fbdba8","6657926b8e2b4a710cb8a349","678","stimuli/1000001.jpg","1","","prediction_trial","1","","true","","1","true","true","true","true","true","true","[1]","000","001","1","","","","","","",""
"","","","","","image-keyboard-response","283","623840","0.0-258.0","559e82dffdf99b7a9a124180","665500ab8938657b03fbdba8","6657926b8e2b4a710cb8a349","465","stimuli/10000011.jpg"," ","","feedback_trial","1","","","","","","","","","","","","","","","","","","","","",""
"","","","","","image-keyboard-response","284","624479","0.0-259.0","559e82dffdf99b7a9a124180","665500ab8938657b03fbdba8","6657926b8e2b4a710cb8a349","635","stimuli/1101101.jpg","1","","prediction_trial","1","","true","","1","true","true","true","true","true","true","[1]","101","101","1","","","","","","",""
"","","","","","image-keyboard-response","285","624920","0.0-260.0","559e82dffdf99b7a9a124180","665500ab8938657b03fbdba8","6657926b8e2b4a710cb8a349","439","stimuli/11011011.jpg"," ","","feedback_trial","1","","","","","","","","","","","","","","","","","","","","",""
"","","","","","image-keyboard-response","286","625440","0.0-261.0","559e82dffdf99b7a9a124180","665500ab8938657b03fbdba8","6657926b8e2b4a710cb8a349","519","stimuli/1101100.jpg","1","","prediction_trial","1","","true","","1","true","true","true","true","true","true","[1]","101","100","1","","","","","","",""
"","","","","","image-keyboard-response","287","625879","0.0-262.0","559e82dffdf99b7a9a124180","665500ab8938657b03fbdba8","6657926b8e2b4a710cb8a349","437","stimuli/11011001.jpg"," ","","feedback_trial","1","","","","","","","","","","","","","","","","","","","","",""
"","","","","","image-keyboard-response","288","626680","0.0-263.0","559e82dffdf99b7a9a124180","665500ab8938657b03fbdba8","6657926b8e2b4a710cb8a349","795","stimuli/0011011.jpg","0","","prediction_trial","0","","true","","0","true","true","true","true","true","true","[0]","011","011","1","","","","","","",""
"","","","","","image-keyboard-response","289","627136","0.0-264.0","559e82dffdf99b7a9a124180","665500ab8938657b03fbdba8","6657926b8e2b4a710cb8a349","451","stimuli/00110110.jpg"," ","","feedback_trial","0","","","","","","","","","","","","","","","","","","","","",""
"","","","","","image-keyboard-response","290","628703","0.0-265.0","559e82dffdf99b7a9a124180","665500ab8938657b03fbdba8","6657926b8e2b4a710cb8a349","1565","stimuli/1001111.jpg","2","","prediction_trial","1","","false","","1","false","false","true","true","false","false","[1]","001","111","0","","","","","","",""
"","","","","","image-keyboard-response","291","629471","0.0-266.0","559e82dffdf99b7a9a124180","665500ab8938657b03fbdba8","6657926b8e2b4a710cb8a349","763","stimuli/10011111.jpg"," ","","feedback_trial","1","","","","","","","","","","","","","","","","","","","","",""
"","","","","","image-keyboard-response","292","630203","0.0-267.0","559e82dffdf99b7a9a124180","665500ab8938657b03fbdba8","6657926b8e2b4a710cb8a349","728","stimuli/2001100.jpg","2","","prediction_trial","2","","true","","2","true","true","false","true","false","true","[2]","001","100","1","","","","","","",""
"","","","","","image-keyboard-response","293","630608","0.0-268.0","559e82dffdf99b7a9a124180","665500ab8938657b03fbdba8","6657926b8e2b4a710cb8a349","403","stimuli/20011002.jpg"," ","","feedback_trial","2","","","","","","","","","","","","","","","","","","","","",""
"","","","","","image-keyboard-response","294","631400","0.0-269.0","559e82dffdf99b7a9a124180","665500ab8938657b03fbdba8","6657926b8e2b4a710cb8a349","790","stimuli/0001010.jpg","0","","prediction_trial","0","","true","","0","true","true","true","true","true","true","[0]","001","010","1","","","","","","",""
"","","","","","image-keyboard-response","295","631782","0.0-270.0","559e82dffdf99b7a9a124180","665500ab8938657b03fbdba8","6657926b8e2b4a710cb8a349","378","stimuli/00010100.jpg"," ","","feedback_trial","0","","","","","","","","","","","","","","","","","","","","",""
"","","","","","image-keyboard-response","296","633243","0.0-271.0","559e82dffdf99b7a9a124180","665500ab8938657b03fbdba8","6657926b8e2b4a710cb8a349","1460","stimuli/2001111.jpg","1","","prediction_trial","2","","false","","2","false","false","false","true","false","false","[2]","001","111","0","","","","","","",""
"","","","","","image-keyboard-response","297","633846","0.0-272.0","559e82dffdf99b7a9a124180","665500ab8938657b03fbdba8","6657926b8e2b4a710cb8a349","601","stimuli/20011112.jpg"," ","","feedback_trial","2","","","","","","","","","","","","","","","","","","","","",""
"","","","","","image-keyboard-response","298","635184","0.0-273.0","559e82dffdf99b7a9a124180","665500ab8938657b03fbdba8","6657926b8e2b4a710cb8a349","1337","stimuli/1111110.jpg","1","","prediction_trial","2","","false","","1","false","false","false","false","false","false","[1,2,0]","111","110","0","","","","","","",""
"","","","","","image-keyboard-response","299","635777","0.0-274.0","559e82dffdf99b7a9a124180","665500ab8938657b03fbdba8","6657926b8e2b4a710cb8a349","588","stimuli/11111102.jpg"," ","","feedback_trial","1","","","","","","","","","","","","","","","","","","","","",""
"","","","","","image-keyboard-response","300","636511","0.0-275.0","559e82dffdf99b7a9a124180","665500ab8938657b03fbdba8","6657926b8e2b4a710cb8a349","733","stimuli/2110100.jpg","2","","prediction_trial","2","","true","","2","true","true","true","true","true","true","[2]","110","100","1","","","","","","",""
"","","","","","image-keyboard-response","301","637074","0.0-276.0","559e82dffdf99b7a9a124180","665500ab8938657b03fbdba8","6657926b8e2b4a710cb8a349","559","stimuli/21101002.jpg"," ","","feedback_trial","2","","","","","","","","","","","","","","","","","","","","",""
"","","","","","image-keyboard-response","302","638482","0.0-277.0","559e82dffdf99b7a9a124180","665500ab8938657b03fbdba8","6657926b8e2b4a710cb8a349","1403","stimuli/2001001.jpg","2","","prediction_trial","2","","true","","2","false","true","false","true","false","true","[2]","001","001","1","","","","","","",""
"","","","","","image-keyboard-response","303","639056","0.0-278.0","559e82dffdf99b7a9a124180","665500ab8938657b03fbdba8","6657926b8e2b4a710cb8a349","572","stimuli/20010012.jpg"," ","","feedback_trial","2","","","","","","","","","","","","","","","","","","","","",""
"","","","","","image-keyboard-response","304","640411","0.0-279.0","559e82dffdf99b7a9a124180","665500ab8938657b03fbdba8","6657926b8e2b4a710cb8a349","1351","stimuli/0110100.jpg","0","","prediction_trial","0","","true","","0","false","true","false","false","false","false","[1,0]","110","100","1","","","","","","",""
"","","","","","image-keyboard-response","305","641550","0.0-280.0","559e82dffdf99b7a9a124180","665500ab8938657b03fbdba8","6657926b8e2b4a710cb8a349","1137","stimuli/01101000.jpg"," ","","feedback_trial","1","","","","","","","","","","","","","","","","","","","","",""
"","","","","","image-keyboard-response","306","642209","0.0-281.0","559e82dffdf99b7a9a124180","665500ab8938657b03fbdba8","6657926b8e2b4a710cb8a349","657","stimuli/1000101.jpg","1","","prediction_trial","1","","true","","1","true","true","true","true","true","true","[1]","000","101","1","","","","","","",""
"","","","","","image-keyboard-response","307","642729","0.0-282.0","559e82dffdf99b7a9a124180","665500ab8938657b03fbdba8","6657926b8e2b4a710cb8a349","516","stimuli/10001011.jpg"," ","","feedback_trial","1","","","","","","","","","","","","","","","","","","","","",""
"","","","","","image-keyboard-response","308","643545","0.0-283.0","559e82dffdf99b7a9a124180","665500ab8938657b03fbdba8","6657926b8e2b4a710cb8a349","813","stimuli/2111001.jpg","2","","prediction_trial","2","","true","","2","false","true","false","false","false","false","[2,0,1]","111","001","1","","","","","","",""
"","","","","","image-keyboard-response","309","644707","0.0-284.0","559e82dffdf99b7a9a124180","665500ab8938657b03fbdba8","6657926b8e2b4a710cb8a349","1158","stimuli/21110012.jpg"," ","","feedback_trial","2","","","","","","","","","","","","","","","","","","","","",""
"","","","","","image-keyboard-response","310","645379","0.0-285.0","559e82dffdf99b7a9a124180","665500ab8938657b03fbdba8","6657926b8e2b4a710cb8a349","671","stimuli/1001001.jpg","1","","prediction_trial","1","","true","","1","true","true","true","true","true","true","[1]","001","001","1","","","","","","",""
"","","","","","image-keyboard-response","311","646026","0.0-286.0","559e82dffdf99b7a9a124180","665500ab8938657b03fbdba8","6657926b8e2b4a710cb8a349","646","stimuli/10010011.jpg"," ","","feedback_trial","1","","","","","","","","","","","","","","","","","","","","",""
"","","","","","image-keyboard-response","312","647004","0.0-287.0","559e82dffdf99b7a9a124180","665500ab8938657b03fbdba8","6657926b8e2b4a710cb8a349","976","stimuli/1101001.jpg","1","","prediction_trial","1","","true","","1","true","true","true","true","true","true","[1]","101","001","1","","","","","","",""
"","","","","","image-keyboard-response","313","647573","0.0-288.0","559e82dffdf99b7a9a124180","665500ab8938657b03fbdba8","6657926b8e2b4a710cb8a349","565","stimuli/11010011.jpg"," ","","feedback_trial","1","","","","","","","","","","","","","","","","","","","","",""
"","","","","","image-keyboard-response","314","648842","0.0-289.0","559e82dffdf99b7a9a124180","665500ab8938657b03fbdba8","6657926b8e2b4a710cb8a349","1266","stimuli/0000100.jpg","0","","prediction_trial","0","","true","","0","false","true","true","true","false","true","[0]","000","100","1","","","","","","",""
"","","","","","image-keyboard-response","315","649341","0.0-290.0","559e82dffdf99b7a9a124180","665500ab8938657b03fbdba8","6657926b8e2b4a710cb8a349","494","stimuli/00001000.jpg"," ","","feedback_trial","0","","","","","","","","","","","","","","","","","","","","",""
"","","","","","image-keyboard-response","316","650107","0.0-291.0","559e82dffdf99b7a9a124180","665500ab8938657b03fbdba8","6657926b8e2b4a710cb8a349","761","stimuli/0111010.jpg","0","","prediction_trial","0","","true","","0","true","true","false","false","false","false","[0,2,1]","111","010","1","","","","","","",""
"","","","","","image-keyboard-response","317","650601","0.0-292.0","559e82dffdf99b7a9a124180","665500ab8938657b03fbdba8","6657926b8e2b4a710cb8a349","490","stimuli/01110100.jpg"," ","","feedback_trial","0","","","","","","","","","","","","","","","","","","","","",""
"","","","","","survey-html-form","318","702898","0.0-293.0","559e82dffdf99b7a9a124180","665500ab8938657b03fbdba8","6657926b8e2b4a710cb8a349","52287","","{""feedback"":""I just picked the obvious choice and guessed the ones that were hidden."",""age"":""48"",""gender"":""Female"",""other_gender"":"""",""race"":""White"",""other_race"":"""",""ethnicity"":""Hispanic""}","","exit_survey","","","","","","","","","","","","","","","","I just picked the obvious choice and guessed the ones that were hidden.","48","Hispanic","Female","White","0.6736111111111112","0.6736111111111112"
