"success","timeout","failed_images","failed_audio","failed_video","trial_type","trial_index","time_elapsed","internal_node_id","prolific_id","prolific_study_id","prolific_session_id","rt","stimulus","response","view_history","trial","character_choice","stimulus_dict","accuracy","correct_response","ball_pos","ego_ball_visible","ego_can_infer","alter_ball_visible","alter_can_infer","collective_ball_visible","collective_can_infer","search_locations","alter_occluders","ego_occluders","accuracy_bool","feedback","age","ethnicity","gender","race","overall_accuracy","bonus"
"true","false","[]","[]","[]","preload","0","3782","0.0-0.0","646619d0918746fb726da63e","665500ab8938657b03fbdba8","6657932c484b21aefc715b2e","","","","","","","","","","","","","","","","","","","","","","","","","","",""
"true","","","","","fullscreen","1","7447","0.0-1.0","646619d0918746fb726da63e","665500ab8938657b03fbdba8","6657932c484b21aefc715b2e","","","","","","","","","","","","","","","","","","","","","","","","","","",""
"","","","","","html-button-response","2","17270","0.0-2.0","646619d0918746fb726da63e","665500ab8938657b03fbdba8","6657932c484b21aefc715b2e","9821","<p><b>Consent Form</b></p> <div style=""text-align:left;background-color:lightgrey; padding:20px; max-width:900px;""><p>Please consider this information carefully before deciding whether to participate in this research.</p> <p>The purpose of this research is to examine which factors influence social judgment and decision-making. You will be asked to make judgements about individuals and actions in social scenarios. We are simply interested in your judgement. The study will take less than 1 hour to complete, and you will receive less than $20 on Prolific. Your compensation and time commitment are specified in the study description. There are no anticipated risks associated with participating in this study. The effects of participating should be comparable to those you would ordinarily experience from viewing a computer monitor and using a mouse or keyboard for a similar amount of time. At the end of the study, we will provide an explanation of the questions that motivate this line of research and will describe the potential implications. </p><p> Your participation in this study is completely voluntary and you may refuse to participate or you may choose to withdraw at any time without penalty or loss of benefits to you which are otherwise entitled. Your participation in this study will remain confidential. No personally identifiable information will be associated with your data. Also, all analyses of the data will be averaged across all the participants, so your individual responses will never be specifically analyzed. </p><p> If you have questions or concerns about your participation or payment, or want to request a summary of research findings, please contact Dr. Jonathan Phillips at Jonathan.S.Phillips@dartmouth.edu. </p><p> Please save a copy of this form for your records. </p><p><b>Agreement: </b>The nature and purpose of this research have been sufficiently explained and I agree to participate in this study. I understand that I am free to withdraw at any time without incurring any penalty. Please consent by clicking the button below to continue. Otherwise, please exit the study at any time. </p>","0","","","","","","","","","","","","","","","","","","","","","","","",""
"","","","","","instructions","3","139353","0.0-3.0-0.0","646619d0918746fb726da63e","665500ab8938657b03fbdba8","6657932c484b21aefc715b2e","122081","","","[{""page_index"":0,""viewing_time"":2782},{""page_index"":1,""viewing_time"":2818},{""page_index"":2,""viewing_time"":11409},{""page_index"":3,""viewing_time"":8679},{""page_index"":4,""viewing_time"":5046},{""page_index"":5,""viewing_time"":6094},{""page_index"":6,""viewing_time"":6132},{""page_index"":7,""viewing_time"":4123},{""page_index"":8,""viewing_time"":7825},{""page_index"":9,""viewing_time"":3513},{""page_index"":10,""viewing_time"":20531},{""page_index"":11,""viewing_time"":17611},{""page_index"":12,""viewing_time"":23698},{""page_index"":13,""viewing_time"":1819}]","intro","","","","","","","","","","","","","","","","","","","","","",""
"","","","","","image-keyboard-response","4","145389","0.0-3.0-1.0","646619d0918746fb726da63e","665500ab8938657b03fbdba8","6657932c484b21aefc715b2e","6030","stimuli/2001010.jpg","2","","prediction_practice","2","{""filepath"":""stimuli/2001010.jpg"",""ball_pos"":2,""ego_ball_visible"":true,""ego_can_infer"":true,""alter_ball_visible"":false,""alter_can_infer"":true,""collective_ball_visible"":false,""collective_can_infer"":true,""search_locations"":[2],""alter_occluders"":""001"",""ego_occluders"":""010""}","true","","","","","","","","","","","","","","","","","","",""
"","","","","","image-keyboard-response","5","147275","0.0-3.0-2.0","646619d0918746fb726da63e","665500ab8938657b03fbdba8","6657932c484b21aefc715b2e","1884","stimuli/20010102.jpg"," ","","practrice_feedback","2","","","","","","","","","","","","","","","","","","","","",""
"","","","","","image-keyboard-response","6","150426","0.0-3.0-3.0","646619d0918746fb726da63e","665500ab8938657b03fbdba8","6657932c484b21aefc715b2e","3149","stimuli/0001001.jpg","0","","prediction_practice","0","{""filepath"":""stimuli/0001001.jpg"",""ball_pos"":0,""ego_ball_visible"":true,""ego_can_infer"":true,""alter_ball_visible"":true,""alter_can_infer"":true,""collective_ball_visible"":true,""collective_can_infer"":true,""search_locations"":[0],""alter_occluders"":""001"",""ego_occluders"":""001""}","true","","","","","","","","","","","","","","","","","","",""
"","","","","","image-keyboard-response","7","151305","0.0-3.0-4.0","646619d0918746fb726da63e","665500ab8938657b03fbdba8","6657932c484b21aefc715b2e","878","stimuli/00010010.jpg"," ","","practrice_feedback","0","","","","","","","","","","","","","","","","","","","","",""
"","","","","","image-keyboard-response","8","154655","0.0-3.0-5.0","646619d0918746fb726da63e","665500ab8938657b03fbdba8","6657932c484b21aefc715b2e","3348","stimuli/1110110.jpg","1","","prediction_practice","0","{""filepath"":""stimuli/1110110.jpg"",""ball_pos"":1,""ego_ball_visible"":false,""ego_can_infer"":false,""alter_ball_visible"":false,""alter_can_infer"":false,""collective_ball_visible"":false,""collective_can_infer"":false,""search_locations"":[1,0],""alter_occluders"":""110"",""ego_occluders"":""110""}","false","","","","","","","","","","","","","","","","","","",""
"","","","","","image-keyboard-response","9","157995","0.0-3.0-6.0","646619d0918746fb726da63e","665500ab8938657b03fbdba8","6657932c484b21aefc715b2e","3339","stimuli/11101100.jpg"," ","","practrice_feedback","1","","","","","","","","","","","","","","","","","","","","",""
"","","","","","image-keyboard-response","10","160496","0.0-3.0-7.0","646619d0918746fb726da63e","665500ab8938657b03fbdba8","6657932c484b21aefc715b2e","2499","stimuli/0100000.jpg","0","","prediction_practice","0","{""filepath"":""stimuli/0100000.jpg"",""ball_pos"":0,""ego_ball_visible"":true,""ego_can_infer"":true,""alter_ball_visible"":false,""alter_can_infer"":true,""collective_ball_visible"":false,""collective_can_infer"":true,""search_locations"":[0],""alter_occluders"":""100"",""ego_occluders"":""000""}","true","","","","","","","","","","","","","","","","","","",""
"","","","","","image-keyboard-response","11","161475","0.0-3.0-8.0","646619d0918746fb726da63e","665500ab8938657b03fbdba8","6657932c484b21aefc715b2e","978","stimuli/01000000.jpg"," ","","practrice_feedback","0","","","","","","","","","","","","","","","","","","","","",""
"","","","","","image-keyboard-response","12","164785","0.0-3.0-9.0","646619d0918746fb726da63e","665500ab8938657b03fbdba8","6657932c484b21aefc715b2e","3309","stimuli/1011001.jpg","1","","prediction_practice","1","{""filepath"":""stimuli/1011001.jpg"",""ball_pos"":1,""ego_ball_visible"":true,""ego_can_infer"":true,""alter_ball_visible"":false,""alter_can_infer"":false,""collective_ball_visible"":false,""collective_can_infer"":false,""search_locations"":[1,2],""alter_occluders"":""011"",""ego_occluders"":""001""}","true","","","","","","","","","","","","","","","","","","",""
"","","","","","image-keyboard-response","13","166205","0.0-3.0-10.0","646619d0918746fb726da63e","665500ab8938657b03fbdba8","6657932c484b21aefc715b2e","1419","stimuli/10110011.jpg"," ","","practrice_feedback","1","","","","","","","","","","","","","","","","","","","","",""
"","","","","","image-keyboard-response","14","168185","0.0-3.0-11.0","646619d0918746fb726da63e","665500ab8938657b03fbdba8","6657932c484b21aefc715b2e","1979","stimuli/2110100.jpg","2","","prediction_practice","2","{""filepath"":""stimuli/2110100.jpg"",""ball_pos"":2,""ego_ball_visible"":true,""ego_can_infer"":true,""alter_ball_visible"":true,""alter_can_infer"":true,""collective_ball_visible"":true,""collective_can_infer"":true,""search_locations"":[2],""alter_occluders"":""110"",""ego_occluders"":""100""}","true","","","","","","","","","","","","","","","","","","",""
"","","","","","image-keyboard-response","15","169165","0.0-3.0-12.0","646619d0918746fb726da63e","665500ab8938657b03fbdba8","6657932c484b21aefc715b2e","979","stimuli/21101002.jpg"," ","","practrice_feedback","2","","","","","","","","","","","","","","","","","","","","",""
"","","","","","image-keyboard-response","16","170475","0.0-3.0-13.0","646619d0918746fb726da63e","665500ab8938657b03fbdba8","6657932c484b21aefc715b2e","1300","stimuli/2110010.jpg","2","","prediction_practice","2","{""filepath"":""stimuli/2110010.jpg"",""ball_pos"":2,""ego_ball_visible"":true,""ego_can_infer"":true,""alter_ball_visible"":true,""alter_can_infer"":true,""collective_ball_visible"":true,""collective_can_infer"":true,""search_locations"":[2],""alter_occluders"":""110"",""ego_occluders"":""010""}","true","","","","","","","","","","","","","","","","","","",""
"","","","","","image-keyboard-response","17","171065","0.0-3.0-14.0","646619d0918746fb726da63e","665500ab8938657b03fbdba8","6657932c484b21aefc715b2e","588","stimuli/21100102.jpg"," ","","practrice_feedback","2","","","","","","","","","","","","","","","","","","","","",""
"","","","","","image-keyboard-response","18","174435","0.0-3.0-15.0","646619d0918746fb726da63e","665500ab8938657b03fbdba8","6657932c484b21aefc715b2e","3369","stimuli/1101010.jpg","1","","prediction_practice","1","{""filepath"":""stimuli/1101010.jpg"",""ball_pos"":1,""ego_ball_visible"":false,""ego_can_infer"":true,""alter_ball_visible"":true,""alter_can_infer"":true,""collective_ball_visible"":false,""collective_can_infer"":true,""search_locations"":[1],""alter_occluders"":""101"",""ego_occluders"":""010""}","true","","","","","","","","","","","","","","","","","","",""
"","","","","","image-keyboard-response","19","175555","0.0-3.0-16.0","646619d0918746fb726da63e","665500ab8938657b03fbdba8","6657932c484b21aefc715b2e","1119","stimuli/11010101.jpg"," ","","practrice_feedback","1","","","","","","","","","","","","","","","","","","","","",""
"","","","","","image-keyboard-response","20","188666","0.0-3.0-17.0","646619d0918746fb726da63e","665500ab8938657b03fbdba8","6657932c484b21aefc715b2e","13109","stimuli/0011001.jpg","0","","prediction_practice","0","{""filepath"":""stimuli/0011001.jpg"",""ball_pos"":0,""ego_ball_visible"":true,""ego_can_infer"":true,""alter_ball_visible"":true,""alter_can_infer"":true,""collective_ball_visible"":true,""collective_can_infer"":true,""search_locations"":[0],""alter_occluders"":""011"",""ego_occluders"":""001""}","true","","","","","","","","","","","","","","","","","","",""
"","","","","","image-keyboard-response","21","190105","0.0-3.0-18.0","646619d0918746fb726da63e","665500ab8938657b03fbdba8","6657932c484b21aefc715b2e","1438","stimuli/00110010.jpg"," ","","practrice_feedback","0","","","","","","","","","","","","","","","","","","","","",""
"","","","","","image-keyboard-response","22","193056","0.0-3.0-19.0","646619d0918746fb726da63e","665500ab8938657b03fbdba8","6657932c484b21aefc715b2e","2950","stimuli/1111011.jpg","2","","prediction_practice","1","{""filepath"":""stimuli/1111011.jpg"",""ball_pos"":1,""ego_ball_visible"":false,""ego_can_infer"":false,""alter_ball_visible"":false,""alter_can_infer"":false,""collective_ball_visible"":false,""collective_can_infer"":false,""search_locations"":[2,0,1],""alter_occluders"":""111"",""ego_occluders"":""011""}","false","","","","","","","","","","","","","","","","","","",""
"","","","","","image-keyboard-response","23","194065","0.0-3.0-20.0","646619d0918746fb726da63e","665500ab8938657b03fbdba8","6657932c484b21aefc715b2e","1008","stimuli/11110111.jpg"," ","","practrice_feedback","2","","","","","","","","","","","","","","","","","","","","",""
"","","","","","html-button-response","24","198078","0.0-3.0-21.0","646619d0918746fb726da63e","665500ab8938657b03fbdba8","6657932c484b21aefc715b2e","4011","Now that you've had some practice, you'll be tested with a couple of easy trials. If you correctly predict Sam's choice, you'll move on to complete the experiment!","0","","","","","","","","","","","","","","","","","","","","","","","",""
"","","","","","image-keyboard-response","25","200485","0.0-3.0-22.0-0.0","646619d0918746fb726da63e","665500ab8938657b03fbdba8","6657932c484b21aefc715b2e","2406","stimuli/0000011.jpg","arrowleft","","comprehension_quiz","","","true","arrowleft","","","","","","","","","","","","","","","","","",""
"","","","","","image-keyboard-response","26","201516","0.0-3.0-22.0-1.0","646619d0918746fb726da63e","665500ab8938657b03fbdba8","6657932c484b21aefc715b2e","1029","stimuli/00000110.jpg"," ","","comprehension_quiz","","","true"," ","","","","","","","","","","","","","","","","","",""
"","","","","","image-keyboard-response","27","203745","0.0-3.0-22.0-2.0","646619d0918746fb726da63e","665500ab8938657b03fbdba8","6657932c484b21aefc715b2e","2228","stimuli/1010010.jpg","arrowdown","","comprehension_quiz","","","true","arrowdown","","","","","","","","","","","","","","","","","",""
"","","","","","image-keyboard-response","28","204596","0.0-3.0-22.0-3.0","646619d0918746fb726da63e","665500ab8938657b03fbdba8","6657932c484b21aefc715b2e","849","stimuli/10100101.jpg"," ","","comprehension_quiz","","","true"," ","","","","","","","","","","","","","","","","","",""
"","","","","","html-button-response","29","207001","0.0-4.0","646619d0918746fb726da63e","665500ab8938657b03fbdba8","6657932c484b21aefc715b2e","2402","The experiment will now begin.","0","","","","","","","","","","","","","","","","","","","","","","","",""
"","","","","","image-keyboard-response","30","208876","0.0-5.0","646619d0918746fb726da63e","665500ab8938657b03fbdba8","6657932c484b21aefc715b2e","1874","stimuli/1101001.jpg","1","","prediction_trial","1","","true","","1","true","true","true","true","true","true","[1]","101","001","1","","","","","","",""
"","","","","","image-keyboard-response","31","209745","0.0-6.0","646619d0918746fb726da63e","665500ab8938657b03fbdba8","6657932c484b21aefc715b2e","867","stimuli/11010011.jpg"," ","","feedback_trial","1","","","","","","","","","","","","","","","","","","","","",""
"","","","","","image-keyboard-response","32","216377","0.0-7.0","646619d0918746fb726da63e","665500ab8938657b03fbdba8","6657932c484b21aefc715b2e","6630","stimuli/2011010.jpg","2","","prediction_trial","1","","false","","2","true","true","false","false","false","false","[1,2]","011","010","0","","","","","","",""
"","","","","","image-keyboard-response","33","218736","0.0-8.0","646619d0918746fb726da63e","665500ab8938657b03fbdba8","6657932c484b21aefc715b2e","2358","stimuli/20110101.jpg"," ","","feedback_trial","1","","","","","","","","","","","","","","","","","","","","",""
"","","","","","image-keyboard-response","34","222076","0.0-9.0","646619d0918746fb726da63e","665500ab8938657b03fbdba8","6657932c484b21aefc715b2e","3339","stimuli/1111001.jpg","2","","prediction_trial","0","","false","","1","true","true","false","false","false","false","[0,1,2]","111","001","0","","","","","","",""
"","","","","","image-keyboard-response","35","223726","0.0-10.0","646619d0918746fb726da63e","665500ab8938657b03fbdba8","6657932c484b21aefc715b2e","1648","stimuli/11110010.jpg"," ","","feedback_trial","0","","","","","","","","","","","","","","","","","","","","",""
"","","","","","image-keyboard-response","36","226156","0.0-11.0","646619d0918746fb726da63e","665500ab8938657b03fbdba8","6657932c484b21aefc715b2e","2429","stimuli/2001110.jpg","2","","prediction_trial","2","","true","","2","true","true","false","true","false","true","[2]","001","110","1","","","","","","",""
"","","","","","image-keyboard-response","37","226886","0.0-12.0","646619d0918746fb726da63e","665500ab8938657b03fbdba8","6657932c484b21aefc715b2e","728","stimuli/20011102.jpg"," ","","feedback_trial","2","","","","","","","","","","","","","","","","","","","","",""
"","","","","","image-keyboard-response","38","228966","0.0-13.0","646619d0918746fb726da63e","665500ab8938657b03fbdba8","6657932c484b21aefc715b2e","2079","stimuli/1000010.jpg","1","","prediction_trial","1","","true","","1","false","true","true","true","false","true","[1]","000","010","1","","","","","","",""
"","","","","","image-keyboard-response","39","229566","0.0-14.0","646619d0918746fb726da63e","665500ab8938657b03fbdba8","6657932c484b21aefc715b2e","599","stimuli/10000101.jpg"," ","","feedback_trial","1","","","","","","","","","","","","","","","","","","","","",""
"","","","","","image-keyboard-response","40","232856","0.0-15.0","646619d0918746fb726da63e","665500ab8938657b03fbdba8","6657932c484b21aefc715b2e","3280","stimuli/2011100.jpg","2","","prediction_trial","1","","false","","2","true","true","false","false","false","false","[1,2]","011","100","0","","","","","","",""
"","","","","","image-keyboard-response","41","234006","0.0-16.0","646619d0918746fb726da63e","665500ab8938657b03fbdba8","6657932c484b21aefc715b2e","1149","stimuli/20111001.jpg"," ","","feedback_trial","1","","","","","","","","","","","","","","","","","","","","",""
"","","","","","image-keyboard-response","42","235816","0.0-17.0","646619d0918746fb726da63e","665500ab8938657b03fbdba8","6657932c484b21aefc715b2e","1808","stimuli/0010100.jpg","0","","prediction_trial","0","","true","","0","false","true","true","true","false","true","[0]","010","100","1","","","","","","",""
"","","","","","image-keyboard-response","43","236586","0.0-18.0","646619d0918746fb726da63e","665500ab8938657b03fbdba8","6657932c484b21aefc715b2e","769","stimuli/00101000.jpg"," ","","feedback_trial","0","","","","","","","","","","","","","","","","","","","","",""
"","","","","","image-keyboard-response","44","239036","0.0-19.0","646619d0918746fb726da63e","665500ab8938657b03fbdba8","6657932c484b21aefc715b2e","2449","stimuli/2111001.jpg","2","","prediction_trial","1","","false","","2","false","true","false","false","false","false","[0,2,1]","111","001","0","","","","","","",""
"","","","","","image-keyboard-response","45","240716","0.0-20.0","646619d0918746fb726da63e","665500ab8938657b03fbdba8","6657932c484b21aefc715b2e","1679","stimuli/21110011.jpg"," ","","feedback_trial","0","","","","","","","","","","","","","","","","","","","","",""
"","","","","","image-keyboard-response","46","245616","0.0-21.0","646619d0918746fb726da63e","665500ab8938657b03fbdba8","6657932c484b21aefc715b2e","4898","stimuli/0010110.jpg","1","","prediction_trial","0","","false","","0","false","false","true","true","false","false","[0]","010","110","0","","","","","","",""
"","","","","","image-keyboard-response","47","248456","0.0-22.0","646619d0918746fb726da63e","665500ab8938657b03fbdba8","6657932c484b21aefc715b2e","2839","stimuli/00101100.jpg"," ","","feedback_trial","0","","","","","","","","","","","","","","","","","","","","",""
"","","","","","image-keyboard-response","48","249667","0.0-23.0","646619d0918746fb726da63e","665500ab8938657b03fbdba8","6657932c484b21aefc715b2e","1209","stimuli/1001110.jpg","1","","prediction_trial","1","","true","","1","false","false","true","true","false","false","[1]","001","110","1","","","","","","",""
"","","","","","image-keyboard-response","49","250586","0.0-24.0","646619d0918746fb726da63e","665500ab8938657b03fbdba8","6657932c484b21aefc715b2e","918","stimuli/10011101.jpg"," ","","feedback_trial","1","","","","","","","","","","","","","","","","","","","","",""
"","","","","","image-keyboard-response","50","253556","0.0-25.0","646619d0918746fb726da63e","665500ab8938657b03fbdba8","6657932c484b21aefc715b2e","2968","stimuli/2101010.jpg","2","","prediction_trial","0","","false","","2","true","true","false","false","false","false","[2,0]","101","010","0","","","","","","",""
"","","","","","image-keyboard-response","51","254220","0.0-26.0","646619d0918746fb726da63e","665500ab8938657b03fbdba8","6657932c484b21aefc715b2e","662","stimuli/21010100.jpg"," ","","feedback_trial","2","","","","","","","","","","","","","","","","","","","","",""
"","","","","","image-keyboard-response","52","255846","0.0-27.0","646619d0918746fb726da63e","665500ab8938657b03fbdba8","6657932c484b21aefc715b2e","1625","stimuli/2000111.jpg","1","","prediction_trial","2","","false","","2","false","false","true","true","false","false","[2]","000","111","0","","","","","","",""
"","","","","","image-keyboard-response","53","256624","0.0-28.0","646619d0918746fb726da63e","665500ab8938657b03fbdba8","6657932c484b21aefc715b2e","790","stimuli/20001112.jpg"," ","","feedback_trial","2","","","","","","","","","","","","","","","","","","","","",""
"","","","","","image-keyboard-response","54","257693","0.0-29.0","646619d0918746fb726da63e","665500ab8938657b03fbdba8","6657932c484b21aefc715b2e","1067","stimuli/0010011.jpg","0","","prediction_trial","0","","true","","0","true","true","true","true","true","true","[0]","010","011","1","","","","","","",""
"","","","","","image-keyboard-response","55","258183","0.0-30.0","646619d0918746fb726da63e","665500ab8938657b03fbdba8","6657932c484b21aefc715b2e","489","stimuli/00100110.jpg"," ","","feedback_trial","0","","","","","","","","","","","","","","","","","","","","",""
"","","","","","image-keyboard-response","56","260803","0.0-31.0","646619d0918746fb726da63e","665500ab8938657b03fbdba8","6657932c484b21aefc715b2e","2619","stimuli/1011111.jpg","1","","prediction_trial","1","","true","","1","false","false","false","false","false","false","[1,2]","011","111","1","","","","","","",""
"","","","","","image-keyboard-response","57","261923","0.0-32.0","646619d0918746fb726da63e","665500ab8938657b03fbdba8","6657932c484b21aefc715b2e","1118","stimuli/10111111.jpg"," ","","feedback_trial","1","","","","","","","","","","","","","","","","","","","","",""
"","","","","","image-keyboard-response","58","266753","0.0-33.0","646619d0918746fb726da63e","665500ab8938657b03fbdba8","6657932c484b21aefc715b2e","4829","stimuli/1011110.jpg","1","","prediction_trial","2","","false","","1","false","false","false","false","false","false","[1,2]","011","110","0","","","","","","",""
"","","","","","image-keyboard-response","59","267573","0.0-34.0","646619d0918746fb726da63e","665500ab8938657b03fbdba8","6657932c484b21aefc715b2e","819","stimuli/10111102.jpg"," ","","feedback_trial","1","","","","","","","","","","","","","","","","","","","","",""
"","","","","","image-keyboard-response","60","270333","0.0-35.0","646619d0918746fb726da63e","665500ab8938657b03fbdba8","6657932c484b21aefc715b2e","2759","stimuli/2101110.jpg","2","","prediction_trial","2","","true","","2","true","true","false","false","false","false","[2,0]","101","110","1","","","","","","",""
"","","","","","image-keyboard-response","61","271013","0.0-36.0","646619d0918746fb726da63e","665500ab8938657b03fbdba8","6657932c484b21aefc715b2e","679","stimuli/21011102.jpg"," ","","feedback_trial","2","","","","","","","","","","","","","","","","","","","","",""
"","","","","","image-keyboard-response","62","272783","0.0-37.0","646619d0918746fb726da63e","665500ab8938657b03fbdba8","6657932c484b21aefc715b2e","1767","stimuli/0100101.jpg","2","","prediction_trial","0","","false","","0","false","false","false","true","false","false","[0]","100","101","0","","","","","","",""
"","","","","","image-keyboard-response","63","273543","0.0-38.0","646619d0918746fb726da63e","665500ab8938657b03fbdba8","6657932c484b21aefc715b2e","758","stimuli/01001010.jpg"," ","","feedback_trial","0","","","","","","","","","","","","","","","","","","","","",""
"","","","","","image-keyboard-response","64","274893","0.0-39.0","646619d0918746fb726da63e","665500ab8938657b03fbdba8","6657932c484b21aefc715b2e","1349","stimuli/0101001.jpg","0","","prediction_trial","0","","true","","0","true","true","false","false","false","false","[2,0]","101","001","1","","","","","","",""
"","","","","","image-keyboard-response","65","275733","0.0-40.0","646619d0918746fb726da63e","665500ab8938657b03fbdba8","6657932c484b21aefc715b2e","838","stimuli/01010010.jpg"," ","","feedback_trial","2","","","","","","","","","","","","","","","","","","","","",""
"","","","","","image-keyboard-response","66","278062","0.0-41.0","646619d0918746fb726da63e","665500ab8938657b03fbdba8","6657932c484b21aefc715b2e","2328","stimuli/2101011.jpg","2","","prediction_trial","2","","true","","2","false","false","false","false","false","false","[2,0]","101","011","1","","","","","","",""
"","","","","","image-keyboard-response","67","279442","0.0-42.0","646619d0918746fb726da63e","665500ab8938657b03fbdba8","6657932c484b21aefc715b2e","1379","stimuli/21010112.jpg"," ","","feedback_trial","2","","","","","","","","","","","","","","","","","","","","",""
"","","","","","image-keyboard-response","68","280943","0.0-43.0","646619d0918746fb726da63e","665500ab8938657b03fbdba8","6657932c484b21aefc715b2e","1499","stimuli/1110001.jpg","1","","prediction_trial","1","","true","","1","true","true","false","false","false","false","[0,1]","110","001","1","","","","","","",""
"","","","","","image-keyboard-response","69","281553","0.0-44.0","646619d0918746fb726da63e","665500ab8938657b03fbdba8","6657932c484b21aefc715b2e","609","stimuli/11100011.jpg"," ","","feedback_trial","0","","","","","","","","","","","","","","","","","","","","",""
"","","","","","image-keyboard-response","70","282633","0.0-45.0","646619d0918746fb726da63e","665500ab8938657b03fbdba8","6657932c484b21aefc715b2e","1078","stimuli/1100100.jpg","1","","prediction_trial","1","","true","","1","true","true","true","true","true","true","[1]","100","100","1","","","","","","",""
"","","","","","image-keyboard-response","71","283312","0.0-46.0","646619d0918746fb726da63e","665500ab8938657b03fbdba8","6657932c484b21aefc715b2e","678","stimuli/11001001.jpg"," ","","feedback_trial","1","","","","","","","","","","","","","","","","","","","","",""
"","","","","","image-keyboard-response","72","284492","0.0-47.0","646619d0918746fb726da63e","665500ab8938657b03fbdba8","6657932c484b21aefc715b2e","1179","stimuli/1101100.jpg","1","","prediction_trial","1","","true","","1","true","true","true","true","true","true","[1]","101","100","1","","","","","","",""
"","","","","","image-keyboard-response","73","285043","0.0-48.0","646619d0918746fb726da63e","665500ab8938657b03fbdba8","6657932c484b21aefc715b2e","549","stimuli/11011001.jpg"," ","","feedback_trial","1","","","","","","","","","","","","","","","","","","","","",""
"","","","","","image-keyboard-response","74","286773","0.0-49.0","646619d0918746fb726da63e","665500ab8938657b03fbdba8","6657932c484b21aefc715b2e","1728","stimuli/2100011.jpg","1","","prediction_trial","2","","false","","2","false","false","true","true","false","false","[2]","100","011","0","","","","","","",""
"","","","","","image-keyboard-response","75","287486","0.0-50.0","646619d0918746fb726da63e","665500ab8938657b03fbdba8","6657932c484b21aefc715b2e","709","stimuli/21000112.jpg"," ","","feedback_trial","2","","","","","","","","","","","","","","","","","","","","",""
"","","","","","image-keyboard-response","76","288623","0.0-51.0","646619d0918746fb726da63e","665500ab8938657b03fbdba8","6657932c484b21aefc715b2e","1136","stimuli/0010010.jpg","0","","prediction_trial","0","","true","","0","true","true","true","true","true","true","[0]","010","010","1","","","","","","",""
"","","","","","image-keyboard-response","77","289063","0.0-52.0","646619d0918746fb726da63e","665500ab8938657b03fbdba8","6657932c484b21aefc715b2e","438","stimuli/00100100.jpg"," ","","feedback_trial","0","","","","","","","","","","","","","","","","","","","","",""
"","","","","","image-keyboard-response","78","290803","0.0-53.0","646619d0918746fb726da63e","665500ab8938657b03fbdba8","6657932c484b21aefc715b2e","1739","stimuli/0101000.jpg","0","","prediction_trial","0","","true","","0","true","true","false","false","false","false","[2,0]","101","000","1","","","","","","",""
"","","","","","image-keyboard-response","79","291533","0.0-54.0","646619d0918746fb726da63e","665500ab8938657b03fbdba8","6657932c484b21aefc715b2e","729","stimuli/01010000.jpg"," ","","feedback_trial","2","","","","","","","","","","","","","","","","","","","","",""
"","","","","","image-keyboard-response","80","292823","0.0-55.0","646619d0918746fb726da63e","665500ab8938657b03fbdba8","6657932c484b21aefc715b2e","1289","stimuli/2101100.jpg","2","","prediction_trial","2","","true","","2","true","true","false","false","false","false","[2,0]","101","100","1","","","","","","",""
"","","","","","image-keyboard-response","81","293363","0.0-56.0","646619d0918746fb726da63e","665500ab8938657b03fbdba8","6657932c484b21aefc715b2e","538","stimuli/21011002.jpg"," ","","feedback_trial","2","","","","","","","","","","","","","","","","","","","","",""
"","","","","","image-keyboard-response","82","295913","0.0-57.0","646619d0918746fb726da63e","665500ab8938657b03fbdba8","6657932c484b21aefc715b2e","2548","stimuli/2001011.jpg","2","","prediction_trial","2","","true","","2","false","false","false","true","false","false","[2]","001","011","1","","","","","","",""
"","","","","","image-keyboard-response","83","296773","0.0-58.0","646619d0918746fb726da63e","665500ab8938657b03fbdba8","6657932c484b21aefc715b2e","859","stimuli/20010112.jpg"," ","","feedback_trial","2","","","","","","","","","","","","","","","","","","","","",""
"","","","","","image-keyboard-response","84","298003","0.0-59.0","646619d0918746fb726da63e","665500ab8938657b03fbdba8","6657932c484b21aefc715b2e","1222","stimuli/0011110.jpg","1","","prediction_trial","0","","false","","0","false","false","true","true","false","false","[0]","011","110","0","","","","","","",""
"","","","","","image-keyboard-response","85","298772","0.0-60.0","646619d0918746fb726da63e","665500ab8938657b03fbdba8","6657932c484b21aefc715b2e","768","stimuli/00111100.jpg"," ","","feedback_trial","0","","","","","","","","","","","","","","","","","","","","",""
"","","","","","image-keyboard-response","86","302613","0.0-61.0","646619d0918746fb726da63e","665500ab8938657b03fbdba8","6657932c484b21aefc715b2e","3839","stimuli/1001010.jpg","1","","prediction_trial","1","","true","","1","false","true","true","true","false","true","[1]","001","010","1","","","","","","",""
"","","","","","image-keyboard-response","87","303163","0.0-62.0","646619d0918746fb726da63e","665500ab8938657b03fbdba8","6657932c484b21aefc715b2e","549","stimuli/10010101.jpg"," ","","feedback_trial","1","","","","","","","","","","","","","","","","","","","","",""
"","","","","","image-keyboard-response","88","314043","0.0-63.0","646619d0918746fb726da63e","665500ab8938657b03fbdba8","6657932c484b21aefc715b2e","10879","stimuli/0011111.jpg","1","","prediction_trial","0","","false","","0","false","false","true","true","false","false","[0]","011","111","0","","","","","","",""
"","","","","","image-keyboard-response","89","316746","0.0-64.0","646619d0918746fb726da63e","665500ab8938657b03fbdba8","6657932c484b21aefc715b2e","2688","stimuli/00111110.jpg"," ","","feedback_trial","0","","","","","","","","","","","","","","","","","","","","",""
"","","","","","image-keyboard-response","90","319705","0.0-65.0","646619d0918746fb726da63e","665500ab8938657b03fbdba8","6657932c484b21aefc715b2e","2957","stimuli/0000011.jpg","1","","prediction_trial","0","","false","","0","true","true","true","true","true","true","[0]","000","011","0","","","","","","",""
"","","","","","image-keyboard-response","91","321066","0.0-66.0","646619d0918746fb726da63e","665500ab8938657b03fbdba8","6657932c484b21aefc715b2e","1355","stimuli/00000110.jpg"," ","","feedback_trial","0","","","","","","","","","","","","","","","","","","","","",""
"","","","","","image-keyboard-response","92","321985","0.0-67.0","646619d0918746fb726da63e","665500ab8938657b03fbdba8","6657932c484b21aefc715b2e","918","stimuli/2100100.jpg","2","","prediction_trial","2","","true","","2","true","true","true","true","true","true","[2]","100","100","1","","","","","","",""
"","","","","","image-keyboard-response","93","322685","0.0-68.0","646619d0918746fb726da63e","665500ab8938657b03fbdba8","6657932c484b21aefc715b2e","698","stimuli/21001002.jpg"," ","","feedback_trial","2","","","","","","","","","","","","","","","","","","","","",""
"","","","","","image-keyboard-response","94","324816","0.0-69.0","646619d0918746fb726da63e","665500ab8938657b03fbdba8","6657932c484b21aefc715b2e","2128","stimuli/2001111.jpg","2","","prediction_trial","2","","true","","2","false","false","false","true","false","false","[2]","001","111","1","","","","","","",""
"","","","","","image-keyboard-response","95","325486","0.0-70.0","646619d0918746fb726da63e","665500ab8938657b03fbdba8","6657932c484b21aefc715b2e","667","stimuli/20011112.jpg"," ","","feedback_trial","2","","","","","","","","","","","","","","","","","","","","",""
"","","","","","image-keyboard-response","96","326336","0.0-71.0","646619d0918746fb726da63e","665500ab8938657b03fbdba8","6657932c484b21aefc715b2e","848","stimuli/2100110.jpg","2","","prediction_trial","2","","true","","2","true","true","true","true","true","true","[2]","100","110","1","","","","","","",""
"","","","","","image-keyboard-response","97","327556","0.0-72.0","646619d0918746fb726da63e","665500ab8938657b03fbdba8","6657932c484b21aefc715b2e","1218","stimuli/21001102.jpg"," ","","feedback_trial","2","","","","","","","","","","","","","","","","","","","","",""
"","","","","","image-keyboard-response","98","330046","0.0-73.0","646619d0918746fb726da63e","665500ab8938657b03fbdba8","6657932c484b21aefc715b2e","2488","stimuli/2111101.jpg","0","","prediction_trial","0","","true","","2","false","false","false","false","false","false","[2,1,0]","111","101","1","","","","","","",""
"","","","","","image-keyboard-response","99","330686","0.0-74.0","646619d0918746fb726da63e","665500ab8938657b03fbdba8","6657932c484b21aefc715b2e","638","stimuli/21111010.jpg"," ","","feedback_trial","2","","","","","","","","","","","","","","","","","","","","",""
"","","","","","image-keyboard-response","100","332595","0.0-75.0","646619d0918746fb726da63e","665500ab8938657b03fbdba8","6657932c484b21aefc715b2e","1907","stimuli/1110101.jpg","0","","prediction_trial","1","","false","","1","true","true","false","false","false","false","[0,1]","110","101","0","","","","","","",""
"","","","","","image-keyboard-response","101","333525","0.0-76.0","646619d0918746fb726da63e","665500ab8938657b03fbdba8","6657932c484b21aefc715b2e","928","stimuli/11101011.jpg"," ","","feedback_trial","0","","","","","","","","","","","","","","","","","","","","",""
"","","","","","image-keyboard-response","102","336526","0.0-77.0","646619d0918746fb726da63e","665500ab8938657b03fbdba8","6657932c484b21aefc715b2e","2999","stimuli/0000111.jpg","1","","prediction_trial","0","","false","","0","false","false","true","true","false","false","[0]","000","111","0","","","","","","",""
"","","","","","image-keyboard-response","103","337336","0.0-78.0","646619d0918746fb726da63e","665500ab8938657b03fbdba8","6657932c484b21aefc715b2e","807","stimuli/00001110.jpg"," ","","feedback_trial","0","","","","","","","","","","","","","","","","","","","","",""
"","","","","","image-keyboard-response","104","338376","0.0-79.0","646619d0918746fb726da63e","665500ab8938657b03fbdba8","6657932c484b21aefc715b2e","1038","stimuli/0000000.jpg","0","","prediction_trial","0","","true","","0","true","true","true","true","true","true","[0]","000","000","1","","","","","","",""
"","","","","","image-keyboard-response","105","339065","0.0-80.0","646619d0918746fb726da63e","665500ab8938657b03fbdba8","6657932c484b21aefc715b2e","688","stimuli/00000000.jpg"," ","","feedback_trial","0","","","","","","","","","","","","","","","","","","","","",""
"","","","","","image-keyboard-response","106","340096","0.0-81.0","646619d0918746fb726da63e","665500ab8938657b03fbdba8","6657932c484b21aefc715b2e","1028","stimuli/1000111.jpg","0","","prediction_trial","1","","false","","1","false","false","true","true","false","false","[1]","000","111","0","","","","","","",""
"","","","","","image-keyboard-response","107","340896","0.0-82.0","646619d0918746fb726da63e","665500ab8938657b03fbdba8","6657932c484b21aefc715b2e","798","stimuli/10001111.jpg"," ","","feedback_trial","1","","","","","","","","","","","","","","","","","","","","",""
"","","","","","image-keyboard-response","108","341845","0.0-83.0","646619d0918746fb726da63e","665500ab8938657b03fbdba8","6657932c484b21aefc715b2e","948","stimuli/1000101.jpg","1","","prediction_trial","1","","true","","1","true","true","true","true","true","true","[1]","000","101","1","","","","","","",""
"","","","","","image-keyboard-response","109","342686","0.0-84.0","646619d0918746fb726da63e","665500ab8938657b03fbdba8","6657932c484b21aefc715b2e","838","stimuli/10001011.jpg"," ","","feedback_trial","1","","","","","","","","","","","","","","","","","","","","",""
"","","","","","image-keyboard-response","110","344785","0.0-85.0","646619d0918746fb726da63e","665500ab8938657b03fbdba8","6657932c484b21aefc715b2e","2097","stimuli/0110010.jpg","0","","prediction_trial","1","","false","","0","true","true","false","false","false","false","[0,1]","110","010","0","","","","","","",""
"","","","","","image-keyboard-response","111","345585","0.0-86.0","646619d0918746fb726da63e","665500ab8938657b03fbdba8","6657932c484b21aefc715b2e","798","stimuli/01100101.jpg"," ","","feedback_trial","0","","","","","","","","","","","","","","","","","","","","",""
"","","","","","image-keyboard-response","112","348475","0.0-87.0","646619d0918746fb726da63e","665500ab8938657b03fbdba8","6657932c484b21aefc715b2e","2888","stimuli/1100110.jpg","1","","prediction_trial","1","","true","","1","false","false","true","true","false","false","[1]","100","110","1","","","","","","",""
"","","","","","image-keyboard-response","113","349106","0.0-88.0","646619d0918746fb726da63e","665500ab8938657b03fbdba8","6657932c484b21aefc715b2e","629","stimuli/11001101.jpg"," ","","feedback_trial","1","","","","","","","","","","","","","","","","","","","","",""
"","","","","","image-keyboard-response","114","350615","0.0-89.0","646619d0918746fb726da63e","665500ab8938657b03fbdba8","6657932c484b21aefc715b2e","1507","stimuli/2111110.jpg","2","","prediction_trial","0","","false","","2","true","true","false","false","false","false","[2,0,1]","111","110","0","","","","","","",""
"","","","","","image-keyboard-response","115","351845","0.0-90.0","646619d0918746fb726da63e","665500ab8938657b03fbdba8","6657932c484b21aefc715b2e","1228","stimuli/21111100.jpg"," ","","feedback_trial","2","","","","","","","","","","","","","","","","","","","","",""
"","","","","","image-keyboard-response","116","353395","0.0-91.0","646619d0918746fb726da63e","665500ab8938657b03fbdba8","6657932c484b21aefc715b2e","1548","stimuli/2000010.jpg","2","","prediction_trial","2","","true","","2","true","true","true","true","true","true","[2]","000","010","1","","","","","","",""
"","","","","","image-keyboard-response","117","354106","0.0-92.0","646619d0918746fb726da63e","665500ab8938657b03fbdba8","6657932c484b21aefc715b2e","708","stimuli/20000102.jpg"," ","","feedback_trial","2","","","","","","","","","","","","","","","","","","","","",""
"","","","","","image-keyboard-response","118","355575","0.0-93.0","646619d0918746fb726da63e","665500ab8938657b03fbdba8","6657932c484b21aefc715b2e","1468","stimuli/1110111.jpg","1","","prediction_trial","0","","false","","1","false","false","false","false","false","false","[1,0]","110","111","0","","","","","","",""
"","","","","","image-keyboard-response","119","356175","0.0-94.0","646619d0918746fb726da63e","665500ab8938657b03fbdba8","6657932c484b21aefc715b2e","598","stimuli/11101110.jpg"," ","","feedback_trial","1","","","","","","","","","","","","","","","","","","","","",""
"","","","","","image-keyboard-response","120","359336","0.0-95.0","646619d0918746fb726da63e","665500ab8938657b03fbdba8","6657932c484b21aefc715b2e","3158","stimuli/2001010.jpg","2","","prediction_trial","2","","true","","2","true","true","false","true","false","true","[2]","001","010","1","","","","","","",""
"","","","","","image-keyboard-response","121","359965","0.0-96.0","646619d0918746fb726da63e","665500ab8938657b03fbdba8","6657932c484b21aefc715b2e","627","stimuli/20010102.jpg"," ","","feedback_trial","2","","","","","","","","","","","","","","","","","","","","",""
"","","","","","image-keyboard-response","122","361235","0.0-97.0","646619d0918746fb726da63e","665500ab8938657b03fbdba8","6657932c484b21aefc715b2e","1268","stimuli/0100010.jpg","0","","prediction_trial","0","","true","","0","true","true","false","true","false","true","[0]","100","010","1","","","","","","",""
"","","","","","image-keyboard-response","123","361805","0.0-98.0","646619d0918746fb726da63e","665500ab8938657b03fbdba8","6657932c484b21aefc715b2e","568","stimuli/01000100.jpg"," ","","feedback_trial","0","","","","","","","","","","","","","","","","","","","","",""
"","","","","","image-keyboard-response","124","363465","0.0-99.0","646619d0918746fb726da63e","665500ab8938657b03fbdba8","6657932c484b21aefc715b2e","1658","stimuli/1101010.jpg","1","","prediction_trial","1","","true","","1","false","true","true","true","false","true","[1]","101","010","1","","","","","","",""
"","","","","","image-keyboard-response","125","364016","0.0-100.0","646619d0918746fb726da63e","665500ab8938657b03fbdba8","6657932c484b21aefc715b2e","549","stimuli/11010101.jpg"," ","","feedback_trial","1","","","","","","","","","","","","","","","","","","","","",""
"","","","","","image-keyboard-response","126","364905","0.0-101.0","646619d0918746fb726da63e","665500ab8938657b03fbdba8","6657932c484b21aefc715b2e","887","stimuli/2010111.jpg","1","","prediction_trial","2","","false","","2","false","false","true","true","false","false","[2]","010","111","0","","","","","","",""
"","","","","","image-keyboard-response","127","365676","0.0-102.0","646619d0918746fb726da63e","665500ab8938657b03fbdba8","6657932c484b21aefc715b2e","769","stimuli/20101112.jpg"," ","","feedback_trial","2","","","","","","","","","","","","","","","","","","","","",""
"","","","","","image-keyboard-response","128","367355","0.0-103.0","646619d0918746fb726da63e","665500ab8938657b03fbdba8","6657932c484b21aefc715b2e","1677","stimuli/0011000.jpg","0","","prediction_trial","0","","true","","0","true","true","true","true","true","true","[0]","011","000","1","","","","","","",""
"","","","","","image-keyboard-response","129","367966","0.0-104.0","646619d0918746fb726da63e","665500ab8938657b03fbdba8","6657932c484b21aefc715b2e","609","stimuli/00110000.jpg"," ","","feedback_trial","0","","","","","","","","","","","","","","","","","","","","",""
"","","","","","image-keyboard-response","130","369835","0.0-105.0","646619d0918746fb726da63e","665500ab8938657b03fbdba8","6657932c484b21aefc715b2e","1867","stimuli/0000101.jpg","2","","prediction_trial","0","","false","","0","false","false","true","true","false","false","[0]","000","101","0","","","","","","",""
"","","","","","image-keyboard-response","131","370496","0.0-106.0","646619d0918746fb726da63e","665500ab8938657b03fbdba8","6657932c484b21aefc715b2e","658","stimuli/00001010.jpg"," ","","feedback_trial","0","","","","","","","","","","","","","","","","","","","","",""
"","","","","","image-keyboard-response","132","371185","0.0-107.0","646619d0918746fb726da63e","665500ab8938657b03fbdba8","6657932c484b21aefc715b2e","686","stimuli/2110000.jpg","2","","prediction_trial","2","","true","","2","true","true","true","true","true","true","[2]","110","000","1","","","","","","",""
"","","","","","image-keyboard-response","133","371785","0.0-108.0","646619d0918746fb726da63e","665500ab8938657b03fbdba8","6657932c484b21aefc715b2e","598","stimuli/21100002.jpg"," ","","feedback_trial","2","","","","","","","","","","","","","","","","","","","","",""
"","","","","","image-keyboard-response","134","374894","0.0-109.0","646619d0918746fb726da63e","665500ab8938657b03fbdba8","6657932c484b21aefc715b2e","3108","stimuli/2011001.jpg","2","","prediction_trial","2","","true","","2","false","true","false","false","false","false","[1,2]","011","001","1","","","","","","",""
"","","","","","image-keyboard-response","135","375744","0.0-110.0","646619d0918746fb726da63e","665500ab8938657b03fbdba8","6657932c484b21aefc715b2e","848","stimuli/20110012.jpg"," ","","feedback_trial","1","","","","","","","","","","","","","","","","","","","","",""
"","","","","","image-keyboard-response","136","378485","0.0-111.0","646619d0918746fb726da63e","665500ab8938657b03fbdba8","6657932c484b21aefc715b2e","2739","stimuli/0000100.jpg","0","","prediction_trial","0","","true","","0","false","true","true","true","false","true","[0]","000","100","1","","","","","","",""
"","","","","","image-keyboard-response","137","379216","0.0-112.0","646619d0918746fb726da63e","665500ab8938657b03fbdba8","6657932c484b21aefc715b2e","730","stimuli/00001000.jpg"," ","","feedback_trial","0","","","","","","","","","","","","","","","","","","","","",""
"","","","","","image-keyboard-response","138","381956","0.0-113.0","646619d0918746fb726da63e","665500ab8938657b03fbdba8","6657932c484b21aefc715b2e","2738","stimuli/0101011.jpg","0","","prediction_trial","0","","true","","0","true","true","false","false","false","false","[2,0]","101","011","1","","","","","","",""
"","","","","","image-keyboard-response","139","383076","0.0-114.0","646619d0918746fb726da63e","665500ab8938657b03fbdba8","6657932c484b21aefc715b2e","1118","stimuli/01010110.jpg"," ","","feedback_trial","2","","","","","","","","","","","","","","","","","","","","",""
"","","","","","image-keyboard-response","140","384436","0.0-115.0","646619d0918746fb726da63e","665500ab8938657b03fbdba8","6657932c484b21aefc715b2e","1358","stimuli/0110011.jpg","0","","prediction_trial","1","","false","","0","true","true","false","false","false","false","[1,0]","110","011","0","","","","","","",""
"","","","","","image-keyboard-response","141","385306","0.0-116.0","646619d0918746fb726da63e","665500ab8938657b03fbdba8","6657932c484b21aefc715b2e","868","stimuli/01100111.jpg"," ","","feedback_trial","1","","","","","","","","","","","","","","","","","","","","",""
"","","","","","image-keyboard-response","142","387626","0.0-117.0","646619d0918746fb726da63e","665500ab8938657b03fbdba8","6657932c484b21aefc715b2e","2317","stimuli/0101110.jpg","0","","prediction_trial","2","","false","","0","false","false","false","false","false","false","[2,0]","101","110","0","","","","","","",""
"","","","","","image-keyboard-response","143","388637","0.0-118.0","646619d0918746fb726da63e","665500ab8938657b03fbdba8","6657932c484b21aefc715b2e","1009","stimuli/01011102.jpg"," ","","feedback_trial","2","","","","","","","","","","","","","","","","","","","","",""
"","","","","","image-keyboard-response","144","390706","0.0-119.0","646619d0918746fb726da63e","665500ab8938657b03fbdba8","6657932c484b21aefc715b2e","2067","stimuli/2011111.jpg","1","","prediction_trial","2","","false","","2","false","false","false","false","false","false","[1,2]","011","111","0","","","","","","",""
"","","","","","image-keyboard-response","145","391466","0.0-120.0","646619d0918746fb726da63e","665500ab8938657b03fbdba8","6657932c484b21aefc715b2e","758","stimuli/20111112.jpg"," ","","feedback_trial","1","","","","","","","","","","","","","","","","","","","","",""
"","","","","","image-keyboard-response","146","392486","0.0-121.0","646619d0918746fb726da63e","665500ab8938657b03fbdba8","6657932c484b21aefc715b2e","1018","stimuli/0010000.jpg","0","","prediction_trial","0","","true","","0","true","true","true","true","true","true","[0]","010","000","1","","","","","","",""
"","","","","","image-keyboard-response","147","393096","0.0-122.0","646619d0918746fb726da63e","665500ab8938657b03fbdba8","6657932c484b21aefc715b2e","608","stimuli/00100000.jpg"," ","","feedback_trial","0","","","","","","","","","","","","","","","","","","","","",""
"","","","","","image-keyboard-response","148","395156","0.0-123.0","646619d0918746fb726da63e","665500ab8938657b03fbdba8","6657932c484b21aefc715b2e","2058","stimuli/1010011.jpg","1","","prediction_trial","1","","true","","1","false","false","false","true","false","false","[1]","010","011","1","","","","","","",""
"","","","","","image-keyboard-response","149","395926","0.0-124.0","646619d0918746fb726da63e","665500ab8938657b03fbdba8","6657932c484b21aefc715b2e","768","stimuli/10100111.jpg"," ","","feedback_trial","1","","","","","","","","","","","","","","","","","","","","",""
"","","","","","image-keyboard-response","150","396766","0.0-125.0","646619d0918746fb726da63e","665500ab8938657b03fbdba8","6657932c484b21aefc715b2e","838","stimuli/2010100.jpg","2","","prediction_trial","2","","true","","2","true","true","true","true","true","true","[2]","010","100","1","","","","","","",""
"","","","","","image-keyboard-response","151","397346","0.0-126.0","646619d0918746fb726da63e","665500ab8938657b03fbdba8","6657932c484b21aefc715b2e","578","stimuli/20101002.jpg"," ","","feedback_trial","2","","","","","","","","","","","","","","","","","","","","",""
"","","","","","image-keyboard-response","152","398866","0.0-127.0","646619d0918746fb726da63e","665500ab8938657b03fbdba8","6657932c484b21aefc715b2e","1517","stimuli/2001000.jpg","2","","prediction_trial","2","","true","","2","true","true","false","true","false","true","[2]","001","000","1","","","","","","",""
"","","","","","image-keyboard-response","153","399566","0.0-128.0","646619d0918746fb726da63e","665500ab8938657b03fbdba8","6657932c484b21aefc715b2e","698","stimuli/20010002.jpg"," ","","feedback_trial","2","","","","","","","","","","","","","","","","","","","","",""
"","","","","","image-keyboard-response","154","400776","0.0-129.0","646619d0918746fb726da63e","665500ab8938657b03fbdba8","6657932c484b21aefc715b2e","1207","stimuli/1011011.jpg","0","","prediction_trial","1","","false","","1","false","false","false","false","false","false","[1,2]","011","011","0","","","","","","",""
"","","","","","image-keyboard-response","155","402446","0.0-130.0","646619d0918746fb726da63e","665500ab8938657b03fbdba8","6657932c484b21aefc715b2e","1669","stimuli/10110111.jpg"," ","","feedback_trial","1","","","","","","","","","","","","","","","","","","","","",""
"","","","","","image-keyboard-response","156","404287","0.0-131.0","646619d0918746fb726da63e","665500ab8938657b03fbdba8","6657932c484b21aefc715b2e","1838","stimuli/2000101.jpg","2","","prediction_trial","2","","true","","2","false","false","true","true","false","false","[2]","000","101","1","","","","","","",""
"","","","","","image-keyboard-response","157","404967","0.0-132.0","646619d0918746fb726da63e","665500ab8938657b03fbdba8","6657932c484b21aefc715b2e","678","stimuli/20001012.jpg"," ","","feedback_trial","2","","","","","","","","","","","","","","","","","","","","",""
"","","","","","image-keyboard-response","158","406846","0.0-133.0","646619d0918746fb726da63e","665500ab8938657b03fbdba8","6657932c484b21aefc715b2e","1877","stimuli/2100001.jpg","2","","prediction_trial","2","","true","","2","false","true","true","true","false","true","[2]","100","001","1","","","","","","",""
"","","","","","image-keyboard-response","159","407276","0.0-134.0","646619d0918746fb726da63e","665500ab8938657b03fbdba8","6657932c484b21aefc715b2e","429","stimuli/21000012.jpg"," ","","feedback_trial","2","","","","","","","","","","","","","","","","","","","","",""
"","","","","","image-keyboard-response","160","410146","0.0-135.0","646619d0918746fb726da63e","665500ab8938657b03fbdba8","6657932c484b21aefc715b2e","2867","stimuli/1010001.jpg","1","","prediction_trial","1","","true","","1","true","true","false","true","false","true","[1]","010","001","1","","","","","","",""
"","","","","","image-keyboard-response","161","411497","0.0-136.0","646619d0918746fb726da63e","665500ab8938657b03fbdba8","6657932c484b21aefc715b2e","1349","stimuli/10100011.jpg"," ","","feedback_trial","1","","","","","","","","","","","","","","","","","","","","",""
"","","","","","image-keyboard-response","162","412586","0.0-137.0","646619d0918746fb726da63e","665500ab8938657b03fbdba8","6657932c484b21aefc715b2e","1087","stimuli/1101000.jpg","1","","prediction_trial","1","","true","","1","true","true","true","true","true","true","[1]","101","000","1","","","","","","",""
"","","","","","image-keyboard-response","163","413136","0.0-138.0","646619d0918746fb726da63e","665500ab8938657b03fbdba8","6657932c484b21aefc715b2e","548","stimuli/11010001.jpg"," ","","feedback_trial","1","","","","","","","","","","","","","","","","","","","","",""
"","","","","","image-keyboard-response","164","415616","0.0-139.0","646619d0918746fb726da63e","665500ab8938657b03fbdba8","6657932c484b21aefc715b2e","2477","stimuli/0100001.jpg","0","","prediction_trial","0","","true","","0","true","true","false","true","false","true","[0]","100","001","1","","","","","","",""
"","","","","","image-keyboard-response","165","416126","0.0-140.0","646619d0918746fb726da63e","665500ab8938657b03fbdba8","6657932c484b21aefc715b2e","508","stimuli/01000010.jpg"," ","","feedback_trial","0","","","","","","","","","","","","","","","","","","","","",""
"","","","","","image-keyboard-response","166","418617","0.0-141.0","646619d0918746fb726da63e","665500ab8938657b03fbdba8","6657932c484b21aefc715b2e","2488","stimuli/2010011.jpg","1","","prediction_trial","2","","false","","2","false","false","true","true","false","false","[2]","010","011","0","","","","","","",""
"","","","","","image-keyboard-response","167","419467","0.0-142.0","646619d0918746fb726da63e","665500ab8938657b03fbdba8","6657932c484b21aefc715b2e","849","stimuli/20100112.jpg"," ","","feedback_trial","2","","","","","","","","","","","","","","","","","","","","",""
"","","","","","image-keyboard-response","168","420866","0.0-143.0","646619d0918746fb726da63e","665500ab8938657b03fbdba8","6657932c484b21aefc715b2e","1396","stimuli/0011100.jpg","0","","prediction_trial","0","","true","","0","false","true","true","true","false","true","[0]","011","100","1","","","","","","",""
"","","","","","image-keyboard-response","169","421486","0.0-144.0","646619d0918746fb726da63e","665500ab8938657b03fbdba8","6657932c484b21aefc715b2e","618","stimuli/00111000.jpg"," ","","feedback_trial","0","","","","","","","","","","","","","","","","","","","","",""
"","","","","","image-keyboard-response","170","423386","0.0-145.0","646619d0918746fb726da63e","665500ab8938657b03fbdba8","6657932c484b21aefc715b2e","1898","stimuli/1011001.jpg","1","","prediction_trial","1","","true","","1","true","true","false","false","false","false","[1,2]","011","001","1","","","","","","",""
"","","","","","image-keyboard-response","171","423944","0.0-146.0","646619d0918746fb726da63e","665500ab8938657b03fbdba8","6657932c484b21aefc715b2e","557","stimuli/10110011.jpg"," ","","feedback_trial","1","","","","","","","","","","","","","","","","","","","","",""
"","","","","","image-keyboard-response","172","426766","0.0-147.0","646619d0918746fb726da63e","665500ab8938657b03fbdba8","6657932c484b21aefc715b2e","2820","stimuli/2110101.jpg","2","","prediction_trial","2","","true","","2","false","false","true","true","false","false","[2]","110","101","1","","","","","","",""
"","","","","","image-keyboard-response","173","427426","0.0-148.0","646619d0918746fb726da63e","665500ab8938657b03fbdba8","6657932c484b21aefc715b2e","659","stimuli/21101012.jpg"," ","","feedback_trial","2","","","","","","","","","","","","","","","","","","","","",""
"","","","","","image-keyboard-response","174","429426","0.0-149.0","646619d0918746fb726da63e","665500ab8938657b03fbdba8","6657932c484b21aefc715b2e","1997","stimuli/1010100.jpg","1","","prediction_trial","1","","true","","1","true","true","false","true","false","true","[1]","010","100","1","","","","","","",""
"","","","","","image-keyboard-response","175","429905","0.0-150.0","646619d0918746fb726da63e","665500ab8938657b03fbdba8","6657932c484b21aefc715b2e","477","stimuli/10101001.jpg"," ","","feedback_trial","1","","","","","","","","","","","","","","","","","","","","",""
"","","","","","image-keyboard-response","176","431246","0.0-151.0","646619d0918746fb726da63e","665500ab8938657b03fbdba8","6657932c484b21aefc715b2e","1339","stimuli/0100000.jpg","0","","prediction_trial","0","","true","","0","true","true","false","true","false","true","[0]","100","000","1","","","","","","",""
"","","","","","image-keyboard-response","177","431646","0.0-152.0","646619d0918746fb726da63e","665500ab8938657b03fbdba8","6657932c484b21aefc715b2e","398","stimuli/01000000.jpg"," ","","feedback_trial","0","","","","","","","","","","","","","","","","","","","","",""
"","","","","","image-keyboard-response","178","434856","0.0-153.0","646619d0918746fb726da63e","665500ab8938657b03fbdba8","6657932c484b21aefc715b2e","3207","stimuli/0011101.jpg","1","","prediction_trial","0","","false","","0","false","false","true","true","false","false","[0]","011","101","0","","","","","","",""
"","","","","","image-keyboard-response","179","440139","0.0-154.0","646619d0918746fb726da63e","665500ab8938657b03fbdba8","6657932c484b21aefc715b2e","5290","stimuli/00111010.jpg"," ","","feedback_trial","0","","","","","","","","","","","","","","","","","","","","",""
"","","","","","image-keyboard-response","180","441137","0.0-155.0","646619d0918746fb726da63e","665500ab8938657b03fbdba8","6657932c484b21aefc715b2e","997","stimuli/1111000.jpg","1","","prediction_trial","2","","false","","1","true","true","false","false","false","false","[1,2,0]","111","000","0","","","","","","",""
"","","","","","image-keyboard-response","181","442886","0.0-156.0","646619d0918746fb726da63e","665500ab8938657b03fbdba8","6657932c484b21aefc715b2e","1747","stimuli/11110002.jpg"," ","","feedback_trial","1","","","","","","","","","","","","","","","","","","","","",""
"","","","","","image-keyboard-response","182","447098","0.0-157.0","646619d0918746fb726da63e","665500ab8938657b03fbdba8","6657932c484b21aefc715b2e","4209","stimuli/0001110.jpg","0","","prediction_trial","0","","true","","0","false","false","true","true","false","false","[0]","001","110","1","","","","","","",""
"","","","","","image-keyboard-response","183","447997","0.0-158.0","646619d0918746fb726da63e","665500ab8938657b03fbdba8","6657932c484b21aefc715b2e","898","stimuli/00011100.jpg"," ","","feedback_trial","0","","","","","","","","","","","","","","","","","","","","",""
"","","","","","image-keyboard-response","184","449488","0.0-159.0","646619d0918746fb726da63e","665500ab8938657b03fbdba8","6657932c484b21aefc715b2e","1488","stimuli/0010101.jpg","0","","prediction_trial","0","","true","","0","false","false","true","true","false","false","[0]","010","101","1","","","","","","",""
"","","","","","image-keyboard-response","185","450328","0.0-160.0","646619d0918746fb726da63e","665500ab8938657b03fbdba8","6657932c484b21aefc715b2e","839","stimuli/00101010.jpg"," ","","feedback_trial","0","","","","","","","","","","","","","","","","","","","","",""
"","","","","","image-keyboard-response","186","451558","0.0-161.0","646619d0918746fb726da63e","665500ab8938657b03fbdba8","6657932c484b21aefc715b2e","1227","stimuli/0111110.jpg","0","","prediction_trial","1","","false","","0","false","false","false","false","false","false","[2,1,0]","111","110","0","","","","","","",""
"","","","","","image-keyboard-response","187","452386","0.0-162.0","646619d0918746fb726da63e","665500ab8938657b03fbdba8","6657932c484b21aefc715b2e","827","stimuli/01111101.jpg"," ","","feedback_trial","2","","","","","","","","","","","","","","","","","","","","",""
"","","","","","image-keyboard-response","188","453527","0.0-163.0","646619d0918746fb726da63e","665500ab8938657b03fbdba8","6657932c484b21aefc715b2e","1139","stimuli/2000001.jpg","2","","prediction_trial","2","","true","","2","false","true","true","true","false","true","[2]","000","001","1","","","","","","",""
"","","","","","image-keyboard-response","189","454068","0.0-164.0","646619d0918746fb726da63e","665500ab8938657b03fbdba8","6657932c484b21aefc715b2e","539","stimuli/20000012.jpg"," ","","feedback_trial","2","","","","","","","","","","","","","","","","","","","","",""
"","","","","","image-keyboard-response","190","454977","0.0-165.0","646619d0918746fb726da63e","665500ab8938657b03fbdba8","6657932c484b21aefc715b2e","908","stimuli/1111100.jpg","1","","prediction_trial","1","","true","","1","true","true","false","false","false","false","[1,2,0]","111","100","1","","","","","","",""
"","","","","","image-keyboard-response","191","455397","0.0-166.0","646619d0918746fb726da63e","665500ab8938657b03fbdba8","6657932c484b21aefc715b2e","418","stimuli/11111001.jpg"," ","","feedback_trial","1","","","","","","","","","","","","","","","","","","","","",""
"","","","","","image-keyboard-response","192","457307","0.0-167.0","646619d0918746fb726da63e","665500ab8938657b03fbdba8","6657932c484b21aefc715b2e","1908","stimuli/1011010.jpg","1","","prediction_trial","1","","true","","1","false","true","false","false","false","false","[1,2]","011","010","1","","","","","","",""
"","","","","","image-keyboard-response","193","458216","0.0-168.0","646619d0918746fb726da63e","665500ab8938657b03fbdba8","6657932c484b21aefc715b2e","907","stimuli/10110101.jpg"," ","","feedback_trial","1","","","","","","","","","","","","","","","","","","","","",""
"","","","","","image-keyboard-response","194","460267","0.0-169.0","646619d0918746fb726da63e","665500ab8938657b03fbdba8","6657932c484b21aefc715b2e","2049","stimuli/2010101.jpg","2","","prediction_trial","2","","true","","2","false","false","true","true","false","false","[2]","010","101","1","","","","","","",""
"","","","","","image-keyboard-response","195","461018","0.0-170.0","646619d0918746fb726da63e","665500ab8938657b03fbdba8","6657932c484b21aefc715b2e","748","stimuli/20101012.jpg"," ","","feedback_trial","2","","","","","","","","","","","","","","","","","","","","",""
"","","","","","image-keyboard-response","196","464017","0.0-171.0","646619d0918746fb726da63e","665500ab8938657b03fbdba8","6657932c484b21aefc715b2e","2997","stimuli/1100011.jpg","1","","prediction_trial","1","","true","","1","false","false","true","true","false","false","[1]","100","011","1","","","","","","",""
"","","","","","image-keyboard-response","197","464608","0.0-172.0","646619d0918746fb726da63e","665500ab8938657b03fbdba8","6657932c484b21aefc715b2e","588","stimuli/11000111.jpg"," ","","feedback_trial","1","","","","","","","","","","","","","","","","","","","","",""
"","","","","","image-keyboard-response","198","467687","0.0-173.0","646619d0918746fb726da63e","665500ab8938657b03fbdba8","6657932c484b21aefc715b2e","3077","stimuli/0110111.jpg","2","","prediction_trial","0","","false","","0","false","false","false","false","false","false","[0,1]","110","111","0","","","","","","",""
"","","","","","image-keyboard-response","199","468447","0.0-174.0","646619d0918746fb726da63e","665500ab8938657b03fbdba8","6657932c484b21aefc715b2e","759","stimuli/01101110.jpg"," ","","feedback_trial","0","","","","","","","","","","","","","","","","","","","","",""
"","","","","","image-keyboard-response","200","469478","0.0-175.0","646619d0918746fb726da63e","665500ab8938657b03fbdba8","6657932c484b21aefc715b2e","1028","stimuli/0100011.jpg","0","","prediction_trial","0","","true","","0","true","true","false","true","false","true","[0]","100","011","1","","","","","","",""
"","","","","","image-keyboard-response","201","470368","0.0-176.0","646619d0918746fb726da63e","665500ab8938657b03fbdba8","6657932c484b21aefc715b2e","888","stimuli/01000110.jpg"," ","","feedback_trial","0","","","","","","","","","","","","","","","","","","","","",""
"","","","","","image-keyboard-response","202","472197","0.0-177.0","646619d0918746fb726da63e","665500ab8938657b03fbdba8","6657932c484b21aefc715b2e","1828","stimuli/1001001.jpg","1","","prediction_trial","1","","true","","1","true","true","true","true","true","true","[1]","001","001","1","","","","","","",""
"","","","","","image-keyboard-response","203","472668","0.0-178.0","646619d0918746fb726da63e","665500ab8938657b03fbdba8","6657932c484b21aefc715b2e","469","stimuli/10010011.jpg"," ","","feedback_trial","1","","","","","","","","","","","","","","","","","","","","",""
"","","","","","image-keyboard-response","204","474157","0.0-179.0","646619d0918746fb726da63e","665500ab8938657b03fbdba8","6657932c484b21aefc715b2e","1487","stimuli/2110110.jpg","2","","prediction_trial","2","","true","","2","true","true","true","true","true","true","[2]","110","110","1","","","","","","",""
"","","","","","image-keyboard-response","205","474648","0.0-180.0","646619d0918746fb726da63e","665500ab8938657b03fbdba8","6657932c484b21aefc715b2e","488","stimuli/21101102.jpg"," ","","feedback_trial","2","","","","","","","","","","","","","","","","","","","","",""
"","","","","","image-keyboard-response","206","476598","0.0-181.0","646619d0918746fb726da63e","665500ab8938657b03fbdba8","6657932c484b21aefc715b2e","1948","stimuli/2011011.jpg","1","","prediction_trial","2","","false","","2","false","false","false","false","false","false","[2,1]","011","011","0","","","","","","",""
"","","","","","image-keyboard-response","207","477267","0.0-182.0","646619d0918746fb726da63e","665500ab8938657b03fbdba8","6657932c484b21aefc715b2e","668","stimuli/20110112.jpg"," ","","feedback_trial","2","","","","","","","","","","","","","","","","","","","","",""
"","","","","","image-keyboard-response","208","479307","0.0-183.0","646619d0918746fb726da63e","665500ab8938657b03fbdba8","6657932c484b21aefc715b2e","2038","stimuli/1000011.jpg","1","","prediction_trial","1","","true","","1","false","false","true","true","false","false","[1]","000","011","1","","","","","","",""
"","","","","","image-keyboard-response","209","480028","0.0-184.0","646619d0918746fb726da63e","665500ab8938657b03fbdba8","6657932c484b21aefc715b2e","718","stimuli/10000111.jpg"," ","","feedback_trial","1","","","","","","","","","","","","","","","","","","","","",""
"","","","","","image-keyboard-response","210","481067","0.0-185.0","646619d0918746fb726da63e","665500ab8938657b03fbdba8","6657932c484b21aefc715b2e","1037","stimuli/0011001.jpg","0","","prediction_trial","0","","true","","0","true","true","true","true","true","true","[0]","011","001","1","","","","","","",""
"","","","","","image-keyboard-response","211","481478","0.0-186.0","646619d0918746fb726da63e","665500ab8938657b03fbdba8","6657932c484b21aefc715b2e","409","stimuli/00110010.jpg"," ","","feedback_trial","0","","","","","","","","","","","","","","","","","","","","",""
"","","","","","image-keyboard-response","212","482418","0.0-187.0","646619d0918746fb726da63e","665500ab8938657b03fbdba8","6657932c484b21aefc715b2e","938","stimuli/1001100.jpg","1","","prediction_trial","1","","true","","1","true","true","true","true","true","true","[1]","001","100","1","","","","","","",""
"","","","","","image-keyboard-response","213","482857","0.0-188.0","646619d0918746fb726da63e","665500ab8938657b03fbdba8","6657932c484b21aefc715b2e","437","stimuli/10011001.jpg"," ","","feedback_trial","1","","","","","","","","","","","","","","","","","","","","",""
"","","","","","image-keyboard-response","214","484628","0.0-189.0","646619d0918746fb726da63e","665500ab8938657b03fbdba8","6657932c484b21aefc715b2e","1769","stimuli/2010001.jpg","2","","prediction_trial","2","","true","","2","false","true","true","true","false","true","[2]","010","001","1","","","","","","",""
"","","","","","image-keyboard-response","215","485188","0.0-190.0","646619d0918746fb726da63e","665500ab8938657b03fbdba8","6657932c484b21aefc715b2e","557","stimuli/20100012.jpg"," ","","feedback_trial","2","","","","","","","","","","","","","","","","","","","","",""
"","","","","","image-keyboard-response","216","488439","0.0-191.0","646619d0918746fb726da63e","665500ab8938657b03fbdba8","6657932c484b21aefc715b2e","3250","stimuli/0001101.jpg","2","","prediction_trial","0","","false","","0","false","false","true","true","false","false","[0]","001","101","0","","","","","","",""
"","","","","","image-keyboard-response","217","492548","0.0-192.0","646619d0918746fb726da63e","665500ab8938657b03fbdba8","6657932c484b21aefc715b2e","4106","stimuli/00011010.jpg"," ","","feedback_trial","0","","","","","","","","","","","","","","","","","","","","",""
"","","","","","image-keyboard-response","218","493847","0.0-193.0","646619d0918746fb726da63e","665500ab8938657b03fbdba8","6657932c484b21aefc715b2e","1297","stimuli/1100001.jpg","1","","prediction_trial","1","","true","","1","true","true","true","true","true","true","[1]","100","001","1","","","","","","",""
"","","","","","image-keyboard-response","219","494677","0.0-194.0","646619d0918746fb726da63e","665500ab8938657b03fbdba8","6657932c484b21aefc715b2e","828","stimuli/11000011.jpg"," ","","feedback_trial","1","","","","","","","","","","","","","","","","","","","","",""
"","","","","","image-keyboard-response","220","495407","0.0-195.0","646619d0918746fb726da63e","665500ab8938657b03fbdba8","6657932c484b21aefc715b2e","727","stimuli/1111111.jpg","1","","prediction_trial","0","","false","","1","false","false","false","false","false","false","[1,0,2]","111","111","0","","","","","","",""
"","","","","","image-keyboard-response","221","496078","0.0-196.0","646619d0918746fb726da63e","665500ab8938657b03fbdba8","6657932c484b21aefc715b2e","669","stimuli/11111110.jpg"," ","","feedback_trial","1","","","","","","","","","","","","","","","","","","","","",""
"","","","","","image-keyboard-response","222","496618","0.0-197.0","646619d0918746fb726da63e","665500ab8938657b03fbdba8","6657932c484b21aefc715b2e","537","stimuli/1001000.jpg","1","","prediction_trial","1","","true","","1","true","true","true","true","true","true","[1]","001","000","1","","","","","","",""
"","","","","","image-keyboard-response","223","497018","0.0-198.0","646619d0918746fb726da63e","665500ab8938657b03fbdba8","6657932c484b21aefc715b2e","398","stimuli/10010001.jpg"," ","","feedback_trial","1","","","","","","","","","","","","","","","","","","","","",""
"","","","","","image-keyboard-response","224","497558","0.0-199.0","646619d0918746fb726da63e","665500ab8938657b03fbdba8","6657932c484b21aefc715b2e","538","stimuli/1110000.jpg","1","","prediction_trial","1","","true","","1","true","true","false","false","false","false","[0,1]","110","000","1","","","","","","",""
"","","","","","image-keyboard-response","225","498087","0.0-200.0","646619d0918746fb726da63e","665500ab8938657b03fbdba8","6657932c484b21aefc715b2e","528","stimuli/11100001.jpg"," ","","feedback_trial","0","","","","","","","","","","","","","","","","","","","","",""
"","","","","","image-keyboard-response","226","499147","0.0-201.0","646619d0918746fb726da63e","665500ab8938657b03fbdba8","6657932c484b21aefc715b2e","1058","stimuli/1001101.jpg","1","","prediction_trial","1","","true","","1","true","true","true","true","true","true","[1]","001","101","1","","","","","","",""
"","","","","","image-keyboard-response","227","499567","0.0-202.0","646619d0918746fb726da63e","665500ab8938657b03fbdba8","6657932c484b21aefc715b2e","418","stimuli/10011011.jpg"," ","","feedback_trial","1","","","","","","","","","","","","","","","","","","","","",""
"","","","","","image-keyboard-response","228","500504","0.0-203.0","646619d0918746fb726da63e","665500ab8938657b03fbdba8","6657932c484b21aefc715b2e","928","stimuli/2110100.jpg","2","","prediction_trial","2","","true","","2","true","true","true","true","true","true","[2]","110","100","1","","","","","","",""
"","","","","","image-keyboard-response","229","500923","0.0-204.0","646619d0918746fb726da63e","665500ab8938657b03fbdba8","6657932c484b21aefc715b2e","418","stimuli/21101002.jpg"," ","","feedback_trial","2","","","","","","","","","","","","","","","","","","","","",""
"","","","","","image-keyboard-response","230","504313","0.0-205.0","646619d0918746fb726da63e","665500ab8938657b03fbdba8","6657932c484b21aefc715b2e","3388","stimuli/2111010.jpg","2","","prediction_trial","0","","false","","2","true","true","false","false","false","false","[1,2,0]","111","010","0","","","","","","",""
"","","","","","image-keyboard-response","231","505063","0.0-206.0","646619d0918746fb726da63e","665500ab8938657b03fbdba8","6657932c484b21aefc715b2e","744","stimuli/21110100.jpg"," ","","feedback_trial","1","","","","","","","","","","","","","","","","","","","","",""
"","","","","","image-keyboard-response","232","506243","0.0-207.0","646619d0918746fb726da63e","665500ab8938657b03fbdba8","6657932c484b21aefc715b2e","1177","stimuli/0011011.jpg","0","","prediction_trial","0","","true","","0","true","true","true","true","true","true","[0]","011","011","1","","","","","","",""
"","","","","","image-keyboard-response","233","506625","0.0-208.0","646619d0918746fb726da63e","665500ab8938657b03fbdba8","6657932c484b21aefc715b2e","380","stimuli/00110110.jpg"," ","","feedback_trial","0","","","","","","","","","","","","","","","","","","","","",""
"","","","","","image-keyboard-response","234","508883","0.0-209.0","646619d0918746fb726da63e","665500ab8938657b03fbdba8","6657932c484b21aefc715b2e","2257","stimuli/1010110.jpg","0","","prediction_trial","1","","false","","1","false","false","false","true","false","false","[1]","010","110","0","","","","","","",""
"","","","","","image-keyboard-response","235","509563","0.0-210.0","646619d0918746fb726da63e","665500ab8938657b03fbdba8","6657932c484b21aefc715b2e","678","stimuli/10101101.jpg"," ","","feedback_trial","1","","","","","","","","","","","","","","","","","","","","",""
"","","","","","image-keyboard-response","236","510773","0.0-211.0","646619d0918746fb726da63e","665500ab8938657b03fbdba8","6657932c484b21aefc715b2e","1208","stimuli/0000110.jpg","1","","prediction_trial","0","","false","","0","false","false","true","true","false","false","[0]","000","110","0","","","","","","",""
"","","","","","image-keyboard-response","237","511634","0.0-212.0","646619d0918746fb726da63e","665500ab8938657b03fbdba8","6657932c484b21aefc715b2e","859","stimuli/00001100.jpg"," ","","feedback_trial","0","","","","","","","","","","","","","","","","","","","","",""
"","","","","","image-keyboard-response","238","513293","0.0-213.0","646619d0918746fb726da63e","665500ab8938657b03fbdba8","6657932c484b21aefc715b2e","1657","stimuli/2110011.jpg","1","","prediction_trial","2","","false","","2","false","false","true","true","false","false","[2]","110","011","0","","","","","","",""
"","","","","","image-keyboard-response","239","514394","0.0-214.0","646619d0918746fb726da63e","665500ab8938657b03fbdba8","6657932c484b21aefc715b2e","1099","stimuli/21100112.jpg"," ","","feedback_trial","2","","","","","","","","","","","","","","","","","","","","",""
"","","","","","image-keyboard-response","240","515663","0.0-215.0","646619d0918746fb726da63e","665500ab8938657b03fbdba8","6657932c484b21aefc715b2e","1268","stimuli/2001100.jpg","2","","prediction_trial","2","","true","","2","true","true","false","true","false","true","[2]","001","100","1","","","","","","",""
"","","","","","image-keyboard-response","241","516303","0.0-216.0","646619d0918746fb726da63e","665500ab8938657b03fbdba8","6657932c484b21aefc715b2e","637","stimuli/20011002.jpg"," ","","feedback_trial","2","","","","","","","","","","","","","","","","","","","","",""
"","","","","","image-keyboard-response","242","518923","0.0-217.0","646619d0918746fb726da63e","665500ab8938657b03fbdba8","6657932c484b21aefc715b2e","2618","stimuli/0001000.jpg","0","","prediction_trial","0","","true","","0","true","true","true","true","true","true","[0]","001","000","1","","","","","","",""
"","","","","","image-keyboard-response","243","519433","0.0-218.0","646619d0918746fb726da63e","665500ab8938657b03fbdba8","6657932c484b21aefc715b2e","509","stimuli/00010000.jpg"," ","","feedback_trial","0","","","","","","","","","","","","","","","","","","","","",""
"","","","","","image-keyboard-response","244","522623","0.0-219.0","646619d0918746fb726da63e","665500ab8938657b03fbdba8","6657932c484b21aefc715b2e","3187","stimuli/0111010.jpg","0","","prediction_trial","2","","false","","0","true","true","false","false","false","false","[0,1,2]","111","010","0","","","","","","",""
"","","","","","image-keyboard-response","245","523714","0.0-220.0","646619d0918746fb726da63e","665500ab8938657b03fbdba8","6657932c484b21aefc715b2e","1089","stimuli/01110102.jpg"," ","","feedback_trial","0","","","","","","","","","","","","","","","","","","","","",""
"","","","","","image-keyboard-response","246","527184","0.0-221.0","646619d0918746fb726da63e","665500ab8938657b03fbdba8","6657932c484b21aefc715b2e","3468","stimuli/1100111.jpg","1","","prediction_trial","1","","true","","1","false","false","true","true","false","false","[1]","100","111","1","","","","","","",""
"","","","","","image-keyboard-response","247","528183","0.0-222.0","646619d0918746fb726da63e","665500ab8938657b03fbdba8","6657932c484b21aefc715b2e","998","stimuli/11001111.jpg"," ","","feedback_trial","1","","","","","","","","","","","","","","","","","","","","",""
"","","","","","image-keyboard-response","248","530543","0.0-223.0","646619d0918746fb726da63e","665500ab8938657b03fbdba8","6657932c484b21aefc715b2e","2357","stimuli/0111100.jpg","0","","prediction_trial","2","","false","","0","false","true","false","false","false","false","[0,2,1]","111","100","0","","","","","","",""
"","","","","","image-keyboard-response","249","531043","0.0-224.0","646619d0918746fb726da63e","665500ab8938657b03fbdba8","6657932c484b21aefc715b2e","498","stimuli/01111002.jpg"," ","","feedback_trial","0","","","","","","","","","","","","","","","","","","","","",""
"","","","","","image-keyboard-response","250","532363","0.0-225.0","646619d0918746fb726da63e","665500ab8938657b03fbdba8","6657932c484b21aefc715b2e","1318","stimuli/2010110.jpg","2","","prediction_trial","2","","true","","2","true","true","true","true","true","true","[2]","010","110","1","","","","","","",""
"","","","","","image-keyboard-response","251","532823","0.0-226.0","646619d0918746fb726da63e","665500ab8938657b03fbdba8","6657932c484b21aefc715b2e","458","stimuli/20101102.jpg"," ","","feedback_trial","2","","","","","","","","","","","","","","","","","","","","",""
"","","","","","image-keyboard-response","252","534094","0.0-227.0","646619d0918746fb726da63e","665500ab8938657b03fbdba8","6657932c484b21aefc715b2e","1251","stimuli/2001101.jpg","2","","prediction_trial","2","","true","","2","false","false","false","true","false","false","[2]","001","101","1","","","","","","",""
"","","","","","image-keyboard-response","253","535313","0.0-228.0","646619d0918746fb726da63e","665500ab8938657b03fbdba8","6657932c484b21aefc715b2e","1217","stimuli/20011012.jpg"," ","","feedback_trial","2","","","","","","","","","","","","","","","","","","","","",""
"","","","","","image-keyboard-response","254","536513","0.0-229.0","646619d0918746fb726da63e","665500ab8938657b03fbdba8","6657932c484b21aefc715b2e","1197","stimuli/1000000.jpg","1","","prediction_trial","1","","true","","1","true","true","true","true","true","true","[1]","000","000","1","","","","","","",""
"","","","","","image-keyboard-response","255","537123","0.0-230.0","646619d0918746fb726da63e","665500ab8938657b03fbdba8","6657932c484b21aefc715b2e","608","stimuli/10000001.jpg"," ","","feedback_trial","1","","","","","","","","","","","","","","","","","","","","",""
"","","","","","image-keyboard-response","256","538902","0.0-231.0","646619d0918746fb726da63e","665500ab8938657b03fbdba8","6657932c484b21aefc715b2e","1777","stimuli/0110100.jpg","1","","prediction_trial","0","","false","","0","false","true","false","false","false","false","[0,1]","110","100","0","","","","","","",""
"","","","","","image-keyboard-response","257","539633","0.0-232.0","646619d0918746fb726da63e","665500ab8938657b03fbdba8","6657932c484b21aefc715b2e","730","stimuli/01101000.jpg"," ","","feedback_trial","0","","","","","","","","","","","","","","","","","","","","",""
"","","","","","image-keyboard-response","258","540582","0.0-233.0","646619d0918746fb726da63e","665500ab8938657b03fbdba8","6657932c484b21aefc715b2e","947","stimuli/2000000.jpg","2","","prediction_trial","2","","true","","2","true","true","true","true","true","true","[2]","000","000","1","","","","","","",""
"","","","","","image-keyboard-response","259","541093","0.0-234.0","646619d0918746fb726da63e","665500ab8938657b03fbdba8","6657932c484b21aefc715b2e","509","stimuli/20000002.jpg"," ","","feedback_trial","2","","","","","","","","","","","","","","","","","","","","",""
"","","","","","image-keyboard-response","260","541993","0.0-235.0","646619d0918746fb726da63e","665500ab8938657b03fbdba8","6657932c484b21aefc715b2e","898","stimuli/1100101.jpg","1","","prediction_trial","1","","true","","1","true","true","true","true","true","true","[1]","100","101","1","","","","","","",""
"","","","","","image-keyboard-response","261","542513","0.0-236.0","646619d0918746fb726da63e","665500ab8938657b03fbdba8","6657932c484b21aefc715b2e","518","stimuli/11001011.jpg"," ","","feedback_trial","1","","","","","","","","","","","","","","","","","","","","",""
"","","","","","image-keyboard-response","262","543983","0.0-237.0","646619d0918746fb726da63e","665500ab8938657b03fbdba8","6657932c484b21aefc715b2e","1468","stimuli/0111000.jpg","0","","prediction_trial","0","","true","","0","true","true","false","false","false","false","[2,0,1]","111","000","1","","","","","","",""
"","","","","","image-keyboard-response","263","544734","0.0-238.0","646619d0918746fb726da63e","665500ab8938657b03fbdba8","6657932c484b21aefc715b2e","748","stimuli/01110000.jpg"," ","","feedback_trial","2","","","","","","","","","","","","","","","","","","","","",""
"","","","","","image-keyboard-response","264","546363","0.0-239.0","646619d0918746fb726da63e","665500ab8938657b03fbdba8","6657932c484b21aefc715b2e","1626","stimuli/2001001.jpg","2","","prediction_trial","2","","true","","2","false","true","false","true","false","true","[2]","001","001","1","","","","","","",""
"","","","","","image-keyboard-response","265","546843","0.0-240.0","646619d0918746fb726da63e","665500ab8938657b03fbdba8","6657932c484b21aefc715b2e","478","stimuli/20010012.jpg"," ","","feedback_trial","2","","","","","","","","","","","","","","","","","","","","",""
"","","","","","image-keyboard-response","266","547853","0.0-241.0","646619d0918746fb726da63e","665500ab8938657b03fbdba8","6657932c484b21aefc715b2e","1008","stimuli/0111011.jpg","0","","prediction_trial","2","","false","","0","true","true","false","false","false","false","[0,2,1]","111","011","0","","","","","","",""
"","","","","","image-keyboard-response","267","548753","0.0-242.0","646619d0918746fb726da63e","665500ab8938657b03fbdba8","6657932c484b21aefc715b2e","899","stimuli/01110112.jpg"," ","","feedback_trial","0","","","","","","","","","","","","","","","","","","","","",""
"","","","","","image-keyboard-response","268","550153","0.0-243.0","646619d0918746fb726da63e","665500ab8938657b03fbdba8","6657932c484b21aefc715b2e","1397","stimuli/1110010.jpg","1","","prediction_trial","0","","false","","1","false","true","false","false","false","false","[0,1]","110","010","0","","","","","","",""
"","","","","","image-keyboard-response","269","550832","0.0-244.0","646619d0918746fb726da63e","665500ab8938657b03fbdba8","6657932c484b21aefc715b2e","677","stimuli/11100100.jpg"," ","","feedback_trial","0","","","","","","","","","","","","","","","","","","","","",""
"","","","","","image-keyboard-response","270","551733","0.0-245.0","646619d0918746fb726da63e","665500ab8938657b03fbdba8","6657932c484b21aefc715b2e","898","stimuli/2000110.jpg","2","","prediction_trial","2","","true","","2","true","true","true","true","true","true","[2]","000","110","1","","","","","","",""
"","","","","","image-keyboard-response","271","552193","0.0-246.0","646619d0918746fb726da63e","665500ab8938657b03fbdba8","6657932c484b21aefc715b2e","459","stimuli/20001102.jpg"," ","","feedback_trial","2","","","","","","","","","","","","","","","","","","","","",""
"","","","","","image-keyboard-response","272","554552","0.0-247.0","646619d0918746fb726da63e","665500ab8938657b03fbdba8","6657932c484b21aefc715b2e","2357","stimuli/1010101.jpg","1","","prediction_trial","1","","true","","1","true","true","false","true","false","true","[1]","010","101","1","","","","","","",""
"","","","","","image-keyboard-response","273","555123","0.0-248.0","646619d0918746fb726da63e","665500ab8938657b03fbdba8","6657932c484b21aefc715b2e","569","stimuli/10101011.jpg"," ","","feedback_trial","1","","","","","","","","","","","","","","","","","","","","",""
"","","","","","image-keyboard-response","274","557343","0.0-249.0","646619d0918746fb726da63e","665500ab8938657b03fbdba8","6657932c484b21aefc715b2e","2203","stimuli/1111010.jpg","1","","prediction_trial","0","","false","","1","false","true","false","false","false","false","[0,2,1]","111","010","0","","","","","","",""
"","","","","","image-keyboard-response","275","558053","0.0-250.0","646619d0918746fb726da63e","665500ab8938657b03fbdba8","6657932c484b21aefc715b2e","708","stimuli/11110100.jpg"," ","","feedback_trial","0","","","","","","","","","","","","","","","","","","","","",""
"","","","","","image-keyboard-response","276","559032","0.0-251.0","646619d0918746fb726da63e","665500ab8938657b03fbdba8","6657932c484b21aefc715b2e","977","stimuli/2000100.jpg","2","","prediction_trial","2","","true","","2","true","true","true","true","true","true","[2]","000","100","1","","","","","","",""
"","","","","","image-keyboard-response","277","559794","0.0-252.0","646619d0918746fb726da63e","665500ab8938657b03fbdba8","6657932c484b21aefc715b2e","759","stimuli/20001002.jpg"," ","","feedback_trial","2","","","","","","","","","","","","","","","","","","","","",""
"","","","","","image-keyboard-response","278","560821","0.0-253.0","646619d0918746fb726da63e","665500ab8938657b03fbdba8","6657932c484b21aefc715b2e","1027","stimuli/1100000.jpg","1","","prediction_trial","1","","true","","1","true","true","true","true","true","true","[1]","100","000","1","","","","","","",""
"","","","","","image-keyboard-response","279","561261","0.0-254.0","646619d0918746fb726da63e","665500ab8938657b03fbdba8","6657932c484b21aefc715b2e","438","stimuli/11000001.jpg"," ","","feedback_trial","1","","","","","","","","","","","","","","","","","","","","",""
"","","","","","image-keyboard-response","280","562790","0.0-255.0","646619d0918746fb726da63e","665500ab8938657b03fbdba8","6657932c484b21aefc715b2e","1528","stimuli/1011000.jpg","2","","prediction_trial","2","","true","","1","true","true","false","false","false","false","[1,2]","011","000","1","","","","","","",""
"","","","","","image-keyboard-response","281","563601","0.0-256.0","646619d0918746fb726da63e","665500ab8938657b03fbdba8","6657932c484b21aefc715b2e","808","stimuli/10110002.jpg"," ","","feedback_trial","1","","","","","","","","","","","","","","","","","","","","",""
"","","","","","image-keyboard-response","282","564940","0.0-257.0","646619d0918746fb726da63e","665500ab8938657b03fbdba8","6657932c484b21aefc715b2e","1337","stimuli/1111110.jpg","0","","prediction_trial","1","","false","","1","false","false","false","false","false","false","[2,1,0]","111","110","0","","","","","","",""
"","","","","","image-keyboard-response","283","565730","0.0-258.0","646619d0918746fb726da63e","665500ab8938657b03fbdba8","6657932c484b21aefc715b2e","784","stimuli/11111101.jpg"," ","","feedback_trial","2","","","","","","","","","","","","","","","","","","","","",""
"","","","","","image-keyboard-response","284","567010","0.0-259.0","646619d0918746fb726da63e","665500ab8938657b03fbdba8","6657932c484b21aefc715b2e","1278","stimuli/1001011.jpg","2","","prediction_trial","1","","false","","1","false","false","true","true","false","false","[1]","001","011","0","","","","","","",""
"","","","","","image-keyboard-response","285","567741","0.0-260.0","646619d0918746fb726da63e","665500ab8938657b03fbdba8","6657932c484b21aefc715b2e","728","stimuli/10010111.jpg"," ","","feedback_trial","1","","","","","","","","","","","","","","","","","","","","",""
"","","","","","image-keyboard-response","286","569431","0.0-261.0","646619d0918746fb726da63e","665500ab8938657b03fbdba8","6657932c484b21aefc715b2e","1688","stimuli/2101001.jpg","2","","prediction_trial","0","","false","","2","false","true","false","false","false","false","[0,2]","101","001","0","","","","","","",""
"","","","","","image-keyboard-response","287","570201","0.0-262.0","646619d0918746fb726da63e","665500ab8938657b03fbdba8","6657932c484b21aefc715b2e","767","stimuli/21010010.jpg"," ","","feedback_trial","0","","","","","","","","","","","","","","","","","","","","",""
"","","","","","image-keyboard-response","288","572581","0.0-263.0","646619d0918746fb726da63e","665500ab8938657b03fbdba8","6657932c484b21aefc715b2e","2378","stimuli/0110110.jpg","0","","prediction_trial","1","","false","","0","false","false","false","false","false","false","[0,1]","110","110","0","","","","","","",""
"","","","","","image-keyboard-response","289","573451","0.0-264.0","646619d0918746fb726da63e","665500ab8938657b03fbdba8","6657932c484b21aefc715b2e","868","stimuli/01101101.jpg"," ","","feedback_trial","0","","","","","","","","","","","","","","","","","","","","",""
"","","","","","image-keyboard-response","290","580090","0.0-265.0","646619d0918746fb726da63e","665500ab8938657b03fbdba8","6657932c484b21aefc715b2e","6637","stimuli/0110001.jpg","0","","prediction_trial","1","","false","","0","true","true","false","false","false","false","[0,1]","110","001","0","","","","","","",""
"","","","","","image-keyboard-response","291","580971","0.0-266.0","646619d0918746fb726da63e","665500ab8938657b03fbdba8","6657932c484b21aefc715b2e","878","stimuli/01100011.jpg"," ","","feedback_trial","0","","","","","","","","","","","","","","","","","","","","",""
"","","","","","image-keyboard-response","292","583060","0.0-267.0","646619d0918746fb726da63e","665500ab8938657b03fbdba8","6657932c484b21aefc715b2e","2088","stimuli/1111011.jpg","0","","prediction_trial","1","","false","","1","false","false","false","false","false","false","[2,0,1]","111","011","0","","","","","","",""
"","","","","","image-keyboard-response","293","583751","0.0-268.0","646619d0918746fb726da63e","665500ab8938657b03fbdba8","6657932c484b21aefc715b2e","688","stimuli/11110111.jpg"," ","","feedback_trial","2","","","","","","","","","","","","","","","","","","","","",""
"","","","","","image-keyboard-response","294","586041","0.0-269.0","646619d0918746fb726da63e","665500ab8938657b03fbdba8","6657932c484b21aefc715b2e","2287","stimuli/1001111.jpg","1","","prediction_trial","1","","true","","1","false","false","true","true","false","false","[1]","001","111","1","","","","","","",""
"","","","","","image-keyboard-response","295","587040","0.0-270.0","646619d0918746fb726da63e","665500ab8938657b03fbdba8","6657932c484b21aefc715b2e","997","stimuli/10011111.jpg"," ","","feedback_trial","1","","","","","","","","","","","","","","","","","","","","",""
"","","","","","image-keyboard-response","296","587940","0.0-271.0","646619d0918746fb726da63e","665500ab8938657b03fbdba8","6657932c484b21aefc715b2e","899","stimuli/2010000.jpg","2","","prediction_trial","2","","true","","2","true","true","true","true","true","true","[2]","010","000","1","","","","","","",""
"","","","","","image-keyboard-response","297","588521","0.0-272.0","646619d0918746fb726da63e","665500ab8938657b03fbdba8","6657932c484b21aefc715b2e","577","stimuli/20100002.jpg"," ","","feedback_trial","2","","","","","","","","","","","","","","","","","","","","",""
"","","","","","image-keyboard-response","298","591430","0.0-273.0","646619d0918746fb726da63e","665500ab8938657b03fbdba8","6657932c484b21aefc715b2e","2908","stimuli/0001111.jpg","1","","prediction_trial","0","","false","","0","false","false","true","true","false","false","[0]","001","111","0","","","","","","",""
"","","","","","image-keyboard-response","299","592020","0.0-274.0","646619d0918746fb726da63e","665500ab8938657b03fbdba8","6657932c484b21aefc715b2e","588","stimuli/00011110.jpg"," ","","feedback_trial","0","","","","","","","","","","","","","","","","","","","","",""
"","","","","","image-keyboard-response","300","593060","0.0-275.0","646619d0918746fb726da63e","665500ab8938657b03fbdba8","6657932c484b21aefc715b2e","1038","stimuli/0100111.jpg","1","","prediction_trial","0","","false","","0","false","false","false","true","false","false","[0]","100","111","0","","","","","","",""
"","","","","","image-keyboard-response","301","593921","0.0-276.0","646619d0918746fb726da63e","665500ab8938657b03fbdba8","6657932c484b21aefc715b2e","858","stimuli/01001110.jpg"," ","","feedback_trial","0","","","","","","","","","","","","","","","","","","","","",""
"","","","","","image-keyboard-response","302","595970","0.0-277.0","646619d0918746fb726da63e","665500ab8938657b03fbdba8","6657932c484b21aefc715b2e","2048","stimuli/2101111.jpg","1","","prediction_trial","2","","false","","2","false","false","false","false","false","false","[0,2]","101","111","0","","","","","","",""
"","","","","","image-keyboard-response","303","596720","0.0-278.0","646619d0918746fb726da63e","665500ab8938657b03fbdba8","6657932c484b21aefc715b2e","749","stimuli/21011112.jpg"," ","","feedback_trial","0","","","","","","","","","","","","","","","","","","","","",""
"","","","","","image-keyboard-response","304","598201","0.0-279.0","646619d0918746fb726da63e","665500ab8938657b03fbdba8","6657932c484b21aefc715b2e","1478","stimuli/2011110.jpg","1","","prediction_trial","1","","true","","2","true","true","false","false","false","false","[2,1]","011","110","1","","","","","","",""
"","","","","","image-keyboard-response","305","598730","0.0-280.0","646619d0918746fb726da63e","665500ab8938657b03fbdba8","6657932c484b21aefc715b2e","528","stimuli/20111101.jpg"," ","","feedback_trial","2","","","","","","","","","","","","","","","","","","","","",""
"","","","","","image-keyboard-response","306","601430","0.0-281.0","646619d0918746fb726da63e","665500ab8938657b03fbdba8","6657932c484b21aefc715b2e","2698","stimuli/0110000.jpg","1","","prediction_trial","0","","false","","0","true","true","false","false","false","false","[0,1]","110","000","0","","","","","","",""
"","","","","","image-keyboard-response","307","602171","0.0-282.0","646619d0918746fb726da63e","665500ab8938657b03fbdba8","6657932c484b21aefc715b2e","738","stimuli/01100000.jpg"," ","","feedback_trial","0","","","","","","","","","","","","","","","","","","","","",""
"","","","","","image-keyboard-response","308","604690","0.0-283.0","646619d0918746fb726da63e","665500ab8938657b03fbdba8","6657932c484b21aefc715b2e","2517","stimuli/0010001.jpg","0","","prediction_trial","0","","true","","0","true","true","true","true","true","true","[0]","010","001","1","","","","","","",""
"","","","","","image-keyboard-response","309","605121","0.0-284.0","646619d0918746fb726da63e","665500ab8938657b03fbdba8","6657932c484b21aefc715b2e","428","stimuli/00100010.jpg"," ","","feedback_trial","0","","","","","","","","","","","","","","","","","","","","",""
"","","","","","image-keyboard-response","310","606800","0.0-285.0","646619d0918746fb726da63e","665500ab8938657b03fbdba8","6657932c484b21aefc715b2e","1678","stimuli/1011101.jpg","1","","prediction_trial","2","","false","","1","true","true","false","false","false","false","[2,1]","011","101","0","","","","","","",""
"","","","","","image-keyboard-response","311","607820","0.0-286.0","646619d0918746fb726da63e","665500ab8938657b03fbdba8","6657932c484b21aefc715b2e","1019","stimuli/10111012.jpg"," ","","feedback_trial","2","","","","","","","","","","","","","","","","","","","","",""
"","","","","","image-keyboard-response","312","608651","0.0-287.0","646619d0918746fb726da63e","665500ab8938657b03fbdba8","6657932c484b21aefc715b2e","828","stimuli/2100010.jpg","2","","prediction_trial","2","","true","","2","true","true","true","true","true","true","[2]","100","010","1","","","","","","",""
"","","","","","image-keyboard-response","313","609281","0.0-288.0","646619d0918746fb726da63e","665500ab8938657b03fbdba8","6657932c484b21aefc715b2e","628","stimuli/21000102.jpg"," ","","feedback_trial","2","","","","","","","","","","","","","","","","","","","","",""
"","","","","","image-keyboard-response","314","610750","0.0-289.0","646619d0918746fb726da63e","665500ab8938657b03fbdba8","6657932c484b21aefc715b2e","1467","stimuli/1010010.jpg","1","","prediction_trial","1","","true","","1","false","true","false","true","false","true","[1]","010","010","1","","","","","","",""
"","","","","","image-keyboard-response","315","611421","0.0-290.0","646619d0918746fb726da63e","665500ab8938657b03fbdba8","6657932c484b21aefc715b2e","668","stimuli/10100101.jpg"," ","","feedback_trial","1","","","","","","","","","","","","","","","","","","","","",""
"","","","","","image-keyboard-response","316","612720","0.0-291.0","646619d0918746fb726da63e","665500ab8938657b03fbdba8","6657932c484b21aefc715b2e","1298","stimuli/2011101.jpg","2","","prediction_trial","2","","true","","2","false","false","false","false","false","false","[1,2]","011","101","1","","","","","","",""
"","","","","","image-keyboard-response","317","614230","0.0-292.0","646619d0918746fb726da63e","665500ab8938657b03fbdba8","6657932c484b21aefc715b2e","1509","stimuli/20111012.jpg"," ","","feedback_trial","1","","","","","","","","","","","","","","","","","","","","",""
"","","","","","survey-html-form","318","636121","0.0-293.0","646619d0918746fb726da63e","665500ab8938657b03fbdba8","6657932c484b21aefc715b2e","21875","","{""feedback"":""Just a guess"",""age"":""61"",""gender"":""Female"",""other_gender"":"""",""race"":""White"",""other_race"":"""",""ethnicity"":""Non-Hispanic""}","","exit_survey","","","","","","","","","","","","","","","","Just a guess","61","Non-Hispanic","Female","White","0.625","0.625"
