"success","timeout","failed_images","failed_audio","failed_video","trial_type","trial_index","time_elapsed","internal_node_id","prolific_id","prolific_study_id","prolific_session_id","rt","stimulus","response","view_history","trial","character_choice","stimulus_dict","accuracy","correct_response","ball_pos","ego_ball_visible","ego_can_infer","alter_ball_visible","alter_can_infer","collective_ball_visible","collective_can_infer","search_locations","alter_occluders","ego_occluders","accuracy_bool","feedback","age","ethnicity","gender","race","overall_accuracy","bonus"
"true","false","[]","[]","[]","preload","0","4178","0.0-0.0","5dc474fd45b8f933f16d6241","665500ab8938657b03fbdba8","665795f0383316f3613518c6","","","","","","","","","","","","","","","","","","","","","","","","","","",""
"true","","","","","fullscreen","1","13738","0.0-1.0","5dc474fd45b8f933f16d6241","665500ab8938657b03fbdba8","665795f0383316f3613518c6","","","","","","","","","","","","","","","","","","","","","","","","","","",""
"","","","","","html-button-response","2","18061","0.0-2.0","5dc474fd45b8f933f16d6241","665500ab8938657b03fbdba8","665795f0383316f3613518c6","4315","<p><b>Consent Form</b></p> <div style=""text-align:left;background-color:lightgrey; padding:20px; max-width:900px;""><p>Please consider this information carefully before deciding whether to participate in this research.</p> <p>The purpose of this research is to examine which factors influence social judgment and decision-making. You will be asked to make judgements about individuals and actions in social scenarios. We are simply interested in your judgement. The study will take less than 1 hour to complete, and you will receive less than $20 on Prolific. Your compensation and time commitment are specified in the study description. There are no anticipated risks associated with participating in this study. The effects of participating should be comparable to those you would ordinarily experience from viewing a computer monitor and using a mouse or keyboard for a similar amount of time. At the end of the study, we will provide an explanation of the questions that motivate this line of research and will describe the potential implications. </p><p> Your participation in this study is completely voluntary and you may refuse to participate or you may choose to withdraw at any time without penalty or loss of benefits to you which are otherwise entitled. Your participation in this study will remain confidential. No personally identifiable information will be associated with your data. Also, all analyses of the data will be averaged across all the participants, so your individual responses will never be specifically analyzed. </p><p> If you have questions or concerns about your participation or payment, or want to request a summary of research findings, please contact Dr. Jonathan Phillips at Jonathan.S.Phillips@dartmouth.edu. </p><p> Please save a copy of this form for your records. </p><p><b>Agreement: </b>The nature and purpose of this research have been sufficiently explained and I agree to participate in this study. I understand that I am free to withdraw at any time without incurring any penalty. Please consent by clicking the button below to continue. Otherwise, please exit the study at any time. </p>","0","","","","","","","","","","","","","","","","","","","","","","","",""
"","","","","","instructions","3","162723","0.0-3.0-0.0","5dc474fd45b8f933f16d6241","665500ab8938657b03fbdba8","665795f0383316f3613518c6","144661","","","[{""page_index"":0,""viewing_time"":4029},{""page_index"":1,""viewing_time"":7711},{""page_index"":2,""viewing_time"":8695},{""page_index"":3,""viewing_time"":35379},{""page_index"":4,""viewing_time"":9167},{""page_index"":5,""viewing_time"":16717},{""page_index"":6,""viewing_time"":4351},{""page_index"":7,""viewing_time"":21869},{""page_index"":8,""viewing_time"":5622},{""page_index"":9,""viewing_time"":3000},{""page_index"":10,""viewing_time"":12599},{""page_index"":11,""viewing_time"":9271},{""page_index"":12,""viewing_time"":4822},{""page_index"":13,""viewing_time"":1425}]","intro","","","","","","","","","","","","","","","","","","","","","",""
"","","","","","image-keyboard-response","4","165922","0.0-3.0-1.0","5dc474fd45b8f933f16d6241","665500ab8938657b03fbdba8","665795f0383316f3613518c6","3192","stimuli/1001101.jpg","1","","prediction_practice","1","{""filepath"":""stimuli/1001101.jpg"",""ball_pos"":1,""ego_ball_visible"":true,""ego_can_infer"":true,""alter_ball_visible"":true,""alter_can_infer"":true,""collective_ball_visible"":true,""collective_can_infer"":true,""search_locations"":[1],""alter_occluders"":""001"",""ego_occluders"":""101""}","true","","","","","","","","","","","","","","","","","","",""
"","","","","","image-keyboard-response","5","167590","0.0-3.0-2.0","5dc474fd45b8f933f16d6241","665500ab8938657b03fbdba8","665795f0383316f3613518c6","1661","stimuli/10011011.jpg"," ","","practrice_feedback","1","","","","","","","","","","","","","","","","","","","","",""
"","","","","","image-keyboard-response","6","168719","0.0-3.0-3.0","5dc474fd45b8f933f16d6241","665500ab8938657b03fbdba8","665795f0383316f3613518c6","1126","stimuli/0010010.jpg","0","","prediction_practice","0","{""filepath"":""stimuli/0010010.jpg"",""ball_pos"":0,""ego_ball_visible"":true,""ego_can_infer"":true,""alter_ball_visible"":true,""alter_can_infer"":true,""collective_ball_visible"":true,""collective_can_infer"":true,""search_locations"":[0],""alter_occluders"":""010"",""ego_occluders"":""010""}","true","","","","","","","","","","","","","","","","","","",""
"","","","","","image-keyboard-response","7","169492","0.0-3.0-4.0","5dc474fd45b8f933f16d6241","665500ab8938657b03fbdba8","665795f0383316f3613518c6","770","stimuli/00100100.jpg"," ","","practrice_feedback","0","","","","","","","","","","","","","","","","","","","","",""
"","","","","","image-keyboard-response","8","171926","0.0-3.0-5.0","5dc474fd45b8f933f16d6241","665500ab8938657b03fbdba8","665795f0383316f3613518c6","2439","stimuli/0101110.jpg","1","","prediction_practice","0","{""filepath"":""stimuli/0101110.jpg"",""ball_pos"":0,""ego_ball_visible"":false,""ego_can_infer"":false,""alter_ball_visible"":false,""alter_can_infer"":false,""collective_ball_visible"":false,""collective_can_infer"":false,""search_locations"":[0,2],""alter_occluders"":""101"",""ego_occluders"":""110""}","false","","","","","","","","","","","","","","","","","","",""
"","","","","","image-keyboard-response","9","175323","0.0-3.0-6.0","5dc474fd45b8f933f16d6241","665500ab8938657b03fbdba8","665795f0383316f3613518c6","3394","stimuli/01011100.jpg"," ","","practrice_feedback","0","","","","","","","","","","","","","","","","","","","","",""
"","","","","","image-keyboard-response","10","176547","0.0-3.0-7.0","5dc474fd45b8f933f16d6241","665500ab8938657b03fbdba8","665795f0383316f3613518c6","1221","stimuli/2100000.jpg","2","","prediction_practice","2","{""filepath"":""stimuli/2100000.jpg"",""ball_pos"":2,""ego_ball_visible"":true,""ego_can_infer"":true,""alter_ball_visible"":true,""alter_can_infer"":true,""collective_ball_visible"":true,""collective_can_infer"":true,""search_locations"":[2],""alter_occluders"":""100"",""ego_occluders"":""000""}","true","","","","","","","","","","","","","","","","","","",""
"","","","","","image-keyboard-response","11","177961","0.0-3.0-8.0","5dc474fd45b8f933f16d6241","665500ab8938657b03fbdba8","665795f0383316f3613518c6","1410","stimuli/21000002.jpg"," ","","practrice_feedback","2","","","","","","","","","","","","","","","","","","","","",""
"","","","","","image-keyboard-response","12","180723","0.0-3.0-9.0","5dc474fd45b8f933f16d6241","665500ab8938657b03fbdba8","665795f0383316f3613518c6","2760","stimuli/1100111.jpg","1","","prediction_practice","1","{""filepath"":""stimuli/1100111.jpg"",""ball_pos"":1,""ego_ball_visible"":false,""ego_can_infer"":false,""alter_ball_visible"":true,""alter_can_infer"":true,""collective_ball_visible"":false,""collective_can_infer"":false,""search_locations"":[1],""alter_occluders"":""100"",""ego_occluders"":""111""}","true","","","","","","","","","","","","","","","","","","",""
"","","","","","image-keyboard-response","13","182115","0.0-3.0-10.0","5dc474fd45b8f933f16d6241","665500ab8938657b03fbdba8","665795f0383316f3613518c6","1388","stimuli/11001111.jpg"," ","","practrice_feedback","1","","","","","","","","","","","","","","","","","","","","",""
"","","","","","image-keyboard-response","14","183202","0.0-3.0-11.0","5dc474fd45b8f933f16d6241","665500ab8938657b03fbdba8","665795f0383316f3613518c6","1084","stimuli/0011010.jpg","0","","prediction_practice","0","{""filepath"":""stimuli/0011010.jpg"",""ball_pos"":0,""ego_ball_visible"":true,""ego_can_infer"":true,""alter_ball_visible"":true,""alter_can_infer"":true,""collective_ball_visible"":true,""collective_can_infer"":true,""search_locations"":[0],""alter_occluders"":""011"",""ego_occluders"":""010""}","true","","","","","","","","","","","","","","","","","","",""
"","","","","","image-keyboard-response","15","184194","0.0-3.0-12.0","5dc474fd45b8f933f16d6241","665500ab8938657b03fbdba8","665795f0383316f3613518c6","989","stimuli/00110100.jpg"," ","","practrice_feedback","0","","","","","","","","","","","","","","","","","","","","",""
"","","","","","image-keyboard-response","16","185602","0.0-3.0-13.0","5dc474fd45b8f933f16d6241","665500ab8938657b03fbdba8","665795f0383316f3613518c6","1404","stimuli/0100001.jpg","0","","prediction_practice","0","{""filepath"":""stimuli/0100001.jpg"",""ball_pos"":0,""ego_ball_visible"":true,""ego_can_infer"":true,""alter_ball_visible"":false,""alter_can_infer"":true,""collective_ball_visible"":false,""collective_can_infer"":true,""search_locations"":[0],""alter_occluders"":""100"",""ego_occluders"":""001""}","true","","","","","","","","","","","","","","","","","","",""
"","","","","","image-keyboard-response","17","186417","0.0-3.0-14.0","5dc474fd45b8f933f16d6241","665500ab8938657b03fbdba8","665795f0383316f3613518c6","812","stimuli/01000010.jpg"," ","","practrice_feedback","0","","","","","","","","","","","","","","","","","","","","",""
"","","","","","image-keyboard-response","18","187505","0.0-3.0-15.0","5dc474fd45b8f933f16d6241","665500ab8938657b03fbdba8","665795f0383316f3613518c6","1084","stimuli/0111010.jpg","0","","prediction_practice","2","{""filepath"":""stimuli/0111010.jpg"",""ball_pos"":0,""ego_ball_visible"":true,""ego_can_infer"":true,""alter_ball_visible"":false,""alter_can_infer"":false,""collective_ball_visible"":false,""collective_can_infer"":false,""search_locations"":[1,2,0],""alter_occluders"":""111"",""ego_occluders"":""010""}","false","","","","","","","","","","","","","","","","","","",""
"","","","","","image-keyboard-response","19","192943","0.0-3.0-16.0","5dc474fd45b8f933f16d6241","665500ab8938657b03fbdba8","665795f0383316f3613518c6","5436","stimuli/01110102.jpg"," ","","practrice_feedback","1","","","","","","","","","","","","","","","","","","","","",""
"","","","","","image-keyboard-response","20","194121","0.0-3.0-17.0","5dc474fd45b8f933f16d6241","665500ab8938657b03fbdba8","665795f0383316f3613518c6","1176","stimuli/2011100.jpg","2","","prediction_practice","2","{""filepath"":""stimuli/2011100.jpg"",""ball_pos"":2,""ego_ball_visible"":true,""ego_can_infer"":true,""alter_ball_visible"":false,""alter_can_infer"":false,""collective_ball_visible"":false,""collective_can_infer"":false,""search_locations"":[1,2],""alter_occluders"":""011"",""ego_occluders"":""100""}","true","","","","","","","","","","","","","","","","","","",""
"","","","","","image-keyboard-response","21","195160","0.0-3.0-18.0","5dc474fd45b8f933f16d6241","665500ab8938657b03fbdba8","665795f0383316f3613518c6","1035","stimuli/20111002.jpg"," ","","practrice_feedback","1","","","","","","","","","","","","","","","","","","","","",""
"","","","","","image-keyboard-response","22","196160","0.0-3.0-19.0","5dc474fd45b8f933f16d6241","665500ab8938657b03fbdba8","665795f0383316f3613518c6","996","stimuli/2100100.jpg","2","","prediction_practice","2","{""filepath"":""stimuli/2100100.jpg"",""ball_pos"":2,""ego_ball_visible"":true,""ego_can_infer"":true,""alter_ball_visible"":true,""alter_can_infer"":true,""collective_ball_visible"":true,""collective_can_infer"":true,""search_locations"":[2],""alter_occluders"":""100"",""ego_occluders"":""100""}","true","","","","","","","","","","","","","","","","","","",""
"","","","","","image-keyboard-response","23","197128","0.0-3.0-20.0","5dc474fd45b8f933f16d6241","665500ab8938657b03fbdba8","665795f0383316f3613518c6","963","stimuli/21001002.jpg"," ","","practrice_feedback","2","","","","","","","","","","","","","","","","","","","","",""
"","","","","","html-button-response","24","202723","0.0-3.0-21.0","5dc474fd45b8f933f16d6241","665500ab8938657b03fbdba8","665795f0383316f3613518c6","5592","Now that you've had some practice, you'll be tested with a couple of easy trials. If you correctly predict Sam's choice, you'll move on to complete the experiment!","0","","","","","","","","","","","","","","","","","","","","","","","",""
"","","","","","image-keyboard-response","25","204399","0.0-3.0-22.0-0.0","5dc474fd45b8f933f16d6241","665500ab8938657b03fbdba8","665795f0383316f3613518c6","1673","stimuli/0000011.jpg","arrowleft","","comprehension_quiz","","","true","arrowleft","","","","","","","","","","","","","","","","","",""
"","","","","","image-keyboard-response","26","205160","0.0-3.0-22.0-1.0","5dc474fd45b8f933f16d6241","665500ab8938657b03fbdba8","665795f0383316f3613518c6","756","stimuli/00000110.jpg"," ","","comprehension_quiz","","","true"," ","","","","","","","","","","","","","","","","","",""
"","","","","","image-keyboard-response","27","206688","0.0-3.0-22.0-2.0","5dc474fd45b8f933f16d6241","665500ab8938657b03fbdba8","665795f0383316f3613518c6","1525","stimuli/1010010.jpg","arrowdown","","comprehension_quiz","","","true","arrowdown","","","","","","","","","","","","","","","","","",""
"","","","","","image-keyboard-response","28","207510","0.0-3.0-22.0-3.0","5dc474fd45b8f933f16d6241","665500ab8938657b03fbdba8","665795f0383316f3613518c6","819","stimuli/10100101.jpg"," ","","comprehension_quiz","","","true"," ","","","","","","","","","","","","","","","","","",""
"","","","","","html-button-response","29","209330","0.0-4.0","5dc474fd45b8f933f16d6241","665500ab8938657b03fbdba8","665795f0383316f3613518c6","1815","The experiment will now begin.","0","","","","","","","","","","","","","","","","","","","","","","","",""
"","","","","","image-keyboard-response","30","211184","0.0-5.0","5dc474fd45b8f933f16d6241","665500ab8938657b03fbdba8","665795f0383316f3613518c6","1850","stimuli/2101010.jpg","2","","prediction_trial","0","","false","","2","true","true","false","false","false","false","[0,2]","101","010","0","","","","","","",""
"","","","","","image-keyboard-response","31","217679","0.0-6.0","5dc474fd45b8f933f16d6241","665500ab8938657b03fbdba8","665795f0383316f3613518c6","6489","stimuli/21010100.jpg"," ","","feedback_trial","0","","","","","","","","","","","","","","","","","","","","",""
"","","","","","image-keyboard-response","32","218589","0.0-7.0","5dc474fd45b8f933f16d6241","665500ab8938657b03fbdba8","665795f0383316f3613518c6","907","stimuli/0111011.jpg","0","","prediction_trial","1","","false","","0","true","true","false","false","false","false","[2,0,1]","111","011","0","","","","","","",""
"","","","","","image-keyboard-response","33","220677","0.0-8.0","5dc474fd45b8f933f16d6241","665500ab8938657b03fbdba8","665795f0383316f3613518c6","2085","stimuli/01110111.jpg"," ","","feedback_trial","2","","","","","","","","","","","","","","","","","","","","",""
"","","","","","image-keyboard-response","34","221509","0.0-9.0","5dc474fd45b8f933f16d6241","665500ab8938657b03fbdba8","665795f0383316f3613518c6","828","stimuli/1111100.jpg","1","","prediction_trial","0","","false","","1","true","true","false","false","false","false","[0,2,1]","111","100","0","","","","","","",""
"","","","","","image-keyboard-response","35","223892","0.0-10.0","5dc474fd45b8f933f16d6241","665500ab8938657b03fbdba8","665795f0383316f3613518c6","2381","stimuli/11111000.jpg"," ","","feedback_trial","0","","","","","","","","","","","","","","","","","","","","",""
"","","","","","image-keyboard-response","36","225147","0.0-11.0","5dc474fd45b8f933f16d6241","665500ab8938657b03fbdba8","665795f0383316f3613518c6","1252","stimuli/1110011.jpg","1","","prediction_trial","0","","false","","1","false","false","false","false","false","false","[0,1]","110","011","0","","","","","","",""
"","","","","","image-keyboard-response","37","226413","0.0-12.0","5dc474fd45b8f933f16d6241","665500ab8938657b03fbdba8","665795f0383316f3613518c6","1261","stimuli/11100110.jpg"," ","","feedback_trial","0","","","","","","","","","","","","","","","","","","","","",""
"","","","","","image-keyboard-response","38","227477","0.0-13.0","5dc474fd45b8f933f16d6241","665500ab8938657b03fbdba8","665795f0383316f3613518c6","1061","stimuli/2101000.jpg","2","","prediction_trial","0","","false","","2","true","true","false","false","false","false","[2,0]","101","000","0","","","","","","",""
"","","","","","image-keyboard-response","39","232108","0.0-14.0","5dc474fd45b8f933f16d6241","665500ab8938657b03fbdba8","665795f0383316f3613518c6","4620","stimuli/21010000.jpg"," ","","feedback_trial","2","","","","","","","","","","","","","","","","","","","","",""
"","","","","","image-keyboard-response","40","233564","0.0-15.0","5dc474fd45b8f933f16d6241","665500ab8938657b03fbdba8","665795f0383316f3613518c6","1454","stimuli/1010001.jpg","1","","prediction_trial","1","","true","","1","true","true","false","true","false","true","[1]","010","001","1","","","","","","",""
"","","","","","image-keyboard-response","41","234564","0.0-16.0","5dc474fd45b8f933f16d6241","665500ab8938657b03fbdba8","665795f0383316f3613518c6","997","stimuli/10100011.jpg"," ","","feedback_trial","1","","","","","","","","","","","","","","","","","","","","",""
"","","","","","image-keyboard-response","42","237178","0.0-17.0","5dc474fd45b8f933f16d6241","665500ab8938657b03fbdba8","665795f0383316f3613518c6","2612","stimuli/2111001.jpg","2","","prediction_trial","0","","false","","2","false","true","false","false","false","false","[0,2,1]","111","001","0","","","","","","",""
"","","","","","image-keyboard-response","43","238249","0.0-18.0","5dc474fd45b8f933f16d6241","665500ab8938657b03fbdba8","665795f0383316f3613518c6","1068","stimuli/21110010.jpg"," ","","feedback_trial","0","","","","","","","","","","","","","","","","","","","","",""
"","","","","","image-keyboard-response","44","239482","0.0-19.0","5dc474fd45b8f933f16d6241","665500ab8938657b03fbdba8","665795f0383316f3613518c6","1231","stimuli/1010101.jpg","1","","prediction_trial","1","","true","","1","true","true","false","true","false","true","[1]","010","101","1","","","","","","",""
"","","","","","image-keyboard-response","45","240282","0.0-20.0","5dc474fd45b8f933f16d6241","665500ab8938657b03fbdba8","665795f0383316f3613518c6","797","stimuli/10101011.jpg"," ","","feedback_trial","1","","","","","","","","","","","","","","","","","","","","",""
"","","","","","image-keyboard-response","46","242099","0.0-21.0","5dc474fd45b8f933f16d6241","665500ab8938657b03fbdba8","665795f0383316f3613518c6","1813","stimuli/1000000.jpg","1","","prediction_trial","1","","true","","1","true","true","true","true","true","true","[1]","000","000","1","","","","","","",""
"","","","","","image-keyboard-response","47","243159","0.0-22.0","5dc474fd45b8f933f16d6241","665500ab8938657b03fbdba8","665795f0383316f3613518c6","1057","stimuli/10000001.jpg"," ","","feedback_trial","1","","","","","","","","","","","","","","","","","","","","",""
"","","","","","image-keyboard-response","48","246680","0.0-23.0","5dc474fd45b8f933f16d6241","665500ab8938657b03fbdba8","665795f0383316f3613518c6","3519","stimuli/1011101.jpg","1","","prediction_trial","1","","true","","1","true","true","false","false","false","false","[1,2]","011","101","1","","","","","","",""
"","","","","","image-keyboard-response","49","247409","0.0-24.0","5dc474fd45b8f933f16d6241","665500ab8938657b03fbdba8","665795f0383316f3613518c6","726","stimuli/10111011.jpg"," ","","feedback_trial","1","","","","","","","","","","","","","","","","","","","","",""
"","","","","","image-keyboard-response","50","250658","0.0-25.0","5dc474fd45b8f933f16d6241","665500ab8938657b03fbdba8","665795f0383316f3613518c6","3246","stimuli/2010111.jpg","0","","prediction_trial","2","","false","","2","false","false","true","true","false","false","[2]","010","111","0","","","","","","",""
"","","","","","image-keyboard-response","51","251833","0.0-26.0","5dc474fd45b8f933f16d6241","665500ab8938657b03fbdba8","665795f0383316f3613518c6","1171","stimuli/20101112.jpg"," ","","feedback_trial","2","","","","","","","","","","","","","","","","","","","","",""
"","","","","","image-keyboard-response","52","254120","0.0-27.0","5dc474fd45b8f933f16d6241","665500ab8938657b03fbdba8","665795f0383316f3613518c6","2284","stimuli/1001110.jpg","1","","prediction_trial","1","","true","","1","false","false","true","true","false","false","[1]","001","110","1","","","","","","",""
"","","","","","image-keyboard-response","53","254952","0.0-28.0","5dc474fd45b8f933f16d6241","665500ab8938657b03fbdba8","665795f0383316f3613518c6","829","stimuli/10011101.jpg"," ","","feedback_trial","1","","","","","","","","","","","","","","","","","","","","",""
"","","","","","image-keyboard-response","54","258375","0.0-29.0","5dc474fd45b8f933f16d6241","665500ab8938657b03fbdba8","665795f0383316f3613518c6","3420","stimuli/2101100.jpg","2","","prediction_trial","0","","false","","2","true","true","false","false","false","false","[0,2]","101","100","0","","","","","","",""
"","","","","","image-keyboard-response","55","260095","0.0-30.0","5dc474fd45b8f933f16d6241","665500ab8938657b03fbdba8","665795f0383316f3613518c6","1715","stimuli/21011000.jpg"," ","","feedback_trial","0","","","","","","","","","","","","","","","","","","","","",""
"","","","","","image-keyboard-response","56","262056","0.0-31.0","5dc474fd45b8f933f16d6241","665500ab8938657b03fbdba8","665795f0383316f3613518c6","1957","stimuli/2001000.jpg","2","","prediction_trial","2","","true","","2","true","true","false","true","false","true","[2]","001","000","1","","","","","","",""
"","","","","","image-keyboard-response","57","262806","0.0-32.0","5dc474fd45b8f933f16d6241","665500ab8938657b03fbdba8","665795f0383316f3613518c6","748","stimuli/20010002.jpg"," ","","feedback_trial","2","","","","","","","","","","","","","","","","","","","","",""
"","","","","","image-keyboard-response","58","266151","0.0-33.0","5dc474fd45b8f933f16d6241","665500ab8938657b03fbdba8","665795f0383316f3613518c6","3342","stimuli/1001111.jpg","2","","prediction_trial","1","","false","","1","false","false","true","true","false","false","[1]","001","111","0","","","","","","",""
"","","","","","image-keyboard-response","59","266926","0.0-34.0","5dc474fd45b8f933f16d6241","665500ab8938657b03fbdba8","665795f0383316f3613518c6","772","stimuli/10011111.jpg"," ","","feedback_trial","1","","","","","","","","","","","","","","","","","","","","",""
"","","","","","image-keyboard-response","60","270303","0.0-35.0","5dc474fd45b8f933f16d6241","665500ab8938657b03fbdba8","665795f0383316f3613518c6","3374","stimuli/0010100.jpg","0","","prediction_trial","0","","true","","0","false","true","true","true","false","true","[0]","010","100","1","","","","","","",""
"","","","","","image-keyboard-response","61","271157","0.0-36.0","5dc474fd45b8f933f16d6241","665500ab8938657b03fbdba8","665795f0383316f3613518c6","850","stimuli/00101000.jpg"," ","","feedback_trial","0","","","","","","","","","","","","","","","","","","","","",""
"","","","","","image-keyboard-response","62","272679","0.0-37.0","5dc474fd45b8f933f16d6241","665500ab8938657b03fbdba8","665795f0383316f3613518c6","1519","stimuli/1001101.jpg","1","","prediction_trial","1","","true","","1","true","true","true","true","true","true","[1]","001","101","1","","","","","","",""
"","","","","","image-keyboard-response","63","273398","0.0-38.0","5dc474fd45b8f933f16d6241","665500ab8938657b03fbdba8","665795f0383316f3613518c6","715","stimuli/10011011.jpg"," ","","feedback_trial","1","","","","","","","","","","","","","","","","","","","","",""
"","","","","","image-keyboard-response","64","276894","0.0-39.0","5dc474fd45b8f933f16d6241","665500ab8938657b03fbdba8","665795f0383316f3613518c6","3493","stimuli/1110110.jpg","1","","prediction_trial","1","","true","","1","false","false","false","false","false","false","[0,1]","110","110","1","","","","","","",""
"","","","","","image-keyboard-response","65","277685","0.0-40.0","5dc474fd45b8f933f16d6241","665500ab8938657b03fbdba8","665795f0383316f3613518c6","788","stimuli/11101101.jpg"," ","","feedback_trial","0","","","","","","","","","","","","","","","","","","","","",""
"","","","","","image-keyboard-response","66","279887","0.0-41.0","5dc474fd45b8f933f16d6241","665500ab8938657b03fbdba8","665795f0383316f3613518c6","2199","stimuli/2000001.jpg","2","","prediction_trial","2","","true","","2","false","true","true","true","false","true","[2]","000","001","1","","","","","","",""
"","","","","","image-keyboard-response","67","280606","0.0-42.0","5dc474fd45b8f933f16d6241","665500ab8938657b03fbdba8","665795f0383316f3613518c6","715","stimuli/20000012.jpg"," ","","feedback_trial","2","","","","","","","","","","","","","","","","","","","","",""
"","","","","","image-keyboard-response","68","281734","0.0-43.0","5dc474fd45b8f933f16d6241","665500ab8938657b03fbdba8","665795f0383316f3613518c6","1125","stimuli/2100000.jpg","2","","prediction_trial","2","","true","","2","true","true","true","true","true","true","[2]","100","000","1","","","","","","",""
"","","","","","image-keyboard-response","69","282444","0.0-44.0","5dc474fd45b8f933f16d6241","665500ab8938657b03fbdba8","665795f0383316f3613518c6","706","stimuli/21000002.jpg"," ","","feedback_trial","2","","","","","","","","","","","","","","","","","","","","",""
"","","","","","image-keyboard-response","70","284285","0.0-45.0","5dc474fd45b8f933f16d6241","665500ab8938657b03fbdba8","665795f0383316f3613518c6","1839","stimuli/0011111.jpg","1","","prediction_trial","0","","false","","0","false","false","true","true","false","false","[0]","011","111","0","","","","","","",""
"","","","","","image-keyboard-response","71","285155","0.0-46.0","5dc474fd45b8f933f16d6241","665500ab8938657b03fbdba8","665795f0383316f3613518c6","867","stimuli/00111110.jpg"," ","","feedback_trial","0","","","","","","","","","","","","","","","","","","","","",""
"","","","","","image-keyboard-response","72","286236","0.0-47.0","5dc474fd45b8f933f16d6241","665500ab8938657b03fbdba8","665795f0383316f3613518c6","1078","stimuli/1101101.jpg","1","","prediction_trial","1","","true","","1","true","true","true","true","true","true","[1]","101","101","1","","","","","","",""
"","","","","","image-keyboard-response","73","286813","0.0-48.0","5dc474fd45b8f933f16d6241","665500ab8938657b03fbdba8","665795f0383316f3613518c6","573","stimuli/11011011.jpg"," ","","feedback_trial","1","","","","","","","","","","","","","","","","","","","","",""
"","","","","","image-keyboard-response","74","287940","0.0-49.0","5dc474fd45b8f933f16d6241","665500ab8938657b03fbdba8","665795f0383316f3613518c6","1123","stimuli/1100001.jpg","1","","prediction_trial","1","","true","","1","true","true","true","true","true","true","[1]","100","001","1","","","","","","",""
"","","","","","image-keyboard-response","75","288556","0.0-50.0","5dc474fd45b8f933f16d6241","665500ab8938657b03fbdba8","665795f0383316f3613518c6","613","stimuli/11000011.jpg"," ","","feedback_trial","1","","","","","","","","","","","","","","","","","","","","",""
"","","","","","image-keyboard-response","76","291052","0.0-51.0","5dc474fd45b8f933f16d6241","665500ab8938657b03fbdba8","665795f0383316f3613518c6","2493","stimuli/2011010.jpg","2","","prediction_trial","1","","false","","2","true","true","false","false","false","false","[2,1]","011","010","0","","","","","","",""
"","","","","","image-keyboard-response","77","291772","0.0-52.0","5dc474fd45b8f933f16d6241","665500ab8938657b03fbdba8","665795f0383316f3613518c6","716","stimuli/20110101.jpg"," ","","feedback_trial","2","","","","","","","","","","","","","","","","","","","","",""
"","","","","","image-keyboard-response","78","293058","0.0-53.0","5dc474fd45b8f933f16d6241","665500ab8938657b03fbdba8","665795f0383316f3613518c6","1291","stimuli/0010000.jpg","0","","prediction_trial","0","","true","","0","true","true","true","true","true","true","[0]","010","000","1","","","","","","",""
"","","","","","image-keyboard-response","79","293899","0.0-54.0","5dc474fd45b8f933f16d6241","665500ab8938657b03fbdba8","665795f0383316f3613518c6","837","stimuli/00100000.jpg"," ","","feedback_trial","0","","","","","","","","","","","","","","","","","","","","",""
"","","","","","image-keyboard-response","80","296012","0.0-55.0","5dc474fd45b8f933f16d6241","665500ab8938657b03fbdba8","665795f0383316f3613518c6","2109","stimuli/1111001.jpg","1","","prediction_trial","0","","false","","1","true","true","false","false","false","false","[2,0,1]","111","001","0","","","","","","",""
"","","","","","image-keyboard-response","81","296682","0.0-56.0","5dc474fd45b8f933f16d6241","665500ab8938657b03fbdba8","665795f0383316f3613518c6","666","stimuli/11110010.jpg"," ","","feedback_trial","2","","","","","","","","","","","","","","","","","","","","",""
"","","","","","image-keyboard-response","82","299187","0.0-57.0","5dc474fd45b8f933f16d6241","665500ab8938657b03fbdba8","665795f0383316f3613518c6","2502","stimuli/1110001.jpg","1","","prediction_trial","1","","true","","1","true","true","false","false","false","false","[1,0]","110","001","1","","","","","","",""
"","","","","","image-keyboard-response","83","301378","0.0-58.0","5dc474fd45b8f933f16d6241","665500ab8938657b03fbdba8","665795f0383316f3613518c6","2189","stimuli/11100011.jpg"," ","","feedback_trial","1","","","","","","","","","","","","","","","","","","","","",""
"","","","","","image-keyboard-response","84","302738","0.0-59.0","5dc474fd45b8f933f16d6241","665500ab8938657b03fbdba8","665795f0383316f3613518c6","1356","stimuli/1000101.jpg","1","","prediction_trial","1","","true","","1","true","true","true","true","true","true","[1]","000","101","1","","","","","","",""
"","","","","","image-keyboard-response","85","303473","0.0-60.0","5dc474fd45b8f933f16d6241","665500ab8938657b03fbdba8","665795f0383316f3613518c6","731","stimuli/10001011.jpg"," ","","feedback_trial","1","","","","","","","","","","","","","","","","","","","","",""
"","","","","","image-keyboard-response","86","304368","0.0-61.0","5dc474fd45b8f933f16d6241","665500ab8938657b03fbdba8","665795f0383316f3613518c6","892","stimuli/0000000.jpg","0","","prediction_trial","0","","true","","0","true","true","true","true","true","true","[0]","000","000","1","","","","","","",""
"","","","","","image-keyboard-response","87","304978","0.0-62.0","5dc474fd45b8f933f16d6241","665500ab8938657b03fbdba8","665795f0383316f3613518c6","608","stimuli/00000000.jpg"," ","","feedback_trial","0","","","","","","","","","","","","","","","","","","","","",""
"","","","","","image-keyboard-response","88","307252","0.0-63.0","5dc474fd45b8f933f16d6241","665500ab8938657b03fbdba8","665795f0383316f3613518c6","2271","stimuli/1011010.jpg","1","","prediction_trial","2","","false","","1","false","true","false","false","false","false","[1,2]","011","010","0","","","","","","",""
"","","","","","image-keyboard-response","89","307959","0.0-64.0","5dc474fd45b8f933f16d6241","665500ab8938657b03fbdba8","665795f0383316f3613518c6","704","stimuli/10110102.jpg"," ","","feedback_trial","1","","","","","","","","","","","","","","","","","","","","",""
"","","","","","image-keyboard-response","90","309432","0.0-65.0","5dc474fd45b8f933f16d6241","665500ab8938657b03fbdba8","665795f0383316f3613518c6","1469","stimuli/2010110.jpg","2","","prediction_trial","2","","true","","2","true","true","true","true","true","true","[2]","010","110","1","","","","","","",""
"","","","","","image-keyboard-response","91","310024","0.0-66.0","5dc474fd45b8f933f16d6241","665500ab8938657b03fbdba8","665795f0383316f3613518c6","590","stimuli/20101102.jpg"," ","","feedback_trial","2","","","","","","","","","","","","","","","","","","","","",""
"","","","","","image-keyboard-response","92","311624","0.0-67.0","5dc474fd45b8f933f16d6241","665500ab8938657b03fbdba8","665795f0383316f3613518c6","1597","stimuli/1101110.jpg","1","","prediction_trial","1","","true","","1","false","false","true","true","false","false","[1]","101","110","1","","","","","","",""
"","","","","","image-keyboard-response","93","312313","0.0-68.0","5dc474fd45b8f933f16d6241","665500ab8938657b03fbdba8","665795f0383316f3613518c6","685","stimuli/11011101.jpg"," ","","feedback_trial","1","","","","","","","","","","","","","","","","","","","","",""
"","","","","","image-keyboard-response","94","313311","0.0-69.0","5dc474fd45b8f933f16d6241","665500ab8938657b03fbdba8","665795f0383316f3613518c6","995","stimuli/1001001.jpg","1","","prediction_trial","1","","true","","1","true","true","true","true","true","true","[1]","001","001","1","","","","","","",""
"","","","","","image-keyboard-response","95","313792","0.0-70.0","5dc474fd45b8f933f16d6241","665500ab8938657b03fbdba8","665795f0383316f3613518c6","478","stimuli/10010011.jpg"," ","","feedback_trial","1","","","","","","","","","","","","","","","","","","","","",""
"","","","","","image-keyboard-response","96","315129","0.0-71.0","5dc474fd45b8f933f16d6241","665500ab8938657b03fbdba8","665795f0383316f3613518c6","1334","stimuli/0110110.jpg","1","","prediction_trial","0","","false","","0","false","false","false","false","false","false","[0,1]","110","110","0","","","","","","",""
"","","","","","image-keyboard-response","97","315783","0.0-72.0","5dc474fd45b8f933f16d6241","665500ab8938657b03fbdba8","665795f0383316f3613518c6","650","stimuli/01101100.jpg"," ","","feedback_trial","0","","","","","","","","","","","","","","","","","","","","",""
"","","","","","image-keyboard-response","98","317664","0.0-73.0","5dc474fd45b8f933f16d6241","665500ab8938657b03fbdba8","665795f0383316f3613518c6","1877","stimuli/0110000.jpg","1","","prediction_trial","1","","true","","0","true","true","false","false","false","false","[0,1]","110","000","1","","","","","","",""
"","","","","","image-keyboard-response","99","318271","0.0-74.0","5dc474fd45b8f933f16d6241","665500ab8938657b03fbdba8","665795f0383316f3613518c6","603","stimuli/01100001.jpg"," ","","feedback_trial","0","","","","","","","","","","","","","","","","","","","","",""
"","","","","","image-keyboard-response","100","320784","0.0-75.0","5dc474fd45b8f933f16d6241","665500ab8938657b03fbdba8","665795f0383316f3613518c6","2510","stimuli/2101001.jpg","2","","prediction_trial","0","","false","","2","false","true","false","false","false","false","[0,2]","101","001","0","","","","","","",""
"","","","","","image-keyboard-response","101","321415","0.0-76.0","5dc474fd45b8f933f16d6241","665500ab8938657b03fbdba8","665795f0383316f3613518c6","627","stimuli/21010010.jpg"," ","","feedback_trial","0","","","","","","","","","","","","","","","","","","","","",""
"","","","","","image-keyboard-response","102","323127","0.0-77.0","5dc474fd45b8f933f16d6241","665500ab8938657b03fbdba8","665795f0383316f3613518c6","1709","stimuli/2011111.jpg","0","","prediction_trial","1","","false","","2","false","false","false","false","false","false","[1,2]","011","111","0","","","","","","",""
"","","","","","image-keyboard-response","103","323894","0.0-78.0","5dc474fd45b8f933f16d6241","665500ab8938657b03fbdba8","665795f0383316f3613518c6","763","stimuli/20111111.jpg"," ","","feedback_trial","1","","","","","","","","","","","","","","","","","","","","",""
"","","","","","image-keyboard-response","104","324991","0.0-79.0","5dc474fd45b8f933f16d6241","665500ab8938657b03fbdba8","665795f0383316f3613518c6","1093","stimuli/0000010.jpg","0","","prediction_trial","0","","true","","0","true","true","true","true","true","true","[0]","000","010","1","","","","","","",""
"","","","","","image-keyboard-response","105","325431","0.0-80.0","5dc474fd45b8f933f16d6241","665500ab8938657b03fbdba8","665795f0383316f3613518c6","438","stimuli/00000100.jpg"," ","","feedback_trial","0","","","","","","","","","","","","","","","","","","","","",""
"","","","","","image-keyboard-response","106","326199","0.0-81.0","5dc474fd45b8f933f16d6241","665500ab8938657b03fbdba8","665795f0383316f3613518c6","765","stimuli/2010000.jpg","2","","prediction_trial","2","","true","","2","true","true","true","true","true","true","[2]","010","000","1","","","","","","",""
"","","","","","image-keyboard-response","107","326655","0.0-82.0","5dc474fd45b8f933f16d6241","665500ab8938657b03fbdba8","665795f0383316f3613518c6","451","stimuli/20100002.jpg"," ","","feedback_trial","2","","","","","","","","","","","","","","","","","","","","",""
"","","","","","image-keyboard-response","108","327342","0.0-83.0","5dc474fd45b8f933f16d6241","665500ab8938657b03fbdba8","665795f0383316f3613518c6","683","stimuli/0001011.jpg","0","","prediction_trial","0","","true","","0","true","true","true","true","true","true","[0]","001","011","1","","","","","","",""
"","","","","","image-keyboard-response","109","327778","0.0-84.0","5dc474fd45b8f933f16d6241","665500ab8938657b03fbdba8","665795f0383316f3613518c6","432","stimuli/00010110.jpg"," ","","feedback_trial","0","","","","","","","","","","","","","","","","","","","","",""
"","","","","","image-keyboard-response","110","329270","0.0-85.0","5dc474fd45b8f933f16d6241","665500ab8938657b03fbdba8","665795f0383316f3613518c6","1489","stimuli/0100010.jpg","0","","prediction_trial","0","","true","","0","true","true","false","true","false","true","[0]","100","010","1","","","","","","",""
"","","","","","image-keyboard-response","111","329974","0.0-86.0","5dc474fd45b8f933f16d6241","665500ab8938657b03fbdba8","665795f0383316f3613518c6","700","stimuli/01000100.jpg"," ","","feedback_trial","0","","","","","","","","","","","","","","","","","","","","",""
"","","","","","image-keyboard-response","112","331349","0.0-87.0","5dc474fd45b8f933f16d6241","665500ab8938657b03fbdba8","665795f0383316f3613518c6","1372","stimuli/0001001.jpg","0","","prediction_trial","0","","true","","0","true","true","true","true","true","true","[0]","001","001","1","","","","","","",""
"","","","","","image-keyboard-response","113","331989","0.0-88.0","5dc474fd45b8f933f16d6241","665500ab8938657b03fbdba8","665795f0383316f3613518c6","636","stimuli/00010010.jpg"," ","","feedback_trial","0","","","","","","","","","","","","","","","","","","","","",""
"","","","","","image-keyboard-response","114","333540","0.0-89.0","5dc474fd45b8f933f16d6241","665500ab8938657b03fbdba8","665795f0383316f3613518c6","1548","stimuli/2110101.jpg","2","","prediction_trial","2","","true","","2","false","false","true","true","false","false","[2]","110","101","1","","","","","","",""
"","","","","","image-keyboard-response","115","334501","0.0-90.0","5dc474fd45b8f933f16d6241","665500ab8938657b03fbdba8","665795f0383316f3613518c6","956","stimuli/21101012.jpg"," ","","feedback_trial","2","","","","","","","","","","","","","","","","","","","","",""
"","","","","","image-keyboard-response","116","336173","0.0-91.0","5dc474fd45b8f933f16d6241","665500ab8938657b03fbdba8","665795f0383316f3613518c6","1668","stimuli/2111111.jpg","1","","prediction_trial","2","","false","","2","false","false","false","false","false","false","[1,2,0]","111","111","0","","","","","","",""
"","","","","","image-keyboard-response","117","337221","0.0-92.0","5dc474fd45b8f933f16d6241","665500ab8938657b03fbdba8","665795f0383316f3613518c6","1045","stimuli/21111112.jpg"," ","","feedback_trial","1","","","","","","","","","","","","","","","","","","","","",""
"","","","","","image-keyboard-response","118","338971","0.0-93.0","5dc474fd45b8f933f16d6241","665500ab8938657b03fbdba8","665795f0383316f3613518c6","1748","stimuli/2100011.jpg","1","","prediction_trial","2","","false","","2","false","false","true","true","false","false","[2]","100","011","0","","","","","","",""
"","","","","","image-keyboard-response","119","339685","0.0-94.0","5dc474fd45b8f933f16d6241","665500ab8938657b03fbdba8","665795f0383316f3613518c6","712","stimuli/21000112.jpg"," ","","feedback_trial","2","","","","","","","","","","","","","","","","","","","","",""
"","","","","","image-keyboard-response","120","340700","0.0-95.0","5dc474fd45b8f933f16d6241","665500ab8938657b03fbdba8","665795f0383316f3613518c6","1011","stimuli/2100100.jpg","2","","prediction_trial","2","","true","","2","true","true","true","true","true","true","[2]","100","100","1","","","","","","",""
"","","","","","image-keyboard-response","121","341209","0.0-96.0","5dc474fd45b8f933f16d6241","665500ab8938657b03fbdba8","665795f0383316f3613518c6","505","stimuli/21001002.jpg"," ","","feedback_trial","2","","","","","","","","","","","","","","","","","","","","",""
"","","","","","image-keyboard-response","122","342396","0.0-97.0","5dc474fd45b8f933f16d6241","665500ab8938657b03fbdba8","665795f0383316f3613518c6","1184","stimuli/1100011.jpg","1","","prediction_trial","1","","true","","1","false","false","true","true","false","false","[1]","100","011","1","","","","","","",""
"","","","","","image-keyboard-response","123","343027","0.0-98.0","5dc474fd45b8f933f16d6241","665500ab8938657b03fbdba8","665795f0383316f3613518c6","629","stimuli/11000111.jpg"," ","","feedback_trial","1","","","","","","","","","","","","","","","","","","","","",""
"","","","","","image-keyboard-response","124","344476","0.0-99.0","5dc474fd45b8f933f16d6241","665500ab8938657b03fbdba8","665795f0383316f3613518c6","1446","stimuli/2111000.jpg","2","","prediction_trial","1","","false","","2","true","true","false","false","false","false","[1,2,0]","111","000","0","","","","","","",""
"","","","","","image-keyboard-response","125","345090","0.0-100.0","5dc474fd45b8f933f16d6241","665500ab8938657b03fbdba8","665795f0383316f3613518c6","611","stimuli/21110001.jpg"," ","","feedback_trial","1","","","","","","","","","","","","","","","","","","","","",""
"","","","","","image-keyboard-response","126","347420","0.0-101.0","5dc474fd45b8f933f16d6241","665500ab8938657b03fbdba8","665795f0383316f3613518c6","2328","stimuli/0110001.jpg","0","","prediction_trial","1","","false","","0","true","true","false","false","false","false","[0,1]","110","001","0","","","","","","",""
"","","","","","image-keyboard-response","127","348195","0.0-102.0","5dc474fd45b8f933f16d6241","665500ab8938657b03fbdba8","665795f0383316f3613518c6","768","stimuli/01100011.jpg"," ","","feedback_trial","0","","","","","","","","","","","","","","","","","","","","",""
"","","","","","image-keyboard-response","128","350915","0.0-103.0","5dc474fd45b8f933f16d6241","665500ab8938657b03fbdba8","665795f0383316f3613518c6","2717","stimuli/1011011.jpg","2","","prediction_trial","2","","true","","1","false","false","false","false","false","false","[1,2]","011","011","1","","","","","","",""
"","","","","","image-keyboard-response","129","351689","0.0-104.0","5dc474fd45b8f933f16d6241","665500ab8938657b03fbdba8","665795f0383316f3613518c6","771","stimuli/10110112.jpg"," ","","feedback_trial","1","","","","","","","","","","","","","","","","","","","","",""
"","","","","","image-keyboard-response","130","352930","0.0-105.0","5dc474fd45b8f933f16d6241","665500ab8938657b03fbdba8","665795f0383316f3613518c6","1239","stimuli/1100000.jpg","1","","prediction_trial","1","","true","","1","true","true","true","true","true","true","[1]","100","000","1","","","","","","",""
"","","","","","image-keyboard-response","131","353436","0.0-106.0","5dc474fd45b8f933f16d6241","665500ab8938657b03fbdba8","665795f0383316f3613518c6","501","stimuli/11000001.jpg"," ","","feedback_trial","1","","","","","","","","","","","","","","","","","","","","",""
"","","","","","image-keyboard-response","132","354526","0.0-107.0","5dc474fd45b8f933f16d6241","665500ab8938657b03fbdba8","665795f0383316f3613518c6","1087","stimuli/2110111.jpg","2","","prediction_trial","2","","true","","2","false","false","true","true","false","false","[2]","110","111","1","","","","","","",""
"","","","","","image-keyboard-response","133","355083","0.0-108.0","5dc474fd45b8f933f16d6241","665500ab8938657b03fbdba8","665795f0383316f3613518c6","553","stimuli/21101112.jpg"," ","","feedback_trial","2","","","","","","","","","","","","","","","","","","","","",""
"","","","","","image-keyboard-response","134","356500","0.0-109.0","5dc474fd45b8f933f16d6241","665500ab8938657b03fbdba8","665795f0383316f3613518c6","1414","stimuli/1000010.jpg","1","","prediction_trial","1","","true","","1","false","true","true","true","false","true","[1]","000","010","1","","","","","","",""
"","","","","","image-keyboard-response","135","356932","0.0-110.0","5dc474fd45b8f933f16d6241","665500ab8938657b03fbdba8","665795f0383316f3613518c6","429","stimuli/10000101.jpg"," ","","feedback_trial","1","","","","","","","","","","","","","","","","","","","","",""
"","","","","","image-keyboard-response","136","358731","0.0-111.0","5dc474fd45b8f933f16d6241","665500ab8938657b03fbdba8","665795f0383316f3613518c6","1796","stimuli/0010101.jpg","0","","prediction_trial","0","","true","","0","false","false","true","true","false","false","[0]","010","101","1","","","","","","",""
"","","","","","image-keyboard-response","137","359290","0.0-112.0","5dc474fd45b8f933f16d6241","665500ab8938657b03fbdba8","665795f0383316f3613518c6","556","stimuli/00101010.jpg"," ","","feedback_trial","0","","","","","","","","","","","","","","","","","","","","",""
"","","","","","image-keyboard-response","138","360723","0.0-113.0","5dc474fd45b8f933f16d6241","665500ab8938657b03fbdba8","665795f0383316f3613518c6","1430","stimuli/1011000.jpg","1","","prediction_trial","1","","true","","1","true","true","false","false","false","false","[2,1]","011","000","1","","","","","","",""
"","","","","","image-keyboard-response","139","361299","0.0-114.0","5dc474fd45b8f933f16d6241","665500ab8938657b03fbdba8","665795f0383316f3613518c6","572","stimuli/10110001.jpg"," ","","feedback_trial","2","","","","","","","","","","","","","","","","","","","","",""
"","","","","","image-keyboard-response","140","362570","0.0-115.0","5dc474fd45b8f933f16d6241","665500ab8938657b03fbdba8","665795f0383316f3613518c6","1267","stimuli/2101110.jpg","2","","prediction_trial","0","","false","","2","true","true","false","false","false","false","[2,0]","101","110","0","","","","","","",""
"","","","","","image-keyboard-response","141","363107","0.0-116.0","5dc474fd45b8f933f16d6241","665500ab8938657b03fbdba8","665795f0383316f3613518c6","534","stimuli/21011100.jpg"," ","","feedback_trial","2","","","","","","","","","","","","","","","","","","","","",""
"","","","","","image-keyboard-response","142","365293","0.0-117.0","5dc474fd45b8f933f16d6241","665500ab8938657b03fbdba8","665795f0383316f3613518c6","2182","stimuli/0101001.jpg","0","","prediction_trial","2","","false","","0","true","true","false","false","false","false","[2,0]","101","001","0","","","","","","",""
"","","","","","image-keyboard-response","143","365883","0.0-118.0","5dc474fd45b8f933f16d6241","665500ab8938657b03fbdba8","665795f0383316f3613518c6","587","stimuli/01010012.jpg"," ","","feedback_trial","2","","","","","","","","","","","","","","","","","","","","",""
"","","","","","image-keyboard-response","144","367163","0.0-119.0","5dc474fd45b8f933f16d6241","665500ab8938657b03fbdba8","665795f0383316f3613518c6","1277","stimuli/1001010.jpg","1","","prediction_trial","1","","true","","1","false","true","true","true","false","true","[1]","001","010","1","","","","","","",""
"","","","","","image-keyboard-response","145","367619","0.0-120.0","5dc474fd45b8f933f16d6241","665500ab8938657b03fbdba8","665795f0383316f3613518c6","452","stimuli/10010101.jpg"," ","","feedback_trial","1","","","","","","","","","","","","","","","","","","","","",""
"","","","","","image-keyboard-response","146","369496","0.0-121.0","5dc474fd45b8f933f16d6241","665500ab8938657b03fbdba8","665795f0383316f3613518c6","1874","stimuli/2000010.jpg","2","","prediction_trial","2","","true","","2","true","true","true","true","true","true","[2]","000","010","1","","","","","","",""
"","","","","","image-keyboard-response","147","369946","0.0-122.0","5dc474fd45b8f933f16d6241","665500ab8938657b03fbdba8","665795f0383316f3613518c6","448","stimuli/20000102.jpg"," ","","feedback_trial","2","","","","","","","","","","","","","","","","","","","","",""
"","","","","","image-keyboard-response","148","372828","0.0-123.0","5dc474fd45b8f933f16d6241","665500ab8938657b03fbdba8","665795f0383316f3613518c6","2879","stimuli/2011101.jpg","0","","prediction_trial","1","","false","","2","false","false","false","false","false","false","[2,1]","011","101","0","","","","","","",""
"","","","","","image-keyboard-response","149","373473","0.0-124.0","5dc474fd45b8f933f16d6241","665500ab8938657b03fbdba8","665795f0383316f3613518c6","642","stimuli/20111011.jpg"," ","","feedback_trial","2","","","","","","","","","","","","","","","","","","","","",""
"","","","","","image-keyboard-response","150","375608","0.0-125.0","5dc474fd45b8f933f16d6241","665500ab8938657b03fbdba8","665795f0383316f3613518c6","2132","stimuli/1111000.jpg","1","","prediction_trial","0","","false","","1","true","true","false","false","false","false","[0,2,1]","111","000","0","","","","","","",""
"","","","","","image-keyboard-response","151","376128","0.0-126.0","5dc474fd45b8f933f16d6241","665500ab8938657b03fbdba8","665795f0383316f3613518c6","515","stimuli/11110000.jpg"," ","","feedback_trial","0","","","","","","","","","","","","","","","","","","","","",""
"","","","","","image-keyboard-response","152","377464","0.0-127.0","5dc474fd45b8f933f16d6241","665500ab8938657b03fbdba8","665795f0383316f3613518c6","1332","stimuli/2010101.jpg","2","","prediction_trial","2","","true","","2","false","false","true","true","false","false","[2]","010","101","1","","","","","","",""
"","","","","","image-keyboard-response","153","378072","0.0-128.0","5dc474fd45b8f933f16d6241","665500ab8938657b03fbdba8","665795f0383316f3613518c6","605","stimuli/20101012.jpg"," ","","feedback_trial","2","","","","","","","","","","","","","","","","","","","","",""
"","","","","","image-keyboard-response","154","379081","0.0-129.0","5dc474fd45b8f933f16d6241","665500ab8938657b03fbdba8","665795f0383316f3613518c6","1006","stimuli/2100111.jpg","1","","prediction_trial","2","","false","","2","false","false","true","true","false","false","[2]","100","111","0","","","","","","",""
"","","","","","image-keyboard-response","155","379648","0.0-130.0","5dc474fd45b8f933f16d6241","665500ab8938657b03fbdba8","665795f0383316f3613518c6","564","stimuli/21001112.jpg"," ","","feedback_trial","2","","","","","","","","","","","","","","","","","","","","",""
"","","","","","image-keyboard-response","156","380719","0.0-131.0","5dc474fd45b8f933f16d6241","665500ab8938657b03fbdba8","665795f0383316f3613518c6","1068","stimuli/0100100.jpg","0","","prediction_trial","0","","true","","0","false","true","false","true","false","true","[0]","100","100","1","","","","","","",""
"","","","","","image-keyboard-response","157","381137","0.0-132.0","5dc474fd45b8f933f16d6241","665500ab8938657b03fbdba8","665795f0383316f3613518c6","416","stimuli/01001000.jpg"," ","","feedback_trial","0","","","","","","","","","","","","","","","","","","","","",""
"","","","","","image-keyboard-response","158","382705","0.0-133.0","5dc474fd45b8f933f16d6241","665500ab8938657b03fbdba8","665795f0383316f3613518c6","1564","stimuli/2001010.jpg","2","","prediction_trial","2","","true","","2","true","true","false","true","false","true","[2]","001","010","1","","","","","","",""
"","","","","","image-keyboard-response","159","383129","0.0-134.0","5dc474fd45b8f933f16d6241","665500ab8938657b03fbdba8","665795f0383316f3613518c6","421","stimuli/20010102.jpg"," ","","feedback_trial","2","","","","","","","","","","","","","","","","","","","","",""
"","","","","","image-keyboard-response","160","384087","0.0-135.0","5dc474fd45b8f933f16d6241","665500ab8938657b03fbdba8","665795f0383316f3613518c6","955","stimuli/2001001.jpg","2","","prediction_trial","2","","true","","2","false","true","false","true","false","true","[2]","001","001","1","","","","","","",""
"","","","","","image-keyboard-response","161","384511","0.0-136.0","5dc474fd45b8f933f16d6241","665500ab8938657b03fbdba8","665795f0383316f3613518c6","421","stimuli/20010012.jpg"," ","","feedback_trial","2","","","","","","","","","","","","","","","","","","","","",""
"","","","","","image-keyboard-response","162","386048","0.0-137.0","5dc474fd45b8f933f16d6241","665500ab8938657b03fbdba8","665795f0383316f3613518c6","1533","stimuli/0101010.jpg","0","","prediction_trial","0","","true","","0","true","true","false","false","false","false","[0,2]","101","010","1","","","","","","",""
"","","","","","image-keyboard-response","163","386568","0.0-138.0","5dc474fd45b8f933f16d6241","665500ab8938657b03fbdba8","665795f0383316f3613518c6","516","stimuli/01010100.jpg"," ","","feedback_trial","0","","","","","","","","","","","","","","","","","","","","",""
"","","","","","image-keyboard-response","164","387837","0.0-139.0","5dc474fd45b8f933f16d6241","665500ab8938657b03fbdba8","665795f0383316f3613518c6","1266","stimuli/0100101.jpg","0","","prediction_trial","0","","true","","0","false","false","false","true","false","false","[0]","100","101","1","","","","","","",""
"","","","","","image-keyboard-response","165","388759","0.0-140.0","5dc474fd45b8f933f16d6241","665500ab8938657b03fbdba8","665795f0383316f3613518c6","920","stimuli/01001010.jpg"," ","","feedback_trial","0","","","","","","","","","","","","","","","","","","","","",""
"","","","","","image-keyboard-response","166","391575","0.0-141.0","5dc474fd45b8f933f16d6241","665500ab8938657b03fbdba8","665795f0383316f3613518c6","2812","stimuli/0010110.jpg","1","","prediction_trial","0","","false","","0","false","false","true","true","false","false","[0]","010","110","0","","","","","","",""
"","","","","","image-keyboard-response","167","392239","0.0-142.0","5dc474fd45b8f933f16d6241","665500ab8938657b03fbdba8","665795f0383316f3613518c6","662","stimuli/00101100.jpg"," ","","feedback_trial","0","","","","","","","","","","","","","","","","","","","","",""
"","","","","","image-keyboard-response","168","394359","0.0-143.0","5dc474fd45b8f933f16d6241","665500ab8938657b03fbdba8","665795f0383316f3613518c6","2117","stimuli/2100101.jpg","0","","prediction_trial","2","","false","","2","false","false","true","true","false","false","[2]","100","101","0","","","","","","",""
"","","","","","image-keyboard-response","169","395070","0.0-144.0","5dc474fd45b8f933f16d6241","665500ab8938657b03fbdba8","665795f0383316f3613518c6","705","stimuli/21001012.jpg"," ","","feedback_trial","2","","","","","","","","","","","","","","","","","","","","",""
"","","","","","image-keyboard-response","170","396263","0.0-145.0","5dc474fd45b8f933f16d6241","665500ab8938657b03fbdba8","665795f0383316f3613518c6","1189","stimuli/1101111.jpg","0","","prediction_trial","1","","false","","1","false","false","true","true","false","false","[1]","101","111","0","","","","","","",""
"","","","","","image-keyboard-response","171","396862","0.0-146.0","5dc474fd45b8f933f16d6241","665500ab8938657b03fbdba8","665795f0383316f3613518c6","596","stimuli/11011111.jpg"," ","","feedback_trial","1","","","","","","","","","","","","","","","","","","","","",""
"","","","","","image-keyboard-response","172","398607","0.0-147.0","5dc474fd45b8f933f16d6241","665500ab8938657b03fbdba8","665795f0383316f3613518c6","1740","stimuli/0110011.jpg","0","","prediction_trial","1","","false","","0","true","true","false","false","false","false","[1,0]","110","011","0","","","","","","",""
"","","","","","image-keyboard-response","173","399069","0.0-148.0","5dc474fd45b8f933f16d6241","665500ab8938657b03fbdba8","665795f0383316f3613518c6","459","stimuli/01100111.jpg"," ","","feedback_trial","1","","","","","","","","","","","","","","","","","","","","",""
"","","","","","image-keyboard-response","174","400229","0.0-149.0","5dc474fd45b8f933f16d6241","665500ab8938657b03fbdba8","665795f0383316f3613518c6","1157","stimuli/2000111.jpg","1","","prediction_trial","2","","false","","2","false","false","true","true","false","false","[2]","000","111","0","","","","","","",""
"","","","","","image-keyboard-response","175","400766","0.0-150.0","5dc474fd45b8f933f16d6241","665500ab8938657b03fbdba8","665795f0383316f3613518c6","532","stimuli/20001112.jpg"," ","","feedback_trial","2","","","","","","","","","","","","","","","","","","","","",""
"","","","","","image-keyboard-response","176","402230","0.0-151.0","5dc474fd45b8f933f16d6241","665500ab8938657b03fbdba8","665795f0383316f3613518c6","1460","stimuli/0000101.jpg","0","","prediction_trial","0","","true","","0","false","false","true","true","false","false","[0]","000","101","1","","","","","","",""
"","","","","","image-keyboard-response","177","402630","0.0-152.0","5dc474fd45b8f933f16d6241","665500ab8938657b03fbdba8","665795f0383316f3613518c6","395","stimuli/00001010.jpg"," ","","feedback_trial","0","","","","","","","","","","","","","","","","","","","","",""
"","","","","","image-keyboard-response","178","403934","0.0-153.0","5dc474fd45b8f933f16d6241","665500ab8938657b03fbdba8","665795f0383316f3613518c6","1301","stimuli/1100010.jpg","1","","prediction_trial","1","","true","","1","false","true","true","true","false","true","[1]","100","010","1","","","","","","",""
"","","","","","image-keyboard-response","179","404325","0.0-154.0","5dc474fd45b8f933f16d6241","665500ab8938657b03fbdba8","665795f0383316f3613518c6","387","stimuli/11000101.jpg"," ","","feedback_trial","1","","","","","","","","","","","","","","","","","","","","",""
"","","","","","image-keyboard-response","180","405222","0.0-155.0","5dc474fd45b8f933f16d6241","665500ab8938657b03fbdba8","665795f0383316f3613518c6","894","stimuli/2100010.jpg","2","","prediction_trial","2","","true","","2","true","true","true","true","true","true","[2]","100","010","1","","","","","","",""
"","","","","","image-keyboard-response","181","405540","0.0-156.0","5dc474fd45b8f933f16d6241","665500ab8938657b03fbdba8","665795f0383316f3613518c6","314","stimuli/21000102.jpg"," ","","feedback_trial","2","","","","","","","","","","","","","","","","","","","","",""
"","","","","","image-keyboard-response","182","407061","0.0-157.0","5dc474fd45b8f933f16d6241","665500ab8938657b03fbdba8","665795f0383316f3613518c6","1517","stimuli/2001101.jpg","0","","prediction_trial","2","","false","","2","false","false","false","true","false","false","[2]","001","101","0","","","","","","",""
"","","","","","image-keyboard-response","183","407612","0.0-158.0","5dc474fd45b8f933f16d6241","665500ab8938657b03fbdba8","665795f0383316f3613518c6","547","stimuli/20011012.jpg"," ","","feedback_trial","2","","","","","","","","","","","","","","","","","","","","",""
"","","","","","image-keyboard-response","184","408859","0.0-159.0","5dc474fd45b8f933f16d6241","665500ab8938657b03fbdba8","665795f0383316f3613518c6","1244","stimuli/0111010.jpg","0","","prediction_trial","2","","false","","0","true","true","false","false","false","false","[1,2,0]","111","010","0","","","","","","",""
"","","","","","image-keyboard-response","185","409268","0.0-160.0","5dc474fd45b8f933f16d6241","665500ab8938657b03fbdba8","665795f0383316f3613518c6","406","stimuli/01110102.jpg"," ","","feedback_trial","1","","","","","","","","","","","","","","","","","","","","",""
"","","","","","image-keyboard-response","186","410235","0.0-161.0","5dc474fd45b8f933f16d6241","665500ab8938657b03fbdba8","665795f0383316f3613518c6","964","stimuli/2000011.jpg","1","","prediction_trial","2","","false","","2","false","false","true","true","false","false","[2]","000","011","0","","","","","","",""
"","","","","","image-keyboard-response","187","410844","0.0-162.0","5dc474fd45b8f933f16d6241","665500ab8938657b03fbdba8","665795f0383316f3613518c6","603","stimuli/20000112.jpg"," ","","feedback_trial","2","","","","","","","","","","","","","","","","","","","","",""
"","","","","","image-keyboard-response","188","414894","0.0-163.0","5dc474fd45b8f933f16d6241","665500ab8938657b03fbdba8","665795f0383316f3613518c6","4045","stimuli/2101011.jpg","1","","prediction_trial","2","","false","","2","false","false","false","false","false","false","[2,0]","101","011","0","","","","","","",""
"","","","","","image-keyboard-response","189","415461","0.0-164.0","5dc474fd45b8f933f16d6241","665500ab8938657b03fbdba8","665795f0383316f3613518c6","564","stimuli/21010112.jpg"," ","","feedback_trial","2","","","","","","","","","","","","","","","","","","","","",""
"","","","","","image-keyboard-response","190","416493","0.0-165.0","5dc474fd45b8f933f16d6241","665500ab8938657b03fbdba8","665795f0383316f3613518c6","1028","stimuli/0011011.jpg","0","","prediction_trial","0","","true","","0","true","true","true","true","true","true","[0]","011","011","1","","","","","","",""
"","","","","","image-keyboard-response","191","416902","0.0-166.0","5dc474fd45b8f933f16d6241","665500ab8938657b03fbdba8","665795f0383316f3613518c6","406","stimuli/00110110.jpg"," ","","feedback_trial","0","","","","","","","","","","","","","","","","","","","","",""
"","","","","","image-keyboard-response","192","418090","0.0-167.0","5dc474fd45b8f933f16d6241","665500ab8938657b03fbdba8","665795f0383316f3613518c6","1184","stimuli/0101000.jpg","0","","prediction_trial","0","","true","","0","true","true","false","false","false","false","[0,2]","101","000","1","","","","","","",""
"","","","","","image-keyboard-response","193","418445","0.0-168.0","5dc474fd45b8f933f16d6241","665500ab8938657b03fbdba8","665795f0383316f3613518c6","351","stimuli/01010000.jpg"," ","","feedback_trial","0","","","","","","","","","","","","","","","","","","","","",""
"","","","","","image-keyboard-response","194","419754","0.0-169.0","5dc474fd45b8f933f16d6241","665500ab8938657b03fbdba8","665795f0383316f3613518c6","1306","stimuli/0111110.jpg","1","","prediction_trial","0","","false","","0","false","false","false","false","false","false","[0,1,2]","111","110","0","","","","","","",""
"","","","","","image-keyboard-response","195","420196","0.0-170.0","5dc474fd45b8f933f16d6241","665500ab8938657b03fbdba8","665795f0383316f3613518c6","440","stimuli/01111100.jpg"," ","","feedback_trial","0","","","","","","","","","","","","","","","","","","","","",""
"","","","","","image-keyboard-response","196","421252","0.0-171.0","5dc474fd45b8f933f16d6241","665500ab8938657b03fbdba8","665795f0383316f3613518c6","1052","stimuli/0110111.jpg","2","","prediction_trial","1","","false","","0","false","false","false","false","false","false","[0,1]","110","111","0","","","","","","",""
"","","","","","image-keyboard-response","197","421708","0.0-172.0","5dc474fd45b8f933f16d6241","665500ab8938657b03fbdba8","665795f0383316f3613518c6","452","stimuli/01101111.jpg"," ","","feedback_trial","0","","","","","","","","","","","","","","","","","","","","",""
"","","","","","image-keyboard-response","198","422716","0.0-173.0","5dc474fd45b8f933f16d6241","665500ab8938657b03fbdba8","665795f0383316f3613518c6","1005","stimuli/1001011.jpg","1","","prediction_trial","1","","true","","1","false","false","true","true","false","false","[1]","001","011","1","","","","","","",""
"","","","","","image-keyboard-response","199","423117","0.0-174.0","5dc474fd45b8f933f16d6241","665500ab8938657b03fbdba8","665795f0383316f3613518c6","396","stimuli/10010111.jpg"," ","","feedback_trial","1","","","","","","","","","","","","","","","","","","","","",""
"","","","","","image-keyboard-response","200","424052","0.0-175.0","5dc474fd45b8f933f16d6241","665500ab8938657b03fbdba8","665795f0383316f3613518c6","932","stimuli/1110100.jpg","1","","prediction_trial","1","","true","","1","true","true","false","false","false","false","[0,1]","110","100","1","","","","","","",""
"","","","","","image-keyboard-response","201","424405","0.0-176.0","5dc474fd45b8f933f16d6241","665500ab8938657b03fbdba8","665795f0383316f3613518c6","348","stimuli/11101001.jpg"," ","","feedback_trial","0","","","","","","","","","","","","","","","","","","","","",""
"","","","","","image-keyboard-response","202","425156","0.0-177.0","5dc474fd45b8f933f16d6241","665500ab8938657b03fbdba8","665795f0383316f3613518c6","748","stimuli/1101100.jpg","1","","prediction_trial","1","","true","","1","true","true","true","true","true","true","[1]","101","100","1","","","","","","",""
"","","","","","image-keyboard-response","203","425451","0.0-178.0","5dc474fd45b8f933f16d6241","665500ab8938657b03fbdba8","665795f0383316f3613518c6","292","stimuli/11011001.jpg"," ","","feedback_trial","1","","","","","","","","","","","","","","","","","","","","",""
"","","","","","image-keyboard-response","204","426285","0.0-179.0","5dc474fd45b8f933f16d6241","665500ab8938657b03fbdba8","665795f0383316f3613518c6","830","stimuli/1111101.jpg","1","","prediction_trial","2","","false","","1","true","true","false","false","false","false","[1,0,2]","111","101","0","","","","","","",""
"","","","","","image-keyboard-response","205","426644","0.0-180.0","5dc474fd45b8f933f16d6241","665500ab8938657b03fbdba8","665795f0383316f3613518c6","354","stimuli/11111012.jpg"," ","","feedback_trial","1","","","","","","","","","","","","","","","","","","","","",""
"","","","","","image-keyboard-response","206","427683","0.0-181.0","5dc474fd45b8f933f16d6241","665500ab8938657b03fbdba8","665795f0383316f3613518c6","1036","stimuli/0000110.jpg","1","","prediction_trial","0","","false","","0","false","false","true","true","false","false","[0]","000","110","0","","","","","","",""
"","","","","","image-keyboard-response","207","428003","0.0-182.0","5dc474fd45b8f933f16d6241","665500ab8938657b03fbdba8","665795f0383316f3613518c6","317","stimuli/00001100.jpg"," ","","feedback_trial","0","","","","","","","","","","","","","","","","","","","","",""
"","","","","","image-keyboard-response","208","428812","0.0-183.0","5dc474fd45b8f933f16d6241","665500ab8938657b03fbdba8","665795f0383316f3613518c6","806","stimuli/2000100.jpg","2","","prediction_trial","2","","true","","2","true","true","true","true","true","true","[2]","000","100","1","","","","","","",""
"","","","","","image-keyboard-response","209","429428","0.0-184.0","5dc474fd45b8f933f16d6241","665500ab8938657b03fbdba8","665795f0383316f3613518c6","613","stimuli/20001002.jpg"," ","","feedback_trial","2","","","","","","","","","","","","","","","","","","","","",""
"","","","","","image-keyboard-response","210","432347","0.0-185.0","5dc474fd45b8f933f16d6241","665500ab8938657b03fbdba8","665795f0383316f3613518c6","2916","stimuli/0111000.jpg","1","","prediction_trial","1","","true","","0","true","true","false","false","false","false","[2,0,1]","111","000","1","","","","","","",""
"","","","","","image-keyboard-response","211","432676","0.0-186.0","5dc474fd45b8f933f16d6241","665500ab8938657b03fbdba8","665795f0383316f3613518c6","325","stimuli/01110001.jpg"," ","","feedback_trial","2","","","","","","","","","","","","","","","","","","","","",""
"","","","","","image-keyboard-response","212","434035","0.0-187.0","5dc474fd45b8f933f16d6241","665500ab8938657b03fbdba8","665795f0383316f3613518c6","1356","stimuli/0101101.jpg","0","","prediction_trial","0","","true","","0","false","false","false","false","false","false","[0,2]","101","101","1","","","","","","",""
"","","","","","image-keyboard-response","213","434490","0.0-188.0","5dc474fd45b8f933f16d6241","665500ab8938657b03fbdba8","665795f0383316f3613518c6","452","stimuli/01011010.jpg"," ","","feedback_trial","0","","","","","","","","","","","","","","","","","","","","",""
"","","","","","image-keyboard-response","214","436419","0.0-189.0","5dc474fd45b8f933f16d6241","665500ab8938657b03fbdba8","665795f0383316f3613518c6","1925","stimuli/2100001.jpg","2","","prediction_trial","2","","true","","2","false","true","true","true","false","true","[2]","100","001","1","","","","","","",""
"","","","","","image-keyboard-response","215","437258","0.0-190.0","5dc474fd45b8f933f16d6241","665500ab8938657b03fbdba8","665795f0383316f3613518c6","835","stimuli/21000012.jpg"," ","","feedback_trial","2","","","","","","","","","","","","","","","","","","","","",""
"","","","","","image-keyboard-response","216","439140","0.0-191.0","5dc474fd45b8f933f16d6241","665500ab8938657b03fbdba8","665795f0383316f3613518c6","1878","stimuli/0100110.jpg","1","","prediction_trial","0","","false","","0","false","false","false","true","false","false","[0]","100","110","0","","","","","","",""
"","","","","","image-keyboard-response","217","439658","0.0-192.0","5dc474fd45b8f933f16d6241","665500ab8938657b03fbdba8","665795f0383316f3613518c6","513","stimuli/01001100.jpg"," ","","feedback_trial","0","","","","","","","","","","","","","","","","","","","","",""
"","","","","","image-keyboard-response","218","441433","0.0-193.0","5dc474fd45b8f933f16d6241","665500ab8938657b03fbdba8","665795f0383316f3613518c6","1772","stimuli/1010111.jpg","1","","prediction_trial","1","","true","","1","false","false","false","true","false","false","[1]","010","111","1","","","","","","",""
"","","","","","image-keyboard-response","219","441986","0.0-194.0","5dc474fd45b8f933f16d6241","665500ab8938657b03fbdba8","665795f0383316f3613518c6","550","stimuli/10101111.jpg"," ","","feedback_trial","1","","","","","","","","","","","","","","","","","","","","",""
"","","","","","image-keyboard-response","220","443585","0.0-195.0","5dc474fd45b8f933f16d6241","665500ab8938657b03fbdba8","665795f0383316f3613518c6","1596","stimuli/2111011.jpg","1","","prediction_trial","1","","true","","2","false","false","false","false","false","false","[1,0,2]","111","011","1","","","","","","",""
"","","","","","image-keyboard-response","221","444099","0.0-196.0","5dc474fd45b8f933f16d6241","665500ab8938657b03fbdba8","665795f0383316f3613518c6","510","stimuli/21110111.jpg"," ","","feedback_trial","1","","","","","","","","","","","","","","","","","","","","",""
"","","","","","image-keyboard-response","222","445185","0.0-197.0","5dc474fd45b8f933f16d6241","665500ab8938657b03fbdba8","665795f0383316f3613518c6","1082","stimuli/2000101.jpg","2","","prediction_trial","2","","true","","2","false","false","true","true","false","false","[2]","000","101","1","","","","","","",""
"","","","","","image-keyboard-response","223","445769","0.0-198.0","5dc474fd45b8f933f16d6241","665500ab8938657b03fbdba8","665795f0383316f3613518c6","580","stimuli/20001012.jpg"," ","","feedback_trial","2","","","","","","","","","","","","","","","","","","","","",""
"","","","","","image-keyboard-response","224","447066","0.0-199.0","5dc474fd45b8f933f16d6241","665500ab8938657b03fbdba8","665795f0383316f3613518c6","1293","stimuli/2111100.jpg","2","","prediction_trial","2","","true","","2","true","true","false","false","false","false","[1,0,2]","111","100","1","","","","","","",""
"","","","","","image-keyboard-response","225","447658","0.0-200.0","5dc474fd45b8f933f16d6241","665500ab8938657b03fbdba8","665795f0383316f3613518c6","588","stimuli/21111002.jpg"," ","","feedback_trial","1","","","","","","","","","","","","","","","","","","","","",""
"","","","","","image-keyboard-response","226","448762","0.0-201.0","5dc474fd45b8f933f16d6241","665500ab8938657b03fbdba8","665795f0383316f3613518c6","1101","stimuli/0000011.jpg","0","","prediction_trial","0","","true","","0","true","true","true","true","true","true","[0]","000","011","1","","","","","","",""
"","","","","","image-keyboard-response","227","449193","0.0-202.0","5dc474fd45b8f933f16d6241","665500ab8938657b03fbdba8","665795f0383316f3613518c6","429","stimuli/00000110.jpg"," ","","feedback_trial","0","","","","","","","","","","","","","","","","","","","","",""
"","","","","","image-keyboard-response","228","450177","0.0-203.0","5dc474fd45b8f933f16d6241","665500ab8938657b03fbdba8","665795f0383316f3613518c6","981","stimuli/2111110.jpg","2","","prediction_trial","1","","false","","2","true","true","false","false","false","false","[1,0,2]","111","110","0","","","","","","",""
"","","","","","image-keyboard-response","229","450698","0.0-204.0","5dc474fd45b8f933f16d6241","665500ab8938657b03fbdba8","665795f0383316f3613518c6","516","stimuli/21111101.jpg"," ","","feedback_trial","1","","","","","","","","","","","","","","","","","","","","",""
"","","","","","image-keyboard-response","230","451784","0.0-205.0","5dc474fd45b8f933f16d6241","665500ab8938657b03fbdba8","665795f0383316f3613518c6","1083","stimuli/2110000.jpg","2","","prediction_trial","2","","true","","2","true","true","true","true","true","true","[2]","110","000","1","","","","","","",""
"","","","","","image-keyboard-response","231","452121","0.0-206.0","5dc474fd45b8f933f16d6241","665500ab8938657b03fbdba8","665795f0383316f3613518c6","334","stimuli/21100002.jpg"," ","","feedback_trial","2","","","","","","","","","","","","","","","","","","","","",""
"","","","","","image-keyboard-response","232","452945","0.0-207.0","5dc474fd45b8f933f16d6241","665500ab8938657b03fbdba8","665795f0383316f3613518c6","820","stimuli/1000100.jpg","1","","prediction_trial","1","","true","","1","true","true","true","true","true","true","[1]","000","100","1","","","","","","",""
"","","","","","image-keyboard-response","233","453320","0.0-208.0","5dc474fd45b8f933f16d6241","665500ab8938657b03fbdba8","665795f0383316f3613518c6","372","stimuli/10001001.jpg"," ","","feedback_trial","1","","","","","","","","","","","","","","","","","","","","",""
"","","","","","image-keyboard-response","234","454936","0.0-209.0","5dc474fd45b8f933f16d6241","665500ab8938657b03fbdba8","665795f0383316f3613518c6","1612","stimuli/0000100.jpg","0","","prediction_trial","0","","true","","0","false","true","true","true","false","true","[0]","000","100","1","","","","","","",""
"","","","","","image-keyboard-response","235","455223","0.0-210.0","5dc474fd45b8f933f16d6241","665500ab8938657b03fbdba8","665795f0383316f3613518c6","283","stimuli/00001000.jpg"," ","","feedback_trial","0","","","","","","","","","","","","","","","","","","","","",""
"","","","","","image-keyboard-response","236","456376","0.0-211.0","5dc474fd45b8f933f16d6241","665500ab8938657b03fbdba8","665795f0383316f3613518c6","1148","stimuli/2110010.jpg","2","","prediction_trial","2","","true","","2","true","true","true","true","true","true","[2]","110","010","1","","","","","","",""
"","","","","","image-keyboard-response","237","456746","0.0-212.0","5dc474fd45b8f933f16d6241","665500ab8938657b03fbdba8","665795f0383316f3613518c6","366","stimuli/21100102.jpg"," ","","feedback_trial","2","","","","","","","","","","","","","","","","","","","","",""
"","","","","","image-keyboard-response","238","458295","0.0-213.0","5dc474fd45b8f933f16d6241","665500ab8938657b03fbdba8","665795f0383316f3613518c6","1546","stimuli/1101011.jpg","1","","prediction_trial","1","","true","","1","false","false","true","true","false","false","[1]","101","011","1","","","","","","",""
"","","","","","image-keyboard-response","239","458767","0.0-214.0","5dc474fd45b8f933f16d6241","665500ab8938657b03fbdba8","665795f0383316f3613518c6","469","stimuli/11010111.jpg"," ","","feedback_trial","1","","","","","","","","","","","","","","","","","","","","",""
"","","","","","image-keyboard-response","240","460383","0.0-215.0","5dc474fd45b8f933f16d6241","665500ab8938657b03fbdba8","665795f0383316f3613518c6","1613","stimuli/0010111.jpg","2","","prediction_trial","0","","false","","0","false","false","true","true","false","false","[0]","010","111","0","","","","","","",""
"","","","","","image-keyboard-response","241","460910","0.0-216.0","5dc474fd45b8f933f16d6241","665500ab8938657b03fbdba8","665795f0383316f3613518c6","522","stimuli/00101110.jpg"," ","","feedback_trial","0","","","","","","","","","","","","","","","","","","","","",""
"","","","","","image-keyboard-response","242","462223","0.0-217.0","5dc474fd45b8f933f16d6241","665500ab8938657b03fbdba8","665795f0383316f3613518c6","1310","stimuli/0101011.jpg","0","","prediction_trial","2","","false","","0","true","true","false","false","false","false","[2,0]","101","011","0","","","","","","",""
"","","","","","image-keyboard-response","243","462656","0.0-218.0","5dc474fd45b8f933f16d6241","665500ab8938657b03fbdba8","665795f0383316f3613518c6","429","stimuli/01010112.jpg"," ","","feedback_trial","2","","","","","","","","","","","","","","","","","","","","",""
"","","","","","image-keyboard-response","244","463927","0.0-219.0","5dc474fd45b8f933f16d6241","665500ab8938657b03fbdba8","665795f0383316f3613518c6","1267","stimuli/0011101.jpg","0","","prediction_trial","0","","true","","0","false","false","true","true","false","false","[0]","011","101","1","","","","","","",""
"","","","","","image-keyboard-response","245","464295","0.0-220.0","5dc474fd45b8f933f16d6241","665500ab8938657b03fbdba8","665795f0383316f3613518c6","366","stimuli/00111010.jpg"," ","","feedback_trial","0","","","","","","","","","","","","","","","","","","","","",""
"","","","","","image-keyboard-response","246","465103","0.0-221.0","5dc474fd45b8f933f16d6241","665500ab8938657b03fbdba8","665795f0383316f3613518c6","805","stimuli/1110111.jpg","2","","prediction_trial","1","","false","","1","false","false","false","false","false","false","[1,0]","110","111","0","","","","","","",""
"","","","","","image-keyboard-response","247","465567","0.0-222.0","5dc474fd45b8f933f16d6241","665500ab8938657b03fbdba8","665795f0383316f3613518c6","460","stimuli/11101111.jpg"," ","","feedback_trial","1","","","","","","","","","","","","","","","","","","","","",""
"","","","","","image-keyboard-response","248","466518","0.0-223.0","5dc474fd45b8f933f16d6241","665500ab8938657b03fbdba8","665795f0383316f3613518c6","946","stimuli/0001111.jpg","1","","prediction_trial","0","","false","","0","false","false","true","true","false","false","[0]","001","111","0","","","","","","",""
"","","","","","image-keyboard-response","249","467038","0.0-224.0","5dc474fd45b8f933f16d6241","665500ab8938657b03fbdba8","665795f0383316f3613518c6","516","stimuli/00011110.jpg"," ","","feedback_trial","0","","","","","","","","","","","","","","","","","","","","",""
"","","","","","image-keyboard-response","250","468495","0.0-225.0","5dc474fd45b8f933f16d6241","665500ab8938657b03fbdba8","665795f0383316f3613518c6","1453","stimuli/1000011.jpg","1","","prediction_trial","1","","true","","1","false","false","true","true","false","false","[1]","000","011","1","","","","","","",""
"","","","","","image-keyboard-response","251","469046","0.0-226.0","5dc474fd45b8f933f16d6241","665500ab8938657b03fbdba8","665795f0383316f3613518c6","548","stimuli/10000111.jpg"," ","","feedback_trial","1","","","","","","","","","","","","","","","","","","","","",""
"","","","","","image-keyboard-response","252","469846","0.0-227.0","5dc474fd45b8f933f16d6241","665500ab8938657b03fbdba8","665795f0383316f3613518c6","797","stimuli/1101000.jpg","1","","prediction_trial","1","","true","","1","true","true","true","true","true","true","[1]","101","000","1","","","","","","",""
"","","","","","image-keyboard-response","253","470141","0.0-228.0","5dc474fd45b8f933f16d6241","665500ab8938657b03fbdba8","665795f0383316f3613518c6","291","stimuli/11010001.jpg"," ","","feedback_trial","1","","","","","","","","","","","","","","","","","","","","",""
"","","","","","image-keyboard-response","254","471988","0.0-229.0","5dc474fd45b8f933f16d6241","665500ab8938657b03fbdba8","665795f0383316f3613518c6","1843","stimuli/1111011.jpg","2","","prediction_trial","0","","false","","1","false","false","false","false","false","false","[0,1,2]","111","011","0","","","","","","",""
"","","","","","image-keyboard-response","255","472421","0.0-230.0","5dc474fd45b8f933f16d6241","665500ab8938657b03fbdba8","665795f0383316f3613518c6","431","stimuli/11110110.jpg"," ","","feedback_trial","0","","","","","","","","","","","","","","","","","","","","",""
"","","","","","image-keyboard-response","256","474302","0.0-231.0","5dc474fd45b8f933f16d6241","665500ab8938657b03fbdba8","665795f0383316f3613518c6","1878","stimuli/2110110.jpg","2","","prediction_trial","2","","true","","2","true","true","true","true","true","true","[2]","110","110","1","","","","","","",""
"","","","","","image-keyboard-response","257","474590","0.0-232.0","5dc474fd45b8f933f16d6241","665500ab8938657b03fbdba8","665795f0383316f3613518c6","285","stimuli/21101102.jpg"," ","","feedback_trial","2","","","","","","","","","","","","","","","","","","","","",""
"","","","","","image-keyboard-response","258","475432","0.0-233.0","5dc474fd45b8f933f16d6241","665500ab8938657b03fbdba8","665795f0383316f3613518c6","845","stimuli/0011100.jpg","0","","prediction_trial","0","","true","","0","false","true","true","true","false","true","[0]","011","100","1","","","","","","",""
"","","","","","image-keyboard-response","259","475768","0.0-234.0","5dc474fd45b8f933f16d6241","665500ab8938657b03fbdba8","665795f0383316f3613518c6","332","stimuli/00111000.jpg"," ","","feedback_trial","0","","","","","","","","","","","","","","","","","","","","",""
"","","","","","image-keyboard-response","260","477200","0.0-235.0","5dc474fd45b8f933f16d6241","665500ab8938657b03fbdba8","665795f0383316f3613518c6","1427","stimuli/1111110.jpg","1","","prediction_trial","2","","false","","1","false","false","false","false","false","false","[0,2,1]","111","110","0","","","","","","",""
"","","","","","image-keyboard-response","261","477648","0.0-236.0","5dc474fd45b8f933f16d6241","665500ab8938657b03fbdba8","665795f0383316f3613518c6","446","stimuli/11111102.jpg"," ","","feedback_trial","0","","","","","","","","","","","","","","","","","","","","",""
"","","","","","image-keyboard-response","262","478903","0.0-237.0","5dc474fd45b8f933f16d6241","665500ab8938657b03fbdba8","665795f0383316f3613518c6","1252","stimuli/1111010.jpg","1","","prediction_trial","1","","true","","1","false","true","false","false","false","false","[2,1,0]","111","010","1","","","","","","",""
"","","","","","image-keyboard-response","263","479319","0.0-238.0","5dc474fd45b8f933f16d6241","665500ab8938657b03fbdba8","665795f0383316f3613518c6","412","stimuli/11110101.jpg"," ","","feedback_trial","2","","","","","","","","","","","","","","","","","","","","",""
"","","","","","image-keyboard-response","264","480158","0.0-239.0","5dc474fd45b8f933f16d6241","665500ab8938657b03fbdba8","665795f0383316f3613518c6","837","stimuli/0010001.jpg","0","","prediction_trial","0","","true","","0","true","true","true","true","true","true","[0]","010","001","1","","","","","","",""
"","","","","","image-keyboard-response","265","480462","0.0-240.0","5dc474fd45b8f933f16d6241","665500ab8938657b03fbdba8","665795f0383316f3613518c6","302","stimuli/00100010.jpg"," ","","feedback_trial","0","","","","","","","","","","","","","","","","","","","","",""
"","","","","","image-keyboard-response","266","481134","0.0-241.0","5dc474fd45b8f933f16d6241","665500ab8938657b03fbdba8","665795f0383316f3613518c6","669","stimuli/2010100.jpg","2","","prediction_trial","2","","true","","2","true","true","true","true","true","true","[2]","010","100","1","","","","","","",""
"","","","","","image-keyboard-response","267","481456","0.0-242.0","5dc474fd45b8f933f16d6241","665500ab8938657b03fbdba8","665795f0383316f3613518c6","319","stimuli/20101002.jpg"," ","","feedback_trial","2","","","","","","","","","","","","","","","","","","","","",""
"","","","","","image-keyboard-response","268","482262","0.0-243.0","5dc474fd45b8f933f16d6241","665500ab8938657b03fbdba8","665795f0383316f3613518c6","803","stimuli/0011000.jpg","0","","prediction_trial","0","","true","","0","true","true","true","true","true","true","[0]","011","000","1","","","","","","",""
"","","","","","image-keyboard-response","269","482608","0.0-244.0","5dc474fd45b8f933f16d6241","665500ab8938657b03fbdba8","665795f0383316f3613518c6","342","stimuli/00110000.jpg"," ","","feedback_trial","0","","","","","","","","","","","","","","","","","","","","",""
"","","","","","image-keyboard-response","270","483728","0.0-245.0","5dc474fd45b8f933f16d6241","665500ab8938657b03fbdba8","665795f0383316f3613518c6","1117","stimuli/0000111.jpg","1","","prediction_trial","0","","false","","0","false","false","true","true","false","false","[0]","000","111","0","","","","","","",""
"","","","","","image-keyboard-response","271","484254","0.0-246.0","5dc474fd45b8f933f16d6241","665500ab8938657b03fbdba8","665795f0383316f3613518c6","521","stimuli/00001110.jpg"," ","","feedback_trial","0","","","","","","","","","","","","","","","","","","","","",""
"","","","","","image-keyboard-response","272","486599","0.0-247.0","5dc474fd45b8f933f16d6241","665500ab8938657b03fbdba8","665795f0383316f3613518c6","2340","stimuli/2001100.jpg","2","","prediction_trial","2","","true","","2","true","true","false","true","false","true","[2]","001","100","1","","","","","","",""
"","","","","","image-keyboard-response","273","487119","0.0-248.0","5dc474fd45b8f933f16d6241","665500ab8938657b03fbdba8","665795f0383316f3613518c6","517","stimuli/20011002.jpg"," ","","feedback_trial","2","","","","","","","","","","","","","","","","","","","","",""
"","","","","","image-keyboard-response","274","488158","0.0-249.0","5dc474fd45b8f933f16d6241","665500ab8938657b03fbdba8","665795f0383316f3613518c6","1036","stimuli/2000000.jpg","2","","prediction_trial","2","","true","","2","true","true","true","true","true","true","[2]","000","000","1","","","","","","",""
"","","","","","image-keyboard-response","275","488484","0.0-250.0","5dc474fd45b8f933f16d6241","665500ab8938657b03fbdba8","665795f0383316f3613518c6","322","stimuli/20000002.jpg"," ","","feedback_trial","2","","","","","","","","","","","","","","","","","","","","",""
"","","","","","image-keyboard-response","276","489678","0.0-251.0","5dc474fd45b8f933f16d6241","665500ab8938657b03fbdba8","665795f0383316f3613518c6","1192","stimuli/0111101.jpg","1","","prediction_trial","1","","true","","0","false","false","false","false","false","false","[0,2,1]","111","101","1","","","","","","",""
"","","","","","image-keyboard-response","277","490405","0.0-252.0","5dc474fd45b8f933f16d6241","665500ab8938657b03fbdba8","665795f0383316f3613518c6","722","stimuli/01111011.jpg"," ","","feedback_trial","0","","","","","","","","","","","","","","","","","","","","",""
"","","","","","image-keyboard-response","278","491323","0.0-253.0","5dc474fd45b8f933f16d6241","665500ab8938657b03fbdba8","665795f0383316f3613518c6","915","stimuli/2011110.jpg","2","","prediction_trial","2","","true","","2","true","true","false","false","false","false","[2,1]","011","110","1","","","","","","",""
"","","","","","image-keyboard-response","279","492332","0.0-254.0","5dc474fd45b8f933f16d6241","665500ab8938657b03fbdba8","665795f0383316f3613518c6","1006","stimuli/20111102.jpg"," ","","feedback_trial","2","","","","","","","","","","","","","","","","","","","","",""
"","","","","","image-keyboard-response","280","493437","0.0-255.0","5dc474fd45b8f933f16d6241","665500ab8938657b03fbdba8","665795f0383316f3613518c6","1103","stimuli/1101010.jpg","1","","prediction_trial","1","","true","","1","false","true","true","true","false","true","[1]","101","010","1","","","","","","",""
"","","","","","image-keyboard-response","281","493926","0.0-256.0","5dc474fd45b8f933f16d6241","665500ab8938657b03fbdba8","665795f0383316f3613518c6","485","stimuli/11010101.jpg"," ","","feedback_trial","1","","","","","","","","","","","","","","","","","","","","",""
"","","","","","image-keyboard-response","282","494741","0.0-257.0","5dc474fd45b8f933f16d6241","665500ab8938657b03fbdba8","665795f0383316f3613518c6","812","stimuli/0001110.jpg","1","","prediction_trial","0","","false","","0","false","false","true","true","false","false","[0]","001","110","0","","","","","","",""
"","","","","","image-keyboard-response","283","495213","0.0-258.0","5dc474fd45b8f933f16d6241","665500ab8938657b03fbdba8","665795f0383316f3613518c6","467","stimuli/00011100.jpg"," ","","feedback_trial","0","","","","","","","","","","","","","","","","","","","","",""
"","","","","","image-keyboard-response","284","496548","0.0-259.0","5dc474fd45b8f933f16d6241","665500ab8938657b03fbdba8","665795f0383316f3613518c6","1332","stimuli/2011011.jpg","1","","prediction_trial","2","","false","","2","false","false","false","false","false","false","[2,1]","011","011","0","","","","","","",""
"","","","","","image-keyboard-response","285","497045","0.0-260.0","5dc474fd45b8f933f16d6241","665500ab8938657b03fbdba8","665795f0383316f3613518c6","494","stimuli/20110112.jpg"," ","","feedback_trial","2","","","","","","","","","","","","","","","","","","","","",""
"","","","","","image-keyboard-response","286","498141","0.0-261.0","5dc474fd45b8f933f16d6241","665500ab8938657b03fbdba8","665795f0383316f3613518c6","1093","stimuli/1011111.jpg","0","","prediction_trial","1","","false","","1","false","false","false","false","false","false","[1,2]","011","111","0","","","","","","",""
"","","","","","image-keyboard-response","287","498670","0.0-262.0","5dc474fd45b8f933f16d6241","665500ab8938657b03fbdba8","665795f0383316f3613518c6","524","stimuli/10111111.jpg"," ","","feedback_trial","1","","","","","","","","","","","","","","","","","","","","",""
"","","","","","image-keyboard-response","288","499572","0.0-263.0","5dc474fd45b8f933f16d6241","665500ab8938657b03fbdba8","665795f0383316f3613518c6","899","stimuli/2001011.jpg","1","","prediction_trial","2","","false","","2","false","false","false","true","false","false","[2]","001","011","0","","","","","","",""
"","","","","","image-keyboard-response","289","500037","0.0-264.0","5dc474fd45b8f933f16d6241","665500ab8938657b03fbdba8","665795f0383316f3613518c6","461","stimuli/20010112.jpg"," ","","feedback_trial","2","","","","","","","","","","","","","","","","","","","","",""
"","","","","","image-keyboard-response","290","501053","0.0-265.0","5dc474fd45b8f933f16d6241","665500ab8938657b03fbdba8","665795f0383316f3613518c6","1013","stimuli/1010100.jpg","1","","prediction_trial","1","","true","","1","true","true","false","true","false","true","[1]","010","100","1","","","","","","",""
"","","","","","image-keyboard-response","291","501364","0.0-266.0","5dc474fd45b8f933f16d6241","665500ab8938657b03fbdba8","665795f0383316f3613518c6","307","stimuli/10101001.jpg"," ","","feedback_trial","1","","","","","","","","","","","","","","","","","","","","",""
"","","","","","image-keyboard-response","292","502211","0.0-267.0","5dc474fd45b8f933f16d6241","665500ab8938657b03fbdba8","665795f0383316f3613518c6","843","stimuli/2110100.jpg","2","","prediction_trial","2","","true","","2","true","true","true","true","true","true","[2]","110","100","1","","","","","","",""
"","","","","","image-keyboard-response","293","502501","0.0-268.0","5dc474fd45b8f933f16d6241","665500ab8938657b03fbdba8","665795f0383316f3613518c6","286","stimuli/21101002.jpg"," ","","feedback_trial","2","","","","","","","","","","","","","","","","","","","","",""
"","","","","","image-keyboard-response","294","503604","0.0-269.0","5dc474fd45b8f933f16d6241","665500ab8938657b03fbdba8","665795f0383316f3613518c6","1098","stimuli/0110100.jpg","0","","prediction_trial","1","","false","","0","false","true","false","false","false","false","[1,0]","110","100","0","","","","","","",""
"","","","","","image-keyboard-response","295","504052","0.0-270.0","5dc474fd45b8f933f16d6241","665500ab8938657b03fbdba8","665795f0383316f3613518c6","445","stimuli/01101001.jpg"," ","","feedback_trial","1","","","","","","","","","","","","","","","","","","","","",""
"","","","","","image-keyboard-response","296","504816","0.0-271.0","5dc474fd45b8f933f16d6241","665500ab8938657b03fbdba8","665795f0383316f3613518c6","760","stimuli/2100110.jpg","2","","prediction_trial","2","","true","","2","true","true","true","true","true","true","[2]","100","110","1","","","","","","",""
"","","","","","image-keyboard-response","297","505036","0.0-272.0","5dc474fd45b8f933f16d6241","665500ab8938657b03fbdba8","665795f0383316f3613518c6","217","stimuli/21001102.jpg"," ","","feedback_trial","2","","","","","","","","","","","","","","","","","","","","",""
"","","","","","image-keyboard-response","298","506027","0.0-273.0","5dc474fd45b8f933f16d6241","665500ab8938657b03fbdba8","665795f0383316f3613518c6","988","stimuli/0111001.jpg","1","","prediction_trial","1","","true","","0","true","true","false","false","false","false","[1,2,0]","111","001","1","","","","","","",""
"","","","","","image-keyboard-response","299","506339","0.0-274.0","5dc474fd45b8f933f16d6241","665500ab8938657b03fbdba8","665795f0383316f3613518c6","308","stimuli/01110011.jpg"," ","","feedback_trial","1","","","","","","","","","","","","","","","","","","","","",""
"","","","","","image-keyboard-response","300","507443","0.0-275.0","5dc474fd45b8f933f16d6241","665500ab8938657b03fbdba8","665795f0383316f3613518c6","1100","stimuli/2001110.jpg","1","","prediction_trial","2","","false","","2","true","true","false","true","false","true","[2]","001","110","0","","","","","","",""
"","","","","","image-keyboard-response","301","508548","0.0-276.0","5dc474fd45b8f933f16d6241","665500ab8938657b03fbdba8","665795f0383316f3613518c6","1101","stimuli/20011102.jpg"," ","","feedback_trial","2","","","","","","","","","","","","","","","","","","","","",""
"","","","","","image-keyboard-response","302","513603","0.0-277.0","5dc474fd45b8f933f16d6241","665500ab8938657b03fbdba8","665795f0383316f3613518c6","5051","stimuli/2011100.jpg","2","","prediction_trial","2","","true","","2","true","true","false","false","false","false","[1,2]","011","100","1","","","","","","",""
"","","","","","image-keyboard-response","303","514010","0.0-278.0","5dc474fd45b8f933f16d6241","665500ab8938657b03fbdba8","665795f0383316f3613518c6","404","stimuli/20111002.jpg"," ","","feedback_trial","1","","","","","","","","","","","","","","","","","","","","",""
"","","","","","image-keyboard-response","304","521153","0.0-279.0","5dc474fd45b8f933f16d6241","665500ab8938657b03fbdba8","665795f0383316f3613518c6","7139","stimuli/2110011.jpg","2","","prediction_trial","2","","true","","2","false","false","true","true","false","false","[2]","110","011","1","","","","","","",""
"","","","","","image-keyboard-response","305","521673","0.0-280.0","5dc474fd45b8f933f16d6241","665500ab8938657b03fbdba8","665795f0383316f3613518c6","517","stimuli/21100112.jpg"," ","","feedback_trial","2","","","","","","","","","","","","","","","","","","","","",""
"","","","","","image-keyboard-response","306","523369","0.0-281.0","5dc474fd45b8f933f16d6241","665500ab8938657b03fbdba8","665795f0383316f3613518c6","1693","stimuli/0111100.jpg","1","","prediction_trial","0","","false","","0","false","true","false","false","false","false","[1,2,0]","111","100","0","","","","","","",""
"","","","","","image-keyboard-response","307","524600","0.0-282.0","5dc474fd45b8f933f16d6241","665500ab8938657b03fbdba8","665795f0383316f3613518c6","1227","stimuli/01111000.jpg"," ","","feedback_trial","1","","","","","","","","","","","","","","","","","","","","",""
"","","","","","image-keyboard-response","308","528467","0.0-283.0","5dc474fd45b8f933f16d6241","665500ab8938657b03fbdba8","665795f0383316f3613518c6","3862","stimuli/0001101.jpg","0","","prediction_trial","0","","true","","0","false","false","true","true","false","false","[0]","001","101","1","","","","","","",""
"","","","","","image-keyboard-response","309","528993","0.0-284.0","5dc474fd45b8f933f16d6241","665500ab8938657b03fbdba8","665795f0383316f3613518c6","523","stimuli/00011010.jpg"," ","","feedback_trial","0","","","","","","","","","","","","","","","","","","","","",""
"","","","","","image-keyboard-response","310","530424","0.0-285.0","5dc474fd45b8f933f16d6241","665500ab8938657b03fbdba8","665795f0383316f3613518c6","1428","stimuli/0011110.jpg","0","","prediction_trial","0","","true","","0","false","false","true","true","false","false","[0]","011","110","1","","","","","","",""
"","","","","","image-keyboard-response","311","530896","0.0-286.0","5dc474fd45b8f933f16d6241","665500ab8938657b03fbdba8","665795f0383316f3613518c6","469","stimuli/00111100.jpg"," ","","feedback_trial","0","","","","","","","","","","","","","","","","","","","","",""
"","","","","","image-keyboard-response","312","533096","0.0-287.0","5dc474fd45b8f933f16d6241","665500ab8938657b03fbdba8","665795f0383316f3613518c6","2197","stimuli/0100011.jpg","0","","prediction_trial","0","","true","","0","true","true","false","true","false","true","[0]","100","011","1","","","","","","",""
"","","","","","image-keyboard-response","313","533705","0.0-288.0","5dc474fd45b8f933f16d6241","665500ab8938657b03fbdba8","665795f0383316f3613518c6","604","stimuli/01000110.jpg"," ","","feedback_trial","0","","","","","","","","","","","","","","","","","","","","",""
"","","","","","image-keyboard-response","314","535310","0.0-289.0","5dc474fd45b8f933f16d6241","665500ab8938657b03fbdba8","665795f0383316f3613518c6","1601","stimuli/0001010.jpg","0","","prediction_trial","0","","true","","0","true","true","true","true","true","true","[0]","001","010","1","","","","","","",""
"","","","","","image-keyboard-response","315","535646","0.0-290.0","5dc474fd45b8f933f16d6241","665500ab8938657b03fbdba8","665795f0383316f3613518c6","328","stimuli/00010100.jpg"," ","","feedback_trial","0","","","","","","","","","","","","","","","","","","","","",""
"","","","","","image-keyboard-response","316","537348","0.0-291.0","5dc474fd45b8f933f16d6241","665500ab8938657b03fbdba8","665795f0383316f3613518c6","1699","stimuli/0101111.jpg","1","","prediction_trial","0","","false","","0","false","false","false","false","false","false","[0,2]","101","111","0","","","","","","",""
"","","","","","image-keyboard-response","317","537773","0.0-292.0","5dc474fd45b8f933f16d6241","665500ab8938657b03fbdba8","665795f0383316f3613518c6","423","stimuli/01011110.jpg"," ","","feedback_trial","0","","","","","","","","","","","","","","","","","","","","",""
"","","","","","survey-html-form","318","552896","0.0-293.0","5dc474fd45b8f933f16d6241","665500ab8938657b03fbdba8","665795f0383316f3613518c6","15117","","{""feedback"":"""",""age"":""34"",""gender"":""Female"",""other_gender"":"""",""race"":""White"",""other_race"":"""",""ethnicity"":""Hispanic""}","","exit_survey","","","","","","","","","","","","","","","","","34","Hispanic","Female","White","0.6180555555555556","0.6180555555555556"
